[{"width":1472,"height":785,"webaudio":true,"browser":"chrome","browser_version":"141.0.0","mobile":false,"os":"Windows 10","fullscreen":true,"vsync_rate":90.77,"webcam":true,"microphone":true,"trial_type":"browser-check","trial_index":0,"plugin_version":"2.1.0","time_elapsed":667,"subject_id":"90177","group":"Group2","date":"2025-11-07T00:16:12.708Z"},{"success":true,"timeout":false,"failed_images":[],"failed_audio":[],"failed_video":[],"trial_type":"preload","trial_index":1,"plugin_version":"2.1.0","time_elapsed":4343,"subject_id":"90177","group":"Group2","date":"2025-11-07T00:16:12.708Z"},{"rt":12637,"url":"SONA_consent_memorability.html","trial_type":"external-html","trial_index":2,"plugin_version":"2.1.0","time_elapsed":17026,"subject_id":"90177","group":"Group2","date":"2025-11-07T00:16:12.708Z"},{"success":true,"rt":1357,"trial_type":"fullscreen","trial_index":3,"plugin_version":"2.1.0","time_elapsed":19387,"subject_id":"90177","group":"Group2","date":"2025-11-07T00:16:12.708Z"},{"rt":188905,"stimulus":"<div style=\"max-width: 760px; margin: auto; font-size: 20px; line-height: 1.5;\">\n      <h1 style=\"text-align:center; font-size: 30px;\">Instructions</h1>\n      <p>\n        Welcome to the study on <b>visual memory</b>. This experiment consists of <b>two phases</b>: \n        a <b>study phase</b> and a <b>test phase</b>.\n      </p>\n      <p>\n        In the study phase, you will see a series of rock images along with their category labels.\n        The images will appear one at a time.\n        <b>Your task</b> is to learn the categories to which the rock images belong \n        and to remember each image as accurately as possible.\n      </p> \n      <p>\n        After the study phase, <b>your memory will be tested</b>. \n        Additional instructions for the test phase will be provided at that time.\n      </p>\n      <p>\n        If your computer has multiple <b>language settings</b> (e.g., English and another language),\n        please make sure it is set to English before starting.\n      </p>\n      <p>\n        You can track your progress using the <b>completion bar</b> at the top of the screen. \n        Please note that the bar will refresh when the test phase begins \n        to give you an accurate sense of your progress in both phases.\n      </p> \n      <p>\n        Press the button below when you are ready to begin.\n      </p>\n    </div>","response":0,"trial_type":"html-button-response","trial_index":4,"plugin_version":"2.1.0","time_elapsed":208294,"subject_id":"90177","group":"Group2","date":"2025-11-07T00:16:12.708Z"},{"rt":null,"stimulus":"<p style=\"font-size: 50px; margin: 0; text-align: center;\">+</p>","response":null,"trial_type":"html-keyboard-response","trial_index":5,"plugin_version":"2.1.0","time_elapsed":209298,"subject_id":"90177","group":"Group2","date":"2025-11-07T00:16:12.708Z"},{"task":"memory_phase","broad_category":"I","image_png":"I_Pegmatite_05.png","image_id":101,"category_name":"Pegmatite","category":7,"distinct_rating":6.22,"rt":null,"stimulus":"Stimuli_Rocks480/I_Pegmatite_05.png","response":null,"trial_type":"image-keyboard-response","trial_index":6,"plugin_version":"2.1.0","time_elapsed":211806,"subject_id":"90177","group":"Group2","date":"2025-11-07T00:16:12.708Z"},{"rt":null,"stimulus":"<p style=\"font-size: 50px; margin: 0; text-align: center;\">+</p>","response":null,"trial_type":"html-keyboard-response","trial_index":7,"plugin_version":"2.1.0","time_elapsed":212821,"subject_id":"90177","group":"Group2","date":"2025-11-07T00:16:12.708Z"},{"task":"memory_phase","broad_category":"S","image_png":"S_Micrite_12.png","image_id":412,"category_name":"Micrite","category":26,"distinct_rating":3.14,"rt":null,"stimulus":"Stimuli_Rocks480/S_Micrite_12.png","response":null,"trial_type":"image-keyboard-response","trial_index":8,"plugin_version":"2.1.0","time_elapsed":215336,"subject_id":"90177","group":"Group2","date":"2025-11-07T00:16:12.708Z"},{"rt":null,"stimulus":"<p style=\"font-size: 50px; margin: 0; text-align: center;\">+</p>","response":null,"trial_type":"html-keyboard-response","trial_index":9,"plugin_version":"2.1.0","time_elapsed":216348,"subject_id":"90177","group":"Group2","date":"2025-11-07T00:16:12.708Z"},{"task":"memory_phase","broad_category":"M","image_png":"M_Amphibolite_05.png","image_id":165,"category_name":"Amphibolite","category":11,"distinct_rating":3.59,"rt":null,"stimulus":"Stimuli_Rocks480/M_Amphibolite_05.png","response":null,"trial_type":"image-keyboard-response","trial_index":10,"plugin_version":"2.1.0","time_elapsed":218862,"subject_id":"90177","group":"Group2","date":"2025-11-07T00:16:12.708Z"},{"rt":null,"stimulus":"<p style=\"font-size: 50px; margin: 0; text-align: center;\">+</p>","response":null,"trial_type":"html-keyboard-response","trial_index":11,"plugin_version":"2.1.0","time_elapsed":219878,"subject_id":"90177","group":"Group2","date":"2025-11-07T00:16:12.708Z"},{"task":"memory_phase","broad_category":"S","image_png":"S_Conglomerate_05.png","image_id":373,"category_name":"Conglomerate","category":24,"distinct_rating":7.32,"rt":null,"stimulus":"Stimuli_Rocks480/S_Conglomerate_05.png","response":null,"trial_type":"image-keyboard-response","trial_index":12,"plugin_version":"2.1.0","time_elapsed":222385,"subject_id":"90177","group":"Group2","date":"2025-11-07T00:16:12.708Z"},{"rt":null,"stimulus":"<p style=\"font-size: 50px; margin: 0; text-align: center;\">+</p>","response":null,"trial_type":"html-keyboard-response","trial_index":13,"plugin_version":"2.1.0","time_elapsed":223393,"subject_id":"90177","group":"Group2","date":"2025-11-07T00:16:12.708Z"},{"task":"memory_phase","broad_category":"I","image_png":"I_Rhyolite_04.png","image_id":148,"category_name":"Rhyolite","category":10,"distinct_rating":3.73,"rt":null,"stimulus":"Stimuli_Rocks480/I_Rhyolite_04.png","response":null,"trial_type":"image-keyboard-response","trial_index":14,"plugin_version":"2.1.0","time_elapsed":225900,"subject_id":"90177","group":"Group2","date":"2025-11-07T00:16:12.708Z"},{"rt":null,"stimulus":"<p style=\"font-size: 50px; margin: 0; text-align: center;\">+</p>","response":null,"trial_type":"html-keyboard-response","trial_index":15,"plugin_version":"2.1.0","time_elapsed":226903,"subject_id":"90177","group":"Group2","date":"2025-11-07T00:16:12.708Z"},{"task":"memory_phase","broad_category":"I","image_png":"I_Gabbro_02.png","image_id":50,"category_name":"Gabbro","category":4,"distinct_rating":2.73,"rt":null,"stimulus":"Stimuli_Rocks480/I_Gabbro_02.png","response":null,"trial_type":"image-keyboard-response","trial_index":16,"plugin_version":"2.1.0","time_elapsed":229417,"subject_id":"90177","group":"Group2","date":"2025-11-07T00:16:12.708Z"},{"rt":null,"stimulus":"<p style=\"font-size: 50px; margin: 0; text-align: center;\">+</p>","response":null,"trial_type":"html-keyboard-response","trial_index":17,"plugin_version":"2.1.0","time_elapsed":230430,"subject_id":"90177","group":"Group2","date":"2025-11-07T00:16:12.708Z"},{"task":"memory_phase","broad_category":"I","image_png":"I_Basalt_12.png","image_id":28,"category_name":"Basalt","category":2,"distinct_rating":4.08,"rt":null,"stimulus":"Stimuli_Rocks480/I_Basalt_12.png","response":null,"trial_type":"image-keyboard-response","trial_index":18,"plugin_version":"2.1.0","time_elapsed":232939,"subject_id":"90177","group":"Group2","date":"2025-11-07T00:16:12.708Z"},{"rt":null,"stimulus":"<p style=\"font-size: 50px; margin: 0; text-align: center;\">+</p>","response":null,"trial_type":"html-keyboard-response","trial_index":19,"plugin_version":"2.1.0","time_elapsed":233954,"subject_id":"90177","group":"Group2","date":"2025-11-07T00:16:12.708Z"},{"task":"memory_phase","broad_category":"I","image_png":"I_Rhyolite_02.png","image_id":146,"category_name":"Rhyolite","category":10,"distinct_rating":3.26,"rt":null,"stimulus":"Stimuli_Rocks480/I_Rhyolite_02.png","response":null,"trial_type":"image-keyboard-response","trial_index":20,"plugin_version":"2.1.0","time_elapsed":236464,"subject_id":"90177","group":"Group2","date":"2025-11-07T00:16:12.708Z"},{"rt":null,"stimulus":"<p style=\"font-size: 50px; margin: 0; text-align: center;\">+</p>","response":null,"trial_type":"html-keyboard-response","trial_index":21,"plugin_version":"2.1.0","time_elapsed":237476,"subject_id":"90177","group":"Group2","date":"2025-11-07T00:16:12.708Z"},{"task":"memory_phase","broad_category":"S","image_png":"S_Bituminous Coal_06.png","image_id":326,"category_name":"Bituminous Coal","category":21,"distinct_rating":3.4,"rt":null,"stimulus":"Stimuli_Rocks480/S_Bituminous Coal_06.png","response":null,"trial_type":"image-keyboard-response","trial_index":22,"plugin_version":"2.1.0","time_elapsed":239982,"subject_id":"90177","group":"Group2","date":"2025-11-07T00:16:12.708Z"},{"rt":null,"stimulus":"<p style=\"font-size: 50px; margin: 0; text-align: center;\">+</p>","response":null,"trial_type":"html-keyboard-response","trial_index":23,"plugin_version":"2.1.0","time_elapsed":240997,"subject_id":"90177","group":"Group2","date":"2025-11-07T00:16:12.708Z"},{"task":"memory_phase","broad_category":"I","image_png":"I_Peridotite_08.png","image_id":120,"category_name":"Peridotite","category":8,"distinct_rating":4.77,"rt":null,"stimulus":"Stimuli_Rocks480/I_Peridotite_08.png","response":null,"trial_type":"image-keyboard-response","trial_index":24,"plugin_version":"2.1.0","time_elapsed":243510,"subject_id":"90177","group":"Group2","date":"2025-11-07T00:16:12.708Z"},{"rt":null,"stimulus":"<p style=\"font-size: 50px; margin: 0; text-align: center;\">+</p>","response":null,"trial_type":"html-keyboard-response","trial_index":25,"plugin_version":"2.1.0","time_elapsed":244523,"subject_id":"90177","group":"Group2","date":"2025-11-07T00:16:12.708Z"},{"task":"memory_phase","broad_category":"M","image_png":"M_Quartzite_14.png","image_id":286,"category_name":"Quartzite","category":18,"distinct_rating":3.3,"rt":null,"stimulus":"Stimuli_Rocks480/M_Quartzite_14.png","response":null,"trial_type":"image-keyboard-response","trial_index":26,"plugin_version":"2.1.0","time_elapsed":247031,"subject_id":"90177","group":"Group2","date":"2025-11-07T00:16:12.708Z"},{"rt":null,"stimulus":"<p style=\"font-size: 50px; margin: 0; text-align: center;\">+</p>","response":null,"trial_type":"html-keyboard-response","trial_index":27,"plugin_version":"2.1.0","time_elapsed":248045,"subject_id":"90177","group":"Group2","date":"2025-11-07T00:16:12.708Z"},{"task":"memory_phase","broad_category":"M","image_png":"M_Migmatite_05.png","image_id":245,"category_name":"Migmatite","category":16,"distinct_rating":4.03,"rt":null,"stimulus":"Stimuli_Rocks480/M_Migmatite_05.png","response":null,"trial_type":"image-keyboard-response","trial_index":28,"plugin_version":"2.1.0","time_elapsed":250551,"subject_id":"90177","group":"Group2","date":"2025-11-07T00:16:12.708Z"},{"rt":null,"stimulus":"<p style=\"font-size: 50px; margin: 0; text-align: center;\">+</p>","response":null,"trial_type":"html-keyboard-response","trial_index":29,"plugin_version":"2.1.0","time_elapsed":251556,"subject_id":"90177","group":"Group2","date":"2025-11-07T00:16:12.708Z"},{"task":"memory_phase","broad_category":"M","image_png":"M_Slate_09.png","image_id":313,"category_name":"Slate","category":20,"distinct_rating":3.6,"rt":null,"stimulus":"Stimuli_Rocks480/M_Slate_09.png","response":null,"trial_type":"image-keyboard-response","trial_index":30,"plugin_version":"2.1.0","time_elapsed":254062,"subject_id":"90177","group":"Group2","date":"2025-11-07T00:16:12.708Z"},{"rt":null,"stimulus":"<p style=\"font-size: 50px; margin: 0; text-align: center;\">+</p>","response":null,"trial_type":"html-keyboard-response","trial_index":31,"plugin_version":"2.1.0","time_elapsed":255071,"subject_id":"90177","group":"Group2","date":"2025-11-07T00:16:12.708Z"},{"task":"memory_phase","broad_category":"S","image_png":"S_Bituminous Coal_04.png","image_id":324,"category_name":"Bituminous Coal","category":21,"distinct_rating":4.93,"rt":null,"stimulus":"Stimuli_Rocks480/S_Bituminous Coal_04.png","response":null,"trial_type":"image-keyboard-response","trial_index":32,"plugin_version":"2.1.0","time_elapsed":257579,"subject_id":"90177","group":"Group2","date":"2025-11-07T00:16:12.708Z"},{"rt":null,"stimulus":"<p style=\"font-size: 50px; margin: 0; text-align: center;\">+</p>","response":null,"trial_type":"html-keyboard-response","trial_index":33,"plugin_version":"2.1.0","time_elapsed":258587,"subject_id":"90177","group":"Group2","date":"2025-11-07T00:16:12.708Z"},{"task":"memory_phase","broad_category":"S","image_png":"S_Micrite_05.png","image_id":405,"category_name":"Micrite","category":26,"distinct_rating":8.21,"rt":null,"stimulus":"Stimuli_Rocks480/S_Micrite_05.png","response":null,"trial_type":"image-keyboard-response","trial_index":34,"plugin_version":"2.1.0","time_elapsed":261093,"subject_id":"90177","group":"Group2","date":"2025-11-07T00:16:12.708Z"},{"rt":null,"stimulus":"<p style=\"font-size: 50px; margin: 0; text-align: center;\">+</p>","response":null,"trial_type":"html-keyboard-response","trial_index":35,"plugin_version":"2.1.0","time_elapsed":262108,"subject_id":"90177","group":"Group2","date":"2025-11-07T00:16:12.708Z"},{"task":"memory_phase","broad_category":"M","image_png":"M_Hornfels_13.png","image_id":221,"category_name":"Hornfels","category":14,"distinct_rating":3.2,"rt":null,"stimulus":"Stimuli_Rocks480/M_Hornfels_13.png","response":null,"trial_type":"image-keyboard-response","trial_index":36,"plugin_version":"2.1.0","time_elapsed":264613,"subject_id":"90177","group":"Group2","date":"2025-11-07T00:16:12.708Z"},{"rt":null,"stimulus":"<p style=\"font-size: 50px; margin: 0; text-align: center;\">+</p>","response":null,"trial_type":"html-keyboard-response","trial_index":37,"plugin_version":"2.1.0","time_elapsed":265619,"subject_id":"90177","group":"Group2","date":"2025-11-07T00:16:12.708Z"},{"task":"memory_phase","broad_category":"S","image_png":"S_Bituminous Coal_16.png","image_id":336,"category_name":"Bituminous Coal","category":21,"distinct_rating":4.3,"rt":null,"stimulus":"Stimuli_Rocks480/S_Bituminous Coal_16.png","response":null,"trial_type":"image-keyboard-response","trial_index":38,"plugin_version":"2.1.0","time_elapsed":268121,"subject_id":"90177","group":"Group2","date":"2025-11-07T00:16:12.708Z"},{"rt":null,"stimulus":"<p style=\"font-size: 50px; margin: 0; text-align: center;\">+</p>","response":null,"trial_type":"html-keyboard-response","trial_index":39,"plugin_version":"2.1.0","time_elapsed":269137,"subject_id":"90177","group":"Group2","date":"2025-11-07T00:16:12.708Z"},{"task":"memory_phase","broad_category":"I","image_png":"I_Andesite_14.png","image_id":14,"category_name":"Andesite","category":1,"distinct_rating":4.47,"rt":null,"stimulus":"Stimuli_Rocks480/I_Andesite_14.png","response":null,"trial_type":"image-keyboard-response","trial_index":40,"plugin_version":"2.1.0","time_elapsed":271653,"subject_id":"90177","group":"Group2","date":"2025-11-07T00:16:12.708Z"},{"rt":null,"stimulus":"<p style=\"font-size: 50px; margin: 0; text-align: center;\">+</p>","response":null,"trial_type":"html-keyboard-response","trial_index":41,"plugin_version":"2.1.0","time_elapsed":272657,"subject_id":"90177","group":"Group2","date":"2025-11-07T00:16:12.708Z"},{"task":"memory_phase","broad_category":"S","image_png":"S_Shale_03.png","image_id":467,"category_name":"Shale","category":30,"distinct_rating":1.95,"rt":null,"stimulus":"Stimuli_Rocks480/S_Shale_03.png","response":null,"trial_type":"image-keyboard-response","trial_index":42,"plugin_version":"2.1.0","time_elapsed":275165,"subject_id":"90177","group":"Group2","date":"2025-11-07T00:16:12.708Z"},{"rt":null,"stimulus":"<p style=\"font-size: 50px; margin: 0; text-align: center;\">+</p>","response":null,"trial_type":"html-keyboard-response","trial_index":43,"plugin_version":"2.1.0","time_elapsed":276182,"subject_id":"90177","group":"Group2","date":"2025-11-07T00:16:12.708Z"},{"task":"memory_phase","broad_category":"M","image_png":"M_Hornfels_14.png","image_id":222,"category_name":"Hornfels","category":14,"distinct_rating":2.3,"rt":null,"stimulus":"Stimuli_Rocks480/M_Hornfels_14.png","response":null,"trial_type":"image-keyboard-response","trial_index":44,"plugin_version":"2.1.0","time_elapsed":278697,"subject_id":"90177","group":"Group2","date":"2025-11-07T00:16:12.708Z"},{"rt":null,"stimulus":"<p style=\"font-size: 50px; margin: 0; text-align: center;\">+</p>","response":null,"trial_type":"html-keyboard-response","trial_index":45,"plugin_version":"2.1.0","time_elapsed":279702,"subject_id":"90177","group":"Group2","date":"2025-11-07T00:16:12.708Z"},{"task":"memory_phase","broad_category":"M","image_png":"M_Schist_04.png","image_id":292,"category_name":"Schist","category":19,"distinct_rating":3.63,"rt":null,"stimulus":"Stimuli_Rocks480/M_Schist_04.png","response":null,"trial_type":"image-keyboard-response","trial_index":46,"plugin_version":"2.1.0","time_elapsed":282215,"subject_id":"90177","group":"Group2","date":"2025-11-07T00:16:12.708Z"},{"rt":null,"stimulus":"<p style=\"font-size: 50px; margin: 0; text-align: center;\">+</p>","response":null,"trial_type":"html-keyboard-response","trial_index":47,"plugin_version":"2.1.0","time_elapsed":283230,"subject_id":"90177","group":"Group2","date":"2025-11-07T00:16:12.708Z"},{"task":"memory_phase","broad_category":"I","image_png":"I_Peridotite_14.png","image_id":126,"category_name":"Peridotite","category":8,"distinct_rating":3.64,"rt":null,"stimulus":"Stimuli_Rocks480/I_Peridotite_14.png","response":null,"trial_type":"image-keyboard-response","trial_index":48,"plugin_version":"2.1.0","time_elapsed":285736,"subject_id":"90177","group":"Group2","date":"2025-11-07T00:16:12.708Z"},{"rt":null,"stimulus":"<p style=\"font-size: 50px; margin: 0; text-align: center;\">+</p>","response":null,"trial_type":"html-keyboard-response","trial_index":49,"plugin_version":"2.1.0","time_elapsed":286747,"subject_id":"90177","group":"Group2","date":"2025-11-07T00:16:12.708Z"},{"task":"memory_phase","broad_category":"I","image_png":"I_Pumice_06.png","image_id":134,"category_name":"Pumice","category":9,"distinct_rating":4.16,"rt":null,"stimulus":"Stimuli_Rocks480/I_Pumice_06.png","response":null,"trial_type":"image-keyboard-response","trial_index":50,"plugin_version":"2.1.0","time_elapsed":289253,"subject_id":"90177","group":"Group2","date":"2025-11-07T00:16:12.708Z"},{"rt":null,"stimulus":"<p style=\"font-size: 50px; margin: 0; text-align: center;\">+</p>","response":null,"trial_type":"html-keyboard-response","trial_index":51,"plugin_version":"2.1.0","time_elapsed":290266,"subject_id":"90177","group":"Group2","date":"2025-11-07T00:16:12.708Z"},{"task":"memory_phase","broad_category":"I","image_png":"I_Diorite_11.png","image_id":43,"category_name":"Diorite","category":3,"distinct_rating":3.36,"rt":null,"stimulus":"Stimuli_Rocks480/I_Diorite_11.png","response":null,"trial_type":"image-keyboard-response","trial_index":52,"plugin_version":"2.1.0","time_elapsed":292773,"subject_id":"90177","group":"Group2","date":"2025-11-07T00:16:12.708Z"},{"rt":null,"stimulus":"<p style=\"font-size: 50px; margin: 0; text-align: center;\">+</p>","response":null,"trial_type":"html-keyboard-response","trial_index":53,"plugin_version":"2.1.0","time_elapsed":293786,"subject_id":"90177","group":"Group2","date":"2025-11-07T00:16:12.708Z"},{"task":"memory_phase","broad_category":"M","image_png":"M_Anthracite_10.png","image_id":186,"category_name":"Anthracite","category":12,"distinct_rating":5.19,"rt":null,"stimulus":"Stimuli_Rocks480/M_Anthracite_10.png","response":null,"trial_type":"image-keyboard-response","trial_index":54,"plugin_version":"2.1.0","time_elapsed":296298,"subject_id":"90177","group":"Group2","date":"2025-11-07T00:16:12.708Z"},{"rt":null,"stimulus":"<p style=\"font-size: 50px; margin: 0; text-align: center;\">+</p>","response":null,"trial_type":"html-keyboard-response","trial_index":55,"plugin_version":"2.1.0","time_elapsed":297310,"subject_id":"90177","group":"Group2","date":"2025-11-07T00:16:12.708Z"},{"task":"memory_phase","broad_category":"I","image_png":"I_Pegmatite_15.png","image_id":111,"category_name":"Pegmatite","category":7,"distinct_rating":7.02,"rt":null,"stimulus":"Stimuli_Rocks480/I_Pegmatite_15.png","response":null,"trial_type":"image-keyboard-response","trial_index":56,"plugin_version":"2.1.0","time_elapsed":299818,"subject_id":"90177","group":"Group2","date":"2025-11-07T00:16:12.708Z"},{"rt":null,"stimulus":"<p style=\"font-size: 50px; margin: 0; text-align: center;\">+</p>","response":null,"trial_type":"html-keyboard-response","trial_index":57,"plugin_version":"2.1.0","time_elapsed":300830,"subject_id":"90177","group":"Group2","date":"2025-11-07T00:16:12.708Z"},{"task":"memory_phase","broad_category":"M","image_png":"M_Quartzite_02.png","image_id":274,"category_name":"Quartzite","category":18,"distinct_rating":2.52,"rt":null,"stimulus":"Stimuli_Rocks480/M_Quartzite_02.png","response":null,"trial_type":"image-keyboard-response","trial_index":58,"plugin_version":"2.1.0","time_elapsed":303340,"subject_id":"90177","group":"Group2","date":"2025-11-07T00:16:12.708Z"},{"rt":null,"stimulus":"<p style=\"font-size: 50px; margin: 0; text-align: center;\">+</p>","response":null,"trial_type":"html-keyboard-response","trial_index":59,"plugin_version":"2.1.0","time_elapsed":304355,"subject_id":"90177","group":"Group2","date":"2025-11-07T00:16:12.708Z"},{"task":"memory_phase","broad_category":"S","image_png":"S_Rock Gypsum_14.png","image_id":430,"category_name":"Rock Gypsum","category":27,"distinct_rating":7.01,"rt":null,"stimulus":"Stimuli_Rocks480/S_Rock Gypsum_14.png","response":null,"trial_type":"image-keyboard-response","trial_index":60,"plugin_version":"2.1.0","time_elapsed":306868,"subject_id":"90177","group":"Group2","date":"2025-11-07T00:16:12.708Z"},{"rt":null,"stimulus":"<p style=\"font-size: 50px; margin: 0; text-align: center;\">+</p>","response":null,"trial_type":"html-keyboard-response","trial_index":61,"plugin_version":"2.1.0","time_elapsed":307873,"subject_id":"90177","group":"Group2","date":"2025-11-07T00:16:12.708Z"},{"task":"memory_phase","broad_category":"I","image_png":"I_Granite_01.png","image_id":65,"category_name":"Granite","category":5,"distinct_rating":5.23,"rt":null,"stimulus":"Stimuli_Rocks480/I_Granite_01.png","response":null,"trial_type":"image-keyboard-response","trial_index":62,"plugin_version":"2.1.0","time_elapsed":310378,"subject_id":"90177","group":"Group2","date":"2025-11-07T00:16:12.708Z"},{"rt":null,"stimulus":"<p style=\"font-size: 50px; margin: 0; text-align: center;\">+</p>","response":null,"trial_type":"html-keyboard-response","trial_index":63,"plugin_version":"2.1.0","time_elapsed":311391,"subject_id":"90177","group":"Group2","date":"2025-11-07T00:16:12.708Z"},{"task":"memory_phase","broad_category":"S","image_png":"S_Dolomite_02.png","image_id":386,"category_name":"Dolomite","category":25,"distinct_rating":5.49,"rt":null,"stimulus":"Stimuli_Rocks480/S_Dolomite_02.png","response":null,"trial_type":"image-keyboard-response","trial_index":64,"plugin_version":"2.1.0","time_elapsed":313908,"subject_id":"90177","group":"Group2","date":"2025-11-07T00:16:12.708Z"},{"rt":null,"stimulus":"<p style=\"font-size: 50px; margin: 0; text-align: center;\">+</p>","response":null,"trial_type":"html-keyboard-response","trial_index":65,"plugin_version":"2.1.0","time_elapsed":314921,"subject_id":"90177","group":"Group2","date":"2025-11-07T00:16:12.708Z"},{"task":"memory_phase","broad_category":"S","image_png":"S_Chert_03.png","image_id":355,"category_name":"Chert","category":23,"distinct_rating":5.3,"rt":null,"stimulus":"Stimuli_Rocks480/S_Chert_03.png","response":null,"trial_type":"image-keyboard-response","trial_index":66,"plugin_version":"2.1.0","time_elapsed":317432,"subject_id":"90177","group":"Group2","date":"2025-11-07T00:16:12.708Z"},{"rt":null,"stimulus":"<p style=\"font-size: 50px; margin: 0; text-align: center;\">+</p>","response":null,"trial_type":"html-keyboard-response","trial_index":67,"plugin_version":"2.1.0","time_elapsed":318447,"subject_id":"90177","group":"Group2","date":"2025-11-07T00:16:12.708Z"},{"task":"memory_phase","broad_category":"I","image_png":"I_Peridotite_13.png","image_id":125,"category_name":"Peridotite","category":8,"distinct_rating":7.28,"rt":null,"stimulus":"Stimuli_Rocks480/I_Peridotite_13.png","response":null,"trial_type":"image-keyboard-response","trial_index":68,"plugin_version":"2.1.0","time_elapsed":320953,"subject_id":"90177","group":"Group2","date":"2025-11-07T00:16:12.708Z"},{"rt":null,"stimulus":"<p style=\"font-size: 50px; margin: 0; text-align: center;\">+</p>","response":null,"trial_type":"html-keyboard-response","trial_index":69,"plugin_version":"2.1.0","time_elapsed":321968,"subject_id":"90177","group":"Group2","date":"2025-11-07T00:16:12.708Z"},{"task":"memory_phase","broad_category":"M","image_png":"M_Slate_14.png","image_id":318,"category_name":"Slate","category":20,"distinct_rating":2.58,"rt":null,"stimulus":"Stimuli_Rocks480/M_Slate_14.png","response":null,"trial_type":"image-keyboard-response","trial_index":70,"plugin_version":"2.1.0","time_elapsed":324476,"subject_id":"90177","group":"Group2","date":"2025-11-07T00:16:12.708Z"},{"rt":null,"stimulus":"<p style=\"font-size: 50px; margin: 0; text-align: center;\">+</p>","response":null,"trial_type":"html-keyboard-response","trial_index":71,"plugin_version":"2.1.0","time_elapsed":325484,"subject_id":"90177","group":"Group2","date":"2025-11-07T00:16:12.708Z"},{"task":"memory_phase","broad_category":"M","image_png":"M_Anthracite_05.png","image_id":181,"category_name":"Anthracite","category":12,"distinct_rating":4.71,"rt":null,"stimulus":"Stimuli_Rocks480/M_Anthracite_05.png","response":null,"trial_type":"image-keyboard-response","trial_index":72,"plugin_version":"2.1.0","time_elapsed":327994,"subject_id":"90177","group":"Group2","date":"2025-11-07T00:16:12.708Z"},{"rt":null,"stimulus":"<p style=\"font-size: 50px; margin: 0; text-align: center;\">+</p>","response":null,"trial_type":"html-keyboard-response","trial_index":73,"plugin_version":"2.1.0","time_elapsed":329000,"subject_id":"90177","group":"Group2","date":"2025-11-07T00:16:12.708Z"},{"task":"memory_phase","broad_category":"S","image_png":"S_Sandstone_13.png","image_id":461,"category_name":"Sandstone","category":29,"distinct_rating":2.94,"rt":null,"stimulus":"Stimuli_Rocks480/S_Sandstone_13.png","response":null,"trial_type":"image-keyboard-response","trial_index":74,"plugin_version":"2.1.0","time_elapsed":331516,"subject_id":"90177","group":"Group2","date":"2025-11-07T00:16:12.708Z"},{"rt":null,"stimulus":"<p style=\"font-size: 50px; margin: 0; text-align: center;\">+</p>","response":null,"trial_type":"html-keyboard-response","trial_index":75,"plugin_version":"2.1.0","time_elapsed":332524,"subject_id":"90177","group":"Group2","date":"2025-11-07T00:16:12.708Z"},{"task":"memory_phase","broad_category":"I","image_png":"I_Rhyolite_06.png","image_id":150,"category_name":"Rhyolite","category":10,"distinct_rating":5,"rt":null,"stimulus":"Stimuli_Rocks480/I_Rhyolite_06.png","response":null,"trial_type":"image-keyboard-response","trial_index":76,"plugin_version":"2.1.0","time_elapsed":335034,"subject_id":"90177","group":"Group2","date":"2025-11-07T00:16:12.708Z"},{"rt":null,"stimulus":"<p style=\"font-size: 50px; margin: 0; text-align: center;\">+</p>","response":null,"trial_type":"html-keyboard-response","trial_index":77,"plugin_version":"2.1.0","time_elapsed":336047,"subject_id":"90177","group":"Group2","date":"2025-11-07T00:16:12.708Z"},{"task":"memory_phase","broad_category":"M","image_png":"M_Marble_04.png","image_id":228,"category_name":"Marble","category":15,"distinct_rating":3.15,"rt":null,"stimulus":"Stimuli_Rocks480/M_Marble_04.png","response":null,"trial_type":"image-keyboard-response","trial_index":78,"plugin_version":"2.1.0","time_elapsed":338552,"subject_id":"90177","group":"Group2","date":"2025-11-07T00:16:12.708Z"},{"rt":null,"stimulus":"<p style=\"font-size: 50px; margin: 0; text-align: center;\">+</p>","response":null,"trial_type":"html-keyboard-response","trial_index":79,"plugin_version":"2.1.0","time_elapsed":339567,"subject_id":"90177","group":"Group2","date":"2025-11-07T00:16:12.708Z"},{"task":"memory_phase","broad_category":"M","image_png":"M_Phyllite_04.png","image_id":260,"category_name":"Phyllite","category":17,"distinct_rating":4.37,"rt":null,"stimulus":"Stimuli_Rocks480/M_Phyllite_04.png","response":null,"trial_type":"image-keyboard-response","trial_index":80,"plugin_version":"2.1.0","time_elapsed":342073,"subject_id":"90177","group":"Group2","date":"2025-11-07T00:16:12.708Z"},{"rt":null,"stimulus":"<p style=\"font-size: 50px; margin: 0; text-align: center;\">+</p>","response":null,"trial_type":"html-keyboard-response","trial_index":81,"plugin_version":"2.1.0","time_elapsed":343087,"subject_id":"90177","group":"Group2","date":"2025-11-07T00:16:12.708Z"},{"task":"memory_phase","broad_category":"M","image_png":"M_Phyllite_11.png","image_id":267,"category_name":"Phyllite","category":17,"distinct_rating":3.56,"rt":null,"stimulus":"Stimuli_Rocks480/M_Phyllite_11.png","response":null,"trial_type":"image-keyboard-response","trial_index":82,"plugin_version":"2.1.0","time_elapsed":345595,"subject_id":"90177","group":"Group2","date":"2025-11-07T00:16:12.708Z"},{"rt":null,"stimulus":"<p style=\"font-size: 50px; margin: 0; text-align: center;\">+</p>","response":null,"trial_type":"html-keyboard-response","trial_index":83,"plugin_version":"2.1.0","time_elapsed":346596,"subject_id":"90177","group":"Group2","date":"2025-11-07T00:16:12.708Z"},{"task":"memory_phase","broad_category":"I","image_png":"I_Diorite_02.png","image_id":34,"category_name":"Diorite","category":3,"distinct_rating":4.9,"rt":null,"stimulus":"Stimuli_Rocks480/I_Diorite_02.png","response":null,"trial_type":"image-keyboard-response","trial_index":84,"plugin_version":"2.1.0","time_elapsed":349105,"subject_id":"90177","group":"Group2","date":"2025-11-07T00:16:12.708Z"},{"rt":null,"stimulus":"<p style=\"font-size: 50px; margin: 0; text-align: center;\">+</p>","response":null,"trial_type":"html-keyboard-response","trial_index":85,"plugin_version":"2.1.0","time_elapsed":350110,"subject_id":"90177","group":"Group2","date":"2025-11-07T00:16:12.708Z"},{"task":"memory_phase","broad_category":"M","image_png":"M_Schist_09.png","image_id":297,"category_name":"Schist","category":19,"distinct_rating":3.31,"rt":null,"stimulus":"Stimuli_Rocks480/M_Schist_09.png","response":null,"trial_type":"image-keyboard-response","trial_index":86,"plugin_version":"2.1.0","time_elapsed":352621,"subject_id":"90177","group":"Group2","date":"2025-11-07T00:16:12.708Z"},{"rt":null,"stimulus":"<p style=\"font-size: 50px; margin: 0; text-align: center;\">+</p>","response":null,"trial_type":"html-keyboard-response","trial_index":87,"plugin_version":"2.1.0","time_elapsed":353637,"subject_id":"90177","group":"Group2","date":"2025-11-07T00:16:12.708Z"},{"task":"memory_phase","broad_category":"S","image_png":"S_Breccia_05.png","image_id":341,"category_name":"Breccia","category":22,"distinct_rating":6.25,"rt":null,"stimulus":"Stimuli_Rocks480/S_Breccia_05.png","response":null,"trial_type":"image-keyboard-response","trial_index":88,"plugin_version":"2.1.0","time_elapsed":356143,"subject_id":"90177","group":"Group2","date":"2025-11-07T00:16:12.708Z"},{"rt":null,"stimulus":"<p style=\"font-size: 50px; margin: 0; text-align: center;\">+</p>","response":null,"trial_type":"html-keyboard-response","trial_index":89,"plugin_version":"2.1.0","time_elapsed":357156,"subject_id":"90177","group":"Group2","date":"2025-11-07T00:16:12.708Z"},{"task":"memory_phase","broad_category":"S","image_png":"S_Dolomite_03.png","image_id":387,"category_name":"Dolomite","category":25,"distinct_rating":3.42,"rt":null,"stimulus":"Stimuli_Rocks480/S_Dolomite_03.png","response":null,"trial_type":"image-keyboard-response","trial_index":90,"plugin_version":"2.1.0","time_elapsed":359664,"subject_id":"90177","group":"Group2","date":"2025-11-07T00:16:12.708Z"},{"rt":null,"stimulus":"<p style=\"font-size: 50px; margin: 0; text-align: center;\">+</p>","response":null,"trial_type":"html-keyboard-response","trial_index":91,"plugin_version":"2.1.0","time_elapsed":360668,"subject_id":"90177","group":"Group2","date":"2025-11-07T00:16:12.708Z"},{"task":"memory_phase","broad_category":"I","image_png":"I_Obsidian_14.png","image_id":94,"category_name":"Obsidian","category":6,"distinct_rating":5.17,"rt":null,"stimulus":"Stimuli_Rocks480/I_Obsidian_14.png","response":null,"trial_type":"image-keyboard-response","trial_index":92,"plugin_version":"2.1.0","time_elapsed":363172,"subject_id":"90177","group":"Group2","date":"2025-11-07T00:16:12.708Z"},{"rt":null,"stimulus":"<p style=\"font-size: 50px; margin: 0; text-align: center;\">+</p>","response":null,"trial_type":"html-keyboard-response","trial_index":93,"plugin_version":"2.1.0","time_elapsed":364173,"subject_id":"90177","group":"Group2","date":"2025-11-07T00:16:12.708Z"},{"task":"memory_phase","broad_category":"S","image_png":"S_Conglomerate_04.png","image_id":372,"category_name":"Conglomerate","category":24,"distinct_rating":5.91,"rt":null,"stimulus":"Stimuli_Rocks480/S_Conglomerate_04.png","response":null,"trial_type":"image-keyboard-response","trial_index":94,"plugin_version":"2.1.0","time_elapsed":366677,"subject_id":"90177","group":"Group2","date":"2025-11-07T00:16:12.708Z"},{"rt":null,"stimulus":"<p style=\"font-size: 50px; margin: 0; text-align: center;\">+</p>","response":null,"trial_type":"html-keyboard-response","trial_index":95,"plugin_version":"2.1.0","time_elapsed":367684,"subject_id":"90177","group":"Group2","date":"2025-11-07T00:16:12.708Z"},{"task":"memory_phase","broad_category":"S","image_png":"S_Chert_02.png","image_id":354,"category_name":"Chert","category":23,"distinct_rating":3.81,"rt":null,"stimulus":"Stimuli_Rocks480/S_Chert_02.png","response":null,"trial_type":"image-keyboard-response","trial_index":96,"plugin_version":"2.1.0","time_elapsed":370201,"subject_id":"90177","group":"Group2","date":"2025-11-07T00:16:12.708Z"},{"rt":null,"stimulus":"<p style=\"font-size: 50px; margin: 0; text-align: center;\">+</p>","response":null,"trial_type":"html-keyboard-response","trial_index":97,"plugin_version":"2.1.0","time_elapsed":371214,"subject_id":"90177","group":"Group2","date":"2025-11-07T00:16:12.708Z"},{"task":"memory_phase","broad_category":"I","image_png":"I_Gabbro_03.png","image_id":51,"category_name":"Gabbro","category":4,"distinct_rating":3.48,"rt":null,"stimulus":"Stimuli_Rocks480/I_Gabbro_03.png","response":null,"trial_type":"image-keyboard-response","trial_index":98,"plugin_version":"2.1.0","time_elapsed":373722,"subject_id":"90177","group":"Group2","date":"2025-11-07T00:16:12.708Z"},{"rt":null,"stimulus":"<p style=\"font-size: 50px; margin: 0; text-align: center;\">+</p>","response":null,"trial_type":"html-keyboard-response","trial_index":99,"plugin_version":"2.1.0","time_elapsed":374731,"subject_id":"90177","group":"Group2","date":"2025-11-07T00:16:12.708Z"},{"task":"memory_phase","broad_category":"M","image_png":"M_Amphibolite_09.png","image_id":169,"category_name":"Amphibolite","category":11,"distinct_rating":3.83,"rt":null,"stimulus":"Stimuli_Rocks480/M_Amphibolite_09.png","response":null,"trial_type":"image-keyboard-response","trial_index":100,"plugin_version":"2.1.0","time_elapsed":377241,"subject_id":"90177","group":"Group2","date":"2025-11-07T00:16:12.708Z"},{"rt":3292,"stimulus":"<p style=\"font-size: 35px;\">Press SPACE to continue study phase</p>","response":" ","trial_type":"html-keyboard-response","trial_index":101,"plugin_version":"2.1.0","time_elapsed":380534,"subject_id":"90177","group":"Group2","date":"2025-11-07T00:16:12.708Z"},{"rt":null,"stimulus":"<p style=\"font-size: 50px; margin: 0; text-align: center;\">+</p>","response":null,"trial_type":"html-keyboard-response","trial_index":102,"plugin_version":"2.1.0","time_elapsed":381550,"subject_id":"90177","group":"Group2","date":"2025-11-07T00:16:12.708Z"},{"task":"memory_phase","broad_category":"I","image_png":"I_Basalt_06.png","image_id":22,"category_name":"Basalt","category":2,"distinct_rating":2.08,"rt":null,"stimulus":"Stimuli_Rocks480/I_Basalt_06.png","response":null,"trial_type":"image-keyboard-response","trial_index":103,"plugin_version":"2.1.0","time_elapsed":384057,"subject_id":"90177","group":"Group2","date":"2025-11-07T00:16:12.708Z"},{"rt":null,"stimulus":"<p style=\"font-size: 50px; margin: 0; text-align: center;\">+</p>","response":null,"trial_type":"html-keyboard-response","trial_index":104,"plugin_version":"2.1.0","time_elapsed":385072,"subject_id":"90177","group":"Group2","date":"2025-11-07T00:16:12.708Z"},{"task":"memory_phase","broad_category":"M","image_png":"M_Hornfels_06.png","image_id":214,"category_name":"Hornfels","category":14,"distinct_rating":2.66,"rt":null,"stimulus":"Stimuli_Rocks480/M_Hornfels_06.png","response":null,"trial_type":"image-keyboard-response","trial_index":105,"plugin_version":"2.1.0","time_elapsed":387577,"subject_id":"90177","group":"Group2","date":"2025-11-07T00:16:12.708Z"},{"rt":null,"stimulus":"<p style=\"font-size: 50px; margin: 0; text-align: center;\">+</p>","response":null,"trial_type":"html-keyboard-response","trial_index":106,"plugin_version":"2.1.0","time_elapsed":388581,"subject_id":"90177","group":"Group2","date":"2025-11-07T00:16:12.708Z"},{"task":"memory_phase","broad_category":"M","image_png":"M_Marble_05.png","image_id":229,"category_name":"Marble","category":15,"distinct_rating":4.1,"rt":null,"stimulus":"Stimuli_Rocks480/M_Marble_05.png","response":null,"trial_type":"image-keyboard-response","trial_index":107,"plugin_version":"2.1.0","time_elapsed":391094,"subject_id":"90177","group":"Group2","date":"2025-11-07T00:16:12.708Z"},{"rt":null,"stimulus":"<p style=\"font-size: 50px; margin: 0; text-align: center;\">+</p>","response":null,"trial_type":"html-keyboard-response","trial_index":108,"plugin_version":"2.1.0","time_elapsed":392110,"subject_id":"90177","group":"Group2","date":"2025-11-07T00:16:12.708Z"},{"task":"memory_phase","broad_category":"M","image_png":"M_Gneiss_10.png","image_id":202,"category_name":"Gneiss","category":13,"distinct_rating":3.09,"rt":null,"stimulus":"Stimuli_Rocks480/M_Gneiss_10.png","response":null,"trial_type":"image-keyboard-response","trial_index":109,"plugin_version":"2.1.0","time_elapsed":394626,"subject_id":"90177","group":"Group2","date":"2025-11-07T00:16:12.708Z"},{"rt":null,"stimulus":"<p style=\"font-size: 50px; margin: 0; text-align: center;\">+</p>","response":null,"trial_type":"html-keyboard-response","trial_index":110,"plugin_version":"2.1.0","time_elapsed":395634,"subject_id":"90177","group":"Group2","date":"2025-11-07T00:16:12.708Z"},{"task":"memory_phase","broad_category":"I","image_png":"I_Granite_03.png","image_id":67,"category_name":"Granite","category":5,"distinct_rating":3.6,"rt":null,"stimulus":"Stimuli_Rocks480/I_Granite_03.png","response":null,"trial_type":"image-keyboard-response","trial_index":111,"plugin_version":"2.1.0","time_elapsed":398140,"subject_id":"90177","group":"Group2","date":"2025-11-07T00:16:12.708Z"},{"rt":null,"stimulus":"<p style=\"font-size: 50px; margin: 0; text-align: center;\">+</p>","response":null,"trial_type":"html-keyboard-response","trial_index":112,"plugin_version":"2.1.0","time_elapsed":399154,"subject_id":"90177","group":"Group2","date":"2025-11-07T00:16:12.708Z"},{"task":"memory_phase","broad_category":"M","image_png":"M_Amphibolite_06.png","image_id":166,"category_name":"Amphibolite","category":11,"distinct_rating":2.8,"rt":null,"stimulus":"Stimuli_Rocks480/M_Amphibolite_06.png","response":null,"trial_type":"image-keyboard-response","trial_index":113,"plugin_version":"2.1.0","time_elapsed":401657,"subject_id":"90177","group":"Group2","date":"2025-11-07T00:16:12.708Z"},{"rt":null,"stimulus":"<p style=\"font-size: 50px; margin: 0; text-align: center;\">+</p>","response":null,"trial_type":"html-keyboard-response","trial_index":114,"plugin_version":"2.1.0","time_elapsed":402663,"subject_id":"90177","group":"Group2","date":"2025-11-07T00:16:12.708Z"},{"task":"memory_phase","broad_category":"I","image_png":"I_Gabbro_07.png","image_id":55,"category_name":"Gabbro","category":4,"distinct_rating":4.29,"rt":null,"stimulus":"Stimuli_Rocks480/I_Gabbro_07.png","response":null,"trial_type":"image-keyboard-response","trial_index":115,"plugin_version":"2.1.0","time_elapsed":405170,"subject_id":"90177","group":"Group2","date":"2025-11-07T00:16:12.708Z"},{"rt":null,"stimulus":"<p style=\"font-size: 50px; margin: 0; text-align: center;\">+</p>","response":null,"trial_type":"html-keyboard-response","trial_index":116,"plugin_version":"2.1.0","time_elapsed":406183,"subject_id":"90177","group":"Group2","date":"2025-11-07T00:16:12.708Z"},{"task":"memory_phase","broad_category":"M","image_png":"M_Phyllite_07.png","image_id":263,"category_name":"Phyllite","category":17,"distinct_rating":2.59,"rt":null,"stimulus":"Stimuli_Rocks480/M_Phyllite_07.png","response":null,"trial_type":"image-keyboard-response","trial_index":117,"plugin_version":"2.1.0","time_elapsed":408695,"subject_id":"90177","group":"Group2","date":"2025-11-07T00:16:12.708Z"},{"rt":null,"stimulus":"<p style=\"font-size: 50px; margin: 0; text-align: center;\">+</p>","response":null,"trial_type":"html-keyboard-response","trial_index":118,"plugin_version":"2.1.0","time_elapsed":409704,"subject_id":"90177","group":"Group2","date":"2025-11-07T00:16:12.708Z"},{"task":"memory_phase","broad_category":"S","image_png":"S_Breccia_13.png","image_id":349,"category_name":"Breccia","category":22,"distinct_rating":5.56,"rt":null,"stimulus":"Stimuli_Rocks480/S_Breccia_13.png","response":null,"trial_type":"image-keyboard-response","trial_index":119,"plugin_version":"2.1.0","time_elapsed":412213,"subject_id":"90177","group":"Group2","date":"2025-11-07T00:16:12.708Z"},{"rt":null,"stimulus":"<p style=\"font-size: 50px; margin: 0; text-align: center;\">+</p>","response":null,"trial_type":"html-keyboard-response","trial_index":120,"plugin_version":"2.1.0","time_elapsed":413214,"subject_id":"90177","group":"Group2","date":"2025-11-07T00:16:12.708Z"},{"task":"memory_phase","broad_category":"S","image_png":"S_Rock Salt_04.png","image_id":436,"category_name":"Rock Salt","category":28,"distinct_rating":7.89,"rt":null,"stimulus":"Stimuli_Rocks480/S_Rock Salt_04.png","response":null,"trial_type":"image-keyboard-response","trial_index":121,"plugin_version":"2.1.0","time_elapsed":415724,"subject_id":"90177","group":"Group2","date":"2025-11-07T00:16:12.708Z"},{"rt":null,"stimulus":"<p style=\"font-size: 50px; margin: 0; text-align: center;\">+</p>","response":null,"trial_type":"html-keyboard-response","trial_index":122,"plugin_version":"2.1.0","time_elapsed":416731,"subject_id":"90177","group":"Group2","date":"2025-11-07T00:16:12.708Z"},{"task":"memory_phase","broad_category":"M","image_png":"M_Schist_07.png","image_id":295,"category_name":"Schist","category":19,"distinct_rating":4.2,"rt":null,"stimulus":"Stimuli_Rocks480/M_Schist_07.png","response":null,"trial_type":"image-keyboard-response","trial_index":123,"plugin_version":"2.1.0","time_elapsed":419243,"subject_id":"90177","group":"Group2","date":"2025-11-07T00:16:12.708Z"},{"rt":null,"stimulus":"<p style=\"font-size: 50px; margin: 0; text-align: center;\">+</p>","response":null,"trial_type":"html-keyboard-response","trial_index":124,"plugin_version":"2.1.0","time_elapsed":420249,"subject_id":"90177","group":"Group2","date":"2025-11-07T00:16:12.708Z"},{"task":"memory_phase","broad_category":"I","image_png":"I_Andesite_05.png","image_id":5,"category_name":"Andesite","category":1,"distinct_rating":3.32,"rt":null,"stimulus":"Stimuli_Rocks480/I_Andesite_05.png","response":null,"trial_type":"image-keyboard-response","trial_index":125,"plugin_version":"2.1.0","time_elapsed":422765,"subject_id":"90177","group":"Group2","date":"2025-11-07T00:16:12.708Z"},{"rt":null,"stimulus":"<p style=\"font-size: 50px; margin: 0; text-align: center;\">+</p>","response":null,"trial_type":"html-keyboard-response","trial_index":126,"plugin_version":"2.1.0","time_elapsed":423781,"subject_id":"90177","group":"Group2","date":"2025-11-07T00:16:12.708Z"},{"task":"memory_phase","broad_category":"S","image_png":"S_Rock Gypsum_11.png","image_id":427,"category_name":"Rock Gypsum","category":27,"distinct_rating":4.73,"rt":null,"stimulus":"Stimuli_Rocks480/S_Rock Gypsum_11.png","response":null,"trial_type":"image-keyboard-response","trial_index":127,"plugin_version":"2.1.0","time_elapsed":426288,"subject_id":"90177","group":"Group2","date":"2025-11-07T00:16:12.708Z"},{"rt":null,"stimulus":"<p style=\"font-size: 50px; margin: 0; text-align: center;\">+</p>","response":null,"trial_type":"html-keyboard-response","trial_index":128,"plugin_version":"2.1.0","time_elapsed":427304,"subject_id":"90177","group":"Group2","date":"2025-11-07T00:16:12.708Z"},{"task":"memory_phase","broad_category":"I","image_png":"I_Rhyolite_14.png","image_id":158,"category_name":"Rhyolite","category":10,"distinct_rating":2.59,"rt":null,"stimulus":"Stimuli_Rocks480/I_Rhyolite_14.png","response":null,"trial_type":"image-keyboard-response","trial_index":129,"plugin_version":"2.1.0","time_elapsed":429817,"subject_id":"90177","group":"Group2","date":"2025-11-07T00:16:12.708Z"},{"rt":null,"stimulus":"<p style=\"font-size: 50px; margin: 0; text-align: center;\">+</p>","response":null,"trial_type":"html-keyboard-response","trial_index":130,"plugin_version":"2.1.0","time_elapsed":430825,"subject_id":"90177","group":"Group2","date":"2025-11-07T00:16:12.708Z"},{"task":"memory_phase","broad_category":"S","image_png":"S_Dolomite_16.png","image_id":400,"category_name":"Dolomite","category":25,"distinct_rating":1.71,"rt":null,"stimulus":"Stimuli_Rocks480/S_Dolomite_16.png","response":null,"trial_type":"image-keyboard-response","trial_index":131,"plugin_version":"2.1.0","time_elapsed":433331,"subject_id":"90177","group":"Group2","date":"2025-11-07T00:16:12.708Z"},{"rt":null,"stimulus":"<p style=\"font-size: 50px; margin: 0; text-align: center;\">+</p>","response":null,"trial_type":"html-keyboard-response","trial_index":132,"plugin_version":"2.1.0","time_elapsed":434333,"subject_id":"90177","group":"Group2","date":"2025-11-07T00:16:12.708Z"},{"task":"memory_phase","broad_category":"M","image_png":"M_Gneiss_14.png","image_id":206,"category_name":"Gneiss","category":13,"distinct_rating":3.41,"rt":null,"stimulus":"Stimuli_Rocks480/M_Gneiss_14.png","response":null,"trial_type":"image-keyboard-response","trial_index":133,"plugin_version":"2.1.0","time_elapsed":436845,"subject_id":"90177","group":"Group2","date":"2025-11-07T00:16:12.708Z"},{"rt":null,"stimulus":"<p style=\"font-size: 50px; margin: 0; text-align: center;\">+</p>","response":null,"trial_type":"html-keyboard-response","trial_index":134,"plugin_version":"2.1.0","time_elapsed":437858,"subject_id":"90177","group":"Group2","date":"2025-11-07T00:16:12.708Z"},{"task":"memory_phase","broad_category":"S","image_png":"S_Chert_14.png","image_id":366,"category_name":"Chert","category":23,"distinct_rating":4.5,"rt":null,"stimulus":"Stimuli_Rocks480/S_Chert_14.png","response":null,"trial_type":"image-keyboard-response","trial_index":135,"plugin_version":"2.1.0","time_elapsed":440372,"subject_id":"90177","group":"Group2","date":"2025-11-07T00:16:12.708Z"},{"rt":null,"stimulus":"<p style=\"font-size: 50px; margin: 0; text-align: center;\">+</p>","response":null,"trial_type":"html-keyboard-response","trial_index":136,"plugin_version":"2.1.0","time_elapsed":441381,"subject_id":"90177","group":"Group2","date":"2025-11-07T00:16:12.708Z"},{"task":"memory_phase","broad_category":"I","image_png":"I_Pumice_16.png","image_id":144,"category_name":"Pumice","category":9,"distinct_rating":5.37,"rt":null,"stimulus":"Stimuli_Rocks480/I_Pumice_16.png","response":null,"trial_type":"image-keyboard-response","trial_index":137,"plugin_version":"2.1.0","time_elapsed":443897,"subject_id":"90177","group":"Group2","date":"2025-11-07T00:16:12.708Z"},{"rt":null,"stimulus":"<p style=\"font-size: 50px; margin: 0; text-align: center;\">+</p>","response":null,"trial_type":"html-keyboard-response","trial_index":138,"plugin_version":"2.1.0","time_elapsed":444909,"subject_id":"90177","group":"Group2","date":"2025-11-07T00:16:12.708Z"},{"task":"memory_phase","broad_category":"I","image_png":"I_Diorite_04.png","image_id":36,"category_name":"Diorite","category":3,"distinct_rating":2.98,"rt":null,"stimulus":"Stimuli_Rocks480/I_Diorite_04.png","response":null,"trial_type":"image-keyboard-response","trial_index":139,"plugin_version":"2.1.0","time_elapsed":447417,"subject_id":"90177","group":"Group2","date":"2025-11-07T00:16:12.708Z"},{"rt":null,"stimulus":"<p style=\"font-size: 50px; margin: 0; text-align: center;\">+</p>","response":null,"trial_type":"html-keyboard-response","trial_index":140,"plugin_version":"2.1.0","time_elapsed":448419,"subject_id":"90177","group":"Group2","date":"2025-11-07T00:16:12.708Z"},{"task":"memory_phase","broad_category":"I","image_png":"I_Peridotite_03.png","image_id":115,"category_name":"Peridotite","category":8,"distinct_rating":5.71,"rt":null,"stimulus":"Stimuli_Rocks480/I_Peridotite_03.png","response":null,"trial_type":"image-keyboard-response","trial_index":141,"plugin_version":"2.1.0","time_elapsed":450923,"subject_id":"90177","group":"Group2","date":"2025-11-07T00:16:12.708Z"},{"rt":null,"stimulus":"<p style=\"font-size: 50px; margin: 0; text-align: center;\">+</p>","response":null,"trial_type":"html-keyboard-response","trial_index":142,"plugin_version":"2.1.0","time_elapsed":451935,"subject_id":"90177","group":"Group2","date":"2025-11-07T00:16:12.708Z"},{"task":"memory_phase","broad_category":"M","image_png":"M_Slate_15.png","image_id":319,"category_name":"Slate","category":20,"distinct_rating":2.13,"rt":null,"stimulus":"Stimuli_Rocks480/M_Slate_15.png","response":null,"trial_type":"image-keyboard-response","trial_index":143,"plugin_version":"2.1.0","time_elapsed":454450,"subject_id":"90177","group":"Group2","date":"2025-11-07T00:16:12.708Z"},{"rt":null,"stimulus":"<p style=\"font-size: 50px; margin: 0; text-align: center;\">+</p>","response":null,"trial_type":"html-keyboard-response","trial_index":144,"plugin_version":"2.1.0","time_elapsed":455451,"subject_id":"90177","group":"Group2","date":"2025-11-07T00:16:12.708Z"},{"task":"memory_phase","broad_category":"I","image_png":"I_Diorite_09.png","image_id":41,"category_name":"Diorite","category":3,"distinct_rating":4.38,"rt":null,"stimulus":"Stimuli_Rocks480/I_Diorite_09.png","response":null,"trial_type":"image-keyboard-response","trial_index":145,"plugin_version":"2.1.0","time_elapsed":457965,"subject_id":"90177","group":"Group2","date":"2025-11-07T00:16:12.708Z"},{"rt":null,"stimulus":"<p style=\"font-size: 50px; margin: 0; text-align: center;\">+</p>","response":null,"trial_type":"html-keyboard-response","trial_index":146,"plugin_version":"2.1.0","time_elapsed":458968,"subject_id":"90177","group":"Group2","date":"2025-11-07T00:16:12.708Z"},{"task":"memory_phase","broad_category":"S","image_png":"S_Sandstone_11.png","image_id":459,"category_name":"Sandstone","category":29,"distinct_rating":1.82,"rt":null,"stimulus":"Stimuli_Rocks480/S_Sandstone_11.png","response":null,"trial_type":"image-keyboard-response","trial_index":147,"plugin_version":"2.1.0","time_elapsed":461474,"subject_id":"90177","group":"Group2","date":"2025-11-07T00:16:12.708Z"},{"rt":null,"stimulus":"<p style=\"font-size: 50px; margin: 0; text-align: center;\">+</p>","response":null,"trial_type":"html-keyboard-response","trial_index":148,"plugin_version":"2.1.0","time_elapsed":462477,"subject_id":"90177","group":"Group2","date":"2025-11-07T00:16:12.708Z"},{"task":"memory_phase","broad_category":"S","image_png":"S_Sandstone_07.png","image_id":455,"category_name":"Sandstone","category":29,"distinct_rating":5.02,"rt":null,"stimulus":"Stimuli_Rocks480/S_Sandstone_07.png","response":null,"trial_type":"image-keyboard-response","trial_index":149,"plugin_version":"2.1.0","time_elapsed":464987,"subject_id":"90177","group":"Group2","date":"2025-11-07T00:16:12.708Z"},{"rt":null,"stimulus":"<p style=\"font-size: 50px; margin: 0; text-align: center;\">+</p>","response":null,"trial_type":"html-keyboard-response","trial_index":150,"plugin_version":"2.1.0","time_elapsed":465988,"subject_id":"90177","group":"Group2","date":"2025-11-07T00:16:12.708Z"},{"task":"memory_phase","broad_category":"I","image_png":"I_Pumice_08.png","image_id":136,"category_name":"Pumice","category":9,"distinct_rating":3.1,"rt":null,"stimulus":"Stimuli_Rocks480/I_Pumice_08.png","response":null,"trial_type":"image-keyboard-response","trial_index":151,"plugin_version":"2.1.0","time_elapsed":468489,"subject_id":"90177","group":"Group2","date":"2025-11-07T00:16:12.708Z"},{"rt":null,"stimulus":"<p style=\"font-size: 50px; margin: 0; text-align: center;\">+</p>","response":null,"trial_type":"html-keyboard-response","trial_index":152,"plugin_version":"2.1.0","time_elapsed":469495,"subject_id":"90177","group":"Group2","date":"2025-11-07T00:16:12.708Z"},{"task":"memory_phase","broad_category":"S","image_png":"S_Conglomerate_08.png","image_id":376,"category_name":"Conglomerate","category":24,"distinct_rating":4.83,"rt":null,"stimulus":"Stimuli_Rocks480/S_Conglomerate_08.png","response":null,"trial_type":"image-keyboard-response","trial_index":153,"plugin_version":"2.1.0","time_elapsed":472009,"subject_id":"90177","group":"Group2","date":"2025-11-07T00:16:12.708Z"},{"rt":null,"stimulus":"<p style=\"font-size: 50px; margin: 0; text-align: center;\">+</p>","response":null,"trial_type":"html-keyboard-response","trial_index":154,"plugin_version":"2.1.0","time_elapsed":473025,"subject_id":"90177","group":"Group2","date":"2025-11-07T00:16:12.708Z"},{"task":"memory_phase","broad_category":"I","image_png":"I_Basalt_05.png","image_id":21,"category_name":"Basalt","category":2,"distinct_rating":2.55,"rt":null,"stimulus":"Stimuli_Rocks480/I_Basalt_05.png","response":null,"trial_type":"image-keyboard-response","trial_index":155,"plugin_version":"2.1.0","time_elapsed":475527,"subject_id":"90177","group":"Group2","date":"2025-11-07T00:16:12.708Z"},{"rt":null,"stimulus":"<p style=\"font-size: 50px; margin: 0; text-align: center;\">+</p>","response":null,"trial_type":"html-keyboard-response","trial_index":156,"plugin_version":"2.1.0","time_elapsed":476534,"subject_id":"90177","group":"Group2","date":"2025-11-07T00:16:12.708Z"},{"task":"memory_phase","broad_category":"M","image_png":"M_Migmatite_06.png","image_id":246,"category_name":"Migmatite","category":16,"distinct_rating":4.63,"rt":null,"stimulus":"Stimuli_Rocks480/M_Migmatite_06.png","response":null,"trial_type":"image-keyboard-response","trial_index":157,"plugin_version":"2.1.0","time_elapsed":479043,"subject_id":"90177","group":"Group2","date":"2025-11-07T00:16:12.708Z"},{"rt":null,"stimulus":"<p style=\"font-size: 50px; margin: 0; text-align: center;\">+</p>","response":null,"trial_type":"html-keyboard-response","trial_index":158,"plugin_version":"2.1.0","time_elapsed":480055,"subject_id":"90177","group":"Group2","date":"2025-11-07T00:16:12.708Z"},{"task":"memory_phase","broad_category":"I","image_png":"I_Pegmatite_13.png","image_id":109,"category_name":"Pegmatite","category":7,"distinct_rating":5.15,"rt":null,"stimulus":"Stimuli_Rocks480/I_Pegmatite_13.png","response":null,"trial_type":"image-keyboard-response","trial_index":159,"plugin_version":"2.1.0","time_elapsed":482563,"subject_id":"90177","group":"Group2","date":"2025-11-07T00:16:12.708Z"},{"rt":null,"stimulus":"<p style=\"font-size: 50px; margin: 0; text-align: center;\">+</p>","response":null,"trial_type":"html-keyboard-response","trial_index":160,"plugin_version":"2.1.0","time_elapsed":483579,"subject_id":"90177","group":"Group2","date":"2025-11-07T00:16:12.708Z"},{"task":"memory_phase","broad_category":"I","image_png":"I_Pegmatite_03.png","image_id":99,"category_name":"Pegmatite","category":7,"distinct_rating":7.24,"rt":null,"stimulus":"Stimuli_Rocks480/I_Pegmatite_03.png","response":null,"trial_type":"image-keyboard-response","trial_index":161,"plugin_version":"2.1.0","time_elapsed":486092,"subject_id":"90177","group":"Group2","date":"2025-11-07T00:16:12.708Z"},{"rt":null,"stimulus":"<p style=\"font-size: 50px; margin: 0; text-align: center;\">+</p>","response":null,"trial_type":"html-keyboard-response","trial_index":162,"plugin_version":"2.1.0","time_elapsed":487097,"subject_id":"90177","group":"Group2","date":"2025-11-07T00:16:12.708Z"},{"task":"memory_phase","broad_category":"S","image_png":"S_Bituminous Coal_11.png","image_id":331,"category_name":"Bituminous Coal","category":21,"distinct_rating":3.71,"rt":null,"stimulus":"Stimuli_Rocks480/S_Bituminous Coal_11.png","response":null,"trial_type":"image-keyboard-response","trial_index":163,"plugin_version":"2.1.0","time_elapsed":489614,"subject_id":"90177","group":"Group2","date":"2025-11-07T00:16:12.708Z"},{"rt":null,"stimulus":"<p style=\"font-size: 50px; margin: 0; text-align: center;\">+</p>","response":null,"trial_type":"html-keyboard-response","trial_index":164,"plugin_version":"2.1.0","time_elapsed":490629,"subject_id":"90177","group":"Group2","date":"2025-11-07T00:16:12.708Z"},{"task":"memory_phase","broad_category":"I","image_png":"I_Obsidian_15.png","image_id":95,"category_name":"Obsidian","category":6,"distinct_rating":6.67,"rt":null,"stimulus":"Stimuli_Rocks480/I_Obsidian_15.png","response":null,"trial_type":"image-keyboard-response","trial_index":165,"plugin_version":"2.1.0","time_elapsed":493143,"subject_id":"90177","group":"Group2","date":"2025-11-07T00:16:12.708Z"},{"rt":null,"stimulus":"<p style=\"font-size: 50px; margin: 0; text-align: center;\">+</p>","response":null,"trial_type":"html-keyboard-response","trial_index":166,"plugin_version":"2.1.0","time_elapsed":494153,"subject_id":"90177","group":"Group2","date":"2025-11-07T00:16:12.708Z"},{"task":"memory_phase","broad_category":"M","image_png":"M_Anthracite_04.png","image_id":180,"category_name":"Anthracite","category":12,"distinct_rating":6.25,"rt":null,"stimulus":"Stimuli_Rocks480/M_Anthracite_04.png","response":null,"trial_type":"image-keyboard-response","trial_index":167,"plugin_version":"2.1.0","time_elapsed":496656,"subject_id":"90177","group":"Group2","date":"2025-11-07T00:16:12.708Z"},{"rt":null,"stimulus":"<p style=\"font-size: 50px; margin: 0; text-align: center;\">+</p>","response":null,"trial_type":"html-keyboard-response","trial_index":168,"plugin_version":"2.1.0","time_elapsed":497662,"subject_id":"90177","group":"Group2","date":"2025-11-07T00:16:12.708Z"},{"task":"memory_phase","broad_category":"I","image_png":"I_Granite_08.png","image_id":72,"category_name":"Granite","category":5,"distinct_rating":3.95,"rt":null,"stimulus":"Stimuli_Rocks480/I_Granite_08.png","response":null,"trial_type":"image-keyboard-response","trial_index":169,"plugin_version":"2.1.0","time_elapsed":500165,"subject_id":"90177","group":"Group2","date":"2025-11-07T00:16:12.708Z"},{"rt":null,"stimulus":"<p style=\"font-size: 50px; margin: 0; text-align: center;\">+</p>","response":null,"trial_type":"html-keyboard-response","trial_index":170,"plugin_version":"2.1.0","time_elapsed":501168,"subject_id":"90177","group":"Group2","date":"2025-11-07T00:16:12.708Z"},{"task":"memory_phase","broad_category":"M","image_png":"M_Migmatite_09.png","image_id":249,"category_name":"Migmatite","category":16,"distinct_rating":3.84,"rt":null,"stimulus":"Stimuli_Rocks480/M_Migmatite_09.png","response":null,"trial_type":"image-keyboard-response","trial_index":171,"plugin_version":"2.1.0","time_elapsed":503673,"subject_id":"90177","group":"Group2","date":"2025-11-07T00:16:12.708Z"},{"rt":null,"stimulus":"<p style=\"font-size: 50px; margin: 0; text-align: center;\">+</p>","response":null,"trial_type":"html-keyboard-response","trial_index":172,"plugin_version":"2.1.0","time_elapsed":504682,"subject_id":"90177","group":"Group2","date":"2025-11-07T00:16:12.708Z"},{"task":"memory_phase","broad_category":"I","image_png":"I_Obsidian_12.png","image_id":92,"category_name":"Obsidian","category":6,"distinct_rating":5.7,"rt":null,"stimulus":"Stimuli_Rocks480/I_Obsidian_12.png","response":null,"trial_type":"image-keyboard-response","trial_index":173,"plugin_version":"2.1.0","time_elapsed":507185,"subject_id":"90177","group":"Group2","date":"2025-11-07T00:16:12.708Z"},{"rt":null,"stimulus":"<p style=\"font-size: 50px; margin: 0; text-align: center;\">+</p>","response":null,"trial_type":"html-keyboard-response","trial_index":174,"plugin_version":"2.1.0","time_elapsed":508187,"subject_id":"90177","group":"Group2","date":"2025-11-07T00:16:12.708Z"},{"task":"memory_phase","broad_category":"S","image_png":"S_Shale_06.png","image_id":470,"category_name":"Shale","category":30,"distinct_rating":4.11,"rt":null,"stimulus":"Stimuli_Rocks480/S_Shale_06.png","response":null,"trial_type":"image-keyboard-response","trial_index":175,"plugin_version":"2.1.0","time_elapsed":510703,"subject_id":"90177","group":"Group2","date":"2025-11-07T00:16:12.708Z"},{"rt":null,"stimulus":"<p style=\"font-size: 50px; margin: 0; text-align: center;\">+</p>","response":null,"trial_type":"html-keyboard-response","trial_index":176,"plugin_version":"2.1.0","time_elapsed":511706,"subject_id":"90177","group":"Group2","date":"2025-11-07T00:16:12.708Z"},{"task":"memory_phase","broad_category":"I","image_png":"I_Granite_14.png","image_id":78,"category_name":"Granite","category":5,"distinct_rating":4.29,"rt":null,"stimulus":"Stimuli_Rocks480/I_Granite_14.png","response":null,"trial_type":"image-keyboard-response","trial_index":177,"plugin_version":"2.1.0","time_elapsed":514213,"subject_id":"90177","group":"Group2","date":"2025-11-07T00:16:12.708Z"},{"rt":null,"stimulus":"<p style=\"font-size: 50px; margin: 0; text-align: center;\">+</p>","response":null,"trial_type":"html-keyboard-response","trial_index":178,"plugin_version":"2.1.0","time_elapsed":515216,"subject_id":"90177","group":"Group2","date":"2025-11-07T00:16:12.708Z"},{"task":"memory_phase","broad_category":"M","image_png":"M_Migmatite_15.png","image_id":255,"category_name":"Migmatite","category":16,"distinct_rating":5.37,"rt":null,"stimulus":"Stimuli_Rocks480/M_Migmatite_15.png","response":null,"trial_type":"image-keyboard-response","trial_index":179,"plugin_version":"2.1.0","time_elapsed":517731,"subject_id":"90177","group":"Group2","date":"2025-11-07T00:16:12.708Z"},{"rt":null,"stimulus":"<p style=\"font-size: 50px; margin: 0; text-align: center;\">+</p>","response":null,"trial_type":"html-keyboard-response","trial_index":180,"plugin_version":"2.1.0","time_elapsed":518744,"subject_id":"90177","group":"Group2","date":"2025-11-07T00:16:12.708Z"},{"task":"memory_phase","broad_category":"S","image_png":"S_Rock Salt_16.png","image_id":448,"category_name":"Rock Salt","category":28,"distinct_rating":6.23,"rt":null,"stimulus":"Stimuli_Rocks480/S_Rock Salt_16.png","response":null,"trial_type":"image-keyboard-response","trial_index":181,"plugin_version":"2.1.0","time_elapsed":521252,"subject_id":"90177","group":"Group2","date":"2025-11-07T00:16:12.708Z"},{"rt":null,"stimulus":"<p style=\"font-size: 50px; margin: 0; text-align: center;\">+</p>","response":null,"trial_type":"html-keyboard-response","trial_index":182,"plugin_version":"2.1.0","time_elapsed":522253,"subject_id":"90177","group":"Group2","date":"2025-11-07T00:16:12.708Z"},{"task":"memory_phase","broad_category":"S","image_png":"S_Rock Gypsum_08.png","image_id":424,"category_name":"Rock Gypsum","category":27,"distinct_rating":5.57,"rt":null,"stimulus":"Stimuli_Rocks480/S_Rock Gypsum_08.png","response":null,"trial_type":"image-keyboard-response","trial_index":183,"plugin_version":"2.1.0","time_elapsed":524756,"subject_id":"90177","group":"Group2","date":"2025-11-07T00:16:12.708Z"},{"rt":null,"stimulus":"<p style=\"font-size: 50px; margin: 0; text-align: center;\">+</p>","response":null,"trial_type":"html-keyboard-response","trial_index":184,"plugin_version":"2.1.0","time_elapsed":525769,"subject_id":"90177","group":"Group2","date":"2025-11-07T00:16:12.708Z"},{"task":"memory_phase","broad_category":"I","image_png":"I_Andesite_10.png","image_id":10,"category_name":"Andesite","category":1,"distinct_rating":3.15,"rt":null,"stimulus":"Stimuli_Rocks480/I_Andesite_10.png","response":null,"trial_type":"image-keyboard-response","trial_index":185,"plugin_version":"2.1.0","time_elapsed":528279,"subject_id":"90177","group":"Group2","date":"2025-11-07T00:16:12.708Z"},{"rt":null,"stimulus":"<p style=\"font-size: 50px; margin: 0; text-align: center;\">+</p>","response":null,"trial_type":"html-keyboard-response","trial_index":186,"plugin_version":"2.1.0","time_elapsed":529286,"subject_id":"90177","group":"Group2","date":"2025-11-07T00:16:12.708Z"},{"task":"memory_phase","broad_category":"M","image_png":"M_Gneiss_08.png","image_id":200,"category_name":"Gneiss","category":13,"distinct_rating":3.69,"rt":null,"stimulus":"Stimuli_Rocks480/M_Gneiss_08.png","response":null,"trial_type":"image-keyboard-response","trial_index":187,"plugin_version":"2.1.0","time_elapsed":531789,"subject_id":"90177","group":"Group2","date":"2025-11-07T00:16:12.708Z"},{"rt":null,"stimulus":"<p style=\"font-size: 50px; margin: 0; text-align: center;\">+</p>","response":null,"trial_type":"html-keyboard-response","trial_index":188,"plugin_version":"2.1.0","time_elapsed":532804,"subject_id":"90177","group":"Group2","date":"2025-11-07T00:16:12.708Z"},{"task":"memory_phase","broad_category":"M","image_png":"M_Hornfels_08.png","image_id":216,"category_name":"Hornfels","category":14,"distinct_rating":2.9,"rt":null,"stimulus":"Stimuli_Rocks480/M_Hornfels_08.png","response":null,"trial_type":"image-keyboard-response","trial_index":189,"plugin_version":"2.1.0","time_elapsed":535311,"subject_id":"90177","group":"Group2","date":"2025-11-07T00:16:12.708Z"},{"rt":null,"stimulus":"<p style=\"font-size: 50px; margin: 0; text-align: center;\">+</p>","response":null,"trial_type":"html-keyboard-response","trial_index":190,"plugin_version":"2.1.0","time_elapsed":536312,"subject_id":"90177","group":"Group2","date":"2025-11-07T00:16:12.708Z"},{"task":"memory_phase","broad_category":"M","image_png":"M_Marble_07.png","image_id":231,"category_name":"Marble","category":15,"distinct_rating":3.77,"rt":null,"stimulus":"Stimuli_Rocks480/M_Marble_07.png","response":null,"trial_type":"image-keyboard-response","trial_index":191,"plugin_version":"2.1.0","time_elapsed":538825,"subject_id":"90177","group":"Group2","date":"2025-11-07T00:16:12.708Z"},{"rt":null,"stimulus":"<p style=\"font-size: 50px; margin: 0; text-align: center;\">+</p>","response":null,"trial_type":"html-keyboard-response","trial_index":192,"plugin_version":"2.1.0","time_elapsed":539828,"subject_id":"90177","group":"Group2","date":"2025-11-07T00:16:12.708Z"},{"task":"memory_phase","broad_category":"S","image_png":"S_Breccia_01.png","image_id":337,"category_name":"Breccia","category":22,"distinct_rating":7.35,"rt":null,"stimulus":"Stimuli_Rocks480/S_Breccia_01.png","response":null,"trial_type":"image-keyboard-response","trial_index":193,"plugin_version":"2.1.0","time_elapsed":542340,"subject_id":"90177","group":"Group2","date":"2025-11-07T00:16:12.708Z"},{"rt":null,"stimulus":"<p style=\"font-size: 50px; margin: 0; text-align: center;\">+</p>","response":null,"trial_type":"html-keyboard-response","trial_index":194,"plugin_version":"2.1.0","time_elapsed":543346,"subject_id":"90177","group":"Group2","date":"2025-11-07T00:16:12.708Z"},{"task":"memory_phase","broad_category":"I","image_png":"I_Basalt_11.png","image_id":27,"category_name":"Basalt","category":2,"distinct_rating":3.11,"rt":null,"stimulus":"Stimuli_Rocks480/I_Basalt_11.png","response":null,"trial_type":"image-keyboard-response","trial_index":195,"plugin_version":"2.1.0","time_elapsed":545855,"subject_id":"90177","group":"Group2","date":"2025-11-07T00:16:12.708Z"},{"rt":null,"stimulus":"<p style=\"font-size: 50px; margin: 0; text-align: center;\">+</p>","response":null,"trial_type":"html-keyboard-response","trial_index":196,"plugin_version":"2.1.0","time_elapsed":546870,"subject_id":"90177","group":"Group2","date":"2025-11-07T00:16:12.708Z"},{"task":"memory_phase","broad_category":"S","image_png":"S_Sandstone_10.png","image_id":458,"category_name":"Sandstone","category":29,"distinct_rating":2.05,"rt":null,"stimulus":"Stimuli_Rocks480/S_Sandstone_10.png","response":null,"trial_type":"image-keyboard-response","trial_index":197,"plugin_version":"2.1.0","time_elapsed":549373,"subject_id":"90177","group":"Group2","date":"2025-11-07T00:16:12.708Z"},{"rt":42704,"stimulus":"<p style=\"font-size: 35px;\">Press SPACE to continue study phase</p>","response":" ","trial_type":"html-keyboard-response","trial_index":198,"plugin_version":"2.1.0","time_elapsed":592078,"subject_id":"90177","group":"Group2","date":"2025-11-07T00:16:12.708Z"},{"rt":null,"stimulus":"<p style=\"font-size: 50px; margin: 0; text-align: center;\">+</p>","response":null,"trial_type":"html-keyboard-response","trial_index":199,"plugin_version":"2.1.0","time_elapsed":593089,"subject_id":"90177","group":"Group2","date":"2025-11-07T00:16:12.708Z"},{"task":"memory_phase","broad_category":"S","image_png":"S_Shale_07.png","image_id":471,"category_name":"Shale","category":30,"distinct_rating":2.73,"rt":null,"stimulus":"Stimuli_Rocks480/S_Shale_07.png","response":null,"trial_type":"image-keyboard-response","trial_index":200,"plugin_version":"2.1.0","time_elapsed":595591,"subject_id":"90177","group":"Group2","date":"2025-11-07T00:16:12.708Z"},{"rt":null,"stimulus":"<p style=\"font-size: 50px; margin: 0; text-align: center;\">+</p>","response":null,"trial_type":"html-keyboard-response","trial_index":201,"plugin_version":"2.1.0","time_elapsed":596596,"subject_id":"90177","group":"Group2","date":"2025-11-07T00:16:12.708Z"},{"task":"memory_phase","broad_category":"S","image_png":"S_Rock Salt_01.png","image_id":433,"category_name":"Rock Salt","category":28,"distinct_rating":7.18,"rt":null,"stimulus":"Stimuli_Rocks480/S_Rock Salt_01.png","response":null,"trial_type":"image-keyboard-response","trial_index":202,"plugin_version":"2.1.0","time_elapsed":599106,"subject_id":"90177","group":"Group2","date":"2025-11-07T00:16:12.708Z"},{"rt":null,"stimulus":"<p style=\"font-size: 50px; margin: 0; text-align: center;\">+</p>","response":null,"trial_type":"html-keyboard-response","trial_index":203,"plugin_version":"2.1.0","time_elapsed":600111,"subject_id":"90177","group":"Group2","date":"2025-11-07T00:16:12.708Z"},{"task":"memory_phase","broad_category":"M","image_png":"M_Schist_11.png","image_id":299,"category_name":"Schist","category":19,"distinct_rating":6.22,"rt":null,"stimulus":"Stimuli_Rocks480/M_Schist_11.png","response":null,"trial_type":"image-keyboard-response","trial_index":204,"plugin_version":"2.1.0","time_elapsed":602623,"subject_id":"90177","group":"Group2","date":"2025-11-07T00:16:12.708Z"},{"rt":null,"stimulus":"<p style=\"font-size: 50px; margin: 0; text-align: center;\">+</p>","response":null,"trial_type":"html-keyboard-response","trial_index":205,"plugin_version":"2.1.0","time_elapsed":603639,"subject_id":"90177","group":"Group2","date":"2025-11-07T00:16:12.708Z"},{"task":"memory_phase","broad_category":"S","image_png":"S_Chert_11.png","image_id":363,"category_name":"Chert","category":23,"distinct_rating":7.12,"rt":null,"stimulus":"Stimuli_Rocks480/S_Chert_11.png","response":null,"trial_type":"image-keyboard-response","trial_index":206,"plugin_version":"2.1.0","time_elapsed":606153,"subject_id":"90177","group":"Group2","date":"2025-11-07T00:16:12.708Z"},{"rt":null,"stimulus":"<p style=\"font-size: 50px; margin: 0; text-align: center;\">+</p>","response":null,"trial_type":"html-keyboard-response","trial_index":207,"plugin_version":"2.1.0","time_elapsed":607167,"subject_id":"90177","group":"Group2","date":"2025-11-07T00:16:12.708Z"},{"task":"memory_phase","broad_category":"S","image_png":"S_Rock Gypsum_05.png","image_id":421,"category_name":"Rock Gypsum","category":27,"distinct_rating":3.48,"rt":null,"stimulus":"Stimuli_Rocks480/S_Rock Gypsum_05.png","response":null,"trial_type":"image-keyboard-response","trial_index":208,"plugin_version":"2.1.0","time_elapsed":609678,"subject_id":"90177","group":"Group2","date":"2025-11-07T00:16:12.708Z"},{"rt":null,"stimulus":"<p style=\"font-size: 50px; margin: 0; text-align: center;\">+</p>","response":null,"trial_type":"html-keyboard-response","trial_index":209,"plugin_version":"2.1.0","time_elapsed":610680,"subject_id":"90177","group":"Group2","date":"2025-11-07T00:16:12.708Z"},{"task":"memory_phase","broad_category":"I","image_png":"I_Pumice_05.png","image_id":133,"category_name":"Pumice","category":9,"distinct_rating":3.37,"rt":null,"stimulus":"Stimuli_Rocks480/I_Pumice_05.png","response":null,"trial_type":"image-keyboard-response","trial_index":210,"plugin_version":"2.1.0","time_elapsed":613182,"subject_id":"90177","group":"Group2","date":"2025-11-07T00:16:12.708Z"},{"rt":null,"stimulus":"<p style=\"font-size: 50px; margin: 0; text-align: center;\">+</p>","response":null,"trial_type":"html-keyboard-response","trial_index":211,"plugin_version":"2.1.0","time_elapsed":614187,"subject_id":"90177","group":"Group2","date":"2025-11-07T00:16:12.708Z"},{"task":"memory_phase","broad_category":"S","image_png":"S_Micrite_11.png","image_id":411,"category_name":"Micrite","category":26,"distinct_rating":1.87,"rt":null,"stimulus":"Stimuli_Rocks480/S_Micrite_11.png","response":null,"trial_type":"image-keyboard-response","trial_index":212,"plugin_version":"2.1.0","time_elapsed":616700,"subject_id":"90177","group":"Group2","date":"2025-11-07T00:16:12.708Z"},{"rt":null,"stimulus":"<p style=\"font-size: 50px; margin: 0; text-align: center;\">+</p>","response":null,"trial_type":"html-keyboard-response","trial_index":213,"plugin_version":"2.1.0","time_elapsed":617709,"subject_id":"90177","group":"Group2","date":"2025-11-07T00:16:12.708Z"},{"task":"memory_phase","broad_category":"I","image_png":"I_Obsidian_06.png","image_id":86,"category_name":"Obsidian","category":6,"distinct_rating":8.01,"rt":null,"stimulus":"Stimuli_Rocks480/I_Obsidian_06.png","response":null,"trial_type":"image-keyboard-response","trial_index":214,"plugin_version":"2.1.0","time_elapsed":620211,"subject_id":"90177","group":"Group2","date":"2025-11-07T00:16:12.708Z"},{"rt":null,"stimulus":"<p style=\"font-size: 50px; margin: 0; text-align: center;\">+</p>","response":null,"trial_type":"html-keyboard-response","trial_index":215,"plugin_version":"2.1.0","time_elapsed":621225,"subject_id":"90177","group":"Group2","date":"2025-11-07T00:16:12.708Z"},{"task":"memory_phase","broad_category":"M","image_png":"M_Quartzite_10.png","image_id":282,"category_name":"Quartzite","category":18,"distinct_rating":3.75,"rt":null,"stimulus":"Stimuli_Rocks480/M_Quartzite_10.png","response":null,"trial_type":"image-keyboard-response","trial_index":216,"plugin_version":"2.1.0","time_elapsed":623728,"subject_id":"90177","group":"Group2","date":"2025-11-07T00:16:12.708Z"},{"rt":null,"stimulus":"<p style=\"font-size: 50px; margin: 0; text-align: center;\">+</p>","response":null,"trial_type":"html-keyboard-response","trial_index":217,"plugin_version":"2.1.0","time_elapsed":624733,"subject_id":"90177","group":"Group2","date":"2025-11-07T00:16:12.708Z"},{"task":"memory_phase","broad_category":"S","image_png":"S_Micrite_14.png","image_id":414,"category_name":"Micrite","category":26,"distinct_rating":2.42,"rt":null,"stimulus":"Stimuli_Rocks480/S_Micrite_14.png","response":null,"trial_type":"image-keyboard-response","trial_index":218,"plugin_version":"2.1.0","time_elapsed":627243,"subject_id":"90177","group":"Group2","date":"2025-11-07T00:16:12.708Z"},{"rt":null,"stimulus":"<p style=\"font-size: 50px; margin: 0; text-align: center;\">+</p>","response":null,"trial_type":"html-keyboard-response","trial_index":219,"plugin_version":"2.1.0","time_elapsed":628258,"subject_id":"90177","group":"Group2","date":"2025-11-07T00:16:12.708Z"},{"task":"memory_phase","broad_category":"S","image_png":"S_Conglomerate_13.png","image_id":381,"category_name":"Conglomerate","category":24,"distinct_rating":6.48,"rt":null,"stimulus":"Stimuli_Rocks480/S_Conglomerate_13.png","response":null,"trial_type":"image-keyboard-response","trial_index":220,"plugin_version":"2.1.0","time_elapsed":630766,"subject_id":"90177","group":"Group2","date":"2025-11-07T00:16:12.708Z"},{"rt":null,"stimulus":"<p style=\"font-size: 50px; margin: 0; text-align: center;\">+</p>","response":null,"trial_type":"html-keyboard-response","trial_index":221,"plugin_version":"2.1.0","time_elapsed":631783,"subject_id":"90177","group":"Group2","date":"2025-11-07T00:16:12.708Z"},{"task":"memory_phase","broad_category":"M","image_png":"M_Slate_02.png","image_id":306,"category_name":"Slate","category":20,"distinct_rating":2.88,"rt":null,"stimulus":"Stimuli_Rocks480/M_Slate_02.png","response":null,"trial_type":"image-keyboard-response","trial_index":222,"plugin_version":"2.1.0","time_elapsed":634295,"subject_id":"90177","group":"Group2","date":"2025-11-07T00:16:12.708Z"},{"rt":null,"stimulus":"<p style=\"font-size: 50px; margin: 0; text-align: center;\">+</p>","response":null,"trial_type":"html-keyboard-response","trial_index":223,"plugin_version":"2.1.0","time_elapsed":635310,"subject_id":"90177","group":"Group2","date":"2025-11-07T00:16:12.708Z"},{"task":"memory_phase","broad_category":"M","image_png":"M_Gneiss_12.png","image_id":204,"category_name":"Gneiss","category":13,"distinct_rating":4.52,"rt":null,"stimulus":"Stimuli_Rocks480/M_Gneiss_12.png","response":null,"trial_type":"image-keyboard-response","trial_index":224,"plugin_version":"2.1.0","time_elapsed":637815,"subject_id":"90177","group":"Group2","date":"2025-11-07T00:16:12.708Z"},{"rt":null,"stimulus":"<p style=\"font-size: 50px; margin: 0; text-align: center;\">+</p>","response":null,"trial_type":"html-keyboard-response","trial_index":225,"plugin_version":"2.1.0","time_elapsed":638830,"subject_id":"90177","group":"Group2","date":"2025-11-07T00:16:12.708Z"},{"task":"memory_phase","broad_category":"M","image_png":"M_Phyllite_09.png","image_id":265,"category_name":"Phyllite","category":17,"distinct_rating":2.96,"rt":null,"stimulus":"Stimuli_Rocks480/M_Phyllite_09.png","response":null,"trial_type":"image-keyboard-response","trial_index":226,"plugin_version":"2.1.0","time_elapsed":641342,"subject_id":"90177","group":"Group2","date":"2025-11-07T00:16:12.708Z"},{"rt":null,"stimulus":"<p style=\"font-size: 50px; margin: 0; text-align: center;\">+</p>","response":null,"trial_type":"html-keyboard-response","trial_index":227,"plugin_version":"2.1.0","time_elapsed":642357,"subject_id":"90177","group":"Group2","date":"2025-11-07T00:16:12.708Z"},{"task":"memory_phase","broad_category":"S","image_png":"S_Breccia_03.png","image_id":339,"category_name":"Breccia","category":22,"distinct_rating":5.07,"rt":null,"stimulus":"Stimuli_Rocks480/S_Breccia_03.png","response":null,"trial_type":"image-keyboard-response","trial_index":228,"plugin_version":"2.1.0","time_elapsed":644871,"subject_id":"90177","group":"Group2","date":"2025-11-07T00:16:12.708Z"},{"rt":null,"stimulus":"<p style=\"font-size: 50px; margin: 0; text-align: center;\">+</p>","response":null,"trial_type":"html-keyboard-response","trial_index":229,"plugin_version":"2.1.0","time_elapsed":645886,"subject_id":"90177","group":"Group2","date":"2025-11-07T00:16:12.708Z"},{"task":"memory_phase","broad_category":"S","image_png":"S_Shale_08.png","image_id":472,"category_name":"Shale","category":30,"distinct_rating":2.55,"rt":null,"stimulus":"Stimuli_Rocks480/S_Shale_08.png","response":null,"trial_type":"image-keyboard-response","trial_index":230,"plugin_version":"2.1.0","time_elapsed":648389,"subject_id":"90177","group":"Group2","date":"2025-11-07T00:16:12.708Z"},{"rt":null,"stimulus":"<p style=\"font-size: 50px; margin: 0; text-align: center;\">+</p>","response":null,"trial_type":"html-keyboard-response","trial_index":231,"plugin_version":"2.1.0","time_elapsed":649394,"subject_id":"90177","group":"Group2","date":"2025-11-07T00:16:12.708Z"},{"task":"memory_phase","broad_category":"M","image_png":"M_Quartzite_15.png","image_id":287,"category_name":"Quartzite","category":18,"distinct_rating":2.19,"rt":null,"stimulus":"Stimuli_Rocks480/M_Quartzite_15.png","response":null,"trial_type":"image-keyboard-response","trial_index":232,"plugin_version":"2.1.0","time_elapsed":651900,"subject_id":"90177","group":"Group2","date":"2025-11-07T00:16:12.708Z"},{"rt":null,"stimulus":"<p style=\"font-size: 50px; margin: 0; text-align: center;\">+</p>","response":null,"trial_type":"html-keyboard-response","trial_index":233,"plugin_version":"2.1.0","time_elapsed":652904,"subject_id":"90177","group":"Group2","date":"2025-11-07T00:16:12.708Z"},{"task":"memory_phase","broad_category":"I","image_png":"I_Andesite_12.png","image_id":12,"category_name":"Andesite","category":1,"distinct_rating":3.75,"rt":null,"stimulus":"Stimuli_Rocks480/I_Andesite_12.png","response":null,"trial_type":"image-keyboard-response","trial_index":234,"plugin_version":"2.1.0","time_elapsed":655416,"subject_id":"90177","group":"Group2","date":"2025-11-07T00:16:12.708Z"},{"rt":null,"stimulus":"<p style=\"font-size: 50px; margin: 0; text-align: center;\">+</p>","response":null,"trial_type":"html-keyboard-response","trial_index":235,"plugin_version":"2.1.0","time_elapsed":656429,"subject_id":"90177","group":"Group2","date":"2025-11-07T00:16:12.708Z"},{"task":"memory_phase","broad_category":"S","image_png":"S_Dolomite_04.png","image_id":388,"category_name":"Dolomite","category":25,"distinct_rating":1.93,"rt":null,"stimulus":"Stimuli_Rocks480/S_Dolomite_04.png","response":null,"trial_type":"image-keyboard-response","trial_index":236,"plugin_version":"2.1.0","time_elapsed":658936,"subject_id":"90177","group":"Group2","date":"2025-11-07T00:16:12.708Z"},{"rt":null,"stimulus":"<p style=\"font-size: 50px; margin: 0; text-align: center;\">+</p>","response":null,"trial_type":"html-keyboard-response","trial_index":237,"plugin_version":"2.1.0","time_elapsed":659937,"subject_id":"90177","group":"Group2","date":"2025-11-07T00:16:12.708Z"},{"task":"memory_phase","broad_category":"M","image_png":"M_Anthracite_14.png","image_id":190,"category_name":"Anthracite","category":12,"distinct_rating":4.36,"rt":null,"stimulus":"Stimuli_Rocks480/M_Anthracite_14.png","response":null,"trial_type":"image-keyboard-response","trial_index":238,"plugin_version":"2.1.0","time_elapsed":662447,"subject_id":"90177","group":"Group2","date":"2025-11-07T00:16:12.708Z"},{"rt":null,"stimulus":"<p style=\"font-size: 50px; margin: 0; text-align: center;\">+</p>","response":null,"trial_type":"html-keyboard-response","trial_index":239,"plugin_version":"2.1.0","time_elapsed":663464,"subject_id":"90177","group":"Group2","date":"2025-11-07T00:16:12.708Z"},{"task":"memory_phase","broad_category":"I","image_png":"I_Gabbro_06.png","image_id":54,"category_name":"Gabbro","category":4,"distinct_rating":3.26,"rt":null,"stimulus":"Stimuli_Rocks480/I_Gabbro_06.png","response":null,"trial_type":"image-keyboard-response","trial_index":240,"plugin_version":"2.1.0","time_elapsed":665978,"subject_id":"90177","group":"Group2","date":"2025-11-07T00:16:12.708Z"},{"rt":null,"stimulus":"<p style=\"font-size: 50px; margin: 0; text-align: center;\">+</p>","response":null,"trial_type":"html-keyboard-response","trial_index":241,"plugin_version":"2.1.0","time_elapsed":666994,"subject_id":"90177","group":"Group2","date":"2025-11-07T00:16:12.708Z"},{"task":"memory_phase","broad_category":"S","image_png":"S_Rock Salt_02.png","image_id":434,"category_name":"Rock Salt","category":28,"distinct_rating":5.13,"rt":null,"stimulus":"Stimuli_Rocks480/S_Rock Salt_02.png","response":null,"trial_type":"image-keyboard-response","trial_index":242,"plugin_version":"2.1.0","time_elapsed":669498,"subject_id":"90177","group":"Group2","date":"2025-11-07T00:16:12.708Z"},{"rt":null,"stimulus":"<p style=\"font-size: 50px; margin: 0; text-align: center;\">+</p>","response":null,"trial_type":"html-keyboard-response","trial_index":243,"plugin_version":"2.1.0","time_elapsed":670510,"subject_id":"90177","group":"Group2","date":"2025-11-07T00:16:12.708Z"},{"task":"memory_phase","broad_category":"M","image_png":"M_Marble_08.png","image_id":232,"category_name":"Marble","category":15,"distinct_rating":4.35,"rt":null,"stimulus":"Stimuli_Rocks480/M_Marble_08.png","response":null,"trial_type":"image-keyboard-response","trial_index":244,"plugin_version":"2.1.0","time_elapsed":673016,"subject_id":"90177","group":"Group2","date":"2025-11-07T00:16:12.708Z"},{"rt":null,"stimulus":"<p style=\"font-size: 50px; margin: 0; text-align: center;\">+</p>","response":null,"trial_type":"html-keyboard-response","trial_index":245,"plugin_version":"2.1.0","time_elapsed":674029,"subject_id":"90177","group":"Group2","date":"2025-11-07T00:16:12.708Z"},{"task":"memory_phase","broad_category":"M","image_png":"M_Amphibolite_12.png","image_id":172,"category_name":"Amphibolite","category":11,"distinct_rating":5.62,"rt":null,"stimulus":"Stimuli_Rocks480/M_Amphibolite_12.png","response":null,"trial_type":"image-keyboard-response","trial_index":246,"plugin_version":"2.1.0","time_elapsed":676543,"subject_id":"90177","group":"Group2","date":"2025-11-07T00:16:12.708Z"},{"rt":17624,"stimulus":"<div style=\"max-width: 760px; margin: auto; font-size: 20px; line-height: 1.5;\">\n      <h1 style=\"text-align:center; font-size: 30px;\">Instructions for the Test Phase</h1>\n      <p>\n        The study phase is now complete.\n      </p>\n      <p>\n        In the test phase, you will again see a series of rock images. \n        Some will be ones you saw before - during the study phase, while others will be new.  \n        <b>Your task</b> is to decide whether you have seen each image before by pressing the corresponding key on your keyboard:<br><br>\n          <b>A</b> - NO (you did not see this image before)<br>\n          <b>L</b> - YES (you saw this image before)<br><br>\n        The test will proceed at your own pace. You will receive feedback after each response.  \n        Please try to respond <b>as accurately as possible</b>.\n      </p>\n      <p>\n        <b>Reminder:</b> If your computer has multiple language settings (e.g., English and another language),\n        please ensure it is set to English during the test phase.\n      </p>\n      <p>\n        You can track your progress using the <b>completion bar</b> at the top of the screen.  \n        Note that it has been refreshed to reflect your progress during this final phase.\n      </p>\n      <p>\n        Press the button below when you are ready to continue.\n      </p>\n    </div>","response":0,"trial_type":"html-button-response","trial_index":247,"plugin_version":"2.1.0","time_elapsed":694168,"subject_id":"90177","group":"Group2","date":"2025-11-07T00:16:12.708Z"},{"correct_response":"l","task":"test_phase","broad_category":"S","image_png":"S_Shale_06.png","image_id":470,"category_name":"Shale","category":30,"distinct_rating":4.11,"item_type":"Target","rt":16838,"stimulus":"Stimuli_Rocks480/S_Shale_06.png","response":"a","trial_type":"image-keyboard-response","trial_index":248,"plugin_version":"2.1.0","time_elapsed":711007,"subject_id":"90177","group":"Group2","date":"2025-11-07T00:16:12.708Z","cor_ans":false},{"trial_type":"html-keyboard-response","rt":null,"stimulus":"<p style=\"color: red; font-size: 50px; font-weight: bold;\">Incorrect</p>","response":null,"trial_index":249,"plugin_version":"2.1.0","time_elapsed":711517,"subject_id":"90177","group":"Group2","date":"2025-11-07T00:16:12.708Z"},{"correct_response":"a","task":"test_phase","broad_category":"I","image_png":"I_Obsidian_05.png","image_id":85,"category_name":"Obsidian","category":6,"distinct_rating":7.32,"item_type":"Foil","rt":2291,"stimulus":"Stimuli_Rocks480/I_Obsidian_05.png","response":"a","trial_type":"image-keyboard-response","trial_index":250,"plugin_version":"2.1.0","time_elapsed":713809,"subject_id":"90177","group":"Group2","date":"2025-11-07T00:16:12.708Z","cor_ans":true},{"trial_type":"html-keyboard-response","rt":null,"stimulus":"<p style=\"color: green; font-size: 50px; font-weight: bold;\">Correct</p>","response":null,"trial_index":251,"plugin_version":"2.1.0","time_elapsed":714319,"subject_id":"90177","group":"Group2","date":"2025-11-07T00:16:12.708Z"},{"correct_response":"l","task":"test_phase","broad_category":"I","image_png":"I_Rhyolite_14.png","image_id":158,"category_name":"Rhyolite","category":10,"distinct_rating":2.59,"item_type":"Target","rt":2198,"stimulus":"Stimuli_Rocks480/I_Rhyolite_14.png","response":"a","trial_type":"image-keyboard-response","trial_index":252,"plugin_version":"2.1.0","time_elapsed":716517,"subject_id":"90177","group":"Group2","date":"2025-11-07T00:16:12.708Z","cor_ans":false},{"trial_type":"html-keyboard-response","rt":null,"stimulus":"<p style=\"color: red; font-size: 50px; font-weight: bold;\">Incorrect</p>","response":null,"trial_index":253,"plugin_version":"2.1.0","time_elapsed":717018,"subject_id":"90177","group":"Group2","date":"2025-11-07T00:16:12.708Z"},{"correct_response":"l","task":"test_phase","broad_category":"S","image_png":"S_Dolomite_03.png","image_id":387,"category_name":"Dolomite","category":25,"distinct_rating":3.42,"item_type":"Target","rt":2252,"stimulus":"Stimuli_Rocks480/S_Dolomite_03.png","response":"a","trial_type":"image-keyboard-response","trial_index":254,"plugin_version":"2.1.0","time_elapsed":719271,"subject_id":"90177","group":"Group2","date":"2025-11-07T00:16:12.708Z","cor_ans":false},{"trial_type":"html-keyboard-response","rt":null,"stimulus":"<p style=\"color: red; font-size: 50px; font-weight: bold;\">Incorrect</p>","response":null,"trial_index":255,"plugin_version":"2.1.0","time_elapsed":719779,"subject_id":"90177","group":"Group2","date":"2025-11-07T00:16:12.708Z"},{"correct_response":"a","task":"test_phase","broad_category":"M","image_png":"M_Phyllite_12.png","image_id":268,"category_name":"Phyllite","category":17,"distinct_rating":3.83,"item_type":"Foil","rt":1767,"stimulus":"Stimuli_Rocks480/M_Phyllite_12.png","response":"l","trial_type":"image-keyboard-response","trial_index":256,"plugin_version":"2.1.0","time_elapsed":721546,"subject_id":"90177","group":"Group2","date":"2025-11-07T00:16:12.708Z","cor_ans":false},{"trial_type":"html-keyboard-response","rt":null,"stimulus":"<p style=\"color: red; font-size: 50px; font-weight: bold;\">Incorrect</p>","response":null,"trial_index":257,"plugin_version":"2.1.0","time_elapsed":722053,"subject_id":"90177","group":"Group2","date":"2025-11-07T00:16:12.708Z"},{"correct_response":"l","task":"test_phase","broad_category":"S","image_png":"S_Rock Gypsum_11.png","image_id":427,"category_name":"Rock Gypsum","category":27,"distinct_rating":4.73,"item_type":"Target","rt":3401,"stimulus":"Stimuli_Rocks480/S_Rock Gypsum_11.png","response":"a","trial_type":"image-keyboard-response","trial_index":258,"plugin_version":"2.1.0","time_elapsed":725455,"subject_id":"90177","group":"Group2","date":"2025-11-07T00:16:12.708Z","cor_ans":false},{"trial_type":"html-keyboard-response","rt":null,"stimulus":"<p style=\"color: red; font-size: 50px; font-weight: bold;\">Incorrect</p>","response":null,"trial_index":259,"plugin_version":"2.1.0","time_elapsed":725958,"subject_id":"90177","group":"Group2","date":"2025-11-07T00:16:12.708Z"},{"correct_response":"l","task":"test_phase","broad_category":"M","image_png":"M_Anthracite_05.png","image_id":181,"category_name":"Anthracite","category":12,"distinct_rating":4.71,"item_type":"Target","rt":2383,"stimulus":"Stimuli_Rocks480/M_Anthracite_05.png","response":"l","trial_type":"image-keyboard-response","trial_index":260,"plugin_version":"2.1.0","time_elapsed":728342,"subject_id":"90177","group":"Group2","date":"2025-11-07T00:16:12.708Z","cor_ans":true},{"trial_type":"html-keyboard-response","rt":null,"stimulus":"<p style=\"color: green; font-size: 50px; font-weight: bold;\">Correct</p>","response":null,"trial_index":261,"plugin_version":"2.1.0","time_elapsed":728843,"subject_id":"90177","group":"Group2","date":"2025-11-07T00:16:12.708Z"},{"correct_response":"l","task":"test_phase","broad_category":"I","image_png":"I_Andesite_10.png","image_id":10,"category_name":"Andesite","category":1,"distinct_rating":3.15,"item_type":"Target","rt":7555,"stimulus":"Stimuli_Rocks480/I_Andesite_10.png","response":"l","trial_type":"image-keyboard-response","trial_index":262,"plugin_version":"2.1.0","time_elapsed":736399,"subject_id":"90177","group":"Group2","date":"2025-11-07T00:16:12.708Z","cor_ans":true},{"trial_type":"html-keyboard-response","rt":null,"stimulus":"<p style=\"color: green; font-size: 50px; font-weight: bold;\">Correct</p>","response":null,"trial_index":263,"plugin_version":"2.1.0","time_elapsed":736909,"subject_id":"90177","group":"Group2","date":"2025-11-07T00:16:12.708Z"},{"correct_response":"l","task":"test_phase","broad_category":"M","image_png":"M_Slate_14.png","image_id":318,"category_name":"Slate","category":20,"distinct_rating":2.58,"item_type":"Target","rt":2081,"stimulus":"Stimuli_Rocks480/M_Slate_14.png","response":"a","trial_type":"image-keyboard-response","trial_index":264,"plugin_version":"2.1.0","time_elapsed":738991,"subject_id":"90177","group":"Group2","date":"2025-11-07T00:16:12.708Z","cor_ans":false},{"trial_type":"html-keyboard-response","rt":null,"stimulus":"<p style=\"color: red; font-size: 50px; font-weight: bold;\">Incorrect</p>","response":null,"trial_index":265,"plugin_version":"2.1.0","time_elapsed":739499,"subject_id":"90177","group":"Group2","date":"2025-11-07T00:16:12.708Z"},{"correct_response":"l","task":"test_phase","broad_category":"S","image_png":"S_Chert_02.png","image_id":354,"category_name":"Chert","category":23,"distinct_rating":3.81,"item_type":"Target","rt":1914,"stimulus":"Stimuli_Rocks480/S_Chert_02.png","response":"l","trial_type":"image-keyboard-response","trial_index":266,"plugin_version":"2.1.0","time_elapsed":741415,"subject_id":"90177","group":"Group2","date":"2025-11-07T00:16:12.708Z","cor_ans":true},{"trial_type":"html-keyboard-response","rt":null,"stimulus":"<p style=\"color: green; font-size: 50px; font-weight: bold;\">Correct</p>","response":null,"trial_index":267,"plugin_version":"2.1.0","time_elapsed":741923,"subject_id":"90177","group":"Group2","date":"2025-11-07T00:16:12.708Z"},{"correct_response":"a","task":"test_phase","broad_category":"I","image_png":"I_Rhyolite_16.png","image_id":160,"category_name":"Rhyolite","category":10,"distinct_rating":2.19,"item_type":"Foil","rt":2035,"stimulus":"Stimuli_Rocks480/I_Rhyolite_16.png","response":"a","trial_type":"image-keyboard-response","trial_index":268,"plugin_version":"2.1.0","time_elapsed":743959,"subject_id":"90177","group":"Group2","date":"2025-11-07T00:16:12.708Z","cor_ans":true},{"trial_type":"html-keyboard-response","rt":null,"stimulus":"<p style=\"color: green; font-size: 50px; font-weight: bold;\">Correct</p>","response":null,"trial_index":269,"plugin_version":"2.1.0","time_elapsed":744466,"subject_id":"90177","group":"Group2","date":"2025-11-07T00:16:12.708Z"},{"correct_response":"a","task":"test_phase","broad_category":"I","image_png":"I_Rhyolite_12.png","image_id":156,"category_name":"Rhyolite","category":10,"distinct_rating":3.68,"item_type":"Foil","rt":1587,"stimulus":"Stimuli_Rocks480/I_Rhyolite_12.png","response":"l","trial_type":"image-keyboard-response","trial_index":270,"plugin_version":"2.1.0","time_elapsed":746053,"subject_id":"90177","group":"Group2","date":"2025-11-07T00:16:12.708Z","cor_ans":false},{"trial_type":"html-keyboard-response","rt":null,"stimulus":"<p style=\"color: red; font-size: 50px; font-weight: bold;\">Incorrect</p>","response":null,"trial_index":271,"plugin_version":"2.1.0","time_elapsed":746566,"subject_id":"90177","group":"Group2","date":"2025-11-07T00:16:12.708Z"},{"correct_response":"a","task":"test_phase","broad_category":"M","image_png":"M_Marble_15.png","image_id":239,"category_name":"Marble","category":15,"distinct_rating":6.35,"item_type":"Foil","rt":939,"stimulus":"Stimuli_Rocks480/M_Marble_15.png","response":"a","trial_type":"image-keyboard-response","trial_index":272,"plugin_version":"2.1.0","time_elapsed":747506,"subject_id":"90177","group":"Group2","date":"2025-11-07T00:16:12.708Z","cor_ans":true},{"trial_type":"html-keyboard-response","rt":null,"stimulus":"<p style=\"color: green; font-size: 50px; font-weight: bold;\">Correct</p>","response":null,"trial_index":273,"plugin_version":"2.1.0","time_elapsed":748014,"subject_id":"90177","group":"Group2","date":"2025-11-07T00:16:12.708Z"},{"correct_response":"l","task":"test_phase","broad_category":"S","image_png":"S_Chert_14.png","image_id":366,"category_name":"Chert","category":23,"distinct_rating":4.5,"item_type":"Target","rt":4604,"stimulus":"Stimuli_Rocks480/S_Chert_14.png","response":"l","trial_type":"image-keyboard-response","trial_index":274,"plugin_version":"2.1.0","time_elapsed":752619,"subject_id":"90177","group":"Group2","date":"2025-11-07T00:16:12.708Z","cor_ans":true},{"trial_type":"html-keyboard-response","rt":null,"stimulus":"<p style=\"color: green; font-size: 50px; font-weight: bold;\">Correct</p>","response":null,"trial_index":275,"plugin_version":"2.1.0","time_elapsed":753132,"subject_id":"90177","group":"Group2","date":"2025-11-07T00:16:12.708Z"},{"correct_response":"l","task":"test_phase","broad_category":"S","image_png":"S_Sandstone_13.png","image_id":461,"category_name":"Sandstone","category":29,"distinct_rating":2.94,"item_type":"Target","rt":1309,"stimulus":"Stimuli_Rocks480/S_Sandstone_13.png","response":"l","trial_type":"image-keyboard-response","trial_index":276,"plugin_version":"2.1.0","time_elapsed":754441,"subject_id":"90177","group":"Group2","date":"2025-11-07T00:16:12.708Z","cor_ans":true},{"trial_type":"html-keyboard-response","rt":null,"stimulus":"<p style=\"color: green; font-size: 50px; font-weight: bold;\">Correct</p>","response":null,"trial_index":277,"plugin_version":"2.1.0","time_elapsed":754952,"subject_id":"90177","group":"Group2","date":"2025-11-07T00:16:12.708Z"},{"correct_response":"l","task":"test_phase","broad_category":"M","image_png":"M_Slate_02.png","image_id":306,"category_name":"Slate","category":20,"distinct_rating":2.88,"item_type":"Target","rt":778,"stimulus":"Stimuli_Rocks480/M_Slate_02.png","response":"a","trial_type":"image-keyboard-response","trial_index":278,"plugin_version":"2.1.0","time_elapsed":755731,"subject_id":"90177","group":"Group2","date":"2025-11-07T00:16:12.708Z","cor_ans":false},{"trial_type":"html-keyboard-response","rt":null,"stimulus":"<p style=\"color: red; font-size: 50px; font-weight: bold;\">Incorrect</p>","response":null,"trial_index":279,"plugin_version":"2.1.0","time_elapsed":756239,"subject_id":"90177","group":"Group2","date":"2025-11-07T00:16:12.708Z"},{"correct_response":"a","task":"test_phase","broad_category":"M","image_png":"M_Anthracite_13.png","image_id":189,"category_name":"Anthracite","category":12,"distinct_rating":4.81,"item_type":"Foil","rt":827,"stimulus":"Stimuli_Rocks480/M_Anthracite_13.png","response":"l","trial_type":"image-keyboard-response","trial_index":280,"plugin_version":"2.1.0","time_elapsed":757067,"subject_id":"90177","group":"Group2","date":"2025-11-07T00:16:12.708Z","cor_ans":false},{"trial_type":"html-keyboard-response","rt":null,"stimulus":"<p style=\"color: red; font-size: 50px; font-weight: bold;\">Incorrect</p>","response":null,"trial_index":281,"plugin_version":"2.1.0","time_elapsed":757580,"subject_id":"90177","group":"Group2","date