[{"width":1536,"height":826,"webaudio":true,"browser":"chrome","browser_version":"141.0.0","mobile":false,"os":"Windows 10","fullscreen":true,"vsync_rate":60.6,"webcam":true,"microphone":true,"trial_type":"browser-check","trial_index":0,"plugin_version":"2.1.0","time_elapsed":1005,"subject_id":"88720","group":"Group1","date":"2025-11-07T16:06:49.128Z"},{"success":true,"timeout":false,"failed_images":[],"failed_audio":[],"failed_video":[],"trial_type":"preload","trial_index":1,"plugin_version":"2.1.0","time_elapsed":5190,"subject_id":"88720","group":"Group1","date":"2025-11-07T16:06:49.128Z"},{"rt":14394,"url":"SONA_consent_memorability.html","trial_type":"external-html","trial_index":2,"plugin_version":"2.1.0","time_elapsed":19650,"subject_id":"88720","group":"Group1","date":"2025-11-07T16:06:49.128Z"},{"success":true,"rt":2218,"trial_type":"fullscreen","trial_index":3,"plugin_version":"2.1.0","time_elapsed":22886,"subject_id":"88720","group":"Group1","date":"2025-11-07T16:06:49.128Z"},{"rt":105338,"stimulus":"<div style=\"max-width: 760px; margin: auto; font-size: 20px; line-height: 1.5;\">\n      <h1 style=\"text-align:center; font-size: 30px;\">Instructions</h1>\n      <p>\n        Welcome to the study on <b>visual memory</b>. This experiment consists of <b>two phases</b>: \n        a <b>study phase</b> and a <b>test phase</b>.\n      </p>\n      <p>\n        In the study phase, you will see a series of rock images along with their category labels.\n        The images will appear one at a time.\n        <b>Your task</b> is to learn the categories to which the rock images belong \n        and to remember each image as accurately as possible.\n      </p> \n      <p>\n        After the study phase, <b>your memory will be tested</b>. \n        Additional instructions for the test phase will be provided at that time.\n      </p>\n      <p>\n        If your computer has multiple <b>language settings</b> (e.g., English and another language),\n        please make sure it is set to English before starting.\n      </p>\n      <p>\n        You can track your progress using the <b>completion bar</b> at the top of the screen. \n        Please note that the bar will refresh when the test phase begins \n        to give you an accurate sense of your progress in both phases.\n      </p> \n      <p>\n        Press the button below when you are ready to begin.\n      </p>\n    </div>","response":0,"trial_type":"html-button-response","trial_index":4,"plugin_version":"2.1.0","time_elapsed":128226,"subject_id":"88720","group":"Group1","date":"2025-11-07T16:06:49.128Z"},{"rt":null,"stimulus":"<p style=\"font-size: 50px; margin: 0; text-align: center;\">+</p>","response":null,"trial_type":"html-keyboard-response","trial_index":5,"plugin_version":"2.1.0","time_elapsed":129237,"subject_id":"88720","group":"Group1","date":"2025-11-07T16:06:49.128Z"},{"task":"memory_phase","broad_category":"S","image_png":"S_Dolomite_07.png","image_id":391,"category_name":"Dolomite","category":25,"distinct_rating":1.73,"rt":null,"stimulus":"Stimuli_Rocks480/S_Dolomite_07.png","response":null,"trial_type":"image-keyboard-response","trial_index":6,"plugin_version":"2.1.0","time_elapsed":131756,"subject_id":"88720","group":"Group1","date":"2025-11-07T16:06:49.128Z"},{"rt":null,"stimulus":"<p style=\"font-size: 50px; margin: 0; text-align: center;\">+</p>","response":null,"trial_type":"html-keyboard-response","trial_index":7,"plugin_version":"2.1.0","time_elapsed":132760,"subject_id":"88720","group":"Group1","date":"2025-11-07T16:06:49.128Z"},{"task":"memory_phase","broad_category":"M","image_png":"M_Hornfels_12.png","image_id":220,"category_name":"Hornfels","category":14,"distinct_rating":2.62,"rt":null,"stimulus":"Stimuli_Rocks480/M_Hornfels_12.png","response":null,"trial_type":"image-keyboard-response","trial_index":8,"plugin_version":"2.1.0","time_elapsed":135275,"subject_id":"88720","group":"Group1","date":"2025-11-07T16:06:49.128Z"},{"rt":null,"stimulus":"<p style=\"font-size: 50px; margin: 0; text-align: center;\">+</p>","response":null,"trial_type":"html-keyboard-response","trial_index":9,"plugin_version":"2.1.0","time_elapsed":136278,"subject_id":"88720","group":"Group1","date":"2025-11-07T16:06:49.128Z"},{"task":"memory_phase","broad_category":"M","image_png":"M_Hornfels_05.png","image_id":213,"category_name":"Hornfels","category":14,"distinct_rating":3.12,"rt":null,"stimulus":"Stimuli_Rocks480/M_Hornfels_05.png","response":null,"trial_type":"image-keyboard-response","trial_index":10,"plugin_version":"2.1.0","time_elapsed":138795,"subject_id":"88720","group":"Group1","date":"2025-11-07T16:06:49.128Z"},{"rt":null,"stimulus":"<p style=\"font-size: 50px; margin: 0; text-align: center;\">+</p>","response":null,"trial_type":"html-keyboard-response","trial_index":11,"plugin_version":"2.1.0","time_elapsed":139811,"subject_id":"88720","group":"Group1","date":"2025-11-07T16:06:49.128Z"},{"task":"memory_phase","broad_category":"S","image_png":"S_Chert_12.png","image_id":364,"category_name":"Chert","category":23,"distinct_rating":4.06,"rt":null,"stimulus":"Stimuli_Rocks480/S_Chert_12.png","response":null,"trial_type":"image-keyboard-response","trial_index":12,"plugin_version":"2.1.0","time_elapsed":142322,"subject_id":"88720","group":"Group1","date":"2025-11-07T16:06:49.128Z"},{"rt":null,"stimulus":"<p style=\"font-size: 50px; margin: 0; text-align: center;\">+</p>","response":null,"trial_type":"html-keyboard-response","trial_index":13,"plugin_version":"2.1.0","time_elapsed":143326,"subject_id":"88720","group":"Group1","date":"2025-11-07T16:06:49.128Z"},{"task":"memory_phase","broad_category":"M","image_png":"M_Gneiss_01.png","image_id":193,"category_name":"Gneiss","category":13,"distinct_rating":4.54,"rt":null,"stimulus":"Stimuli_Rocks480/M_Gneiss_01.png","response":null,"trial_type":"image-keyboard-response","trial_index":14,"plugin_version":"2.1.0","time_elapsed":145845,"subject_id":"88720","group":"Group1","date":"2025-11-07T16:06:49.128Z"},{"rt":null,"stimulus":"<p style=\"font-size: 50px; margin: 0; text-align: center;\">+</p>","response":null,"trial_type":"html-keyboard-response","trial_index":15,"plugin_version":"2.1.0","time_elapsed":146854,"subject_id":"88720","group":"Group1","date":"2025-11-07T16:06:49.128Z"},{"task":"memory_phase","broad_category":"M","image_png":"M_Slate_16.png","image_id":320,"category_name":"Slate","category":20,"distinct_rating":2.55,"rt":null,"stimulus":"Stimuli_Rocks480/M_Slate_16.png","response":null,"trial_type":"image-keyboard-response","trial_index":16,"plugin_version":"2.1.0","time_elapsed":149358,"subject_id":"88720","group":"Group1","date":"2025-11-07T16:06:49.128Z"},{"rt":null,"stimulus":"<p style=\"font-size: 50px; margin: 0; text-align: center;\">+</p>","response":null,"trial_type":"html-keyboard-response","trial_index":17,"plugin_version":"2.1.0","time_elapsed":150369,"subject_id":"88720","group":"Group1","date":"2025-11-07T16:06:49.128Z"},{"task":"memory_phase","broad_category":"S","image_png":"S_Rock Gypsum_04.png","image_id":420,"category_name":"Rock Gypsum","category":27,"distinct_rating":7.61,"rt":null,"stimulus":"Stimuli_Rocks480/S_Rock Gypsum_04.png","response":null,"trial_type":"image-keyboard-response","trial_index":18,"plugin_version":"2.1.0","time_elapsed":152878,"subject_id":"88720","group":"Group1","date":"2025-11-07T16:06:49.128Z"},{"rt":null,"stimulus":"<p style=\"font-size: 50px; margin: 0; text-align: center;\">+</p>","response":null,"trial_type":"html-keyboard-response","trial_index":19,"plugin_version":"2.1.0","time_elapsed":153885,"subject_id":"88720","group":"Group1","date":"2025-11-07T16:06:49.128Z"},{"task":"memory_phase","broad_category":"S","image_png":"S_Chert_09.png","image_id":361,"category_name":"Chert","category":23,"distinct_rating":4.92,"rt":null,"stimulus":"Stimuli_Rocks480/S_Chert_09.png","response":null,"trial_type":"image-keyboard-response","trial_index":20,"plugin_version":"2.1.0","time_elapsed":156389,"subject_id":"88720","group":"Group1","date":"2025-11-07T16:06:49.128Z"},{"rt":null,"stimulus":"<p style=\"font-size: 50px; margin: 0; text-align: center;\">+</p>","response":null,"trial_type":"html-keyboard-response","trial_index":21,"plugin_version":"2.1.0","time_elapsed":157407,"subject_id":"88720","group":"Group1","date":"2025-11-07T16:06:49.128Z"},{"task":"memory_phase","broad_category":"I","image_png":"I_Rhyolite_12.png","image_id":156,"category_name":"Rhyolite","category":10,"distinct_rating":3.68,"rt":null,"stimulus":"Stimuli_Rocks480/I_Rhyolite_12.png","response":null,"trial_type":"image-keyboard-response","trial_index":22,"plugin_version":"2.1.0","time_elapsed":159911,"subject_id":"88720","group":"Group1","date":"2025-11-07T16:06:49.128Z"},{"rt":null,"stimulus":"<p style=\"font-size: 50px; margin: 0; text-align: center;\">+</p>","response":null,"trial_type":"html-keyboard-response","trial_index":23,"plugin_version":"2.1.0","time_elapsed":160926,"subject_id":"88720","group":"Group1","date":"2025-11-07T16:06:49.128Z"},{"task":"memory_phase","broad_category":"M","image_png":"M_Migmatite_12.png","image_id":252,"category_name":"Migmatite","category":16,"distinct_rating":4.03,"rt":null,"stimulus":"Stimuli_Rocks480/M_Migmatite_12.png","response":null,"trial_type":"image-keyboard-response","trial_index":24,"plugin_version":"2.1.0","time_elapsed":163442,"subject_id":"88720","group":"Group1","date":"2025-11-07T16:06:49.128Z"},{"rt":null,"stimulus":"<p style=\"font-size: 50px; margin: 0; text-align: center;\">+</p>","response":null,"trial_type":"html-keyboard-response","trial_index":25,"plugin_version":"2.1.0","time_elapsed":164459,"subject_id":"88720","group":"Group1","date":"2025-11-07T16:06:49.128Z"},{"task":"memory_phase","broad_category":"I","image_png":"I_Gabbro_10.png","image_id":58,"category_name":"Gabbro","category":4,"distinct_rating":3.11,"rt":null,"stimulus":"Stimuli_Rocks480/I_Gabbro_10.png","response":null,"trial_type":"image-keyboard-response","trial_index":26,"plugin_version":"2.1.0","time_elapsed":166978,"subject_id":"88720","group":"Group1","date":"2025-11-07T16:06:49.128Z"},{"rt":null,"stimulus":"<p style=\"font-size: 50px; margin: 0; text-align: center;\">+</p>","response":null,"trial_type":"html-keyboard-response","trial_index":27,"plugin_version":"2.1.0","time_elapsed":167989,"subject_id":"88720","group":"Group1","date":"2025-11-07T16:06:49.128Z"},{"task":"memory_phase","broad_category":"M","image_png":"M_Quartzite_01.png","image_id":273,"category_name":"Quartzite","category":18,"distinct_rating":2.3,"rt":null,"stimulus":"Stimuli_Rocks480/M_Quartzite_01.png","response":null,"trial_type":"image-keyboard-response","trial_index":28,"plugin_version":"2.1.0","time_elapsed":170500,"subject_id":"88720","group":"Group1","date":"2025-11-07T16:06:49.128Z"},{"rt":null,"stimulus":"<p style=\"font-size: 50px; margin: 0; text-align: center;\">+</p>","response":null,"trial_type":"html-keyboard-response","trial_index":29,"plugin_version":"2.1.0","time_elapsed":171511,"subject_id":"88720","group":"Group1","date":"2025-11-07T16:06:49.128Z"},{"task":"memory_phase","broad_category":"S","image_png":"S_Rock Gypsum_09.png","image_id":425,"category_name":"Rock Gypsum","category":27,"distinct_rating":6.03,"rt":null,"stimulus":"Stimuli_Rocks480/S_Rock Gypsum_09.png","response":null,"trial_type":"image-keyboard-response","trial_index":30,"plugin_version":"2.1.0","time_elapsed":174016,"subject_id":"88720","group":"Group1","date":"2025-11-07T16:06:49.128Z"},{"rt":null,"stimulus":"<p style=\"font-size: 50px; margin: 0; text-align: center;\">+</p>","response":null,"trial_type":"html-keyboard-response","trial_index":31,"plugin_version":"2.1.0","time_elapsed":175031,"subject_id":"88720","group":"Group1","date":"2025-11-07T16:06:49.128Z"},{"task":"memory_phase","broad_category":"S","image_png":"S_Dolomite_09.png","image_id":393,"category_name":"Dolomite","category":25,"distinct_rating":2.11,"rt":null,"stimulus":"Stimuli_Rocks480/S_Dolomite_09.png","response":null,"trial_type":"image-keyboard-response","trial_index":32,"plugin_version":"2.1.0","time_elapsed":177533,"subject_id":"88720","group":"Group1","date":"2025-11-07T16:06:49.128Z"},{"rt":null,"stimulus":"<p style=\"font-size: 50px; margin: 0; text-align: center;\">+</p>","response":null,"trial_type":"html-keyboard-response","trial_index":33,"plugin_version":"2.1.0","time_elapsed":178542,"subject_id":"88720","group":"Group1","date":"2025-11-07T16:06:49.128Z"},{"task":"memory_phase","broad_category":"S","image_png":"S_Micrite_15.png","image_id":415,"category_name":"Micrite","category":26,"distinct_rating":2.28,"rt":null,"stimulus":"Stimuli_Rocks480/S_Micrite_15.png","response":null,"trial_type":"image-keyboard-response","trial_index":34,"plugin_version":"2.1.0","time_elapsed":181053,"subject_id":"88720","group":"Group1","date":"2025-11-07T16:06:49.128Z"},{"rt":null,"stimulus":"<p style=\"font-size: 50px; margin: 0; text-align: center;\">+</p>","response":null,"trial_type":"html-keyboard-response","trial_index":35,"plugin_version":"2.1.0","time_elapsed":182066,"subject_id":"88720","group":"Group1","date":"2025-11-07T16:06:49.128Z"},{"task":"memory_phase","broad_category":"S","image_png":"S_Sandstone_03.png","image_id":451,"category_name":"Sandstone","category":29,"distinct_rating":1.86,"rt":null,"stimulus":"Stimuli_Rocks480/S_Sandstone_03.png","response":null,"trial_type":"image-keyboard-response","trial_index":36,"plugin_version":"2.1.0","time_elapsed":184576,"subject_id":"88720","group":"Group1","date":"2025-11-07T16:06:49.128Z"},{"rt":null,"stimulus":"<p style=\"font-size: 50px; margin: 0; text-align: center;\">+</p>","response":null,"trial_type":"html-keyboard-response","trial_index":37,"plugin_version":"2.1.0","time_elapsed":185583,"subject_id":"88720","group":"Group1","date":"2025-11-07T16:06:49.128Z"},{"task":"memory_phase","broad_category":"I","image_png":"I_Basalt_15.png","image_id":31,"category_name":"Basalt","category":2,"distinct_rating":4.03,"rt":null,"stimulus":"Stimuli_Rocks480/I_Basalt_15.png","response":null,"trial_type":"image-keyboard-response","trial_index":38,"plugin_version":"2.1.0","time_elapsed":188096,"subject_id":"88720","group":"Group1","date":"2025-11-07T16:06:49.128Z"},{"rt":null,"stimulus":"<p style=\"font-size: 50px; margin: 0; text-align: center;\">+</p>","response":null,"trial_type":"html-keyboard-response","trial_index":39,"plugin_version":"2.1.0","time_elapsed":189104,"subject_id":"88720","group":"Group1","date":"2025-11-07T16:06:49.128Z"},{"task":"memory_phase","broad_category":"S","image_png":"S_Rock Gypsum_01.png","image_id":417,"category_name":"Rock Gypsum","category":27,"distinct_rating":3.97,"rt":null,"stimulus":"Stimuli_Rocks480/S_Rock Gypsum_01.png","response":null,"trial_type":"image-keyboard-response","trial_index":40,"plugin_version":"2.1.0","time_elapsed":191617,"subject_id":"88720","group":"Group1","date":"2025-11-07T16:06:49.128Z"},{"rt":null,"stimulus":"<p style=\"font-size: 50px; margin: 0; text-align: center;\">+</p>","response":null,"trial_type":"html-keyboard-response","trial_index":41,"plugin_version":"2.1.0","time_elapsed":192626,"subject_id":"88720","group":"Group1","date":"2025-11-07T16:06:49.128Z"},{"task":"memory_phase","broad_category":"M","image_png":"M_Migmatite_04.png","image_id":244,"category_name":"Migmatite","category":16,"distinct_rating":5.07,"rt":null,"stimulus":"Stimuli_Rocks480/M_Migmatite_04.png","response":null,"trial_type":"image-keyboard-response","trial_index":42,"plugin_version":"2.1.0","time_elapsed":195143,"subject_id":"88720","group":"Group1","date":"2025-11-07T16:06:49.128Z"},{"rt":null,"stimulus":"<p style=\"font-size: 50px; margin: 0; text-align: center;\">+</p>","response":null,"trial_type":"html-keyboard-response","trial_index":43,"plugin_version":"2.1.0","time_elapsed":196158,"subject_id":"88720","group":"Group1","date":"2025-11-07T16:06:49.128Z"},{"task":"memory_phase","broad_category":"M","image_png":"M_Phyllite_01.png","image_id":257,"category_name":"Phyllite","category":17,"distinct_rating":5.54,"rt":null,"stimulus":"Stimuli_Rocks480/M_Phyllite_01.png","response":null,"trial_type":"image-keyboard-response","trial_index":44,"plugin_version":"2.1.0","time_elapsed":198672,"subject_id":"88720","group":"Group1","date":"2025-11-07T16:06:49.128Z"},{"rt":null,"stimulus":"<p style=\"font-size: 50px; margin: 0; text-align: center;\">+</p>","response":null,"trial_type":"html-keyboard-response","trial_index":45,"plugin_version":"2.1.0","time_elapsed":199679,"subject_id":"88720","group":"Group1","date":"2025-11-07T16:06:49.128Z"},{"task":"memory_phase","broad_category":"M","image_png":"M_Quartzite_06.png","image_id":278,"category_name":"Quartzite","category":18,"distinct_rating":3.63,"rt":null,"stimulus":"Stimuli_Rocks480/M_Quartzite_06.png","response":null,"trial_type":"image-keyboard-response","trial_index":46,"plugin_version":"2.1.0","time_elapsed":202188,"subject_id":"88720","group":"Group1","date":"2025-11-07T16:06:49.128Z"},{"rt":null,"stimulus":"<p style=\"font-size: 50px; margin: 0; text-align: center;\">+</p>","response":null,"trial_type":"html-keyboard-response","trial_index":47,"plugin_version":"2.1.0","time_elapsed":203191,"subject_id":"88720","group":"Group1","date":"2025-11-07T16:06:49.128Z"},{"task":"memory_phase","broad_category":"M","image_png":"M_Gneiss_03.png","image_id":195,"category_name":"Gneiss","category":13,"distinct_rating":3.63,"rt":null,"stimulus":"Stimuli_Rocks480/M_Gneiss_03.png","response":null,"trial_type":"image-keyboard-response","trial_index":48,"plugin_version":"2.1.0","time_elapsed":205707,"subject_id":"88720","group":"Group1","date":"2025-11-07T16:06:49.128Z"},{"rt":null,"stimulus":"<p style=\"font-size: 50px; margin: 0; text-align: center;\">+</p>","response":null,"trial_type":"html-keyboard-response","trial_index":49,"plugin_version":"2.1.0","time_elapsed":206724,"subject_id":"88720","group":"Group1","date":"2025-11-07T16:06:49.128Z"},{"task":"memory_phase","broad_category":"S","image_png":"S_Micrite_01.png","image_id":401,"category_name":"Micrite","category":26,"distinct_rating":2.94,"rt":null,"stimulus":"Stimuli_Rocks480/S_Micrite_01.png","response":null,"trial_type":"image-keyboard-response","trial_index":50,"plugin_version":"2.1.0","time_elapsed":209234,"subject_id":"88720","group":"Group1","date":"2025-11-07T16:06:49.128Z"},{"rt":null,"stimulus":"<p style=\"font-size: 50px; margin: 0; text-align: center;\">+</p>","response":null,"trial_type":"html-keyboard-response","trial_index":51,"plugin_version":"2.1.0","time_elapsed":210250,"subject_id":"88720","group":"Group1","date":"2025-11-07T16:06:49.128Z"},{"task":"memory_phase","broad_category":"I","image_png":"I_Granite_11.png","image_id":75,"category_name":"Granite","category":5,"distinct_rating":4.03,"rt":null,"stimulus":"Stimuli_Rocks480/I_Granite_11.png","response":null,"trial_type":"image-keyboard-response","trial_index":52,"plugin_version":"2.1.0","time_elapsed":212766,"subject_id":"88720","group":"Group1","date":"2025-11-07T16:06:49.128Z"},{"rt":null,"stimulus":"<p style=\"font-size: 50px; margin: 0; text-align: center;\">+</p>","response":null,"trial_type":"html-keyboard-response","trial_index":53,"plugin_version":"2.1.0","time_elapsed":213771,"subject_id":"88720","group":"Group1","date":"2025-11-07T16:06:49.128Z"},{"task":"memory_phase","broad_category":"M","image_png":"M_Gneiss_15.png","image_id":207,"category_name":"Gneiss","category":13,"distinct_rating":3.11,"rt":null,"stimulus":"Stimuli_Rocks480/M_Gneiss_15.png","response":null,"trial_type":"image-keyboard-response","trial_index":54,"plugin_version":"2.1.0","time_elapsed":216273,"subject_id":"88720","group":"Group1","date":"2025-11-07T16:06:49.128Z"},{"rt":null,"stimulus":"<p style=\"font-size: 50px; margin: 0; text-align: center;\">+</p>","response":null,"trial_type":"html-keyboard-response","trial_index":55,"plugin_version":"2.1.0","time_elapsed":217289,"subject_id":"88720","group":"Group1","date":"2025-11-07T16:06:49.128Z"},{"task":"memory_phase","broad_category":"I","image_png":"I_Pegmatite_16.png","image_id":112,"category_name":"Pegmatite","category":7,"distinct_rating":7.03,"rt":null,"stimulus":"Stimuli_Rocks480/I_Pegmatite_16.png","response":null,"trial_type":"image-keyboard-response","trial_index":56,"plugin_version":"2.1.0","time_elapsed":219791,"subject_id":"88720","group":"Group1","date":"2025-11-07T16:06:49.128Z"},{"rt":null,"stimulus":"<p style=\"font-size: 50px; margin: 0; text-align: center;\">+</p>","response":null,"trial_type":"html-keyboard-response","trial_index":57,"plugin_version":"2.1.0","time_elapsed":220804,"subject_id":"88720","group":"Group1","date":"2025-11-07T16:06:49.128Z"},{"task":"memory_phase","broad_category":"M","image_png":"M_Slate_10.png","image_id":314,"category_name":"Slate","category":20,"distinct_rating":1.94,"rt":null,"stimulus":"Stimuli_Rocks480/M_Slate_10.png","response":null,"trial_type":"image-keyboard-response","trial_index":58,"plugin_version":"2.1.0","time_elapsed":223319,"subject_id":"88720","group":"Group1","date":"2025-11-07T16:06:49.128Z"},{"rt":null,"stimulus":"<p style=\"font-size: 50px; margin: 0; text-align: center;\">+</p>","response":null,"trial_type":"html-keyboard-response","trial_index":59,"plugin_version":"2.1.0","time_elapsed":224335,"subject_id":"88720","group":"Group1","date":"2025-11-07T16:06:49.128Z"},{"task":"memory_phase","broad_category":"S","image_png":"S_Micrite_03.png","image_id":403,"category_name":"Micrite","category":26,"distinct_rating":4,"rt":null,"stimulus":"Stimuli_Rocks480/S_Micrite_03.png","response":null,"trial_type":"image-keyboard-response","trial_index":60,"plugin_version":"2.1.0","time_elapsed":226837,"subject_id":"88720","group":"Group1","date":"2025-11-07T16:06:49.128Z"},{"rt":null,"stimulus":"<p style=\"font-size: 50px; margin: 0; text-align: center;\">+</p>","response":null,"trial_type":"html-keyboard-response","trial_index":61,"plugin_version":"2.1.0","time_elapsed":227840,"subject_id":"88720","group":"Group1","date":"2025-11-07T16:06:49.128Z"},{"task":"memory_phase","broad_category":"M","image_png":"M_Amphibolite_03.png","image_id":163,"category_name":"Amphibolite","category":11,"distinct_rating":6.58,"rt":null,"stimulus":"Stimuli_Rocks480/M_Amphibolite_03.png","response":null,"trial_type":"image-keyboard-response","trial_index":62,"plugin_version":"2.1.0","time_elapsed":230355,"subject_id":"88720","group":"Group1","date":"2025-11-07T16:06:49.128Z"},{"rt":null,"stimulus":"<p style=\"font-size: 50px; margin: 0; text-align: center;\">+</p>","response":null,"trial_type":"html-keyboard-response","trial_index":63,"plugin_version":"2.1.0","time_elapsed":231366,"subject_id":"88720","group":"Group1","date":"2025-11-07T16:06:49.128Z"},{"task":"memory_phase","broad_category":"I","image_png":"I_Diorite_15.png","image_id":47,"category_name":"Diorite","category":3,"distinct_rating":3.05,"rt":null,"stimulus":"Stimuli_Rocks480/I_Diorite_15.png","response":null,"trial_type":"image-keyboard-response","trial_index":64,"plugin_version":"2.1.0","time_elapsed":233882,"subject_id":"88720","group":"Group1","date":"2025-11-07T16:06:49.128Z"},{"rt":null,"stimulus":"<p style=\"font-size: 50px; margin: 0; text-align: center;\">+</p>","response":null,"trial_type":"html-keyboard-response","trial_index":65,"plugin_version":"2.1.0","time_elapsed":234890,"subject_id":"88720","group":"Group1","date":"2025-11-07T16:06:49.128Z"},{"task":"memory_phase","broad_category":"M","image_png":"M_Anthracite_12.png","image_id":188,"category_name":"Anthracite","category":12,"distinct_rating":5.69,"rt":null,"stimulus":"Stimuli_Rocks480/M_Anthracite_12.png","response":null,"trial_type":"image-keyboard-response","trial_index":66,"plugin_version":"2.1.0","time_elapsed":237404,"subject_id":"88720","group":"Group1","date":"2025-11-07T16:06:49.128Z"},{"rt":null,"stimulus":"<p style=\"font-size: 50px; margin: 0; text-align: center;\">+</p>","response":null,"trial_type":"html-keyboard-response","trial_index":67,"plugin_version":"2.1.0","time_elapsed":238419,"subject_id":"88720","group":"Group1","date":"2025-11-07T16:06:49.128Z"},{"task":"memory_phase","broad_category":"M","image_png":"M_Slate_07.png","image_id":311,"category_name":"Slate","category":20,"distinct_rating":3.48,"rt":null,"stimulus":"Stimuli_Rocks480/M_Slate_07.png","response":null,"trial_type":"image-keyboard-response","trial_index":68,"plugin_version":"2.1.0","time_elapsed":240930,"subject_id":"88720","group":"Group1","date":"2025-11-07T16:06:49.128Z"},{"rt":null,"stimulus":"<p style=\"font-size: 50px; margin: 0; text-align: center;\">+</p>","response":null,"trial_type":"html-keyboard-response","trial_index":69,"plugin_version":"2.1.0","time_elapsed":241940,"subject_id":"88720","group":"Group1","date":"2025-11-07T16:06:49.128Z"},{"task":"memory_phase","broad_category":"S","image_png":"S_Breccia_15.png","image_id":351,"category_name":"Breccia","category":22,"distinct_rating":5.43,"rt":null,"stimulus":"Stimuli_Rocks480/S_Breccia_15.png","response":null,"trial_type":"image-keyboard-response","trial_index":70,"plugin_version":"2.1.0","time_elapsed":244452,"subject_id":"88720","group":"Group1","date":"2025-11-07T16:06:49.128Z"},{"rt":null,"stimulus":"<p style=\"font-size: 50px; margin: 0; text-align: center;\">+</p>","response":null,"trial_type":"html-keyboard-response","trial_index":71,"plugin_version":"2.1.0","time_elapsed":245468,"subject_id":"88720","group":"Group1","date":"2025-11-07T16:06:49.128Z"},{"task":"memory_phase","broad_category":"S","image_png":"S_Conglomerate_07.png","image_id":375,"category_name":"Conglomerate","category":24,"distinct_rating":6.97,"rt":null,"stimulus":"Stimuli_Rocks480/S_Conglomerate_07.png","response":null,"trial_type":"image-keyboard-response","trial_index":72,"plugin_version":"2.1.0","time_elapsed":247971,"subject_id":"88720","group":"Group1","date":"2025-11-07T16:06:49.128Z"},{"rt":null,"stimulus":"<p style=\"font-size: 50px; margin: 0; text-align: center;\">+</p>","response":null,"trial_type":"html-keyboard-response","trial_index":73,"plugin_version":"2.1.0","time_elapsed":248986,"subject_id":"88720","group":"Group1","date":"2025-11-07T16:06:49.128Z"},{"task":"memory_phase","broad_category":"M","image_png":"M_Marble_13.png","image_id":237,"category_name":"Marble","category":15,"distinct_rating":3.8,"rt":null,"stimulus":"Stimuli_Rocks480/M_Marble_13.png","response":null,"trial_type":"image-keyboard-response","trial_index":74,"plugin_version":"2.1.0","time_elapsed":251502,"subject_id":"88720","group":"Group1","date":"2025-11-07T16:06:49.128Z"},{"rt":null,"stimulus":"<p style=\"font-size: 50px; margin: 0; text-align: center;\">+</p>","response":null,"trial_type":"html-keyboard-response","trial_index":75,"plugin_version":"2.1.0","time_elapsed":252511,"subject_id":"88720","group":"Group1","date":"2025-11-07T16:06:49.128Z"},{"task":"memory_phase","broad_category":"S","image_png":"S_Conglomerate_03.png","image_id":371,"category_name":"Conglomerate","category":24,"distinct_rating":4.73,"rt":null,"stimulus":"Stimuli_Rocks480/S_Conglomerate_03.png","response":null,"trial_type":"image-keyboard-response","trial_index":76,"plugin_version":"2.1.0","time_elapsed":255017,"subject_id":"88720","group":"Group1","date":"2025-11-07T16:06:49.128Z"},{"rt":null,"stimulus":"<p style=\"font-size: 50px; margin: 0; text-align: center;\">+</p>","response":null,"trial_type":"html-keyboard-response","trial_index":77,"plugin_version":"2.1.0","time_elapsed":256033,"subject_id":"88720","group":"Group1","date":"2025-11-07T16:06:49.128Z"},{"task":"memory_phase","broad_category":"I","image_png":"I_Gabbro_09.png","image_id":57,"category_name":"Gabbro","category":4,"distinct_rating":3.48,"rt":null,"stimulus":"Stimuli_Rocks480/I_Gabbro_09.png","response":null,"trial_type":"image-keyboard-response","trial_index":78,"plugin_version":"2.1.0","time_elapsed":258549,"subject_id":"88720","group":"Group1","date":"2025-11-07T16:06:49.128Z"},{"rt":null,"stimulus":"<p style=\"font-size: 50px; margin: 0; text-align: center;\">+</p>","response":null,"trial_type":"html-keyboard-response","trial_index":79,"plugin_version":"2.1.0","time_elapsed":259554,"subject_id":"88720","group":"Group1","date":"2025-11-07T16:06:49.128Z"},{"task":"memory_phase","broad_category":"M","image_png":"M_Phyllite_06.png","image_id":262,"category_name":"Phyllite","category":17,"distinct_rating":3.03,"rt":null,"stimulus":"Stimuli_Rocks480/M_Phyllite_06.png","response":null,"trial_type":"image-keyboard-response","trial_index":80,"plugin_version":"2.1.0","time_elapsed":262063,"subject_id":"88720","group":"Group1","date":"2025-11-07T16:06:49.128Z"},{"rt":null,"stimulus":"<p style=\"font-size: 50px; margin: 0; text-align: center;\">+</p>","response":null,"trial_type":"html-keyboard-response","trial_index":81,"plugin_version":"2.1.0","time_elapsed":263071,"subject_id":"88720","group":"Group1","date":"2025-11-07T16:06:49.128Z"},{"task":"memory_phase","broad_category":"I","image_png":"I_Diorite_13.png","image_id":45,"category_name":"Diorite","category":3,"distinct_rating":4.58,"rt":null,"stimulus":"Stimuli_Rocks480/I_Diorite_13.png","response":null,"trial_type":"image-keyboard-response","trial_index":82,"plugin_version":"2.1.0","time_elapsed":265586,"subject_id":"88720","group":"Group1","date":"2025-11-07T16:06:49.128Z"},{"rt":null,"stimulus":"<p style=\"font-size: 50px; margin: 0; text-align: center;\">+</p>","response":null,"trial_type":"html-keyboard-response","trial_index":83,"plugin_version":"2.1.0","time_elapsed":266600,"subject_id":"88720","group":"Group1","date":"2025-11-07T16:06:49.128Z"},{"task":"memory_phase","broad_category":"I","image_png":"I_Granite_10.png","image_id":74,"category_name":"Granite","category":5,"distinct_rating":4.34,"rt":null,"stimulus":"Stimuli_Rocks480/I_Granite_10.png","response":null,"trial_type":"image-keyboard-response","trial_index":84,"plugin_version":"2.1.0","time_elapsed":269117,"subject_id":"88720","group":"Group1","date":"2025-11-07T16:06:49.128Z"},{"rt":null,"stimulus":"<p style=\"font-size: 50px; margin: 0; text-align: center;\">+</p>","response":null,"trial_type":"html-keyboard-response","trial_index":85,"plugin_version":"2.1.0","time_elapsed":270130,"subject_id":"88720","group":"Group1","date":"2025-11-07T16:06:49.128Z"},{"task":"memory_phase","broad_category":"S","image_png":"S_Shale_11.png","image_id":475,"category_name":"Shale","category":30,"distinct_rating":4.05,"rt":null,"stimulus":"Stimuli_Rocks480/S_Shale_11.png","response":null,"trial_type":"image-keyboard-response","trial_index":86,"plugin_version":"2.1.0","time_elapsed":272635,"subject_id":"88720","group":"Group1","date":"2025-11-07T16:06:49.128Z"},{"rt":null,"stimulus":"<p style=\"font-size: 50px; margin: 0; text-align: center;\">+</p>","response":null,"trial_type":"html-keyboard-response","trial_index":87,"plugin_version":"2.1.0","time_elapsed":273648,"subject_id":"88720","group":"Group1","date":"2025-11-07T16:06:49.128Z"},{"task":"memory_phase","broad_category":"S","image_png":"S_Breccia_08.png","image_id":344,"category_name":"Breccia","category":22,"distinct_rating":7.14,"rt":null,"stimulus":"Stimuli_Rocks480/S_Breccia_08.png","response":null,"trial_type":"image-keyboard-response","trial_index":88,"plugin_version":"2.1.0","time_elapsed":276151,"subject_id":"88720","group":"Group1","date":"2025-11-07T16:06:49.128Z"},{"rt":null,"stimulus":"<p style=\"font-size: 50px; margin: 0; text-align: center;\">+</p>","response":null,"trial_type":"html-keyboard-response","trial_index":89,"plugin_version":"2.1.0","time_elapsed":277167,"subject_id":"88720","group":"Group1","date":"2025-11-07T16:06:49.128Z"},{"task":"memory_phase","broad_category":"I","image_png":"I_Obsidian_04.png","image_id":84,"category_name":"Obsidian","category":6,"distinct_rating":5.67,"rt":null,"stimulus":"Stimuli_Rocks480/I_Obsidian_04.png","response":null,"trial_type":"image-keyboard-response","trial_index":90,"plugin_version":"2.1.0","time_elapsed":279679,"subject_id":"88720","group":"Group1","date":"2025-11-07T16:06:49.128Z"},{"rt":null,"stimulus":"<p style=\"font-size: 50px; margin: 0; text-align: center;\">+</p>","response":null,"trial_type":"html-keyboard-response","trial_index":91,"plugin_version":"2.1.0","time_elapsed":280686,"subject_id":"88720","group":"Group1","date":"2025-11-07T16:06:49.128Z"},{"task":"memory_phase","broad_category":"I","image_png":"I_Diorite_08.png","image_id":40,"category_name":"Diorite","category":3,"distinct_rating":4.94,"rt":null,"stimulus":"Stimuli_Rocks480/I_Diorite_08.png","response":null,"trial_type":"image-keyboard-response","trial_index":92,"plugin_version":"2.1.0","time_elapsed":283204,"subject_id":"88720","group":"Group1","date":"2025-11-07T16:06:49.128Z"},{"rt":null,"stimulus":"<p style=\"font-size: 50px; margin: 0; text-align: center;\">+</p>","response":null,"trial_type":"html-keyboard-response","trial_index":93,"plugin_version":"2.1.0","time_elapsed":284215,"subject_id":"88720","group":"Group1","date":"2025-11-07T16:06:49.128Z"},{"task":"memory_phase","broad_category":"S","image_png":"S_Rock Salt_15.png","image_id":447,"category_name":"Rock Salt","category":28,"distinct_rating":7.79,"rt":null,"stimulus":"Stimuli_Rocks480/S_Rock Salt_15.png","response":null,"trial_type":"image-keyboard-response","trial_index":94,"plugin_version":"2.1.0","time_elapsed":286721,"subject_id":"88720","group":"Group1","date":"2025-11-07T16:06:49.128Z"},{"rt":null,"stimulus":"<p style=\"font-size: 50px; margin: 0; text-align: center;\">+</p>","response":null,"trial_type":"html-keyboard-response","trial_index":95,"plugin_version":"2.1.0","time_elapsed":287737,"subject_id":"88720","group":"Group1","date":"2025-11-07T16:06:49.128Z"},{"task":"memory_phase","broad_category":"I","image_png":"I_Pegmatite_10.png","image_id":106,"category_name":"Pegmatite","category":7,"distinct_rating":7.66,"rt":null,"stimulus":"Stimuli_Rocks480/I_Pegmatite_10.png","response":null,"trial_type":"image-keyboard-response","trial_index":96,"plugin_version":"2.1.0","time_elapsed":290252,"subject_id":"88720","group":"Group1","date":"2025-11-07T16:06:49.128Z"},{"rt":null,"stimulus":"<p style=\"font-size: 50px; margin: 0; text-align: center;\">+</p>","response":null,"trial_type":"html-keyboard-response","trial_index":97,"plugin_version":"2.1.0","time_elapsed":291270,"subject_id":"88720","group":"Group1","date":"2025-11-07T16:06:49.128Z"},{"task":"memory_phase","broad_category":"M","image_png":"M_Schist_05.png","image_id":293,"category_name":"Schist","category":19,"distinct_rating":3.66,"rt":null,"stimulus":"Stimuli_Rocks480/M_Schist_05.png","response":null,"trial_type":"image-keyboard-response","trial_index":98,"plugin_version":"2.1.0","time_elapsed":293777,"subject_id":"88720","group":"Group1","date":"2025-11-07T16:06:49.128Z"},{"rt":null,"stimulus":"<p style=\"font-size: 50px; margin: 0; text-align: center;\">+</p>","response":null,"trial_type":"html-keyboard-response","trial_index":99,"plugin_version":"2.1.0","time_elapsed":294782,"subject_id":"88720","group":"Group1","date":"2025-11-07T16:06:49.128Z"},{"task":"memory_phase","broad_category":"M","image_png":"M_Migmatite_14.png","image_id":254,"category_name":"Migmatite","category":16,"distinct_rating":4.62,"rt":null,"stimulus":"Stimuli_Rocks480/M_Migmatite_14.png","response":null,"trial_type":"image-keyboard-response","trial_index":100,"plugin_version":"2.1.0","time_elapsed":297284,"subject_id":"88720","group":"Group1","date":"2025-11-07T16:06:49.128Z"},{"rt":2621,"stimulus":"<p style=\"font-size: 35px;\">Press SPACE to continue study phase</p>","response":" ","trial_type":"html-keyboard-response","trial_index":101,"plugin_version":"2.1.0","time_elapsed":299907,"subject_id":"88720","group":"Group1","date":"2025-11-07T16:06:49.128Z"},{"rt":null,"stimulus":"<p style=\"font-size: 50px; margin: 0; text-align: center;\">+</p>","response":null,"trial_type":"html-keyboard-response","trial_index":102,"plugin_version":"2.1.0","time_elapsed":300916,"subject_id":"88720","group":"Group1","date":"2025-11-07T16:06:49.128Z"},{"task":"memory_phase","broad_category":"S","image_png":"S_Sandstone_02.png","image_id":450,"category_name":"Sandstone","category":29,"distinct_rating":2.09,"rt":null,"stimulus":"Stimuli_Rocks480/S_Sandstone_02.png","response":null,"trial_type":"image-keyboard-response","trial_index":103,"plugin_version":"2.1.0","time_elapsed":303434,"subject_id":"88720","group":"Group1","date":"2025-11-07T16:06:49.128Z"},{"rt":null,"stimulus":"<p style=\"font-size: 50px; margin: 0; text-align: center;\">+</p>","response":null,"trial_type":"html-keyboard-response","trial_index":104,"plugin_version":"2.1.0","time_elapsed":304452,"subject_id":"88720","group":"Group1","date":"2025-11-07T16:06:49.128Z"},{"task":"memory_phase","broad_category":"M","image_png":"M_Gneiss_02.png","image_id":194,"category_name":"Gneiss","category":13,"distinct_rating":3.75,"rt":null,"stimulus":"Stimuli_Rocks480/M_Gneiss_02.png","response":null,"trial_type":"image-keyboard-response","trial_index":105,"plugin_version":"2.1.0","time_elapsed":306959,"subject_id":"88720","group":"Group1","date":"2025-11-07T16:06:49.128Z"},{"rt":null,"stimulus":"<p style=\"font-size: 50px; margin: 0; text-align: center;\">+</p>","response":null,"trial_type":"html-keyboard-response","trial_index":106,"plugin_version":"2.1.0","time_elapsed":307969,"subject_id":"88720","group":"Group1","date":"2025-11-07T16:06:49.128Z"},{"task":"memory_phase","broad_category":"M","image_png":"M_Marble_01.png","image_id":225,"category_name":"Marble","category":15,"distinct_rating":4.1,"rt":null,"stimulus":"Stimuli_Rocks480/M_Marble_01.png","response":null,"trial_type":"image-keyboard-response","trial_index":107,"plugin_version":"2.1.0","time_elapsed":310480,"subject_id":"88720","group":"Group1","date":"2025-11-07T16:06:49.128Z"},{"rt":null,"stimulus":"<p style=\"font-size: 50px; margin: 0; text-align: center;\">+</p>","response":null,"trial_type":"html-keyboard-response","trial_index":108,"plugin_version":"2.1.0","time_elapsed":311482,"subject_id":"88720","group":"Group1","date":"2025-11-07T16:06:49.128Z"},{"task":"memory_phase","broad_category":"I","image_png":"I_Andesite_07.png","image_id":7,"category_name":"Andesite","category":1,"distinct_rating":4.81,"rt":null,"stimulus":"Stimuli_Rocks480/I_Andesite_07.png","response":null,"trial_type":"image-keyboard-response","trial_index":109,"plugin_version":"2.1.0","time_elapsed":314000,"subject_id":"88720","group":"Group1","date":"2025-11-07T16:06:49.128Z"},{"rt":null,"stimulus":"<p style=\"font-size: 50px; margin: 0; text-align: center;\">+</p>","response":null,"trial_type":"html-keyboard-response","trial_index":110,"plugin_version":"2.1.0","time_elapsed":315017,"subject_id":"88720","group":"Group1","date":"2025-11-07T16:06:49.128Z"},{"task":"memory_phase","broad_category":"S","image_png":"S_Bituminous Coal_13.png","image_id":333,"category_name":"Bituminous Coal","category":21,"distinct_rating":5.06,"rt":null,"stimulus":"Stimuli_Rocks480/S_Bituminous Coal_13.png","response":null,"trial_type":"image-keyboard-response","trial_index":111,"plugin_version":"2.1.0","time_elapsed":317534,"subject_id":"88720","group":"Group1","date":"2025-11-07T16:06:49.128Z"},{"rt":null,"stimulus":"<p style=\"font-size: 50px; margin: 0; text-align: center;\">+</p>","response":null,"trial_type":"html-keyboard-response","trial_index":112,"plugin_version":"2.1.0","time_elapsed":318552,"subject_id":"88720","group":"Group1","date":"2025-11-07T16:06:49.128Z"},{"task":"memory_phase","broad_category":"S","image_png":"S_Bituminous Coal_14.png","image_id":334,"category_name":"Bituminous Coal","category":21,"distinct_rating":4.51,"rt":null,"stimulus":"Stimuli_Rocks480/S_Bituminous Coal_14.png","response":null,"trial_type":"image-keyboard-response","trial_index":113,"plugin_version":"2.1.0","time_elapsed":321069,"subject_id":"88720","group":"Group1","date":"2025-11-07T16:06:49.128Z"},{"rt":null,"stimulus":"<p style=\"font-size: 50px; margin: 0; text-align: center;\">+</p>","response":null,"trial_type":"html-keyboard-response","trial_index":114,"plugin_version":"2.1.0","time_elapsed":322083,"subject_id":"88720","group":"Group1","date":"2025-11-07T16:06:49.128Z"},{"task":"memory_phase","broad_category":"I","image_png":"I_Peridotite_11.png","image_id":123,"category_name":"Peridotite","category":8,"distinct_rating":3.59,"rt":null,"stimulus":"Stimuli_Rocks480/I_Peridotite_11.png","response":null,"trial_type":"image-keyboard-response","trial_index":115,"plugin_version":"2.1.0","time_elapsed":324587,"subject_id":"88720","group":"Group1","date":"2025-11-07T16:06:49.128Z"},{"rt":null,"stimulus":"<p style=\"font-size: 50px; margin: 0; text-align: center;\">+</p>","response":null,"trial_type":"html-keyboard-response","trial_index":116,"plugin_version":"2.1.0","time_elapsed":325594,"subject_id":"88720","group":"Group1","date":"2025-11-07T16:06:49.128Z"},{"task":"memory_phase","broad_category":"I","image_png":"I_Obsidian_13.png","image_id":93,"category_name":"Obsidian","category":6,"distinct_rating":4.85,"rt":null,"stimulus":"Stimuli_Rocks480/I_Obsidian_13.png","response":null,"trial_type":"image-keyboard-response","trial_index":117,"plugin_version":"2.1.0","time_elapsed":328096,"subject_id":"88720","group":"Group1","date":"2025-11-07T16:06:49.128Z"},{"rt":null,"stimulus":"<p style=\"font-size: 50px; margin: 0; text-align: center;\">+</p>","response":null,"trial_type":"html-keyboard-response","trial_index":118,"plugin_version":"2.1.0","time_elapsed":329110,"subject_id":"88720","group":"Group1","date":"2025-11-07T16:06:49.128Z"},{"task":"memory_phase","broad_category":"M","image_png":"M_Schist_13.png","image_id":301,"category_name":"Schist","category":19,"distinct_rating":3.37,"rt":null,"stimulus":"Stimuli_Rocks480/M_Schist_13.png","response":null,"trial_type":"image-keyboard-response","trial_index":119,"plugin_version":"2.1.0","time_elapsed":331617,"subject_id":"88720","group":"Group1","date":"2025-11-07T16:06:49.128Z"},{"rt":null,"stimulus":"<p style=\"font-size: 50px; margin: 0; text-align: center;\">+</p>","response":null,"trial_type":"html-keyboard-response","trial_index":120,"plugin_version":"2.1.0","time_elapsed":332631,"subject_id":"88720","group":"Group1","date":"2025-11-07T16:06:49.128Z"},{"task":"memory_phase","broad_category":"S","image_png":"S_Sandstone_05.png","image_id":453,"category_name":"Sandstone","category":29,"distinct_rating":5.42,"rt":null,"stimulus":"Stimuli_Rocks480/S_Sandstone_05.png","response":null,"trial_type":"image-keyboard-response","trial_index":121,"plugin_version":"2.1.0","time_elapsed":335144,"subject_id":"88720","group":"Group1","date":"2025-11-07T16:06:49.128Z"},{"rt":null,"stimulus":"<p style=\"font-size: 50px; margin: 0; text-align: center;\">+</p>","response":null,"trial_type":"html-keyboard-response","trial_index":122,"plugin_version":"2.1.0","time_elapsed":336149,"subject_id":"88720","group":"Group1","date":"2025-11-07T16:06:49.128Z"},{"task":"memory_phase","broad_category":"I","image_png":"I_Pumice_03.png","image_id":131,"category_name":"Pumice","category":9,"distinct_rating":3.41,"rt":null,"stimulus":"Stimuli_Rocks480/I_Pumice_03.png","response":null,"trial_type":"image-keyboard-response","trial_index":123,"plugin_version":"2.1.0","time_elapsed":338658,"subject_id":"88720","group":"Group1","date":"2025-11-07T16:06:49.128Z"},{"rt":null,"stimulus":"<p style=\"font-size: 50px; margin: 0; text-align: center;\">+</p>","response":null,"trial_type":"html-keyboard-response","trial_index":124,"plugin_version":"2.1.0","time_elapsed":339674,"subject_id":"88720","group":"Group1","date":"2025-11-07T16:06:49.128Z"},{"task":"memory_phase","broad_category":"M","image_png":"M_Anthracite_07.png","image_id":183,"category_name":"Anthracite","category":12,"distinct_rating":4.27,"rt":null,"stimulus":"Stimuli_Rocks480/M_Anthracite_07.png","response":null,"trial_type":"image-keyboard-response","trial_index":125,"plugin_version":"2.1.0","time_elapsed":342179,"subject_id":"88720","group":"Group1","date":"2025-11-07T16:06:49.128Z"},{"rt":null,"stimulus":"<p style=\"font-size: 50px; margin: 0; text-align: center;\">+</p>","response":null,"trial_type":"html-keyboard-response","trial_index":126,"plugin_version":"2.1.0","time_elapsed":343194,"subject_id":"88720","group":"Group1","date":"2025-11-07T16:06:49.128Z"},{"task":"memory_phase","broad_category":"I","image_png":"I_Obsidian_05.png","image_id":85,"category_name":"Obsidian","category":6,"distinct_rating":7.32,"rt":null,"stimulus":"Stimuli_Rocks480/I_Obsidian_05.png","response":null,"trial_type":"image-keyboard-response","trial_index":127,"plugin_version":"2.1.0","time_elapsed":345696,"subject_id":"88720","group":"Group1","date":"2025-11-07T16:06:49.128Z"},{"rt":null,"stimulus":"<p style=\"font-size: 50px; margin: 0; text-align: center;\">+</p>","response":null,"trial_type":"html-keyboard-response","trial_index":128,"plugin_version":"2.1.0","time_elapsed":346712,"subject_id":"88720","group":"Group1","date":"2025-11-07T16:06:49.128Z"},{"task":"memory_phase","broad_category":"S","image_png":"S_Breccia_12.png","image_id":348,"category_name":"Breccia","category":22,"distinct_rating":5.03,"rt":null,"stimulus":"Stimuli_Rocks480/S_Breccia_12.png","response":null,"trial_type":"image-keyboard-response","trial_index":129,"plugin_version":"2.1.0","time_elapsed":349215,"subject_id":"88720","group":"Group1","date":"2025-11-07T16:06:49.128Z"},{"rt":null,"stimulus":"<p style=\"font-size: 50px; margin: 0; text-align: center;\">+</p>","response":null,"trial_type":"html-keyboard-response","trial_index":130,"plugin_version":"2.1.0","time_elapsed":350230,"subject_id":"88720","group":"Group1","date":"2025-11-07T16:06:49.128Z"},{"task":"memory_phase","broad_category":"M","image_png":"M_Hornfels_04.png","image_id":212,"category_name":"Hornfels","category":14,"distinct_rating":2.22,"rt":null,"stimulus":"Stimuli_Rocks480/M_Hornfels_04.png","response":null,"trial_type":"image-keyboard-response","trial_index":131,"plugin_version":"2.1.0","time_elapsed":352749,"subject_id":"88720","group":"Group1","date":"2025-11-07T16:06:49.128Z"},{"rt":null,"stimulus":"<p style=\"font-size: 50px; margin: 0; text-align: center;\">+</p>","response":null,"trial_type":"html-keyboard-response","trial_index":132,"plugin_version":"2.1.0","time_elapsed":353765,"subject_id":"88720","group":"Group1","date":"2025-11-07T16:06:49.128Z"},{"task":"memory_phase","broad_category":"S","image_png":"S_Micrite_07.png","image_id":407,"category_name":"Micrite","category":26,"distinct_rating":1.85,"rt":null,"stimulus":"Stimuli_Rocks480/S_Micrite_07.png","response":null,"trial_type":"image-keyboard-response","trial_index":133,"plugin_version":"2.1.0","time_elapsed":356278,"subject_id":"88720","group":"Group1","date":"2025-11-07T16:06:49.128Z"},{"rt":null,"stimulus":"<p style=\"font-size: 50px; margin: 0; text-align: center;\">+</p>","response":null,"trial_type":"html-keyboard-response","trial_index":134,"plugin_version":"2.1.0","time_elapsed":357281,"subject_id":"88720","group":"Group1","date":"2025-11-07T16:06:49.128Z"},{"task":"memory_phase","broad_category":"M","image_png":"M_Quartzite_04.png","image_id":276,"category_name":"Quartzite","category":18,"distinct_rating":3.06,"rt":null,"stimulus":"Stimuli_Rocks480/M_Quartzite_04.png","response":null,"trial_type":"image-keyboard-response","trial_index":135,"plugin_version":"2.1.0","time_elapsed":359791,"subject_id":"88720","group":"Group1","date":"2025-11-07T16:06:49.128Z"},{"rt":null,"stimulus":"<p style=\"font-size: 50px; margin: 0; text-align: center;\">+</p>","response":null,"trial_type":"html-keyboard-response","trial_index":136,"plugin_version":"2.1.0","time_elapsed":360797,"subject_id":"88720","group":"Group1","date":"2025-11-07T16:06:49.128Z"},{"task":"memory_phase","broad_category":"S","image_png":"S_Rock Salt_11.png","image_id":443,"category_name":"Rock Salt","category":28,"distinct_rating":4.9,"rt":null,"stimulus":"Stimuli_Rocks480/S_Rock Salt_11.png","response":null,"trial_type":"image-keyboard-response","trial_index":137,"plugin_version":"2.1.0","time_elapsed":363314,"subject_id":"88720","group":"Group1","date":"2025-11-07T16:06:49.128Z"},{"rt":null,"stimulus":"<p style=\"font-size: 50px; margin: 0; text-align: center;\">+</p>","response":null,"trial_type":"html-keyboard-response","trial_index":138,"plugin_version":"2.1.0","time_elapsed":364316,"subject_id":"88720","group":"Group1","date":"2025-11-07T16:06:49.128Z"},{"task":"memory_phase","broad_category":"I","image_png":"I_Granite_06.png","image_id":70,"category_name":"Granite","category":5,"distinct_rating":3.73,"rt":null,"stimulus":"Stimuli_Rocks480/I_Granite_06.png","response":null,"trial_type":"image-keyboard-response","trial_index":139,"plugin_version":"2.1.0","time_elapsed":366828,"subject_id":"88720","group":"Group1","date":"2025-11-07T16:06:49.128Z"},{"rt":null,"stimulus":"<p style=\"font-size: 50px; margin: 0; text-align: center;\">+</p>","response":null,"trial_type":"html-keyboard-response","trial_index":140,"plugin_version":"2.1.0","time_elapsed":367829,"subject_id":"88720","group":"Group1","date":"2025-11-07T16:06:49.128Z"},{"task":"memory_phase","broad_category":"M","image_png":"M_Marble_15.png","image_id":239,"category_name":"Marble","category":15,"distinct_rating":6.35,"rt":null,"stimulus":"Stimuli_Rocks480/M_Marble_15.png","response":null,"trial_type":"image-keyboard-response","trial_index":141,"plugin_version":"2.1.0","time_elapsed":370344,"subject_id":"88720","group":"Group1","date":"2025-11-07T16:06:49.128Z"},{"rt":null,"stimulus":"<p style=\"font-size: 50px; margin: 0; text-align: center;\">+</p>","response":null,"trial_type":"html-keyboard-response","trial_index":142,"plugin_version":"2.1.0","time_elapsed":371360,"subject_id":"88720","group":"Group1","date":"2025-11-07T16:06:49.128Z"},{"task":"memory_phase","broad_category":"M","image_png":"M_Amphibolite_08.png","image_id":168,"category_name":"Amphibolite","category":11,"distinct_rating":4.89,"rt":null,"stimulus":"Stimuli_Rocks480/M_Amphibolite_08.png","response":null,"trial_type":"image-keyboard-response","trial_index":143,"plugin_version":"2.1.0","time_elapsed":373865,"subject_id":"88720","group":"Group1","date":"2025-11-07T16:06:49.128Z"},{"rt":null,"stimulus":"<p style=\"font-size: 50px; margin: 0; text-align: center;\">+</p>","response":null,"trial_type":"html-keyboard-response","trial_index":144,"plugin_version":"2.1.0","time_elapsed":374881,"subject_id":"88720","group":"Group1","date":"2025-11-07T16:06:49.128Z"},{"task":"memory_phase","broad_category":"S","image_png":"S_Rock Salt_12.png","image_id":444,"category_name":"Rock Salt","category":28,"distinct_rating":5.86,"rt":null,"stimulus":"Stimuli_Rocks480/S_Rock Salt_12.png","response":null,"trial_type":"image-keyboard-response","trial_index":145,"plugin_version":"2.1.0","time_elapsed":377394,"subject_id":"88720","group":"Group1","date":"2025-11-07T16:06:49.128Z"},{"rt":null,"stimulus":"<p style=\"font-size: 50px; margin: 0; text-align: center;\">+</p>","response":null,"trial_type":"html-keyboard-response","trial_index":146,"plugin_version":"2.1.0","time_elapsed":378398,"subject_id":"88720","group":"Group1","date":"2025-11-07T16:06:49.128Z"},{"task":"memory_phase","broad_category":"M","image_png":"M_Phyllite_12.png","image_id":268,"category_name":"Phyllite","category":17,"distinct_rating":3.83,"rt":null,"stimulus":"Stimuli_Rocks480/M_Phyllite_12.png","response":null,"trial_type":"image-keyboard-response","trial_index":147,"plugin_version":"2.1.0","time_elapsed":380904,"subject_id":"88720","group":"Group1","date":"2025-11-07T16:06:49.128Z"},{"rt":null,"stimulus":"<p style=\"font-size: 50px; margin: 0; text-align: center;\">+</p>","response":null,"trial_type":"html-keyboard-response","trial_index":148,"plugin_version":"2.1.0","time_elapsed":381915,"subject_id":"88720","group":"Group1","date":"2025-11-07T16:06:49.128Z"},{"task":"memory_phase","broad_category":"S","image_png":"S_Breccia_07.png","image_id":343,"category_name":"Breccia","category":22,"distinct_rating":6.19,"rt":null,"stimulus":"Stimuli_Rocks480/S_Breccia_07.png","response":null,"trial_type":"image-keyboard-response","trial_index":149,"plugin_version":"2.1.0","time_elapsed":384430,"subject_id":"88720","group":"Group1","date":"2025-11-07T16:06:49.128Z"},{"rt":null,"stimulus":"<p style=\"font-size: 50px; margin: 0; text-align: center;\">+</p>","response":null,"trial_type":"html-keyboard-response","trial_index":150,"plugin_version":"2.1.0","time_elapsed":385446,"subject_id":"88720","group":"Group1","date":"2025-11-07T16:06:49.128Z"},{"task":"memory_phase","broad_category":"S","image_png":"S_Dolomite_11.png","image_id":395,"category_name":"Dolomite","category":25,"distinct_rating":5.56,"rt":null,"stimulus":"Stimuli_Rocks480/S_Dolomite_11.png","response":null,"trial_type":"image-keyboard-response","trial_index":151,"plugin_version":"2.1.0","time_elapsed":387962,"subject_id":"88720","group":"Group1","date":"2025-11-07T16:06:49.128Z"},{"rt":null,"stimulus":"<p style=\"font-size: 50px; margin: 0; text-align: center;\">+</p>","response":null,"trial_type":"html-keyboard-response","trial_index":152,"plugin_version":"2.1.0","time_elapsed":388978,"subject_id":"88720","group":"Group1","date":"2025-11-07T16:06:49.128Z"},{"task":"memory_phase","broad_category":"S","image_png":"S_Bituminous Coal_10.png","image_id":330,"category_name":"Bituminous Coal","category":21,"distinct_rating":3.47,"rt":null,"stimulus":"Stimuli_Rocks480/S_Bituminous Coal_10.png","response":null,"trial_type":"image-keyboard-response","trial_index":153,"plugin_version":"2.1.0","time_elapsed":391481,"subject_id":"88720","group":"Group1","date":"2025-11-07T16:06:49.128Z"},{"rt":null,"stimulus":"<p style=\"font-size: 50px; margin: 0; text-align: center;\">+</p>","response":null,"trial_type":"html-keyboard-response","trial_index":154,"plugin_version":"2.1.0","time_elapsed":392497,"subject_id":"88720","group":"Group1","date":"2025-11-07T16:06:49.128Z"},{"task":"memory_phase","broad_category":"I","image_png":"I_Obsidian_02.png","image_id":82,"category_name":"Obsidian","category":6,"distinct_rating":6.06,"rt":null,"stimulus":"Stimuli_Rocks480/I_Obsidian_02.png","response":null,"trial_type":"image-keyboard-response","trial_index":155,"plugin_version":"2.1.0","time_elapsed":395014,"subject_id":"88720","group":"Group1","date":"2025-11-07T16:06:49.128Z"},{"rt":null,"stimulus":"<p style=\"font-size: 50px; margin: 0; text-align: center;\">+</p>","response":null,"trial_type":"html-keyboard-response","trial_index":156,"plugin_version":"2.1.0","time_elapsed":396021,"subject_id":"88720","group":"Group1","date":"2025-11-07T16:06:49.128Z"},{"task":"memory_phase","broad_category":"I","image_png":"I_Basalt_04.png","image_id":20,"category_name":"Basalt","category":2,"distinct_rating":2.47,"rt":null,"stimulus":"Stimuli_Rocks480/I_Basalt_04.png","response":null,"trial_type":"image-keyboard-response","trial_index":157,"plugin_version":"2.1.0","time_elapsed":398539,"subject_id":"88720","group":"Group1","date":"2025-11-07T16:06:49.128Z"},{"rt":null,"stimulus":"<p style=\"font-size: 50px; margin: 0; text-align: center;\">+</p>","response":null,"trial_type":"html-keyboard-response","trial_index":158,"plugin_version":"2.1.0","time_elapsed":399554,"subject_id":"88720","group":"Group1","date":"2025-11-07T16:06:49.128Z"},{"task":"memory_phase","broad_category":"I","image_png":"I_Basalt_03.png","image_id":19,"category_name":"Basalt","category":2,"distinct_rating":2.94,"rt":null,"stimulus":"Stimuli_Rocks480/I_Basalt_03.png","response":null,"trial_type":"image-keyboard-response","trial_index":159,"plugin_version":"2.1.0","time_elapsed":402059,"subject_id":"88720","group":"Group1","date":"2025-11-07T16:06:49.128Z"},{"rt":null,"stimulus":"<p style=\"font-size: 50px; margin: 0; text-align: center;\">+</p>","response":null,"trial_type":"html-keyboard-response","trial_index":160,"plugin_version":"2.1.0","time_elapsed":403076,"subject_id":"88720","group":"Group1","date":"2025-11-07T16:06:49.128Z"},{"task":"memory_phase","broad_category":"S","image_png":"S_Dolomite_10.png","image_id":394,"category_name":"Dolomite","category":25,"distinct_rating":3.57,"rt":null,"stimulus":"Stimuli_Rocks480/S_Dolomite_10.png","response":null,"trial_type":"image-keyboard-response","trial_index":161,"plugin_version":"2.1.0","time_elapsed":405590,"subject_id":"88720","group":"Group1","date":"2025-11-07T16:06:49.128Z"},{"rt":null,"stimulus":"<p style=\"font-size: 50px; margin: 0; text-align: center;\">+</p>","response":null,"trial_type":"html-keyboard-response","trial_index":162,"plugin_version":"2.1.0","time_elapsed":406596,"subject_id":"88720","group":"Group1","date":"2025-11-07T16:06:49.128Z"},{"task":"memory_phase","broad_category":"I","image_png":"I_Diorite_12.png","image_id":44,"category_name":"Diorite","category":3,"distinct_rating":3.55,"rt":null,"stimulus":"Stimuli_Rocks480/I_Diorite_12.png","response":null,"trial_type":"image-keyboard-response","trial_index":163,"plugin_version":"2.1.0","time_elapsed":409107,"subject_id":"88720","group":"Group1","date":"2025-11-07T16:06:49.128Z"},{"rt":null,"stimulus":"<p style=\"font-size: 50px; margin: 0; text-align: center;\">+</p>","response":null,"trial_type":"html-keyboard-response","trial_index":164,"plugin_version":"2.1.0","time_elapsed":410118,"subject_id":"88720","group":"Group1","date":"2025-11-07T16:06:49.128Z"},{"task":"memory_phase","broad_category":"S","image_png":"S_Shale_10.png","image_id":474,"category_name":"Shale","category":30,"distinct_rating":1.91,"rt":null,"stimulus":"Stimuli_Rocks480/S_Shale_10.png","response":null,"trial_type":"image-keyboard-response","trial_index":165,"plugin_version":"2.1.0","time_elapsed":412623,"subject_id":"88720","group":"Group1","date":"2025-11-07T16:06:49.128Z"},{"rt":null,"stimulus":"<p style=\"font-size: 50px; margin: 0; text-align: center;\">+</p>","response":null,"trial_type":"html-keyboard-response","trial_index":166,"plugin_version":"2.1.0","time_elapsed":413637,"subject_id":"88720","group":"Group1","date":"2025-11-07T16:06:49.128Z"},{"task":"memory_phase","broad_category":"I","image_png":"I_Peridotite_09.png","image_id":121,"category_name":"Peridotite","category":8,"distinct_rating":5.71,"rt":null,"stimulus":"Stimuli_Rocks480/I_Peridotite_09.png","response":null,"trial_type":"image-keyboard-response","trial_index":167,"plugin_version":"2.1.0","time_elapsed":416141,"subject_id":"88720","group":"Group1","date":"2025-11-07T16:06:49.128Z"},{"rt":null,"stimulus":"<p style=\"font-size: 50px; margin: 0; text-align: center;\">+</p>","response":null,"trial_type":"html-keyboard-response","trial_index":168,"plugin_version":"2.1.0","time_elapsed":417151,"subject_id":"88720","group":"Group1","date":"2025-11-07T16:06:49.128Z"},{"task":"memory_phase","broad_category":"M","image_png":"M_Slate_06.png","image_id":310,"category_name":"Slate","category":20,"distinct_rating":2.86,"rt":null,"stimulus":"Stimuli_Rocks480/M_Slate_06.png","response":null,"trial_type":"image-keyboard-response","trial_index":169,"plugin_version":"2.1.0","time_elapsed":419657,"subject_id":"88720","group":"Group1","date":"2025-11-07T16:06:49.128Z"},{"rt":null,"stimulus":"<p style=\"font-size: 50px; margin: 0; text-align: center;\">+</p>","response":null,"trial_type":"html-keyboard-response","trial_index":170,"plugin_version":"2.1.0","time_elapsed":420660,"subject_id":"88720","group":"Group1","date":"2025-11-07T16:06:49.128Z"},{"task":"memory_phase","broad_category":"I","image_png":"I_Rhyolite_13.png","image_id":157,"category_name":"Rhyolite","category":10,"distinct_rating":4.83,"rt":null,"stimulus":"Stimuli_Rocks480/I_Rhyolite_13.png","response":null,"trial_type":"image-keyboard-response","trial_index":171,"plugin_version":"2.1.0","time_elapsed":423162,"subject_id":"88720","group":"Group1","date":"2025-11-07T16:06:49.128Z"},{"rt":null,"stimulus":"<p style=\"font-size: 50px; margin: 0; text-align: center;\">+</p>","response":null,"trial_type":"html-keyboard-response","trial_index":172,"plugin_version":"2.1.0","time_elapsed":424178,"subject_id":"88720","group":"Group1","date":"2025-11-07T16:06:49.128Z"},{"task":"memory_phase","broad_category":"M","image_png":"M_Phyllite_10.png","image_id":266,"category_name":"Phyllite","category":17,"distinct_rating":2.6,"rt":null,"stimulus":"Stimuli_Rocks480/M_Phyllite_10.png","response":null,"trial_type":"image-keyboard-response","trial_index":173,"plugin_version":"2.1.0","time_elapsed":426693,"subject_id":"88720","group":"Group1","date":"2025-11-07T16:06:49.128Z"},{"rt":null,"stimulus":"<p style=\"font-size: 50px; margin: 0; text-align: center;\">+</p>","response":null,"trial_type":"html-keyboard-response","trial_index":174,"plugin_version":"2.1.0","time_elapsed":427708,"subject_id":"88720","group":"Group1","date":"2025-11-07T16:06:49.128Z"},{"task":"memory_phase","broad_category":"I","image_png":"I_Andesite_06.png","image_id":6,"category_name":"Andesite","category":1,"distinct_rating":3.17,"rt":null,"stimulus":"Stimuli_Rocks480/I_Andesite_06.png","response":null,"trial_type":"image-keyboard-response","trial_index":175,"plugin_version":"2.1.0","time_elapsed":430222,"subject_id":"88720","group":"Group1","date":"2025-11-07T16:06:49.128Z"},{"rt":null,"stimulus":"<p style=\"font-size: 50px; margin: 0; text-align: center;\">+</p>","response":null,"trial_type":"html-keyboard-response","trial_index":176,"plugin_version":"2.1.0","time_elapsed":431228,"subject_id":"88720","group":"Group1","date":"2025-11-07T16:06:49.128Z"},{"task":"memory_phase","broad_category":"S","image_png":"S_Conglomerate_16.png","image_id":384,"category_name":"Conglomerate","category":24,"distinct_rating":6.38,"rt":null,"stimulus":"Stimuli_Rocks480/S_Conglomerate_16.png","response":null,"trial_type":"image-keyboard-response","trial_index":177,"plugin_version":"2.1.0","time_elapsed":433733,"subject_id":"88720","group":"Group1","date":"2025-11-07T16:06:49.128Z"},{"rt":null,"stimulus":"<p style=\"font-size: 50px; margin: 0; text-align: center;\">+</p>","response":null,"trial_type":"html-keyboard-response","trial_index":178,"plugin_version":"2.1.0","time_elapsed":434746,"subject_id":"88720","group":"Group1","date":"2025-11-07T16:06:49.128Z"},{"task":"memory_phase","broad_category":"I","image_png":"I_Basalt_01.png","image_id":17,"category_name":"Basalt","category":2,"distinct_rating":1.92,"rt":null,"stimulus":"Stimuli_Rocks480/I_Basalt_01.png","response":null,"trial_type":"image-keyboard-response","trial_index":179,"plugin_version":"2.1.0","time_elapsed":437262,"subject_id":"88720","group":"Group1","date":"2025-11-07T16:06:49.128Z"},{"rt":null,"stimulus":"<p style=\"font-size: 50px; margin: 0; text-align: center;\">+</p>","response":null,"trial_type":"html-keyboard-response","trial_index":180,"plugin_version":"2.1.0","time_elapsed":438274,"subject_id":"88720","group":"Group1","date":"2025-11-07T16:06:49.128Z"},{"task":"memory_phase","broad_category":"S","image_png":"S_Conglomerate_10.png","image_id":378,"category_name":"Conglomerate","category":24,"distinct_rating":5.63,"rt":null,"stimulus":"Stimuli_Rocks480/S_Conglomerate_10.png","response":null,"trial_type":"image-keyboard-response","trial_index":181,"plugin_version":"2.1.0","time_elapsed":440777,"subject_id":"88720","group":"Group1","date":"2025-11-07T16:06:49.128Z"},{"rt":null,"stimulus":"<p style=\"font-size: 50px; margin: 0; text-align: center;\">+</p>","response":null,"trial_type":"html-keyboard-response","trial_index":182,"plugin_version":"2.1.0","time_elapsed":441790,"subject_id":"88720","group":"Group1","date":"2025-11-07T16:06:49.128Z"},{"task":"memory_phase","broad_category":"S","image_png":"S_Shale_01.png","image_id":465,"category_name":"Shale","category":30,"distinct_rating":2.7,"rt":null,"stimulus":"Stimuli_Rocks480/S_Shale_01.png","response":null,"trial_type":"image-keyboard-response","trial_index":183,"plugin_version":"2.1.0","time_elapsed":444294,"subject_id":"88720","group":"Group1","date":"2025-11-07T16:06:49.128Z"},{"rt":null,"stimulus":"<p style=\"font-size: 50px; margin: 0; text-align: center;\">+</p>","response":null,"trial_type":"html-keyboard-response","trial_index":184,"plugin_version":"2.1.0","time_elapsed":445311,"subject_id":"88720","group":"Group1","date":"2025-11-07T16:06:49.128Z"},{"task":"memory_phase","broad_category":"S","image_png":"S_Bituminous Coal_08.png","image_id":328,"category_name":"Bituminous Coal","category":21,"distinct_rating":3.92,"rt":null,"stimulus":"Stimuli_Rocks480/S_Bituminous Coal_08.png","response":null,"trial_type":"image-keyboard-response","trial_index":185,"plugin_version":"2.1.0","time_elapsed":447821,"subject_id":"88720","group":"Group1","date":"2025-11-07T16:06:49.128Z"},{"rt":null,"stimulus":"<p style=\"font-size: 50px; margin: 0; text-align: center;\">+</p>","response":null,"trial_type":"html-keyboard-response","trial_index":186,"plugin_version":"2.1.0","time_elapsed":448823,"subject_id":"88720","group":"Group1","date":"2025-11-07T16:06:49.128Z"},{"task":"memory_phase","broad_category":"M","image_png":"M_Migmatite_03.png","image_id":243,"category_name":"Migmatite","category":16,"distinct_rating":3.7,"rt":null,"stimulus":"Stimuli_Rocks480/M_Migmatite_03.png","response":null,"trial_type":"image-keyboard-response","trial_index":187,"plugin_version":"2.1.0","time_elapsed":451340,"subject_id":"88720","group":"Group1","date":"2025-11-07T16:06:49.128Z"},{"rt":null,"stimulus":"<p style=\"font-size: 50px; margin: 0; text-align: center;\">+</p>","response":null,"trial_type":"html-keyboard-response","trial_index":188,"plugin_version":"2.1.0","time_elapsed":452346,"subject_id":"88720","group":"Group1","date":"2025-11-07T16:06:49.128Z"},{"task":"memory_phase","broad_category":"I","image_png":"I_Gabbro_12.png","image_id":60,"category_name":"Gabbro","category":4,"distinct_rating":2.6,"rt":null,"stimulus":"Stimuli_Rocks480/I_Gabbro_12.png","response":null,"trial_type":"image-keyboard-response","trial_index":189,"plugin_version":"2.1.0","time_elapsed":454858,"subject_id":"88720","group":"Group1","date":"2025-11-07T16:06:49.128Z"},{"rt":null,"stimulus":"<p style=\"font-size: 50px; margin: 0; text-align: center;\">+</p>","response":null,"trial_type":"html-keyboard-response","trial_index":190,"plugin_version":"2.1.0","time_elapsed":455874,"subject_id":"88720","group":"Group1","date":"2025-11-07T16:06:49.128Z"},{"task":"memory_phase","broad_category":"M","image_png":"M_Amphibolite_14.png","image_id":174,"category_name":"Amphibolite","category":11,"distinct_rating":3.65,"rt":null,"stimulus":"Stimuli_Rocks480/M_Amphibolite_14.png","response":null,"trial_type":"image-keyboard-response","trial_index":191,"plugin_version":"2.1.0","time_elapsed":458393,"subject_id":"88720","group":"Group1","date":"2025-11-07T16:06:49.128Z"},{"rt":null,"stimulus":"<p style=\"font-size: 50px; margin: 0; text-align: center;\">+</p>","response":null,"trial_type":"html-keyboard-response","trial_index":192,"plugin_version":"2.1.0","time_elapsed":459409,"subject_id":"88720","group":"Group1","date":"2025-11-07T16:06:49.128Z"},{"task":"memory_phase","broad_category":"I","image_png":"I_Rhyolite_16.png","image_id":160,"category_name":"Rhyolite","category":10,"distinct_rating":2.19,"rt":null,"stimulus":"Stimuli_Rocks480/I_Rhyolite_16.png","response":null,"trial_type":"image-keyboard-response","trial_index":193,"plugin_version":"2.1.0","time_elapsed":461916,"subject_id":"88720","group":"Group1","date":"2025-11-07T16:06:49.128Z"},{"rt":null,"stimulus":"<p style=\"font-size: 50px; margin: 0; text-align: center;\">+</p>","response":null,"trial_type":"html-keyboard-response","trial_index":194,"plugin_version":"2.1.0","time_elapsed":462926,"subject_id":"88720","group":"Group1","date":"2025-11-07T16:06:49.128Z"},{"task":"memory_phase","broad_category":"I","image_png":"I_Pumice_15.png","image_id":143,"category_name":"Pumice","category":9,"distinct_rating":4.18,"rt":null,"stimulus":"Stimuli_Rocks480/I_Pumice_15.png","response":null,"trial_type":"image-keyboard-response","trial_index":195,"plugin_version":"2.1.0","time_elapsed":465450,"subject_id":"88720","group":"Group1","date":"2025-11-07T16:06:49.128Z"},{"rt":null,"stimulus":"<p style=\"font-size: 50px; margin: 0; text-align: center;\">+</p>","response":null,"trial_type":"html-keyboard-response","trial_index":196,"plugin_version":"2.1.0","time_elapsed":466451,"subject_id":"88720","group":"Group1","date":"2025-11-07T16:06:49.128Z"},{"task":"memory_phase","broad_category":"M","image_png":"M_Amphibolite_04.png","image_id":164,"category_name":"Amphibolite","category":11,"distinct_rating":2.89,"rt":null,"stimulus":"Stimuli_Rocks480/M_Amphibolite_04.png","response":null,"trial_type":"image-keyboard-response","trial_index":197,"plugin_version":"2.1.0","time_elapsed":468958,"subject_id":"88720","group":"Group1","date":"2025-11-07T16:06:49.128Z"},{"rt":1802,"stimulus":"<p style=\"font-size: 35px;\">Press SPACE to continue study phase</p>","response":" ","trial_type":"html-keyboard-response","trial_index":198,"plugin_version":"2.1.0","time_elapsed":470761,"subject_id":"88720","group":"Group1","date":"2025-11-07T16:06:49.128Z"},{"rt":null,"stimulus":"<p style=\"font-size: 50px; margin: 0; text-align: center;\">+</p>","response":null,"trial_type":"html-keyboard-response","trial_index":199,"plugin_version":"2.1.0","time_elapsed":471763,"subject_id":"88720","group":"Group1","date":"2025-11-07T16:06:49.128Z"},{"task":"memory_phase","broad_category":"M","image_png":"M_Anthracite_13.png","image_id":189,"category_name":"Anthracite","category":12,"distinct_rating":4.81,"rt":null,"stimulus":"Stimuli_Rocks480/M_Anthracite_13.png","response":null,"trial_type":"image-keyboard-response","trial_index":200,"plugin_version":"2.1.0","time_elapsed":474270,"subject_id":"88720","group":"Group1","date":"2025-11-07T16:06:49.128Z"},{"rt":null,"stimulus":"<p style=\"font-size: 50px; margin: 0; text-align: center;\">+</p>","response":null,"trial_type":"html-keyboard-response","trial_index":201,"plugin_version":"2.1.0","time_elapsed":475284,"subject_id":"88720","group":"Group1","date":"2025-11-07T16:06:49.128Z"},{"task":"memory_phase","broad_category":"I","image_png":"I_Andesite_11.png","image_id":11,"category_name":"Andesite","category":1,"distinct_rating":3.35,"rt":null,"stimulus":"Stimuli_Rocks480/I_Andesite_11.png","response":null,"trial_type":"image-keyboard-response","trial_index":202,"plugin_version":"2.1.0","time_elapsed":477789,"subject_id":"88720","group":"Group1","date":"2025-11-07T16:06:49.128Z"},{"rt":null,"stimulus":"<p style=\"font-size: 50px; margin: 0; text-align: center;\">+</p>","response":null,"trial_type":"html-keyboard-response","trial_index":203,"plugin_version":"2.1.0","time_elapsed":478806,"subject_id":"88720","group":"Group1","date":"2025-11-07T16:06:49.128Z"},{"task":"memory_phase","broad_category":"M","image_png":"M_Schist_12.png","image_id":300,"category_name":"Schist","category":19,"distinct_rating":4.27,"rt":null,"stimulus":"Stimuli_Rocks480/M_Schist_12.png","response":null,"trial_type":"image-keyboard-response","trial_index":204,"plugin_version":"2.1.0","time_elapsed":481321,"subject_id":"88720","group":"Group1","date":"2025-11-07T16:06:49.128Z"},{"rt":null,"stimulus":"<p style=\"font-size: 50px; margin: 0; text-align: center;\">+</p>","response":null,"trial_type":"html-keyboard-response","trial_index":205,"plugin_version":"2.1.0","time_elapsed":482336,"subject_id":"88720","group":"Group1","date":"2025-11-07T16:06:49.128Z"},{"task":"memory_phase","broad_category":"I","image_png":"I_Pumice_09.png","image_id":137,"category_name":"Pumice","category":9,"distinct_rating":5.5,"rt":null,"stimulus":"Stimuli_Rocks480/I_Pumice_09.png","response":null,"trial_type":"image-keyboard-response","trial_index":206,"plugin_version":"2.1.0","time_elapsed":484850,"subject_id":"88720","group":"Group1","date":"2025-11-07T16:06:49.128Z"},{"rt":null,"stimulus":"<p style=\"font-size: 50px; margin: 0; text-align: center;\">+</p>","response":null,"trial_type":"html-keyboard-response","trial_index":207,"plugin_version":"2.1.0","time_elapsed":485860,"subject_id":"88720","group":"Group1","date":"2025-11-07T16:06:49.128Z"},{"task":"memory_phase","broad_category":"M","image_png":"M_Schist_08.png","image_id":296,"category_name":"Schist","category":19,"distinct_rating":6.46,"rt":null,"stimulus":"Stimuli_Rocks480/M_Schist_08.png","response":null,"trial_type":"image-keyboard-response","trial_index":208,"plugin_version":"2.1.0","time_elapsed":488377,"subject_id":"88720","group":"Group1","date":"2025-11-07T16:06:49.128Z"},{"rt":null,"stimulus":"<p style=\"font-size: 50px; margin: 0; text-align: center;\">+</p>","response":null,"trial_type":"html-keyboard-response","trial_index":209,"plugin_version":"2.1.0","time_elapsed":489389,"subject_id":"88720","group":"Group1","date":"2025-11-07T16:06:49.128Z"},{"task":"memory_phase","broad_category":"M","image_png":"M_Anthracite_15.png","image_id":191,"category_name":"Anthracite","category":12,"distinct_rating":4.62,"rt":null,"stimulus":"Stimuli_Rocks480/M_Anthracite_15.png","response":null,"trial_type":"image-keyboard-response","trial_index":210,"plugin_version":"2.1.0","time_elapsed":491907,"subject_id":"88720","group":"Group1","date":"2025-11-07T16:06:49.128Z"},{"rt":null,"stimulus":"<p style=\"font-size: 50px; margin: 0; text-align: center;\">+</p>","response":null,"trial_type":"html-keyboard-response","trial_index":211,"plugin_version":"2.1.0","time_elapsed":492920,"subject_id":"88720","group":"Group1","date":"2025-11-07T16:06:49.128Z"},{"task":"memory_phase","broad_category":"I","image_png":"I_Pegmatite_12.png","image_id":108,"category_name":"Pegmatite","category":7,"distinct_rating":5.15,"rt":null,"stimulus":"Stimuli_Rocks480/I_Pegmatite_12.png","response":null,"trial_type":"image-keyboard-response","trial_index":212,"plugin_version":"2.1.0","time_elapsed":495430,"subject_id":"88720","group":"Group1","date":"2025-11-07T16:06:49.128Z"},{"rt":null,"stimulus":"<p style=\"font-size: 50px; margin: 0; text-align: center;\">+</p>","response":null,"trial_type":"html-keyboard-response","trial_index":213,"plugin_version":"2.1.0","time_elapsed":496440,"subject_id":"88720","group":"Group1","date":"2025-11-07T16:06:49.128Z"},{"task":"memory_phase","broad_category":"S","image_png":"S_Rock Gypsum_13.png","image_id":429,"category_name":"Rock Gypsum","category":27,"distinct_rating":4.94,"rt":null,"stimulus":"Stimuli_Rocks480/S_Rock Gypsum_13.png","response":null,"trial_type":"image-keyboard-response","trial_index":214,"plugin_version":"2.1.0","time_elapsed":498952,"subject_id":"88720","group":"Group1","date":"2025-11-07T16:06:49.128Z"},{"rt":null,"stimulus":"<p style=\"font-size: 50px; margin: 0; text-align: center;\">+</p>","response":null,"trial_type":"html-keyboard-response","trial_index":215,"plugin_version":"2.1.0","time_elapsed":499966,"subject_id":"88720","group":"Group1","date":"2025-11-07T16:06:49.128Z"},{"task":"memory_phase","broad_category":"M","image_png":"M_Hornfels_10.png","image_id":218,"category_name":"Hornfels","category":14,"distinct_rating":2.88,"rt":null,"stimulus":"Stimuli_Rocks480/M_Hornfels_10.png","response":null,"trial_type":"image-keyboard-response","trial_index":216,"plugin_version":"2.1.0","time_elapsed":502473,"subject_id":"88720","group":"Group1","date":"2025-11-07T16:06:49.128Z"},{"rt":null,"stimulus":"<p style=\"font-size: 50px; margin: 0; text-align: center;\">+</p>","response":null,"trial_type":"html-keyboard-response","trial_index":217,"plugin_version":"2.1.0","time_elapsed":503488,"subject_id":"88720","group":"Group1","date":"2025-11-07T16:06:49.128Z"},{"task":"memory_phase","broad_category":"M","image_png":"M_Quartzite_08.png","image_id":280,"category_name":"Quartzite","category":18,"distinct_rating":2.15,"rt":null,"stimulus":"Stimuli_Rocks480/M_Quartzite_08.png","response":null,"trial_type":"image-keyboard-response","trial_index":218,"plugin_version":"2.1.0","time_elapsed":506005,"subject_id":"88720","group":"Group1","date":"2025-11-07T16:06:49.128Z"},{"rt":null,"stimulus":"<p style=\"font-size: 50px; margin: 0; text-align: center;\">+</p>","response":null,"trial_type":"html-keyboard-response","trial_index":219,"plugin_version":"2.1.0","time_elapsed":507022,"subject_id":"88720","group":"Group1","date":"2025-11-07T16:06:49.128Z"},{"task":"memory_phase","broad_category":"I","image_png":"I_Pegmatite_09.png","image_id":105,"category_name":"Pegmatite","category":7,"distinct_rating":6.37,"rt":null,"stimulus":"Stimuli_Rocks480/I_Pegmatite_09.png","response":null,"trial_type":"image-keyboard-response","trial_index":220,"plugin_version":"2.1.0","time_elapsed":509536,"subject_id":"88720","group":"Group1","date":"2025-11-07T16:06:49.128Z"},{"rt":null,"stimulus":"<p style=\"font-size: 50px; margin: 0; text-align: center;\">+</p>","response":null,"trial_type":"html-keyboard-response","trial_index":221,"plugin_version":"2.1.0","time_elapsed":510545,"subject_id":"88720","group":"Group1","date":"2025-11-07T16:06:49.128Z"},{"task":"memory_phase","broad_category":"S","image_png":"S_Chert_10.png","image_id":362,"category_name":"Chert","category":23,"distinct_rating":7.17,"rt":null,"stimulus":"Stimuli_Rocks480/S_Chert_10.png","response":null,"trial_type":"image-keyboard-response","trial_index":222,"plugin_version":"2.1.0","time_elapsed":513054,"subject_id":"88720","group":"Group1","date":"2025-11-07T16:06:49.128Z"},{"rt":null,"stimulus":"<p style=\"font-size: 50px; margin: 0; text-align: center;\">+</p>","response":null,"trial_type":"html-keyboard-response","trial_index":223,"plugin_version":"2.1.0","time_elapsed":514063,"subject_id":"88720","group":"Group1","date":"2025-11-07T16:06:49.128Z"},{"task":"memory_phase","broad_category":"M","image_png":"M_Marble_02.png","image_id":226,"category_name":"Marble","category":15,"distinct_rating":3.2,"rt":null,"stimulus":"Stimuli_Rocks480/M_Marble_02.png","response":null,"trial_type":"image-keyboard-response","trial_index":224,"plugin_version":"2.1.0","time_elapsed":516567,"subject_id":"88720","group":"Group1","date":"2025-11-07T16:06:49.128Z"},{"rt":null,"stimulus":"<p style=\"font-size: 50px; margin: 0; text-align: center;\">+</p>","response":null,"trial_type":"html-keyboard-response","trial_index":225,"plugin_version":"2.1.0","time_elapsed":517572,"subject_id":"88720","group":"Group1","date":"2025-11-07T16:06:49.128Z"},{"task":"memory_phase","broad_category":"I","image_png":"I_Granite_09.png","image_id":73,"category_name":"Granite","category":5,"distinct_rating":5.38,"rt":null,"stimulus":"Stimuli_Rocks480/I_Granite_09.png","response":null,"trial_type":"image-keyboard-response","trial_index":226,"plugin_version":"2.1.0","time_elapsed":520085,"subject_id":"88720","group":"Group1","date":"2025-11-07T16:06:49.128Z"},{"rt":null,"stimulus":"<p style=\"font-size: 50px; margin: 0; text-align: center;\">+</p>","response":null,"trial_type":"html-keyboard-response","trial_index":227,"plugin_version":"2.1.0","time_elapsed":521101,"subject_id":"88720","group":"Group1","date":"2025-11-07T16:06:49.128Z"},{"task":"memory_phase","broad_category":"S","image_png":"S_Shale_12.png","image_id":476,"category_name":"Shale","category":30,"distinct_rating":2.48,"rt":null,"stimulus":"Stimuli_Rocks480/S_Shale_12.png","response":null,"trial_type":"image-keyboard-response","trial_index":228,"plugin_version":"2.1.0","time_elapsed":523606,"subject_id":"88720","group":"Group1","date":"2025-11-07T16:06:49.128Z"},{"rt":null,"stimulus":"<p style=\"font-size: 50px; margin: 0; text-align: center;\">+</p>","response":null,"trial_type":"html-keyboard-response","trial_index":229,"plugin_version":"2.1.0","time_elapsed":524619,"subject_id":"88720","group":"Group1","date":"2025-11-07T16:06:49.128Z"},{"task":"memory_phase","broad_category":"I","image_png":"I_Rhyolite_05.png","image_id":149,"category_name":"Rhyolite","category":10,"distinct_rating":3.02,"rt":null,"stimulus":"Stimuli_Rocks480/I_Rhyolite_05.png","response":null,"trial_type":"image-keyboard-response","trial_index":230,"plugin_version":"2.1.0","time_elapsed":527136,"subject_id":"88720","group":"Group1","date":"2025-11-07T16:06:49.128Z"},{"rt":null,"stimulus":"<p style=\"font-size: 50px; margin: 0; text-align: center;\">+</p>","response":null,"trial_type":"html-keyboard-response","trial_index":231,"plugin_version":"2.1.0","time_elapsed":528149,"subject_id":"88720","group":"Group1","date":"2025-11-07T16:06:49.128Z"},{"task":"memory_phase","broad_category":"S","image_png":"S_Sandstone_09.png","image_id":457,"category_name":"Sandstone","category":29,"distinct_rating":3.66,"rt":null,"stimulus":"Stimuli_Rocks480/S_Sandstone_09.png","response":null,"trial_type":"image-keyboard-response","trial_index":232,"plugin_version":"2.1.0","time_elapsed":530655,"subject_id":"88720","group":"Group1","date":"2025-11-07T16:06:49.128Z"},{"rt":null,"stimulus":"<p style=\"font-size: 50px; margin: 0; text-align: center;\">+</p>","response":null,"trial_type":"html-keyboard-response","trial_index":233,"plugin_version":"2.1.0","time_elapsed":531658,"subject_id":"88720","group":"Group1","date":"2025-11-07T16:06:49.128Z"},{"task":"memory_phase","broad_category":"I","image_png":"I_Pumice_13.png","image_id":141,"category_name":"Pumice","category":9,"distinct_rating":3.12,"rt":null,"stimulus":"Stimuli_Rocks480/I_Pumice_13.png","response":null,"trial_type":"image-keyboard-response","trial_index":234,"plugin_version":"2.1.0","time_elapsed":534164,"subject_id":"88720","group":"Group1","date":"2025-11-07T16:06:49.128Z"},{"rt":null,"stimulus":"<p style=\"font-size: 50px; margin: 0; text-align: center;\">+</p>","response":null,"trial_type":"html-keyboard-response","trial_index":235,"plugin_version":"2.1.0","time_elapsed":535172,"subject_id":"88720","group":"Group1","date":"2025-11-07T16:06:49.128Z"},{"task":"memory_phase","broad_category":"I","image_png":"I_Peridotite_04.png","image_id":116,"category_name":"Peridotite","category":8,"distinct_rating":6.39,"rt":null,"stimulus":"Stimuli_Rocks480/I_Peridotite_04.png","response":null,"trial_type":"image-keyboard-response","trial_index":236,"plugin_version":"2.1.0","time_elapsed":537688,"subject_id":"88720","group":"Group1","date":"2025-11-07T16:06:49.128Z"},{"rt":null,"stimulus":"<p style=\"font-size: 50px; margin: 0; text-align: center;\">+</p>","response":null,"trial_type":"html-keyboard-response","trial_index":237,"plugin_version":"2.1.0","time_elapsed":538705,"subject_id":"88720","group":"Group1","date":"2025-11-07T16:06:49.128Z"},{"task":"memory_phase","broad_category":"S","image_png":"S_Rock Salt_09.png","image_id":441,"category_name":"Rock Salt","category":28,"distinct_rating":7.08,"rt":null,"stimulus":"Stimuli_Rocks480/S_Rock Salt_09.png","response":null,"trial_type":"image-keyboard-response","trial_index":238,"plugin_version":"2.1.0","time_elapsed":541220,"subject_id":"88720","group":"Group1","date":"2025-11-07T16:06:49.128Z"},{"rt":null,"stimulus":"<p style=\"font-size: 50px; margin: 0; text-align: center;\">+</p>","response":null,"trial_type":"html-keyboard-response","trial_index":239,"plugin_version":"2.1.0","time_elapsed":542238,"subject_id":"88720","group":"Group1","date":"2025-11-07T16:06:49.128Z"},{"task":"memory_phase","broad_category":"S","image_png":"S_Chert_16.png","image_id":368,"category_name":"Chert","category":23,"distinct_rating":5.43,"rt":null,"stimulus":"Stimuli_Rocks480/S_Chert_16.png","response":null,"trial_type":"image-keyboard-response","trial_index":240,"plugin_version":"2.1.0","time_elapsed":544745,"subject_id":"88720","group":"Group1","date":"2025-11-07T16:06:49.128Z"},{"rt":null,"stimulus":"<p style=\"font-size: 50px; margin: 0; text-align: center;\">+</p>","response":null,"trial_type":"html-keyboard-response","trial_index":241,"plugin_version":"2.1.0","time_elapsed":545763,"subject_id":"88720","group":"Group1","date":"2025-11-07T16:06:49.128Z"},{"task":"memory_phase","broad_category":"I","image_png":"I_Peridotite_10.png","image_id":122,"category_name":"Peridotite","category":8,"distinct_rating":4.64,"rt":null,"stimulus":"Stimuli_Rocks480/I_Peridotite_10.png","response":null,"trial_type":"image-keyboard-response","trial_index":242,"plugin_version":"2.1.0","time_elapsed":548270,"subject_id":"88720","group":"Group1","date":"2025-11-07T16:06:49.128Z"},{"rt":null,"stimulus":"<p style=\"font-size: 50px; margin: 0; text-align: center;\">+</p>","response":null,"trial_type":"html-keyboard-response","trial_index":243,"plugin_version":"2.1.0","time_elapsed":549282,"subject_id":"88720","group":"Group1","date":"2025-11-07T16:06:49.128Z"},{"task":"memory_phase","broad_category":"I","image_png":"I_Gabbro_04.png","image_id":52,"category_name":"Gabbro","category":4,"distinct_rating":4.1,"rt":null,"stimulus":"Stimuli_Rocks480/I_Gabbro_04.png","response":null,"trial_type":"image-keyboard-response","trial_index":244,"plugin_version":"2.1.0","time_elapsed":551786,"subject_id":"88720","group":"Group1","date":"2025-11-07T16:06:49.128Z"},{"rt":null,"stimulus":"<p style=\"font-size: 50px; margin: 0; text-align: center;\">+</p>","response":null,"trial_type":"html-keyboard-response","trial_index":245,"plugin_version":"2.1.0","time_elapsed":552803,"subject_id":"88720","group":"Group1","date":"2025-11-07T16:06:49.128Z"},{"task":"memory_phase","broad_category":"I","image_png":"I_Andesite_02.png","image_id":2,"category_name":"Andesite","category":1,"distinct_rating":3.93,"rt":null,"stimulus":"Stimuli_Rocks480/I_Andesite_02.png","response":null,"trial_type":"image-keyboard-response","trial_index":246,"plugin_version":"2.1.0","time_elapsed":555319,"subject_id":"88720","group":"Group1","date":"2025-11-07T16:06:49.128Z"},{"rt":130673,"stimulus":"<div style=\"max-width: 760px; margin: auto; font-size: 20px; line-height: 1.5;\">\n      <h1 style=\"text-align:center; font-size: 30px;\">Instructions for the Test Phase</h1>\n      <p>\n        The study phase is now complete.\n      </p>\n      <p>\n        In the test phase, you will again see a series of rock images. \n        Some will be ones you saw before - during the study phase, while others will be new.  \n        <b>Your task</b> is to decide whether you have seen each image before by pressing the corresponding key on your keyboard:<br><br>\n          <b>A</b> - NO (you did not see this image before)<br>\n          <b>L</b> - YES (you saw this image before)<br><br>\n        The test will proceed at your own pace. You will receive feedback after each response.  \n        Please try to respond <b>as accurately as possible</b>.\n      </p>\n      <p>\n        <b>Reminder:</b> If your computer has multiple language settings (e.g., English and another language),\n        please ensure it is set to English during the test phase.\n      </p>\n      <p>\n        You can track your progress using the <b>completion bar</b> at the top of the screen.  \n        Note that it has been refreshed to reflect your progress during this final phase.\n      </p>\n      <p>\n        Press the button below when you are ready to continue.\n      </p>\n    </div>","response":0,"trial_type":"html-button-response","trial_index":247,"plugin_version":"2.1.0","time_elapsed":685995,"subject_id":"88720","group":"Group1","date":"2025-11-07T16:06:49.128Z"},{"correct_response":"a","task":"test_phase","broad_category":"M","image_png":"M_Gneiss_14.png","image_id":206,"category_name":"Gneiss","category":13,"distinct_rating":3.41,"item_type":"Foil","rt":4252,"stimulus":"Stimuli_Rocks480/M_Gneiss_14.png","response":"l","trial_type":"image-keyboard-response","trial_index":248,"plugin_version":"2.1.0","time_elapsed":690249,"subject_id":"88720","group":"Group1","date":"2025-11-07T16:06:49.128Z","cor_ans":false},{"trial_type":"html-keyboard-response","rt":null,"stimulus":"<p style=\"color: red; font-size: 50px; font-weight: bold;\">Incorrect</p>","response":null,"trial_index":249,"plugin_version":"2.1.0","time_elapsed":690762,"subject_id":"88720","group":"Group1","date":"2025-11-07T16:06:49.128Z"},{"correct_response":"a","task":"test_phase","broad_category":"M","image_png":"M_Amphibolite_09.png","image_id":169,"category_name":"Amphibolite","category":11,"distinct_rating":3.83,"item_type":"Foil","rt":3312,"stimulus":"Stimuli_Rocks480/M_Amphibolite_09.png","response":"a","trial_type":"image-keyboard-response","trial_index":250,"plugin_version":"2.1.0","time_elapsed":694077,"subject_id":"88720","group":"Group1","date":"2025-11-07T16:06:49.128Z","cor_ans":true},{"trial_type":"html-keyboard-response","rt":null,"stimulus":"<p style=\"color: green; font-size: 50px; font-weight: bold;\">Correct</p>","response":null,"trial_index":251,"plugin_version":"2.1.0","time_elapsed":694593,"subject_id":"88720","group":"Group1","date":"2025-11-07T16:06:49.128Z"},{"correct_response":"a","task":"test_phase","broad_category":"M","image_png":"M_Amphibolite_06.png","image_id":166,"category_name":"Amphibolite","category":11,"distinct_rating":2.8,"item_type":"Foil","rt":1823,"stimulus":"Stimuli_Rocks480/M_Amphibolite_06.png","response":"a","trial_type":"image-keyboard-response","trial_index":252,"plugin_version":"2.1.0","time_elapsed":696417,"subject_id":"88720","group":"Group1","date":"2025-11-07T16:06:49.128Z","cor_ans":true},{"trial_type":"html-keyboard-response","rt":null,"stimulus":"<p style=\"color: green; font-size: 50px; font-weight: bold;\">Correct</p>","response":null,"trial_index":253,"plugin_version":"2.1.0","time_elapsed":696930,"subject_id":"88720","group":"Group1","date":"2025-11-07T16:06:49.128Z"},{"correct_response":"l","task":"test_phase","broad_category":"I","image_png":"I_Granite_06.png","image_id":70,"category_name":"Granite","category":5,"distinct_rating":3.73,"item_type":"Target","rt":1641,"stimulus":"Stimuli_Rocks480/I_Granite_06.png","response":"l","trial_type":"image-keyboard-response","trial_index":254,"plugin_version":"2.1.0","time_elapsed":698573,"subject_id":"88720","group":"Group1","date":"2025-11-07T16:06:49.128Z","cor_ans":true},{"trial_type":"html-keyboard-response","rt":null,"stimulus":"<p style=\"color: green; font-size: 50px; font-weight: bold;\">Correct</p>","response":null,"trial_index":255,"plugin_version":"2.1.0","time_elapsed":699085,"subject_id":"88720","group":"Group1","date":"2025-11-07T16:06:49.128Z"},{"correct_response":"l","task":"test_phase","broad_category":"M","image_png":"M_Schist_13.png","image_id":301,"category_name":"Schist","category":19,"distinct_rating":3.37,"item_type":"Target","rt":2197,"stimulus":"Stimuli_Rocks480/M_Schist_13.png","response":"a","trial_type":"image-keyboard-response","trial_index":256,"plugin_version":"2.1.0","time_elapsed":701283,"subject_id":"88720","group":"Group1","date":"2025-11-07T16:06:49.128Z","cor_ans":false},{"trial_type":"html-keyboard-response","rt":null,"stimulus":"<p style=\"color: red; font-size: 50px; font-weight: bold;\">Incorrect</p>","response":null,"trial_index":257,"plugin_version":"2.1.0","time_elapsed":701796,"subject_id":"88720","group":"Group1","date":"2025-11-07T16:06:49.128Z"},{"correct_response":"l","task":"test_phase","broad_category":"S","image_png":"S_Rock Salt_15.png","image_id":447,"category_name":"Rock Salt","category":28,"distinct_rating":7.79,"item_type":"Target","rt":2400,"stimulus":"Stimuli_Rocks480/S_Rock Salt_15.png","response":"l","trial_type":"image-keyboard-response","trial_index":258,"plugin_version":"2.1.0","time_elapsed":704198,"subject_id":"88720","group":"Group1","date":"2025-11-07T16:06:49.128Z","cor_ans":true},{"trial_type":"html-keyboard-response","rt":null,"stimulus":"<p style=\"color: green; font-size: 50px; font-weight: bold;\">Correct</p>","response":null,"trial_index":259,"plugin_version":"2.1.0","time_elapsed":704704,"subject_id":"88720","group":"Group1","date":"2025-11-07T16:06:49.128Z"},{"correct_response":"a","task":"test_phase","broad_category":"I","image_png":"I_Pumice_06.png","image_id":134,"category_name":"Pumice","category":9,"distinct_rating":4.16,"item_type":"Foil","rt":1931,"stimulus":"Stimuli_Rocks480/I_Pumice_06.png","response":"a","trial_type":"image-keyboard-response","trial_index":260,"plugin_version":"2.1.0","time_elapsed":706637,"subject_id":"88720","group":"Group1","date":"2025-11-07T16:06:49.128Z","cor_ans":true},{"trial_type":"html-keyboard-response","rt":null,"stimulus":"<p style=\"color: green; font-size: 50px; font-weight: bold;\">Correct</p>","response":null,"trial_index":261,"plugin_version":"2.1.0","time_elapsed":707150,"subject_id":"88720","group":"Group1","date":"2025-11-07T16:06:49.128Z"},{"correct_response":"l","task":"test_phase","broad_category":"I","image_png":"I_Basalt_15.png","image_id":31,"category_name":"Basalt","category":2,"distinct_rating":4.03,"item_type":"Target","rt":1623,"stimulus":"Stimuli_Rocks480/I_Basalt_15.png","response":"a","trial_type":"image-keyboard-response","trial_index":262,"plugin_version":"2.1.0","time_elapsed":708775,"subject_id":"88720","group":"Group1","date":"2025-11-07T16:06:49.128Z","cor_ans":false},{"trial_type":"html-keyboard-response","rt":null,"stimulus":"<p style=\"color: red; font-size: 50px; font-weight: bold;\">Incorrect</p>","response":null,"trial_index":263,"plugin_version":"2.1.0","time_elapsed":709277,"subject_id":"88720","group":"Group1","date":"2025-11-07T16:06:49.128Z"},{"correct_response":"a","task":"test_phase","broad_category":"I","image_png":"I_Peridotite_08.png","image_id":120,"category_name":"Peridotite","category":8,"distinct_rating":4.77,"item_type":"Foil","rt":1268,"stimulus":"Stimuli_Rocks480/I_Peridotite_08.png","response":"l","trial_type":"image-keyboard-response","trial_index":264,"plugin_version":"2.1.0","time_elapsed":710547,"subject_id":"88720","group":"Group1","date":"2025-11-07T16:06:49.128Z","cor_ans":false},{"trial_type":"html-keyboard-response","rt":null,"stimulus":"<p style=\"color: red; font-size: 50px; font-weight: bold;\">Incorrect</p>","response":null,"trial_index":265,"plugin_version":"2.1.0","time_elapsed":711050,"subject_id":"88720","group":"Group1","date":"2025-11-07T16:06:49.128Z"},{"correct_response":"l","task":"test_phase","broad_category":"I","image_png":"I_Andesite_07.png","image_id":7,"category_name":"Andesite","category":1,"distinct_rating":4.81,"item_type":"Target","rt":1710,"stimulus":"Stimuli_Rocks480/I_Andesite_07.png","response":"l","trial_type":"image-keyboard-response","trial_index":266,"plugin_version":"2.1.0","time_elapsed":712762,"subject_id":"88720","group":"Group1","date":"2025-11-07T16:06:49.128Z","cor_ans":true},{"trial_type":"html-keyboard-response","rt":null,"stimulus":"<p style=\"color: green; font-size: 50px; font-weight: bold;\">Correct</p>","response":null,"trial_index":267,"plugin_version":"2.1.0","time_elapsed":713268,"subject_id":"88720","group":"Group1","date":"2025-11-07T16:06:49.128Z"},{"correct_response":"a","task":"test_phase","broad_category":"I","image_png":"I_Granite_01.png","image_id":65,"category_name":"Granite","category":5,"distinct_rating":5.23,"item_type":"Foil","rt":2050,"stimulus":"Stimuli_Rocks480/I_Granite_01.png","response":"a","trial_type":"image-keyboard-response","trial_index":268,"plugin_version":"2.1.0","time_elapsed":715320,"subject_id":"88720","group":"Group1","date":"2025-11-07T16:06:49.128Z","cor_ans":true},{"trial_type":"html-keyboard-response","rt":null,"stimulus":"<p style=\"color: green; font-size: 50px; font-weight: bold;\">Correct</p>","response":null,"trial_index":269,"plugin_version":"2.1.0","time_elapsed":715837,"subject_id":"88720","group":"Group1","date":"2025-11-07T16:06:49.128Z"},{"correct_response":"l","task":"test_phase","broad_category":"M","image_png":"M_Marble_01.png","image_id":225,"category_name":"Marble","category":15,"distinct_rating":4.1,"item_type":"Target","rt":1702,"stimulus":"Stimuli_Rocks480/M_Marble_01.png","response":"l","trial_type":"image-keyboard-response","trial_index":270,"plugin_version":"2.1.0","time_elapsed":717541,"subject_id":"88720","group":"Group1","date":"2025-11-07T16:06:49.128Z","cor_ans":true},{"trial_type":"html-keyboard-response","rt":null,"stimulus":"<p style=\"color: green; font-size: 50px; font-weight: bold;\">Correct</p>","response":null,"trial_index":271,"plugin_version":"2.1.0","time_elapsed":718058,"subject_id":"88720","group":"Group1","date":"2025-11-07T16:06:49.128Z"},{"correct_response":"l","task":"test_phase","broad_category":"I","image_png":"I_Peridotite_11.png","image_id":123,"category_name":"Peridotite","category":8,"distinct_rating":3.59,"item_type":"Target","rt":1148,"stimulus":"Stimuli_Rocks480/I_Peridotite_11.png","response":"l","trial_type":"image-keyboard-response","trial_index":272,"plugin_version":"2.1.0","time_elapsed":719208,"subject_id":"88720","group":"Group1","date":"2025-11-07T16:06:49.128Z","cor_ans":true},{"trial_type":"html-keyboard-response","rt":null,"stimulus":"<p style=\"color: green; font-size: 50px; font-weight: bold;\">Correct</p>","response":null,"trial_index":273,"plugin_version":"2.1.0","time_elapsed":719722,"subject_id":"88720","group":"Group1","date":"2025-11-07T16:06:49.128Z"},{"correct_response":"a","task":"test_phase","broad_category":"M","image_png":"M_Hornfels_14.png","image_id":222,"category_name":"Hornfels","category":14,"distinct_rating":2.3,"item_type":"Foil","rt":3091,"stimulus":"Stimuli_Rocks480/M_Hornfels_14.png","response":"a","trial_type":"image-keyboard-response","trial_index":274,"plugin_version":"2.1.0","time_elapsed":722815,"subject_id":"88720","group":"Group1","date":"2025-11-07T16:06:49.128Z","cor_ans":true},{"trial_type":"html-keyboard-response","rt":null,"stimulus":"<p style=\"color: green; font-size: 50px; font-weight: bold;\">Correct</p>","response":null,"trial_index":275,"plugin_version":"2.1.0","time_elapsed":723325,"subject_id":"88720","group":"Group1","date":"2025-11-07T16:06:49.128Z"},{"correct_response":"a","task":"test_phase","broad_category":"S","image_png":"S_Bituminous Coal_06.png","image_id":326,"category_name":"Bituminous Coal","category":21,"distinct_rating":3.4,"item_type":"Foil","rt":18109,"stimulus":"Stimuli_Rocks480/S_Bituminous Coal_06.png","response":"l","trial_type":"image-keyboard-response","trial_index":276,"plugin_version":"2.1.0","time_elapsed":741436,"subject_id":"88720","group":"Group1","date":"2025-11-07T16:06:49.128Z","cor_ans":false},{"trial_type":"html-keyboard-response","rt":null,"stimulus":"<p style=\"color: red; font-size: 50px; font-weight: bold;\">Incorrect</p>","response":null,"trial_index":277,"plugin_version":"2.1.0","time_elapsed":741941,"subject_id":"88720","group":"Group1","date":"2025-11-07T16:06:49.128Z"},{"correct_response":"l","task":"test_phase","broad_category":"I","image_png":"I_Peridotite_04.png","image_id":116,"category_name":"Peridotite","category":8,"distinct_rating":6.39,"item_type":"Target","rt":19335,"stimulus":"Stimuli_Rocks480/I_Peridotite_04.png","response":"l","trial_type":"image-keyboard-response","trial_index":278,"plugin_version":"2.1.0","time_elapsed":761277,"subject_id":"88720","group":"Group1","date":"2025-11-07T16:06:49.128Z","cor_ans":true},{"trial_type":"html-keyboard-response","rt":null,"stimulus":"<p style=\"color: green; font-size: 50px; font-weight: bold;\">Correct</p>","response":null,"trial_index":279,"plugin_version":"2.1.0","time_elapsed":761787,"subject_id":"88720","group":"Group1","date":"2025-11-07T16:06:49.128Z"},{"correct_response":"l","task":"test_phase","broad_category":"M","image_png":"M_Hornfels_12.png","image_id":220,"category_name":"Hornfels","category":14,"distinct_rating":2.62,"item_type":"Target","rt":1220,"stimulus":"Stimuli_Rocks480/M_Hornfels_12.png","response":"l","trial_type":"image-keyboard-response","trial_index":280,"plugin_version":"2.1.0","time_elapsed":763009,"subject_id":"88720","group":"Group1","date":"2025-11-07T16:06:49.128Z","cor_ans":true},{"trial_type":"html-keyboard-response","rt":null,"stimulus":"<p style=\"color: green; font-size: 50px; font-weight: bold;\">Correct</p>","response":null,"trial_index":281,"plugin_version":"2.1.0","time_elapsed":763525,"sub