[{"width":1536,"height":791,"webaudio":true,"browser":"chrome","browser_version":"140.0.0","mobile":false,"os":"Windows 10","fullscreen":true,"vsync_rate":9.19,"webcam":true,"microphone":true,"trial_type":"browser-check","trial_index":0,"plugin_version":"2.1.0","time_elapsed":6542,"subject_id":"87571","group":"Group1","date":"2025-09-16T21:32:48.133Z"},{"success":true,"timeout":false,"failed_images":[],"failed_audio":[],"failed_video":[],"trial_type":"preload","trial_index":1,"plugin_version":"2.1.0","time_elapsed":12367,"subject_id":"87571","group":"Group1","date":"2025-09-16T21:32:48.133Z"},{"rt":12850,"url":"SONA_consent_memorability.html","trial_type":"external-html","trial_index":2,"plugin_version":"2.1.0","time_elapsed":25272,"subject_id":"87571","group":"Group1","date":"2025-09-16T21:32:48.133Z"},{"success":true,"rt":1559,"trial_type":"fullscreen","trial_index":3,"plugin_version":"2.1.0","time_elapsed":27838,"subject_id":"87571","group":"Group1","date":"2025-09-16T21:32:48.133Z"},{"rt":7439,"stimulus":"<div style=\"max-width: 760px; margin: auto; font-size: 20px; line-height: 1.5;\">\n      <h1 style=\"text-align:center; font-size: 30px;\">Instructions</h1>\n      <p>\n        Welcome to the study on <b>visual memory</b>. This experiment consists of <b>two phases</b>: \n        a <b>study phase</b> and a <b>test phase</b>.\n      </p>\n      <p>\n        In the study phase, you will see a series of rock images along with their category labels.\n        The images will appear one at a time.\n        <b>Your task</b> is to learn the categories to which the rock images belong \n        and to remember each image as accurately as possible.\n      </p> \n      <p>\n        After the study phase, <b>your memory will be tested</b>. \n        Additional instructions for the test phase will be provided at that time.\n      </p>\n      <p>\n        If your computer has multiple <b>language settings</b> (e.g., English and another language),\n        please make sure it is set to English before starting.\n      </p>\n      <p>\n        You can track your progress using the <b>completion bar</b> at the top of the screen. \n        Please note that the bar will refresh when the test phase begins \n        to give you an accurate sense of your progress in both phases.\n      </p> \n      <p>\n        Press the button below when you are ready to begin.\n      </p>\n    </div>","response":0,"trial_type":"html-button-response","trial_index":4,"plugin_version":"2.1.0","time_elapsed":35281,"subject_id":"87571","group":"Group1","date":"2025-09-16T21:32:48.133Z"},{"rt":null,"stimulus":"<p style=\"font-size: 50px; margin: 0; text-align: center;\">+</p>","response":null,"trial_type":"html-keyboard-response","trial_index":5,"plugin_version":"2.1.0","time_elapsed":36288,"subject_id":"87571","group":"Group1","date":"2025-09-16T21:32:48.133Z"},{"task":"memory_phase","broad_category":"M","image_png":"M_Migmatite_14.png","image_id":254,"category_name":"Migmatite","category":16,"distinct_rating":4.62,"rt":null,"stimulus":"Stimuli_Rocks480/M_Migmatite_14.png","response":null,"trial_type":"image-keyboard-response","trial_index":6,"plugin_version":"2.1.0","time_elapsed":38807,"subject_id":"87571","group":"Group1","date":"2025-09-16T21:32:48.133Z"},{"rt":null,"stimulus":"<p style=\"font-size: 50px; margin: 0; text-align: center;\">+</p>","response":null,"trial_type":"html-keyboard-response","trial_index":7,"plugin_version":"2.1.0","time_elapsed":39811,"subject_id":"87571","group":"Group1","date":"2025-09-16T21:32:48.133Z"},{"task":"memory_phase","broad_category":"I","image_png":"I_Obsidian_13.png","image_id":93,"category_name":"Obsidian","category":6,"distinct_rating":4.85,"rt":null,"stimulus":"Stimuli_Rocks480/I_Obsidian_13.png","response":null,"trial_type":"image-keyboard-response","trial_index":8,"plugin_version":"2.1.0","time_elapsed":42323,"subject_id":"87571","group":"Group1","date":"2025-09-16T21:32:48.133Z"},{"rt":null,"stimulus":"<p style=\"font-size: 50px; margin: 0; text-align: center;\">+</p>","response":null,"trial_type":"html-keyboard-response","trial_index":9,"plugin_version":"2.1.0","time_elapsed":43335,"subject_id":"87571","group":"Group1","date":"2025-09-16T21:32:48.133Z"},{"task":"memory_phase","broad_category":"S","image_png":"S_Chert_09.png","image_id":361,"category_name":"Chert","category":23,"distinct_rating":4.92,"rt":null,"stimulus":"Stimuli_Rocks480/S_Chert_09.png","response":null,"trial_type":"image-keyboard-response","trial_index":10,"plugin_version":"2.1.0","time_elapsed":45844,"subject_id":"87571","group":"Group1","date":"2025-09-16T21:32:48.133Z"},{"rt":null,"stimulus":"<p style=\"font-size: 50px; margin: 0; text-align: center;\">+</p>","response":null,"trial_type":"html-keyboard-response","trial_index":11,"plugin_version":"2.1.0","time_elapsed":46847,"subject_id":"87571","group":"Group1","date":"2025-09-16T21:32:48.133Z"},{"task":"memory_phase","broad_category":"S","image_png":"S_Breccia_15.png","image_id":351,"category_name":"Breccia","category":22,"distinct_rating":5.43,"rt":null,"stimulus":"Stimuli_Rocks480/S_Breccia_15.png","response":null,"trial_type":"image-keyboard-response","trial_index":12,"plugin_version":"2.1.0","time_elapsed":49351,"subject_id":"87571","group":"Group1","date":"2025-09-16T21:32:48.133Z"},{"rt":null,"stimulus":"<p style=\"font-size: 50px; margin: 0; text-align: center;\">+</p>","response":null,"trial_type":"html-keyboard-response","trial_index":13,"plugin_version":"2.1.0","time_elapsed":50356,"subject_id":"87571","group":"Group1","date":"2025-09-16T21:32:48.133Z"},{"task":"memory_phase","broad_category":"M","image_png":"M_Phyllite_01.png","image_id":257,"category_name":"Phyllite","category":17,"distinct_rating":5.54,"rt":null,"stimulus":"Stimuli_Rocks480/M_Phyllite_01.png","response":null,"trial_type":"image-keyboard-response","trial_index":14,"plugin_version":"2.1.0","time_elapsed":52865,"subject_id":"87571","group":"Group1","date":"2025-09-16T21:32:48.133Z"},{"rt":null,"stimulus":"<p style=\"font-size: 50px; margin: 0; text-align: center;\">+</p>","response":null,"trial_type":"html-keyboard-response","trial_index":15,"plugin_version":"2.1.0","time_elapsed":53879,"subject_id":"87571","group":"Group1","date":"2025-09-16T21:32:48.133Z"},{"task":"memory_phase","broad_category":"I","image_png":"I_Diorite_13.png","image_id":45,"category_name":"Diorite","category":3,"distinct_rating":4.58,"rt":null,"stimulus":"Stimuli_Rocks480/I_Diorite_13.png","response":null,"trial_type":"image-keyboard-response","trial_index":16,"plugin_version":"2.1.0","time_elapsed":56388,"subject_id":"87571","group":"Group1","date":"2025-09-16T21:32:48.133Z"},{"rt":null,"stimulus":"<p style=\"font-size: 50px; margin: 0; text-align: center;\">+</p>","response":null,"trial_type":"html-keyboard-response","trial_index":17,"plugin_version":"2.1.0","time_elapsed":57396,"subject_id":"87571","group":"Group1","date":"2025-09-16T21:32:48.133Z"},{"task":"memory_phase","broad_category":"I","image_png":"I_Pumice_03.png","image_id":131,"category_name":"Pumice","category":9,"distinct_rating":3.41,"rt":null,"stimulus":"Stimuli_Rocks480/I_Pumice_03.png","response":null,"trial_type":"image-keyboard-response","trial_index":18,"plugin_version":"2.1.0","time_elapsed":59904,"subject_id":"87571","group":"Group1","date":"2025-09-16T21:32:48.133Z"},{"rt":null,"stimulus":"<p style=\"font-size: 50px; margin: 0; text-align: center;\">+</p>","response":null,"trial_type":"html-keyboard-response","trial_index":19,"plugin_version":"2.1.0","time_elapsed":60907,"subject_id":"87571","group":"Group1","date":"2025-09-16T21:32:48.133Z"},{"task":"memory_phase","broad_category":"S","image_png":"S_Breccia_12.png","image_id":348,"category_name":"Breccia","category":22,"distinct_rating":5.03,"rt":null,"stimulus":"Stimuli_Rocks480/S_Breccia_12.png","response":null,"trial_type":"image-keyboard-response","trial_index":20,"plugin_version":"2.1.0","time_elapsed":63410,"subject_id":"87571","group":"Group1","date":"2025-09-16T21:32:48.133Z"},{"rt":null,"stimulus":"<p style=\"font-size: 50px; margin: 0; text-align: center;\">+</p>","response":null,"trial_type":"html-keyboard-response","trial_index":21,"plugin_version":"2.1.0","time_elapsed":64416,"subject_id":"87571","group":"Group1","date":"2025-09-16T21:32:48.133Z"},{"task":"memory_phase","broad_category":"S","image_png":"S_Shale_10.png","image_id":474,"category_name":"Shale","category":30,"distinct_rating":1.91,"rt":null,"stimulus":"Stimuli_Rocks480/S_Shale_10.png","response":null,"trial_type":"image-keyboard-response","trial_index":22,"plugin_version":"2.1.0","time_elapsed":66920,"subject_id":"87571","group":"Group1","date":"2025-09-16T21:32:48.133Z"},{"rt":null,"stimulus":"<p style=\"font-size: 50px; margin: 0; text-align: center;\">+</p>","response":null,"trial_type":"html-keyboard-response","trial_index":23,"plugin_version":"2.1.0","time_elapsed":67921,"subject_id":"87571","group":"Group1","date":"2025-09-16T21:32:48.133Z"},{"task":"memory_phase","broad_category":"S","image_png":"S_Sandstone_09.png","image_id":457,"category_name":"Sandstone","category":29,"distinct_rating":3.66,"rt":null,"stimulus":"Stimuli_Rocks480/S_Sandstone_09.png","response":null,"trial_type":"image-keyboard-response","trial_index":24,"plugin_version":"2.1.0","time_elapsed":70433,"subject_id":"87571","group":"Group1","date":"2025-09-16T21:32:48.133Z"},{"rt":null,"stimulus":"<p style=\"font-size: 50px; margin: 0; text-align: center;\">+</p>","response":null,"trial_type":"html-keyboard-response","trial_index":25,"plugin_version":"2.1.0","time_elapsed":71447,"subject_id":"87571","group":"Group1","date":"2025-09-16T21:32:48.133Z"},{"task":"memory_phase","broad_category":"M","image_png":"M_Hornfels_10.png","image_id":218,"category_name":"Hornfels","category":14,"distinct_rating":2.88,"rt":null,"stimulus":"Stimuli_Rocks480/M_Hornfels_10.png","response":null,"trial_type":"image-keyboard-response","trial_index":26,"plugin_version":"2.1.0","time_elapsed":73950,"subject_id":"87571","group":"Group1","date":"2025-09-16T21:32:48.133Z"},{"rt":null,"stimulus":"<p style=\"font-size: 50px; margin: 0; text-align: center;\">+</p>","response":null,"trial_type":"html-keyboard-response","trial_index":27,"plugin_version":"2.1.0","time_elapsed":74954,"subject_id":"87571","group":"Group1","date":"2025-09-16T21:32:48.133Z"},{"task":"memory_phase","broad_category":"M","image_png":"M_Amphibolite_04.png","image_id":164,"category_name":"Amphibolite","category":11,"distinct_rating":2.89,"rt":null,"stimulus":"Stimuli_Rocks480/M_Amphibolite_04.png","response":null,"trial_type":"image-keyboard-response","trial_index":28,"plugin_version":"2.1.0","time_elapsed":77467,"subject_id":"87571","group":"Group1","date":"2025-09-16T21:32:48.133Z"},{"rt":null,"stimulus":"<p style=\"font-size: 50px; margin: 0; text-align: center;\">+</p>","response":null,"trial_type":"html-keyboard-response","trial_index":29,"plugin_version":"2.1.0","time_elapsed":78480,"subject_id":"87571","group":"Group1","date":"2025-09-16T21:32:48.133Z"},{"task":"memory_phase","broad_category":"I","image_png":"I_Obsidian_05.png","image_id":85,"category_name":"Obsidian","category":6,"distinct_rating":7.32,"rt":null,"stimulus":"Stimuli_Rocks480/I_Obsidian_05.png","response":null,"trial_type":"image-keyboard-response","trial_index":30,"plugin_version":"2.1.0","time_elapsed":80993,"subject_id":"87571","group":"Group1","date":"2025-09-16T21:32:48.133Z"},{"rt":null,"stimulus":"<p style=\"font-size: 50px; margin: 0; text-align: center;\">+</p>","response":null,"trial_type":"html-keyboard-response","trial_index":31,"plugin_version":"2.1.0","time_elapsed":82006,"subject_id":"87571","group":"Group1","date":"2025-09-16T21:32:48.133Z"},{"task":"memory_phase","broad_category":"S","image_png":"S_Bituminous Coal_13.png","image_id":333,"category_name":"Bituminous Coal","category":21,"distinct_rating":5.06,"rt":null,"stimulus":"Stimuli_Rocks480/S_Bituminous Coal_13.png","response":null,"trial_type":"image-keyboard-response","trial_index":32,"plugin_version":"2.1.0","time_elapsed":84509,"subject_id":"87571","group":"Group1","date":"2025-09-16T21:32:48.133Z"},{"rt":null,"stimulus":"<p style=\"font-size: 50px; margin: 0; text-align: center;\">+</p>","response":null,"trial_type":"html-keyboard-response","trial_index":33,"plugin_version":"2.1.0","time_elapsed":85511,"subject_id":"87571","group":"Group1","date":"2025-09-16T21:32:48.133Z"},{"task":"memory_phase","broad_category":"S","image_png":"S_Rock Gypsum_04.png","image_id":420,"category_name":"Rock Gypsum","category":27,"distinct_rating":7.61,"rt":null,"stimulus":"Stimuli_Rocks480/S_Rock Gypsum_04.png","response":null,"trial_type":"image-keyboard-response","trial_index":34,"plugin_version":"2.1.0","time_elapsed":88014,"subject_id":"87571","group":"Group1","date":"2025-09-16T21:32:48.133Z"},{"rt":null,"stimulus":"<p style=\"font-size: 50px; margin: 0; text-align: center;\">+</p>","response":null,"trial_type":"html-keyboard-response","trial_index":35,"plugin_version":"2.1.0","time_elapsed":89021,"subject_id":"87571","group":"Group1","date":"2025-09-16T21:32:48.133Z"},{"task":"memory_phase","broad_category":"I","image_png":"I_Gabbro_04.png","image_id":52,"category_name":"Gabbro","category":4,"distinct_rating":4.1,"rt":null,"stimulus":"Stimuli_Rocks480/I_Gabbro_04.png","response":null,"trial_type":"image-keyboard-response","trial_index":36,"plugin_version":"2.1.0","time_elapsed":91530,"subject_id":"87571","group":"Group1","date":"2025-09-16T21:32:48.133Z"},{"rt":null,"stimulus":"<p style=\"font-size: 50px; margin: 0; text-align: center;\">+</p>","response":null,"trial_type":"html-keyboard-response","trial_index":37,"plugin_version":"2.1.0","time_elapsed":92533,"subject_id":"87571","group":"Group1","date":"2025-09-16T21:32:48.133Z"},{"task":"memory_phase","broad_category":"I","image_png":"I_Obsidian_04.png","image_id":84,"category_name":"Obsidian","category":6,"distinct_rating":5.67,"rt":null,"stimulus":"Stimuli_Rocks480/I_Obsidian_04.png","response":null,"trial_type":"image-keyboard-response","trial_index":38,"plugin_version":"2.1.0","time_elapsed":95041,"subject_id":"87571","group":"Group1","date":"2025-09-16T21:32:48.133Z"},{"rt":null,"stimulus":"<p style=\"font-size: 50px; margin: 0; text-align: center;\">+</p>","response":null,"trial_type":"html-keyboard-response","trial_index":39,"plugin_version":"2.1.0","time_elapsed":96046,"subject_id":"87571","group":"Group1","date":"2025-09-16T21:32:48.133Z"},{"task":"memory_phase","broad_category":"M","image_png":"M_Phyllite_06.png","image_id":262,"category_name":"Phyllite","category":17,"distinct_rating":3.03,"rt":null,"stimulus":"Stimuli_Rocks480/M_Phyllite_06.png","response":null,"trial_type":"image-keyboard-response","trial_index":40,"plugin_version":"2.1.0","time_elapsed":98563,"subject_id":"87571","group":"Group1","date":"2025-09-16T21:32:48.133Z"},{"rt":null,"stimulus":"<p style=\"font-size: 50px; margin: 0; text-align: center;\">+</p>","response":null,"trial_type":"html-keyboard-response","trial_index":41,"plugin_version":"2.1.0","time_elapsed":99566,"subject_id":"87571","group":"Group1","date":"2025-09-16T21:32:48.133Z"},{"task":"memory_phase","broad_category":"I","image_png":"I_Diorite_15.png","image_id":47,"category_name":"Diorite","category":3,"distinct_rating":3.05,"rt":null,"stimulus":"Stimuli_Rocks480/I_Diorite_15.png","response":null,"trial_type":"image-keyboard-response","trial_index":42,"plugin_version":"2.1.0","time_elapsed":102070,"subject_id":"87571","group":"Group1","date":"2025-09-16T21:32:48.133Z"},{"rt":null,"stimulus":"<p style=\"font-size: 50px; margin: 0; text-align: center;\">+</p>","response":null,"trial_type":"html-keyboard-response","trial_index":43,"plugin_version":"2.1.0","time_elapsed":103074,"subject_id":"87571","group":"Group1","date":"2025-09-16T21:32:48.133Z"},{"task":"memory_phase","broad_category":"I","image_png":"I_Pegmatite_16.png","image_id":112,"category_name":"Pegmatite","category":7,"distinct_rating":7.03,"rt":null,"stimulus":"Stimuli_Rocks480/I_Pegmatite_16.png","response":null,"trial_type":"image-keyboard-response","trial_index":44,"plugin_version":"2.1.0","time_elapsed":105577,"subject_id":"87571","group":"Group1","date":"2025-09-16T21:32:48.133Z"},{"rt":null,"stimulus":"<p style=\"font-size: 50px; margin: 0; text-align: center;\">+</p>","response":null,"trial_type":"html-keyboard-response","trial_index":45,"plugin_version":"2.1.0","time_elapsed":106586,"subject_id":"87571","group":"Group1","date":"2025-09-16T21:32:48.133Z"},{"task":"memory_phase","broad_category":"S","image_png":"S_Shale_01.png","image_id":465,"category_name":"Shale","category":30,"distinct_rating":2.7,"rt":null,"stimulus":"Stimuli_Rocks480/S_Shale_01.png","response":null,"trial_type":"image-keyboard-response","trial_index":46,"plugin_version":"2.1.0","time_elapsed":109098,"subject_id":"87571","group":"Group1","date":"2025-09-16T21:32:48.133Z"},{"rt":null,"stimulus":"<p style=\"font-size: 50px; margin: 0; text-align: center;\">+</p>","response":null,"trial_type":"html-keyboard-response","trial_index":47,"plugin_version":"2.1.0","time_elapsed":110112,"subject_id":"87571","group":"Group1","date":"2025-09-16T21:32:48.133Z"},{"task":"memory_phase","broad_category":"I","image_png":"I_Basalt_15.png","image_id":31,"category_name":"Basalt","category":2,"distinct_rating":4.03,"rt":null,"stimulus":"Stimuli_Rocks480/I_Basalt_15.png","response":null,"trial_type":"image-keyboard-response","trial_index":48,"plugin_version":"2.1.0","time_elapsed":112618,"subject_id":"87571","group":"Group1","date":"2025-09-16T21:32:48.133Z"},{"rt":null,"stimulus":"<p style=\"font-size: 50px; margin: 0; text-align: center;\">+</p>","response":null,"trial_type":"html-keyboard-response","trial_index":49,"plugin_version":"2.1.0","time_elapsed":113626,"subject_id":"87571","group":"Group1","date":"2025-09-16T21:32:48.133Z"},{"task":"memory_phase","broad_category":"I","image_png":"I_Rhyolite_16.png","image_id":160,"category_name":"Rhyolite","category":10,"distinct_rating":2.19,"rt":null,"stimulus":"Stimuli_Rocks480/I_Rhyolite_16.png","response":null,"trial_type":"image-keyboard-response","trial_index":50,"plugin_version":"2.1.0","time_elapsed":116142,"subject_id":"87571","group":"Group1","date":"2025-09-16T21:32:48.133Z"},{"rt":null,"stimulus":"<p style=\"font-size: 50px; margin: 0; text-align: center;\">+</p>","response":null,"trial_type":"html-keyboard-response","trial_index":51,"plugin_version":"2.1.0","time_elapsed":117158,"subject_id":"87571","group":"Group1","date":"2025-09-16T21:32:48.133Z"},{"task":"memory_phase","broad_category":"S","image_png":"S_Conglomerate_10.png","image_id":378,"category_name":"Conglomerate","category":24,"distinct_rating":5.63,"rt":null,"stimulus":"Stimuli_Rocks480/S_Conglomerate_10.png","response":null,"trial_type":"image-keyboard-response","trial_index":52,"plugin_version":"2.1.0","time_elapsed":119675,"subject_id":"87571","group":"Group1","date":"2025-09-16T21:32:48.133Z"},{"rt":null,"stimulus":"<p style=\"font-size: 50px; margin: 0; text-align: center;\">+</p>","response":null,"trial_type":"html-keyboard-response","trial_index":53,"plugin_version":"2.1.0","time_elapsed":120683,"subject_id":"87571","group":"Group1","date":"2025-09-16T21:32:48.133Z"},{"task":"memory_phase","broad_category":"S","image_png":"S_Dolomite_07.png","image_id":391,"category_name":"Dolomite","category":25,"distinct_rating":1.73,"rt":null,"stimulus":"Stimuli_Rocks480/S_Dolomite_07.png","response":null,"trial_type":"image-keyboard-response","trial_index":54,"plugin_version":"2.1.0","time_elapsed":123189,"subject_id":"87571","group":"Group1","date":"2025-09-16T21:32:48.133Z"},{"rt":null,"stimulus":"<p style=\"font-size: 50px; margin: 0; text-align: center;\">+</p>","response":null,"trial_type":"html-keyboard-response","trial_index":55,"plugin_version":"2.1.0","time_elapsed":124195,"subject_id":"87571","group":"Group1","date":"2025-09-16T21:32:48.133Z"},{"task":"memory_phase","broad_category":"M","image_png":"M_Amphibolite_14.png","image_id":174,"category_name":"Amphibolite","category":11,"distinct_rating":3.65,"rt":null,"stimulus":"Stimuli_Rocks480/M_Amphibolite_14.png","response":null,"trial_type":"image-keyboard-response","trial_index":56,"plugin_version":"2.1.0","time_elapsed":126711,"subject_id":"87571","group":"Group1","date":"2025-09-16T21:32:48.133Z"},{"rt":null,"stimulus":"<p style=\"font-size: 50px; margin: 0; text-align: center;\">+</p>","response":null,"trial_type":"html-keyboard-response","trial_index":57,"plugin_version":"2.1.0","time_elapsed":127728,"subject_id":"87571","group":"Group1","date":"2025-09-16T21:32:48.133Z"},{"task":"memory_phase","broad_category":"M","image_png":"M_Gneiss_15.png","image_id":207,"category_name":"Gneiss","category":13,"distinct_rating":3.11,"rt":null,"stimulus":"Stimuli_Rocks480/M_Gneiss_15.png","response":null,"trial_type":"image-keyboard-response","trial_index":58,"plugin_version":"2.1.0","time_elapsed":130233,"subject_id":"87571","group":"Group1","date":"2025-09-16T21:32:48.133Z"},{"rt":null,"stimulus":"<p style=\"font-size: 50px; margin: 0; text-align: center;\">+</p>","response":null,"trial_type":"html-keyboard-response","trial_index":59,"plugin_version":"2.1.0","time_elapsed":131248,"subject_id":"87571","group":"Group1","date":"2025-09-16T21:32:48.133Z"},{"task":"memory_phase","broad_category":"S","image_png":"S_Dolomite_10.png","image_id":394,"category_name":"Dolomite","category":25,"distinct_rating":3.57,"rt":null,"stimulus":"Stimuli_Rocks480/S_Dolomite_10.png","response":null,"trial_type":"image-keyboard-response","trial_index":60,"plugin_version":"2.1.0","time_elapsed":133760,"subject_id":"87571","group":"Group1","date":"2025-09-16T21:32:48.133Z"},{"rt":null,"stimulus":"<p style=\"font-size: 50px; margin: 0; text-align: center;\">+</p>","response":null,"trial_type":"html-keyboard-response","trial_index":61,"plugin_version":"2.1.0","time_elapsed":134763,"subject_id":"87571","group":"Group1","date":"2025-09-16T21:32:48.133Z"},{"task":"memory_phase","broad_category":"S","image_png":"S_Bituminous Coal_14.png","image_id":334,"category_name":"Bituminous Coal","category":21,"distinct_rating":4.51,"rt":null,"stimulus":"Stimuli_Rocks480/S_Bituminous Coal_14.png","response":null,"trial_type":"image-keyboard-response","trial_index":62,"plugin_version":"2.1.0","time_elapsed":137273,"subject_id":"87571","group":"Group1","date":"2025-09-16T21:32:48.133Z"},{"rt":null,"stimulus":"<p style=\"font-size: 50px; margin: 0; text-align: center;\">+</p>","response":null,"trial_type":"html-keyboard-response","trial_index":63,"plugin_version":"2.1.0","time_elapsed":138276,"subject_id":"87571","group":"Group1","date":"2025-09-16T21:32:48.133Z"},{"task":"memory_phase","broad_category":"M","image_png":"M_Slate_06.png","image_id":310,"category_name":"Slate","category":20,"distinct_rating":2.86,"rt":null,"stimulus":"Stimuli_Rocks480/M_Slate_06.png","response":null,"trial_type":"image-keyboard-response","trial_index":64,"plugin_version":"2.1.0","time_elapsed":140778,"subject_id":"87571","group":"Group1","date":"2025-09-16T21:32:48.133Z"},{"rt":null,"stimulus":"<p style=\"font-size: 50px; margin: 0; text-align: center;\">+</p>","response":null,"trial_type":"html-keyboard-response","trial_index":65,"plugin_version":"2.1.0","time_elapsed":141783,"subject_id":"87571","group":"Group1","date":"2025-09-16T21:32:48.133Z"},{"task":"memory_phase","broad_category":"M","image_png":"M_Anthracite_15.png","image_id":191,"category_name":"Anthracite","category":12,"distinct_rating":4.62,"rt":null,"stimulus":"Stimuli_Rocks480/M_Anthracite_15.png","response":null,"trial_type":"image-keyboard-response","trial_index":66,"plugin_version":"2.1.0","time_elapsed":144294,"subject_id":"87571","group":"Group1","date":"2025-09-16T21:32:48.133Z"},{"rt":null,"stimulus":"<p style=\"font-size: 50px; margin: 0; text-align: center;\">+</p>","response":null,"trial_type":"html-keyboard-response","trial_index":67,"plugin_version":"2.1.0","time_elapsed":145298,"subject_id":"87571","group":"Group1","date":"2025-09-16T21:32:48.133Z"},{"task":"memory_phase","broad_category":"S","image_png":"S_Rock Gypsum_13.png","image_id":429,"category_name":"Rock Gypsum","category":27,"distinct_rating":4.94,"rt":null,"stimulus":"Stimuli_Rocks480/S_Rock Gypsum_13.png","response":null,"trial_type":"image-keyboard-response","trial_index":68,"plugin_version":"2.1.0","time_elapsed":147808,"subject_id":"87571","group":"Group1","date":"2025-09-16T21:32:48.133Z"},{"rt":null,"stimulus":"<p style=\"font-size: 50px; margin: 0; text-align: center;\">+</p>","response":null,"trial_type":"html-keyboard-response","trial_index":69,"plugin_version":"2.1.0","time_elapsed":148826,"subject_id":"87571","group":"Group1","date":"2025-09-16T21:32:48.133Z"},{"task":"memory_phase","broad_category":"S","image_png":"S_Dolomite_09.png","image_id":393,"category_name":"Dolomite","category":25,"distinct_rating":2.11,"rt":null,"stimulus":"Stimuli_Rocks480/S_Dolomite_09.png","response":null,"trial_type":"image-keyboard-response","trial_index":70,"plugin_version":"2.1.0","time_elapsed":151337,"subject_id":"87571","group":"Group1","date":"2025-09-16T21:32:48.133Z"},{"rt":null,"stimulus":"<p style=\"font-size: 50px; margin: 0; text-align: center;\">+</p>","response":null,"trial_type":"html-keyboard-response","trial_index":71,"plugin_version":"2.1.0","time_elapsed":152343,"subject_id":"87571","group":"Group1","date":"2025-09-16T21:32:48.133Z"},{"task":"memory_phase","broad_category":"I","image_png":"I_Peridotite_04.png","image_id":116,"category_name":"Peridotite","category":8,"distinct_rating":6.39,"rt":null,"stimulus":"Stimuli_Rocks480/I_Peridotite_04.png","response":null,"trial_type":"image-keyboard-response","trial_index":72,"plugin_version":"2.1.0","time_elapsed":154851,"subject_id":"87571","group":"Group1","date":"2025-09-16T21:32:48.133Z"},{"rt":null,"stimulus":"<p style=\"font-size: 50px; margin: 0; text-align: center;\">+</p>","response":null,"trial_type":"html-keyboard-response","trial_index":73,"plugin_version":"2.1.0","time_elapsed":155853,"subject_id":"87571","group":"Group1","date":"2025-09-16T21:32:48.133Z"},{"task":"memory_phase","broad_category":"M","image_png":"M_Anthracite_12.png","image_id":188,"category_name":"Anthracite","category":12,"distinct_rating":5.69,"rt":null,"stimulus":"Stimuli_Rocks480/M_Anthracite_12.png","response":null,"trial_type":"image-keyboard-response","trial_index":74,"plugin_version":"2.1.0","time_elapsed":158362,"subject_id":"87571","group":"Group1","date":"2025-09-16T21:32:48.133Z"},{"rt":null,"stimulus":"<p style=\"font-size: 50px; margin: 0; text-align: center;\">+</p>","response":null,"trial_type":"html-keyboard-response","trial_index":75,"plugin_version":"2.1.0","time_elapsed":159368,"subject_id":"87571","group":"Group1","date":"2025-09-16T21:32:48.133Z"},{"task":"memory_phase","broad_category":"S","image_png":"S_Sandstone_05.png","image_id":453,"category_name":"Sandstone","category":29,"distinct_rating":5.42,"rt":null,"stimulus":"Stimuli_Rocks480/S_Sandstone_05.png","response":null,"trial_type":"image-keyboard-response","trial_index":76,"plugin_version":"2.1.0","time_elapsed":161876,"subject_id":"87571","group":"Group1","date":"2025-09-16T21:32:48.133Z"},{"rt":null,"stimulus":"<p style=\"font-size: 50px; margin: 0; text-align: center;\">+</p>","response":null,"trial_type":"html-keyboard-response","trial_index":77,"plugin_version":"2.1.0","time_elapsed":162886,"subject_id":"87571","group":"Group1","date":"2025-09-16T21:32:48.133Z"},{"task":"memory_phase","broad_category":"I","image_png":"I_Pumice_09.png","image_id":137,"category_name":"Pumice","category":9,"distinct_rating":5.5,"rt":null,"stimulus":"Stimuli_Rocks480/I_Pumice_09.png","response":null,"trial_type":"image-keyboard-response","trial_index":78,"plugin_version":"2.1.0","time_elapsed":165399,"subject_id":"87571","group":"Group1","date":"2025-09-16T21:32:48.133Z"},{"rt":null,"stimulus":"<p style=\"font-size: 50px; margin: 0; text-align: center;\">+</p>","response":null,"trial_type":"html-keyboard-response","trial_index":79,"plugin_version":"2.1.0","time_elapsed":166404,"subject_id":"87571","group":"Group1","date":"2025-09-16T21:32:48.133Z"},{"task":"memory_phase","broad_category":"S","image_png":"S_Rock Salt_12.png","image_id":444,"category_name":"Rock Salt","category":28,"distinct_rating":5.86,"rt":null,"stimulus":"Stimuli_Rocks480/S_Rock Salt_12.png","response":null,"trial_type":"image-keyboard-response","trial_index":80,"plugin_version":"2.1.0","time_elapsed":168909,"subject_id":"87571","group":"Group1","date":"2025-09-16T21:32:48.133Z"},{"rt":null,"stimulus":"<p style=\"font-size: 50px; margin: 0; text-align: center;\">+</p>","response":null,"trial_type":"html-keyboard-response","trial_index":81,"plugin_version":"2.1.0","time_elapsed":169913,"subject_id":"87571","group":"Group1","date":"2025-09-16T21:32:48.133Z"},{"task":"memory_phase","broad_category":"I","image_png":"I_Granite_10.png","image_id":74,"category_name":"Granite","category":5,"distinct_rating":4.34,"rt":null,"stimulus":"Stimuli_Rocks480/I_Granite_10.png","response":null,"trial_type":"image-keyboard-response","trial_index":82,"plugin_version":"2.1.0","time_elapsed":172422,"subject_id":"87571","group":"Group1","date":"2025-09-16T21:32:48.133Z"},{"rt":null,"stimulus":"<p style=\"font-size: 50px; margin: 0; text-align: center;\">+</p>","response":null,"trial_type":"html-keyboard-response","trial_index":83,"plugin_version":"2.1.0","time_elapsed":173436,"subject_id":"87571","group":"Group1","date":"2025-09-16T21:32:48.133Z"},{"task":"memory_phase","broad_category":"I","image_png":"I_Gabbro_10.png","image_id":58,"category_name":"Gabbro","category":4,"distinct_rating":3.11,"rt":null,"stimulus":"Stimuli_Rocks480/I_Gabbro_10.png","response":null,"trial_type":"image-keyboard-response","trial_index":84,"plugin_version":"2.1.0","time_elapsed":175949,"subject_id":"87571","group":"Group1","date":"2025-09-16T21:32:48.133Z"},{"rt":null,"stimulus":"<p style=\"font-size: 50px; margin: 0; text-align: center;\">+</p>","response":null,"trial_type":"html-keyboard-response","trial_index":85,"plugin_version":"2.1.0","time_elapsed":176962,"subject_id":"87571","group":"Group1","date":"2025-09-16T21:32:48.133Z"},{"task":"memory_phase","broad_category":"I","image_png":"I_Andesite_02.png","image_id":2,"category_name":"Andesite","category":1,"distinct_rating":3.93,"rt":null,"stimulus":"Stimuli_Rocks480/I_Andesite_02.png","response":null,"trial_type":"image-keyboard-response","trial_index":86,"plugin_version":"2.1.0","time_elapsed":179473,"subject_id":"87571","group":"Group1","date":"2025-09-16T21:32:48.133Z"},{"rt":null,"stimulus":"<p style=\"font-size: 50px; margin: 0; text-align: center;\">+</p>","response":null,"trial_type":"html-keyboard-response","trial_index":87,"plugin_version":"2.1.0","time_elapsed":180478,"subject_id":"87571","group":"Group1","date":"2025-09-16T21:32:48.133Z"},{"task":"memory_phase","broad_category":"S","image_png":"S_Shale_11.png","image_id":475,"category_name":"Shale","category":30,"distinct_rating":4.05,"rt":null,"stimulus":"Stimuli_Rocks480/S_Shale_11.png","response":null,"trial_type":"image-keyboard-response","trial_index":88,"plugin_version":"2.1.0","time_elapsed":182985,"subject_id":"87571","group":"Group1","date":"2025-09-16T21:32:48.133Z"},{"rt":null,"stimulus":"<p style=\"font-size: 50px; margin: 0; text-align: center;\">+</p>","response":null,"trial_type":"html-keyboard-response","trial_index":89,"plugin_version":"2.1.0","time_elapsed":183998,"subject_id":"87571","group":"Group1","date":"2025-09-16T21:32:48.133Z"},{"task":"memory_phase","broad_category":"S","image_png":"S_Chert_16.png","image_id":368,"category_name":"Chert","category":23,"distinct_rating":5.43,"rt":null,"stimulus":"Stimuli_Rocks480/S_Chert_16.png","response":null,"trial_type":"image-keyboard-response","trial_index":90,"plugin_version":"2.1.0","time_elapsed":186509,"subject_id":"87571","group":"Group1","date":"2025-09-16T21:32:48.133Z"},{"rt":null,"stimulus":"<p style=\"font-size: 50px; margin: 0; text-align: center;\">+</p>","response":null,"trial_type":"html-keyboard-response","trial_index":91,"plugin_version":"2.1.0","time_elapsed":187526,"subject_id":"87571","group":"Group1","date":"2025-09-16T21:32:48.133Z"},{"task":"memory_phase","broad_category":"I","image_png":"I_Peridotite_11.png","image_id":123,"category_name":"Peridotite","category":8,"distinct_rating":3.59,"rt":null,"stimulus":"Stimuli_Rocks480/I_Peridotite_11.png","response":null,"trial_type":"image-keyboard-response","trial_index":92,"plugin_version":"2.1.0","time_elapsed":190034,"subject_id":"87571","group":"Group1","date":"2025-09-16T21:32:48.133Z"},{"rt":null,"stimulus":"<p style=\"font-size: 50px; margin: 0; text-align: center;\">+</p>","response":null,"trial_type":"html-keyboard-response","trial_index":93,"plugin_version":"2.1.0","time_elapsed":191042,"subject_id":"87571","group":"Group1","date":"2025-09-16T21:32:48.133Z"},{"task":"memory_phase","broad_category":"M","image_png":"M_Amphibolite_08.png","image_id":168,"category_name":"Amphibolite","category":11,"distinct_rating":4.89,"rt":null,"stimulus":"Stimuli_Rocks480/M_Amphibolite_08.png","response":null,"trial_type":"image-keyboard-response","trial_index":94,"plugin_version":"2.1.0","time_elapsed":193555,"subject_id":"87571","group":"Group1","date":"2025-09-16T21:32:48.133Z"},{"rt":null,"stimulus":"<p style=\"font-size: 50px; margin: 0; text-align: center;\">+</p>","response":null,"trial_type":"html-keyboard-response","trial_index":95,"plugin_version":"2.1.0","time_elapsed":194560,"subject_id":"87571","group":"Group1","date":"2025-09-16T21:32:48.133Z"},{"task":"memory_phase","broad_category":"M","image_png":"M_Marble_13.png","image_id":237,"category_name":"Marble","category":15,"distinct_rating":3.8,"rt":null,"stimulus":"Stimuli_Rocks480/M_Marble_13.png","response":null,"trial_type":"image-keyboard-response","trial_index":96,"plugin_version":"2.1.0","time_elapsed":197065,"subject_id":"87571","group":"Group1","date":"2025-09-16T21:32:48.133Z"},{"rt":null,"stimulus":"<p style=\"font-size: 50px; margin: 0; text-align: center;\">+</p>","response":null,"trial_type":"html-keyboard-response","trial_index":97,"plugin_version":"2.1.0","time_elapsed":198070,"subject_id":"87571","group":"Group1","date":"2025-09-16T21:32:48.133Z"},{"task":"memory_phase","broad_category":"M","image_png":"M_Quartzite_08.png","image_id":280,"category_name":"Quartzite","category":18,"distinct_rating":2.15,"rt":null,"stimulus":"Stimuli_Rocks480/M_Quartzite_08.png","response":null,"trial_type":"image-keyboard-response","trial_index":98,"plugin_version":"2.1.0","time_elapsed":200586,"subject_id":"87571","group":"Group1","date":"2025-09-16T21:32:48.133Z"},{"rt":null,"stimulus":"<p style=\"font-size: 50px; margin: 0; text-align: center;\">+</p>","response":null,"trial_type":"html-keyboard-response","trial_index":99,"plugin_version":"2.1.0","time_elapsed":201591,"subject_id":"87571","group":"Group1","date":"2025-09-16T21:32:48.133Z"},{"task":"memory_phase","broad_category":"M","image_png":"M_Migmatite_12.png","image_id":252,"category_name":"Migmatite","category":16,"distinct_rating":4.03,"rt":null,"stimulus":"Stimuli_Rocks480/M_Migmatite_12.png","response":null,"trial_type":"image-keyboard-response","trial_index":100,"plugin_version":"2.1.0","time_elapsed":204095,"subject_id":"87571","group":"Group1","date":"2025-09-16T21:32:48.133Z"},{"rt":8348,"stimulus":"<p style=\"font-size: 35px;\">Press SPACE to continue study phase</p>","response":" ","trial_type":"html-keyboard-response","trial_index":101,"plugin_version":"2.1.0","time_elapsed":212445,"subject_id":"87571","group":"Group1","date":"2025-09-16T21:32:48.133Z"},{"rt":null,"stimulus":"<p style=\"font-size: 50px; margin: 0; text-align: center;\">+</p>","response":null,"trial_type":"html-keyboard-response","trial_index":102,"plugin_version":"2.1.0","time_elapsed":213459,"subject_id":"87571","group":"Group1","date":"2025-09-16T21:32:48.133Z"},{"task":"memory_phase","broad_category":"S","image_png":"S_Breccia_08.png","image_id":344,"category_name":"Breccia","category":22,"distinct_rating":7.14,"rt":null,"stimulus":"Stimuli_Rocks480/S_Breccia_08.png","response":null,"trial_type":"image-keyboard-response","trial_index":103,"plugin_version":"2.1.0","time_elapsed":215966,"subject_id":"87571","group":"Group1","date":"2025-09-16T21:32:48.133Z"},{"rt":null,"stimulus":"<p style=\"font-size: 50px; margin: 0; text-align: center;\">+</p>","response":null,"trial_type":"html-keyboard-response","trial_index":104,"plugin_version":"2.1.0","time_elapsed":216982,"subject_id":"87571","group":"Group1","date":"2025-09-16T21:32:48.133Z"},{"task":"memory_phase","broad_category":"S","image_png":"S_Micrite_15.png","image_id":415,"category_name":"Micrite","category":26,"distinct_rating":2.28,"rt":null,"stimulus":"Stimuli_Rocks480/S_Micrite_15.png","response":null,"trial_type":"image-keyboard-response","trial_index":105,"plugin_version":"2.1.0","time_elapsed":219498,"subject_id":"87571","group":"Group1","date":"2025-09-16T21:32:48.133Z"},{"rt":null,"stimulus":"<p style=\"font-size: 50px; margin: 0; text-align: center;\">+</p>","response":null,"trial_type":"html-keyboard-response","trial_index":106,"plugin_version":"2.1.0","time_elapsed":220513,"subject_id":"87571","group":"Group1","date":"2025-09-16T21:32:48.133Z"},{"task":"memory_phase","broad_category":"M","image_png":"M_Gneiss_01.png","image_id":193,"category_name":"Gneiss","category":13,"distinct_rating":4.54,"rt":null,"stimulus":"Stimuli_Rocks480/M_Gneiss_01.png","response":null,"trial_type":"image-keyboard-response","trial_index":107,"plugin_version":"2.1.0","time_elapsed":223026,"subject_id":"87571","group":"Group1","date":"2025-09-16T21:32:48.133Z"},{"rt":null,"stimulus":"<p style=\"font-size: 50px; margin: 0; text-align: center;\">+</p>","response":null,"trial_type":"html-keyboard-response","trial_index":108,"plugin_version":"2.1.0","time_elapsed":224031,"subject_id":"87571","group":"Group1","date":"2025-09-16T21:32:48.133Z"},{"task":"memory_phase","broad_category":"I","image_png":"I_Diorite_12.png","image_id":44,"category_name":"Diorite","category":3,"distinct_rating":3.55,"rt":null,"stimulus":"Stimuli_Rocks480/I_Diorite_12.png","response":null,"trial_type":"image-keyboard-response","trial_index":109,"plugin_version":"2.1.0","time_elapsed":226545,"subject_id":"87571","group":"Group1","date":"2025-09-16T21:32:48.133Z"},{"rt":null,"stimulus":"<p style=\"font-size: 50px; margin: 0; text-align: center;\">+</p>","response":null,"trial_type":"html-keyboard-response","trial_index":110,"plugin_version":"2.1.0","time_elapsed":227560,"subject_id":"87571","group":"Group1","date":"2025-09-16T21:32:48.133Z"},{"task":"memory_phase","broad_category":"S","image_png":"S_Micrite_01.png","image_id":401,"category_name":"Micrite","category":26,"distinct_rating":2.94,"rt":null,"stimulus":"Stimuli_Rocks480/S_Micrite_01.png","response":null,"trial_type":"image-keyboard-response","trial_index":111,"plugin_version":"2.1.0","time_elapsed":230071,"subject_id":"87571","group":"Group1","date":"2025-09-16T21:32:48.133Z"},{"rt":null,"stimulus":"<p style=\"font-size: 50px; margin: 0; text-align: center;\">+</p>","response":null,"trial_type":"html-keyboard-response","trial_index":112,"plugin_version":"2.1.0","time_elapsed":231089,"subject_id":"87571","group":"Group1","date":"2025-09-16T21:32:48.133Z"},{"task":"memory_phase","broad_category":"S","image_png":"S_Shale_12.png","image_id":476,"category_name":"Shale","category":30,"distinct_rating":2.48,"rt":null,"stimulus":"Stimuli_Rocks480/S_Shale_12.png","response":null,"trial_type":"image-keyboard-response","trial_index":113,"plugin_version":"2.1.0","time_elapsed":233600,"subject_id":"87571","group":"Group1","date":"2025-09-16T21:32:48.133Z"},{"rt":null,"stimulus":"<p style=\"font-size: 50px; margin: 0; text-align: center;\">+</p>","response":null,"trial_type":"html-keyboard-response","trial_index":114,"plugin_version":"2.1.0","time_elapsed":234614,"subject_id":"87571","group":"Group1","date":"2025-09-16T21:32:48.133Z"},{"task":"memory_phase","broad_category":"M","image_png":"M_Marble_15.png","image_id":239,"category_name":"Marble","category":15,"distinct_rating":6.35,"rt":null,"stimulus":"Stimuli_Rocks480/M_Marble_15.png","response":null,"trial_type":"image-keyboard-response","trial_index":115,"plugin_version":"2.1.0","time_elapsed":237123,"subject_id":"87571","group":"Group1","date":"2025-09-16T21:32:48.133Z"},{"rt":null,"stimulus":"<p style=\"font-size: 50px; margin: 0; text-align: center;\">+</p>","response":null,"trial_type":"html-keyboard-response","trial_index":116,"plugin_version":"2.1.0","time_elapsed":238133,"subject_id":"87571","group":"Group1","date":"2025-09-16T21:32:48.133Z"},{"task":"memory_phase","broad_category":"I","image_png":"I_Gabbro_12.png","image_id":60,"category_name":"Gabbro","category":4,"distinct_rating":2.6,"rt":null,"stimulus":"Stimuli_Rocks480/I_Gabbro_12.png","response":null,"trial_type":"image-keyboard-response","trial_index":117,"plugin_version":"2.1.0","time_elapsed":240645,"subject_id":"87571","group":"Group1","date":"2025-09-16T21:32:48.133Z"},{"rt":null,"stimulus":"<p style=\"font-size: 50px; margin: 0; text-align: center;\">+</p>","response":null,"trial_type":"html-keyboard-response","trial_index":118,"plugin_version":"2.1.0","time_elapsed":241650,"subject_id":"87571","group":"Group1","date":"2025-09-16T21:32:48.133Z"},{"task":"memory_phase","broad_category":"I","image_png":"I_Pumice_13.png","image_id":141,"category_name":"Pumice","category":9,"distinct_rating":3.12,"rt":null,"stimulus":"Stimuli_Rocks480/I_Pumice_13.png","response":null,"trial_type":"image-keyboard-response","trial_index":119,"plugin_version":"2.1.0","time_elapsed":244163,"subject_id":"87571","group":"Group1","date":"2025-09-16T21:32:48.133Z"},{"rt":null,"stimulus":"<p style=\"font-size: 50px; margin: 0; text-align: center;\">+</p>","response":null,"trial_type":"html-keyboard-response","trial_index":120,"plugin_version":"2.1.0","time_elapsed":245179,"subject_id":"87571","group":"Group1","date":"2025-09-16T21:32:48.133Z"},{"task":"memory_phase","broad_category":"M","image_png":"M_Gneiss_02.png","image_id":194,"category_name":"Gneiss","category":13,"distinct_rating":3.75,"rt":null,"stimulus":"Stimuli_Rocks480/M_Gneiss_02.png","response":null,"trial_type":"image-keyboard-response","trial_index":121,"plugin_version":"2.1.0","time_elapsed":247683,"subject_id":"87571","group":"Group1","date":"2025-09-16T21:32:48.133Z"},{"rt":null,"stimulus":"<p style=\"font-size: 50px; margin: 0; text-align: center;\">+</p>","response":null,"trial_type":"html-keyboard-response","trial_index":122,"plugin_version":"2.1.0","time_elapsed":248691,"subject_id":"87571","group":"Group1","date":"2025-09-16T21:32:48.133Z"},{"task":"memory_phase","broad_category":"S","image_png":"S_Sandstone_03.png","image_id":451,"category_name":"Sandstone","category":29,"distinct_rating":1.86,"rt":null,"stimulus":"Stimuli_Rocks480/S_Sandstone_03.png","response":null,"trial_type":"image-keyboard-response","trial_index":123,"plugin_version":"2.1.0","time_elapsed":251193,"subject_id":"87571","group":"Group1","date":"2025-09-16T21:32:48.133Z"},{"rt":null,"stimulus":"<p style=\"font-size: 50px; margin: 0; text-align: center;\">+</p>","response":null,"trial_type":"html-keyboard-response","trial_index":124,"plugin_version":"2.1.0","time_elapsed":252210,"subject_id":"87571","group":"Group1","date":"2025-09-16T21:32:48.133Z"},{"task":"memory_phase","broad_category":"I","image_png":"I_Granite_11.png","image_id":75,"category_name":"Granite","category":5,"distinct_rating":4.03,"rt":null,"stimulus":"Stimuli_Rocks480/I_Granite_11.png","response":null,"trial_type":"image-keyboard-response","trial_index":125,"plugin_version":"2.1.0","time_elapsed":254721,"subject_id":"87571","group":"Group1","date":"2025-09-16T21:32:48.133Z"},{"rt":null,"stimulus":"<p style=\"font-size: 50px; margin: 0; text-align: center;\">+</p>","response":null,"trial_type":"html-keyboard-response","trial_index":126,"plugin_version":"2.1.0","time_elapsed":255732,"subject_id":"87571","group":"Group1","date":"2025-09-16T21:32:48.133Z"},{"task":"memory_phase","broad_category":"I","image_png":"I_Peridotite_10.png","image_id":122,"category_name":"Peridotite","category":8,"distinct_rating":4.64,"rt":null,"stimulus":"Stimuli_Rocks480/I_Peridotite_10.png","response":null,"trial_type":"image-keyboard-response","trial_index":127,"plugin_version":"2.1.0","time_elapsed":258246,"subject_id":"87571","group":"Group1","date":"2025-09-16T21:32:48.133Z"},{"rt":null,"stimulus":"<p style=\"font-size: 50px; margin: 0; text-align: center;\">+</p>","response":null,"trial_type":"html-keyboard-response","trial_index":128,"plugin_version":"2.1.0","time_elapsed":259263,"subject_id":"87571","group":"Group1","date":"2025-09-16T21:32:48.133Z"},{"task":"memory_phase","broad_category":"M","image_png":"M_Slate_07.png","image_id":311,"category_name":"Slate","category":20,"distinct_rating":3.48,"rt":null,"stimulus":"Stimuli_Rocks480/M_Slate_07.png","response":null,"trial_type":"image-keyboard-response","trial_index":129,"plugin_version":"2.1.0","time_elapsed":261776,"subject_id":"87571","group":"Group1","date":"2025-09-16T21:32:48.133Z"},{"rt":null,"stimulus":"<p style=\"font-size: 50px; margin: 0; text-align: center;\">+</p>","response":null,"trial_type":"html-keyboard-response","trial_index":130,"plugin_version":"2.1.0","time_elapsed":262791,"subject_id":"87571","group":"Group1","date":"2025-09-16T21:32:48.133Z"},{"task":"memory_phase","broad_category":"I","image_png":"I_Andesite_07.png","image_id":7,"category_name":"Andesite","category":1,"distinct_rating":4.81,"rt":null,"stimulus":"Stimuli_Rocks480/I_Andesite_07.png","response":null,"trial_type":"image-keyboard-response","trial_index":131,"plugin_version":"2.1.0","time_elapsed":265307,"subject_id":"87571","group":"Group1","date":"2025-09-16T21:32:48.133Z"},{"rt":null,"stimulus":"<p style=\"font-size: 50px; margin: 0; text-align: center;\">+</p>","response":null,"trial_type":"html-keyboard-response","trial_index":132,"plugin_version":"2.1.0","time_elapsed":266324,"subject_id":"87571","group":"Group1","date":"2025-09-16T21:32:48.133Z"},{"task":"memory_phase","broad_category":"S","image_png":"S_Chert_10.png","image_id":362,"category_name":"Chert","category":23,"distinct_rating":7.17,"rt":null,"stimulus":"Stimuli_Rocks480/S_Chert_10.png","response":null,"trial_type":"image-keyboard-response","trial_index":133,"plugin_version":"2.1.0","time_elapsed":268836,"subject_id":"87571","group":"Group1","date":"2025-09-16T21:32:48.133Z"},{"rt":null,"stimulus":"<p style=\"font-size: 50px; margin: 0; text-align: center;\">+</p>","response":null,"trial_type":"html-keyboard-response","trial_index":134,"plugin_version":"2.1.0","time_elapsed":269845,"subject_id":"87571","group":"Group1","date":"2025-09-16T21:32:48.133Z"},{"task":"memory_phase","broad_category":"S","image_png":"S_Conglomerate_07.png","image_id":375,"category_name":"Conglomerate","category":24,"distinct_rating":6.97,"rt":null,"stimulus":"Stimuli_Rocks480/S_Conglomerate_07.png","response":null,"trial_type":"image-keyboard-response","trial_index":135,"plugin_version":"2.1.0","time_elapsed":272354,"subject_id":"87571","group":"Group1","date":"2025-09-16T21:32:48.133Z"},{"rt":null,"stimulus":"<p style=\"font-size: 50px; margin: 0; text-align: center;\">+</p>","response":null,"trial_type":"html-keyboard-response","trial_index":136,"plugin_version":"2.1.0","time_elapsed":273359,"subject_id":"87571","group":"Group1","date":"2025-09-16T21:32:48.133Z"},{"task":"memory_phase","broad_category":"M","image_png":"M_Quartzite_06.png","image_id":278,"category_name":"Quartzite","category":18,"distinct_rating":3.63,"rt":null,"stimulus":"Stimuli_Rocks480/M_Quartzite_06.png","response":null,"trial_type":"image-keyboard-response","trial_index":137,"plugin_version":"2.1.0","time_elapsed":275870,"subject_id":"87571","group":"Group1","date":"2025-09-16T21:32:48.133Z"},{"rt":null,"stimulus":"<p style=\"font-size: 50px; margin: 0; text-align: center;\">+</p>","response":null,"trial_type":"html-keyboard-response","trial_index":138,"plugin_version":"2.1.0","time_elapsed":276881,"subject_id":"87571","group":"Group1","date":"2025-09-16T21:32:48.133Z"},{"task":"memory_phase","broad_category":"S","image_png":"S_Rock Salt_11.png","image_id":443,"category_name":"Rock Salt","category":28,"distinct_rating":4.9,"rt":null,"stimulus":"Stimuli_Rocks480/S_Rock Salt_11.png","response":null,"trial_type":"image-keyboard-response","trial_index":139,"plugin_version":"2.1.0","time_elapsed":279390,"subject_id":"87571","group":"Group1","date":"2025-09-16T21:32:48.133Z"},{"rt":null,"stimulus":"<p style=\"font-size: 50px; margin: 0; text-align: center;\">+</p>","response":null,"trial_type":"html-keyboard-response","trial_index":140,"plugin_version":"2.1.0","time_elapsed":280398,"subject_id":"87571","group":"Group1","date":"2025-09-16T21:32:48.133Z"},{"task":"memory_phase","broad_category":"M","image_png":"M_Marble_02.png","image_id":226,"category_name":"Marble","category":15,"distinct_rating":3.2,"rt":null,"stimulus":"Stimuli_Rocks480/M_Marble_02.png","response":null,"trial_type":"image-keyboard-response","trial_index":141,"plugin_version":"2.1.0","time_elapsed":282900,"subject_id":"87571","group":"Group1","date":"2025-09-16T21:32:48.133Z"},{"rt":null,"stimulus":"<p style=\"font-size: 50px; margin: 0; text-align: center;\">+</p>","response":null,"trial_type":"html-keyboard-response","trial_index":142,"plugin_version":"2.1.0","time_elapsed":283913,"subject_id":"87571","group":"Group1","date":"2025-09-16T21:32:48.133Z"},{"task":"memory_phase","broad_category":"M","image_png":"M_Anthracite_07.png","image_id":183,"category_name":"Anthracite","category":12,"distinct_rating":4.27,"rt":null,"stimulus":"Stimuli_Rocks480/M_Anthracite_07.png","response":null,"trial_type":"image-keyboard-response","trial_index":143,"plugin_version":"2.1.0","time_elapsed":286416,"subject_id":"87571","group":"Group1","date":"2025-09-16T21:32:48.133Z"},{"rt":null,"stimulus":"<p style=\"font-size: 50px; margin: 0; text-align: center;\">+</p>","response":null,"trial_type":"html-keyboard-response","trial_index":144,"plugin_version":"2.1.0","time_elapsed":287424,"subject_id":"87571","group":"Group1","date":"2025-09-16T21:32:48.133Z"},{"task":"memory_phase","broad_category":"S","image_png":"S_Bituminous Coal_10.png","image_id":330,"category_name":"Bituminous Coal","category":21,"distinct_rating":3.47,"rt":null,"stimulus":"Stimuli_Rocks480/S_Bituminous Coal_10.png","response":null,"trial_type":"image-keyboard-response","trial_index":145,"plugin_version":"2.1.0","time_elapsed":289933,"subject_id":"87571","group":"Group1","date":"2025-09-16T21:32:48.133Z"},{"rt":null,"stimulus":"<p style=\"font-size: 50px; margin: 0; text-align: center;\">+</p>","response":null,"trial_type":"html-keyboard-response","trial_index":146,"plugin_version":"2.1.0","time_elapsed":290948,"subject_id":"87571","group":"Group1","date":"2025-09-16T21:32:48.133Z"},{"task":"memory_phase","broad_category":"I","image_png":"I_Pumice_15.png","image_id":143,"category_name":"Pumice","category":9,"distinct_rating":4.18,"rt":null,"stimulus":"Stimuli_Rocks480/I_Pumice_15.png","response":null,"trial_type":"image-keyboard-response","trial_index":147,"plugin_version":"2.1.0","time_elapsed":293455,"subject_id":"87571","group":"Group1","date":"2025-09-16T21:32:48.133Z"},{"rt":null,"stimulus":"<p style=\"font-size: 50px; margin: 0; text-align: center;\">+</p>","response":null,"trial_type":"html-keyboard-response","trial_index":148,"plugin_version":"2.1.0","time_elapsed":294465,"subject_id":"87571","group":"Group1","date":"2025-09-16T21:32:48.133Z"},{"task":"memory_phase","broad_category":"M","image_png":"M_Migmatite_04.png","image_id":244,"category_name":"Migmatite","category":16,"distinct_rating":5.07,"rt":null,"stimulus":"Stimuli_Rocks480/M_Migmatite_04.png","response":null,"trial_type":"image-keyboard-response","trial_index":149,"plugin_version":"2.1.0","time_elapsed":296970,"subject_id":"87571","group":"Group1","date":"2025-09-16T21:32:48.133Z"},{"rt":null,"stimulus":"<p style=\"font-size: 50px; margin: 0; text-align: center;\">+</p>","response":null,"trial_type":"html-keyboard-response","trial_index":150,"plugin_version":"2.1.0","time_elapsed":297978,"subject_id":"87571","group":"Group1","date":"2025-09-16T21:32:48.133Z"},{"task":"memory_phase","broad_category":"I","image_png":"I_Rhyolite_12.png","image_id":156,"category_name":"Rhyolite","category":10,"distinct_rating":3.68,"rt":null,"stimulus":"Stimuli_Rocks480/I_Rhyolite_12.png","response":null,"trial_type":"image-keyboard-response","trial_index":151,"plugin_version":"2.1.0","time_elapsed":300483,"subject_id":"87571","group":"Group1","date":"2025-09-16T21:32:48.133Z"},{"rt":null,"stimulus":"<p style=\"font-size: 50px; margin: 0; text-align: center;\">+</p>","response":null,"trial_type":"html-keyboard-response","trial_index":152,"plugin_version":"2.1.0","time_elapsed":301497,"subject_id":"87571","group":"Group1","date":"2025-09-16T21:32:48.133Z"},{"task":"memory_phase","broad_category":"M","image_png":"M_Slate_16.png","image_id":320,"category_name":"Slate","category":20,"distinct_rating":2.55,"rt":null,"stimulus":"Stimuli_Rocks480/M_Slate_16.png","response":null,"trial_type":"image-keyboard-response","trial_index":153,"plugin_version":"2.1.0","time_elapsed":304009,"subject_id":"87571","group":"Group1","date":"2025-09-16T21:32:48.133Z"},{"rt":null,"stimulus":"<p style=\"font-size: 50px; margin: 0; text-align: center;\">+</p>","response":null,"trial_type":"html-keyboard-response","trial_index":154,"plugin_version":"2.1.0","time_elapsed":305013,"subject_id":"87571","group":"Group1","date":"2025-09-16T21:32:48.133Z"},{"task":"memory_phase","broad_category":"S","image_png":"S_Rock Salt_09.png","image_id":441,"category_name":"Rock Salt","category":28,"distinct_rating":7.08,"rt":null,"stimulus":"Stimuli_Rocks480/S_Rock Salt_09.png","response":null,"trial_type":"image-keyboard-response","trial_index":155,"plugin_version":"2.1.0","time_elapsed":307520,"subject_id":"87571","group":"Group1","date":"2025-09-16T21:32:48.133Z"},{"rt":null,"stimulus":"<p style=\"font-size: 50px; margin: 0; text-align: center;\">+</p>","response":null,"trial_type":"html-keyboard-response","trial_index":156,"plugin_version":"2.1.0","time_elapsed":308523,"subject_id":"87571","group":"Group1","date":"2025-09-16T21:32:48.133Z"},{"task":"memory_phase","broad_category":"I","image_png":"I_Granite_09.png","image_id":73,"category_name":"Granite","category":5,"distinct_rating":5.38,"rt":null,"stimulus":"Stimuli_Rocks480/I_Granite_09.png","response":null,"trial_type":"image-keyboard-response","trial_index":157,"plugin_version":"2.1.0","time_elapsed":311038,"subject_id":"87571","group":"Group1","date":"2025-09-16T21:32:48.133Z"},{"rt":null,"stimulus":"<p style=\"font-size: 50px; margin: 0; text-align: center;\">+</p>","response":null,"trial_type":"html-keyboard-response","trial_index":158,"plugin_version":"2.1.0","time_elapsed":312046,"subject_id":"87571","group":"Group1","date":"2025-09-16T21:32:48.133Z"},{"task":"memory_phase","broad_category":"S","image_png":"S_Conglomerate_16.png","image_id":384,"category_name":"Conglomerate","category":24,"distinct_rating":6.38,"rt":null,"stimulus":"Stimuli_Rocks480/S_Conglomerate_16.png","response":null,"trial_type":"image-keyboard-response","trial_index":159,"plugin_version":"2.1.0","time_elapsed":314563,"subject_id":"87571","group":"Group1","date":"2025-09-16T21:32:48.133Z"},{"rt":null,"stimulus":"<p style=\"font-size: 50px; margin: 0; text-align: center;\">+</p>","response":null,"trial_type":"html-keyboard-response","trial_index":160,"plugin_version":"2.1.0","time_elapsed":315571,"subject_id":"87571","group":"Group1","date":"2025-09-16T21:32:48.133Z"},{"task":"memory_phase","broad_category":"M","image_png":"M_Amphibolite_03.png","image_id":163,"category_name":"Amphibolite","category":11,"distinct_rating":6.58,"rt":null,"stimulus":"Stimuli_Rocks480/M_Amphibolite_03.png","response":null,"trial_type":"image-keyboard-response","trial_index":161,"plugin_version":"2.1.0","time_elapsed":318080,"subject_id":"87571","group":"Group1","date":"2025-09-16T21:32:48.133Z"},{"rt":null,"stimulus":"<p style=\"font-size: 50px; margin: 0; text-align: center;\">+</p>","response":null,"trial_type":"html-keyboard-response","trial_index":162,"plugin_version":"2.1.0","time_elapsed":319090,"subject_id":"87571","group":"Group1","date":"2025-09-16T21:32:48.133Z"},{"task":"memory_phase","broad_category":"M","image_png":"M_Hornfels_12.png","image_id":220,"category_name":"Hornfels","category":14,"distinct_rating":2.62,"rt":null,"stimulus":"Stimuli_Rocks480/M_Hornfels_12.png","response":null,"trial_type":"image-keyboard-response","trial_index":163,"plugin_version":"2.1.0","time_elapsed":321600,"subject_id":"87571","group":"Group1","date":"2025-09-16T21:32:48.133Z"},{"rt":null,"stimulus":"<p style=\"font-size: 50px; margin: 0; text-align: center;\">+</p>","response":null,"trial_type":"html-keyboard-response","trial_index":164,"plugin_version":"2.1.0","time_elapsed":322609,"subject_id":"87571","group":"Group1","date":"2025-09-16T21:32:48.133Z"},{"task":"memory_phase","broad_category":"M","image_png":"M_Hornfels_05.png","image_id":213,"category_name":"Hornfels","category":14,"distinct_rating":3.12,"rt":null,"stimulus":"Stimuli_Rocks480/M_Hornfels_05.png","response":null,"trial_type":"image-keyboard-response","trial_index":165,"plugin_version":"2.1.0","time_elapsed":325118,"subject_id":"87571","group":"Group1","date":"2025-09-16T21:32:48.133Z"},{"rt":null,"stimulus":"<p style=\"font-size: 50px; margin: 0; text-align: center;\">+</p>","response":null,"trial_type":"html-keyboard-response","trial_index":166,"plugin_version":"2.1.0","time_elapsed":326131,"subject_id":"87571","group":"Group1","date":"2025-09-16T21:32:48.133Z"},{"task":"memory_phase","broad_category":"I","image_png":"I_Pegmatite_09.png","image_id":105,"category_name":"Pegmatite","category":7,"distinct_rating":6.37,"rt":null,"stimulus":"Stimuli_Rocks480/I_Pegmatite_09.png","response":null,"trial_type":"image-keyboard-response","trial_index":167,"plugin_version":"2.1.0","time_elapsed":328642,"subject_id":"87571","group":"Group1","date":"2025-09-16T21:32:48.133Z"},{"rt":null,"stimulus":"<p style=\"font-size: 50px; margin: 0; text-align: center;\">+</p>","response":null,"trial_type":"html-keyboard-response","trial_index":168,"plugin_version":"2.1.0","time_elapsed":329659,"subject_id":"87571","group":"Group1","date":"2025-09-16T21:32:48.133Z"},{"task":"memory_phase","broad_category":"S","image_png":"S_Rock Gypsum_01.png","image_id":417,"category_name":"Rock Gypsum","category":27,"distinct_rating":3.97,"rt":null,"stimulus":"Stimuli_Rocks480/S_Rock Gypsum_01.png","response":null,"trial_type":"image-keyboard-response","trial_index":169,"plugin_version":"2.1.0","time_elapsed":332167,"subject_id":"87571","group":"Group1","date":"2025-09-16T21:32:48.133Z"},{"rt":null,"stimulus":"<p style=\"font-size: 50px; margin: 0; text-align: center;\">+</p>","response":null,"trial_type":"html-keyboard-response","trial_index":170,"plugin_version":"2.1.0","time_elapsed":333184,"subject_id":"87571","group":"Group1","date":"2025-09-16T21:32:48.133Z"},{"task":"memory_phase","broad_category":"I","image_png":"I_Andesite_06.png","image_id":6,"category_name":"Andesite","category":1,"distinct_rating":3.17,"rt":null,"stimulus":"Stimuli_Rocks480/I_Andesite_06.png","response":null,"trial_type":"image-keyboard-response","trial_index":171,"plugin_version":"2.1.0","time_elapsed":335694,"subject_id":"87571","group":"Group1","date":"2025-09-16T21:32:48.133Z"},{"rt":null,"stimulus":"<p style=\"font-size: 50px; margin: 0; text-align: center;\">+</p>","response":null,"trial_type":"html-keyboard-response","trial_index":172,"plugin_version":"2.1.0","time_elapsed":336702,"subject_id":"87571","group":"Group1","date":"2025-09-16T21:32:48.133Z"},{"task":"memory_phase","broad_category":"M","image_png":"M_Anthracite_13.png","image_id":189,"category_name":"Anthracite","category":12,"distinct_rating":4.81,"rt":null,"stimulus":"Stimuli_Rocks480/M_Anthracite_13.png","response":null,"trial_type":"image-keyboard-response","trial_index":173,"plugin_version":"2.1.0","time_elapsed":339209,"subject_id":"87571","group":"Group1","date":"2025-09-16T21:32:48.133Z"},{"rt":null,"stimulus":"<p style=\"font-size: 50px; margin: 0; text-align: center;\">+</p>","response":null,"trial_type":"html-keyboard-response","trial_index":174,"plugin_version":"2.1.0","time_elapsed":340219,"subject_id":"87571","group":"Group1","date":"2025-09-16T21:32:48.133Z"},{"task":"memory_phase","broad_category":"S","image_png":"S_Chert_12.png","image_id":364,"category_name":"Chert","category":23,"distinct_rating":4.06,"rt":null,"stimulus":"Stimuli_Rocks480/S_Chert_12.png","response":null,"trial_type":"image-keyboard-response","trial_index":175,"plugin_version":"2.1.0","time_elapsed":342734,"subject_id":"87571","group":"Group1","date":"2025-09-16T21:32:48.133Z"},{"rt":null,"stimulus":"<p style=\"font-size: 50px; margin: 0; text-align: center;\">+</p>","response":null,"trial_type":"html-keyboard-response","trial_index":176,"plugin_version":"2.1.0","time_elapsed":343736,"subject_id":"87571","group":"Group1","date":"2025-09-16T21:32:48.133Z"},{"task":"memory_phase","broad_category":"I","image_png":"I_Diorite_08.png","image_id":40,"category_name":"Diorite","category":3,"distinct_rating":4.94,"rt":null,"stimulus":"Stimuli_Rocks480/I_Diorite_08.png","response":null,"trial_type":"image-keyboard-response","trial_index":177,"plugin_version":"2.1.0","time_elapsed":346240,"subject_id":"87571","group":"Group1","date":"2025-09-16T21:32:48.133Z"},{"rt":null,"stimulus":"<p style=\"font-size: 50px; margin: 0; text-align: center;\">+</p>","response":null,"trial_type":"html-keyboard-response","trial_index":178,"plugin_version":"2.1.0","time_elapsed":347247,"subject_id":"87571","group":"Group1","date":"2025-09-16T21:32:48.133Z"},{"task":"memory_phase","broad_category":"S","image_png":"S_Micrite_07.png","image_id":407,"category_name":"Micrite","category":26,"distinct_rating":1.85,"rt":null,"stimulus":"Stimuli_Rocks480/S_Micrite_07.png","response":null,"trial_type":"image-keyboard-response","trial_index":179,"plugin_version":"2.1.0","time_elapsed":349752,"subject_id":"87571","group":"Group1","date":"2025-09-16T21:32:48.133Z"},{"rt":null,"stimulus":"<p style=\"font-size: 50px; margin: 0; text-align: center;\">+</p>","response":null,"trial_type":"html-keyboard-response","trial_index":180,"plugin_version":"2.1.0","time_elapsed":350759,"subject_id":"87571","group":"Group1","date":"2025-09-16T21:32:48.133Z"},{"task":"memory_phase","broad_category":"I","image_png":"I_Granite_06.png","image_id":70,"category_name":"Granite","category":5,"distinct_rating":3.73,"rt":null,"stimulus":"Stimuli_Rocks480/I_Granite_06.png","response":null,"trial_type":"image-keyboard-response","trial_index":181,"plugin_version":"2.1.0","time_elapsed":353275,"subject_id":"87571","group":"Group1","date":"2025-09-16T21:32:48.133Z"},{"rt":null,"stimulus":"<p style=\"font-size: 50px; margin: 0; text-align: center;\">+</p>","response":null,"trial_type":"html-keyboard-response","trial_index":182,"plugin_version":"2.1.0","time_elapsed":354291,"subject_id":"87571","group":"Group1","date":"2025-09-16T21:32:48.133Z"},{"task":"memory_phase","broad_category":"M","image_png":"M_Phyllite_10.png","image_id":266,"category_name":"Phyllite","category":17,"distinct_rating":2.6,"rt":null,"stimulus":"Stimuli_Rocks480/M_Phyllite_10.png","response":null,"trial_type":"image-keyboard-response","trial_index":183,"plugin_version":"2.1.0","time_elapsed":356809,"subject_id":"87571","group":"Group1","date":"2025-09-16T21:32:48.133Z"},{"rt":null,"stimulus":"<p style=\"font-size: 50px; margin: 0; text-align: center;\">+</p>","response":null,"trial_type":"html-keyboard-response","trial_index":184,"plugin_version":"2.1.0","time_elapsed":357823,"subject_id":"87571","group":"Group1","date":"2025-09-16T21:32:48.133Z"},{"task":"memory_phase","broad_category":"S","image_png":"S_Dolomite_11.png","image_id":395,"category_name":"Dolomite","category":25,"distinct_rating":5.56,"rt":null,"stimulus":"Stimuli_Rocks480/S_Dolomite_11.png","response":null,"trial_type":"image-keyboard-response","trial_index":185,"plugin_version":"2.1.0","time_elapsed":360330,"subject_id":"87571","group":"Group1","date":"2025-09-16T21:32:48.133Z"},{"rt":null,"stimulus":"<p style=\"font-size: 50px; margin: 0; text-align: center;\">+</p>","response":null,"trial_type":"html-keyboard-response","trial_index":186,"plugin_version":"2.1.0","time_elapsed":361338,"subject_id":"87571","group":"Group1","date":"2025-09-16T21:32:48.133Z"},{"task":"memory_phase","broad_category":"I","image_png":"I_Gabbro_09.png","image_id":57,"category_name":"Gabbro","category":4,"distinct_rating":3.48,"rt":null,"stimulus":"Stimuli_Rocks480/I_Gabbro_09.png","response":null,"trial_type":"image-keyboard-response","trial_index":187,"plugin_version":"2.1.0","time_elapsed":363852,"subject_id":"87571","group":"Group1","date":"2025-09-16T21:32:48.133Z"},{"rt":null,"stimulus":"<p style=\"font-size: 50px; margin: 0; text-align: center;\">+</p>","response":null,"trial_type":"html-keyboard-response","trial_index":188,"plugin_version":"2.1.0","time_elapsed":364856,"subject_id":"87571","group":"Group1","date":"2025-09-16T21:32:48.133Z"},{"task":"memory_phase","broad_category":"I","image_png":"I_Pegmatite_10.png","image_id":106,"category_name":"Pegmatite","category":7,"distinct_rating":7.66,"rt":null,"stimulus":"Stimuli_Rocks480/I_Pegmatite_10.png","response":null,"trial_type":"image-keyboard-response","trial_index":189,"plugin_version":"2.1.0","time_elapsed":367359,"subject_id":"87571","group":"Group1","date":"2025-09-16T21:32:48.133Z"},{"rt":null,"stimulus":"<p style=\"font-size: 50px; margin: 0; text-align: center;\">+</p>","response":null,"trial_type":"html-keyboard-response","trial_index":190,"plugin_version":"2.1.0","time_elapsed":368369,"subject_id":"87571","group":"Group1","date":"2025-09-16T21:32:48.133Z"},{"task":"memory_phase","broad_category":"I","image_png":"I_Rhyolite_05.png","image_id":149,"category_name":"Rhyolite","category":10,"distinct_rating":3.02,"rt":null,"stimulus":"Stimuli_Rocks480/I_Rhyolite_05.png","response":null,"trial_type":"image-keyboard-response","trial_index":191,"plugin_version":"2.1.0","time_elapsed":370875,"subject_id":"87571","group":"Group1","date":"2025-09-16T21:32:48.133Z"},{"rt":null,"stimulus":"<p style=\"font-size: 50px; margin: 0; text-align: center;\">+</p>","response":null,"trial_type":"html-keyboard-response","trial_index":192,"plugin_version":"2.1.0","time_elapsed":371892,"subject_id":"87571","group":"Group1","date":"2025-09-16T21:32:48.133Z"},{"task":"memory_phase","broad_category":"I","image_png":"I_Basalt_04.png","image_id":20,"category_name":"Basalt","category":2,"distinct_rating":2.47,"rt":null,"stimulus":"Stimuli_Rocks480/I_Basalt_04.png","response":null,"trial_type":"image-keyboard-response","trial_index":193,"plugin_version":"2.1.0","time_elapsed":374395,"subject_id":"87571","group":"Group1","date":"2025-09-16T21:32:48.133Z"},{"rt":null,"stimulus":"<p style=\"font-size: 50px; margin: 0; text-align: center;\">+</p>","response":null,"trial_type":"html-keyboard-response","trial_index":194,"plugin_version":"2.1.0","time_elapsed":375406,"subject_id":"87571","group":"Group1","date":"2025-09-16T21:32:48.133Z"},{"task":"memory_phase","broad_category":"M","image_png":"M_Hornfels_04.png","image_id":212,"category_name":"Hornfels","category":14,"distinct_rating":2.22,"rt":null,"stimulus":"Stimuli_Rocks480/M_Hornfels_04.png","response":null,"trial_type":"image-keyboard-response","trial_index":195,"plugin_version":"2.1.0","time_elapsed":377910,"subject_id":"87571","group":"Group1","date":"2025-09-16T21:32:48.133Z"},{"rt":null,"stimulus":"<p style=\"font-size: 50px; margin: 0; text-align: center;\">+</p>","response":null,"trial_type":"html-keyboard-response","trial_index":196,"plugin_version":"2.1.0","time_elapsed":378918,"subject_id":"87571","group":"Group1","date":"2025-09-16T21:32:48.133Z"},{"task":"memory_phase","broad_category":"S","image_png":"S_Rock Gypsum_09.png","image_id":425,"category_name":"Rock Gypsum","category":27,"distinct_rating":6.03,"rt":null,"stimulus":"Stimuli_Rocks480/S_Rock Gypsum_09.png","response":null,"trial_type":"image-keyboard-response","trial_index":197,"plugin_version":"2.1.0","time_elapsed":381433,"subject_id":"87571","group":"Group1","date":"2025-09-16T21:32:48.133Z"},{"rt":10824,"stimulus":"<p style=\"font-size: 35px;\">Press SPACE to continue study phase</p>","response":" ","trial_type":"html-keyboard-response","trial_index":198,"plugin_version":"2.1.0","time_elapsed":392258,"subject_id":"87571","group":"Group1","date":"2025-09-16T21:32:48.133Z"},{"rt":null,"stimulus":"<p style=\"font-size: 50px; margin: 0; text-align: center;\">+</p>","response":null,"trial_type":"html-keyboard-response","trial_index":199,"plugin_version":"2.1.0","time_elapsed":393269,"subject_id":"87571","group":"Group1","date":"2025-09-16T21:32:48.133Z"},{"task":"memory_phase","broad_category":"S","image_png":"S_Breccia_07.png","image_id":343,"category_name":"Breccia","category":22,"distinct_rating":6.19,"rt":null,"stimulus":"Stimuli_Rocks480/S_Breccia_07.png","response":null,"trial_type":"image-keyboard-response","trial_index":200,"plugin_version":"2.1.0","time_elapsed":395785,"subject_id":"87571","group":"Group1","date":"2025-09-16T21:32:48.133Z"},{"rt":null,"stimulus":"<p style=\"font-size: 50px; margin: 0; text-align: center;\">+</p>","response":null,"trial_type":"html-keyboard-response","trial_index":201,"plugin_version":"2.1.0","time_elapsed":396799,"subject_id":"87571","group":"Group1","date":"2025-09-16T21:32:48.133Z"},{"task":"memory_phase","broad_category":"I","image_png":"I_Rhyolite_13.png","image_id":157,"category_name":"Rhyolite","category":10,"distinct_rating":4.83,"rt":null,"stimulus":"Stimuli_Rocks480/I_Rhyolite_13.png","response":null,"trial_type":"image-keyboard-response","trial_index":202,"plugin_version":"2.1.0","time_elapsed":399315,"subject_id":"87571","group":"Group1","date":"2025-09-16T21:32:48.133Z"},{"rt":null,"stimulus":"<p style=\"font-size: 50px; margin: 0; text-align: center;\">+</p>","response":null,"trial_type":"html-keyboard-response","trial_index":203,"plugin_version":"2.1.0","time_elapsed":400320,"subject_id":"87571","group":"Group1","date":"2025-09-16T21:32:48.133Z"},{"task":"memory_phase","broad_category":"M","image_png":"M_Phyllite_12.png","image_id":268,"category_name":"Phyllite","category":17,"distinct_rating":3.83,"rt":null,"stimulus":"Stimuli_Rocks480/M_Phyllite_12.png","response":null,"trial_type":"image-keyboard-response","trial_index":204,"plugin_version":"2.1.0","time_elapsed":402823,"subject_id":"87571","group":"Group1","date":"2025-09-16T21:32:48.133Z"},{"rt":null,"stimulus":"<p style=\"font-size: 50px; margin: 0; text-align: center;\">+</p>","response":null,"trial_type":"html-keyboard-response","trial_index":205,"plugin_version":"2.1.0","time_elapsed":403831,"subject_id":"87571","group":"Group1","date":"2025-09-16T21:32:48.133Z"},{"task":"memory_phase","broad_category":"M","image_png":"M_Schist_12.png","image_id":300,"category_name":"Schist","category":19,"distinct_rating":4.27,"rt":null,"stimulus":"Stimuli_Rocks480/M_Schist_12.png","response":null,"trial_type":"image-keyboard-response","trial_index":206,"plugin_version":"2.1.0","time_elapsed":406342,"subject_id":"87571","group":"Group1","date":"2025-09-16T21:32:48.133Z"},{"rt":null,"stimulus":"<p style=\"font-size: 50px; margin: 0; text-align: center;\">+</p>","response":null,"trial_type":"html-keyboard-response","trial_index":207,"plugin_version":"2.1.0","time_elapsed":407357,"subject_id":"87571","group":"Group1","date":"2025-09-16T21:32:48.133Z"},{"task":"memory_phase","broad_category":"S","image_png":"S_Conglomerate_03.png","image_id":371,"category_name":"Conglomerate","category":24,"distinct_rating":4.73,"rt":null,"stimulus":"Stimuli_Rocks480/S_Conglomerate_03.png","response":null,"trial_type":"image-keyboard-response","trial_index":208,"plugin_version":"2.1.0","time_elapsed":409868,"subject_id":"87571","group":"Group1","date":"2025-09-16T21:32:48.133Z"},{"rt":null,"stimulus":"<p style=\"font-size: 50px; margin: 0; text-align: center;\">+</p>","response":null,"trial_type":"html-keyboard-response","trial_index":209,"plugin_version":"2.1.0","time_elapsed":410871,"subject_id":"87571","group":"Group1","date":"2025-09-16T21:32:48.133Z"},{"task":"memory_phase","broad_category":"I","image_png":"I_Basalt_01.png","image_id":17,"category_name":"Basalt","category":2,"distinct_rating":1.92,"rt":null,"stimulus":"Stimuli_Rocks480/I_Basalt_01.png","response":null,"trial_type":"image-keyboard-response","trial_index":210,"plugin_version":"2.1.0","time_elapsed":413379,"subject_id":"87571","group":"Group1","date":"2025-09-16T21:32:48.133Z"},{"rt":null,"stimulus":"<p style=\"font-size: 50px; margin: 0; text-align: center;\">+</p>","response":null,"trial_type":"html-keyboard-response","trial_index":211,"plugin_version":"2.1.0","time_elapsed":414384,"subject_id":"87571","group":"Group1","date":"2025-09-16T21:32:48.133Z"},{"task":"memory_phase","broad_category":"M","image_png":"M_Slate_10.png","image_id":314,"category_name":"Slate","category":20,"distinct_rating":1.94,"rt":null,"stimulus":"Stimuli_Rocks480/M_Slate_10.png","response":null,"trial_type":"image-keyboard-response","trial_index":212,"plugin_version":"2.1.0","time_elapsed":416901,"subject_id":"87571","group":"Group1","date":"2025-09-16T21:32:48.133Z"},{"rt":null,"stimulus":"<p style=\"font-size: 50px; margin: 0; text-align: center;\">+</p>","response":null,"trial_type":"html-keyboard-response","trial_index":213,"plugin_version":"2.1.0","time_elapsed":417902,"subject_id":"87571","group":"Group1","date":"2025-09-16T21:32:48.133Z"},{"task":"memory_phase","broad_category":"M","image_png":"M_Marble_01.png","image_id":225,"category_name":"Marble","category":15,"distinct_rating":4.1,"rt":null,"stimulus":"Stimuli_Rocks480/M_Marble_01.png","response":null,"trial_type":"image-keyboard-response","trial_index":214,"plugin_version":"2.1.0","time_elapsed":420419,"subject_id":"87571","group":"Group1","date":"2025-09-16T21:32:48.133Z"},{"rt":null,"stimulus":"<p style=\"font-size: 50px; margin: 0; text-align: center;\">+</p>","response":null,"trial_type":"html-keyboard-response","trial_index":215,"plugin_version":"2.1.0","time_elapsed":421425,"subject_id":"87571","group":"Group1","date":"2025-09-16T21:32:48.133Z"},{"task":"memory_phase","broad_category":"M","image_png":"M_Schist_08.png","image_id":296,"category_name":"Schist","category":19,"distinct_rating":6.46,"rt":null,"stimulus":"Stimuli_Rocks480/M_Schist_08.png","response":null,"trial_type":"image-keyboard-response","trial_index":216,"plugin_version":"2.1.0","time_elapsed":423930,"subject_id":"87571","group":"Group1","date":"2025-09-16T21:32:48.133Z"},{"rt":null,"stimulus":"<p style=\"font-size: 50px; margin: 0; text-align: center;\">+</p>","response":null,"trial_type":"html-keyboard-response","trial_index":217,"plugin_version":"2.1.0","time_elapsed":424932,"subject_id":"87571","group":"Group1","date":"2025-09-16T21:32:48.133Z"},{"task":"memory_phase","broad_category":"I","image_png":"I_Basalt_03.png","image_id":19,"category_name":"Basalt","category":2,"distinct_rating":2.94,"rt":null,"stimulus":"Stimuli_Rocks480/I_Basalt_03.png","response":null,"trial_type":"image-keyboard-response","trial_index":218,"plugin_version":"2.1.0","time_elapsed":427445,"subject_id":"87571","group":"Group1","date":"2025-09-16T21:32:48.133Z"},{"rt":null,"stimulus":"<p style=\"font-size: 50px; margin: 0; text-align: center;\">+</p>","response":null,"trial_type":"html-keyboard-response","trial_index":219,"plugin_version":"2.1.0","time_elapsed":428455,"subject_id":"87571","group":"Group1","date":"2025-09-16T21:32:48.133Z"},{"task":"memory_phase","broad_category":"M","image_png":"M_Quartzite_01.png","image_id":273,"category_name":"Quartzite","category":18,"distinct_rating":2.3,"rt":null,"stimulus":"Stimuli_Rocks480/M_Quartzite_01.png","response":null,"trial_type":"image-keyboard-response","trial_index":220,"plugin_version":"2.1.0","time_elapsed":430972,"subject_id":"87571","group":"Group1","date":"2025-09-16T21:32:48.133Z"},{"rt":null,"stimulus":"<p style=\"font-size: 50px; margin: 0; text-align: center;\">+</p>","response":null,"trial_type":"html-keyboard-response","trial_index":221,"plugin_version":"2.1.0","time_elapsed":431973,"subject_id":"87571","group":"Group1","date":"2025-09-16T21:32:48.133Z"},{"task":"memory_phase","broad_category":"M","image_png":"M_Gneiss_03.png","image_id":195,"category_name":"Gneiss","category":13,"distinct_rating":3.63,"rt":null,"stimulus":"Stimuli_Rocks480/M_Gneiss_03.png","response":null,"trial_type":"image-keyboard-response","trial_index":222,"plugin_version":"2.1.0","time_elapsed":434491,"subject_id":"87571","group":"Group1","date":"2025-09-16T21:32:48.133Z"},{"rt":null,"stimulus":"<p style=\"font-size: 50px; margin: 0; text-align: center;\">+</p>","response":null,"trial_type":"html-keyboard-response","trial_index":223,"plugin_version":"2.1.0","time_elapsed":435507,"subject_id":"87571","group":"Group1","date":"2025-09-16T21:32:48.133Z"},{"task":"memory_phase","broad_category":"S","image_png":"S_Sandstone_02.png","image_id":450,"category_name":"Sandstone","category":29,"distinct_rating":2.09,"rt":null,"stimulus":"Stimuli_Rocks480/S_Sandstone_02.png","response":null,"trial_type":"image-keyboard-response","trial_index":224,"plugin_version":"2.1.0","time_elapsed":438018,"subject_id":"87571","group":"Group1","date":"2025-09-16T21:32:48.133Z"},{"rt":null,"stimulus":"<p style=\"font-size: 50px; margin: 0; text-align: center;\">+</p>","response":null,"trial_type":"html-keyboard-response","trial_index":225,"plugin_version":"2.1.0","time_elapsed":439021,"subject_id":"87571","group":"Group1","date":"2025-09-16T21:32:48.133Z"},{"task":"memory_phase","broad_category":"I","image_png":"I_Obsidian_02.png","image_id":82,"category_name":"Obsidian","category":6,"distinct_rating":6.06,"rt":null,"stimulus":"Stimuli_Rocks480/I_Obsidian_02.png","response":null,"trial_type":"image-keyboard-response","trial_index":226,"plugin_version":"2.1.0","time_elapsed":441536,"subject_id":"87571","group":"Group1","date":"2025-09-16T21:32:48.133Z"},{"rt":null,"stimulus":"<p style=\"font-size: 50px; margin: 0; text-align: center;\">+</p>","response":null,"trial_type":"html-keyboard-response","trial_index":227,"plugin_version":"2.1.0","time_elapsed":442541,"subject_id":"87571","group":"Group1","date":"2025-09-16T21:32:48.133Z"},{"task":"memory_phase","broad_category":"S","image_png":"S_Rock Salt_15.png","image_id":447,"category_name":"Rock Salt","category":28,"distinct_rating":7.79,"rt":null,"stimulus":"Stimuli_Rocks480/S_Rock Salt_15.png","response":null,"trial_type":"image-keyboard-response","trial_index":228,"plugin_version":"2.1.0","time_elapsed":445044,"subject_id":"87571","group":"Group1","date":"2025-09-16T21:32:48.133Z"},{"rt":null,"stimulus":"<p style=\"font-size: 50px; margin: 0; text-align: center;\">+</p>","response":null,"trial_type":"html-keyboard-response","trial_index":229,"plugin_version":"2.1.0","time_elapsed":446048,"subject_id":"87571","group":"Group1","date":"2025-09-16T21:32:48.133Z"},{"task":"memory_phase","broad_category":"I","image_png":"I_Peridotite_09.png","image_id":121,"category_name":"Peridotite","category":8,"distinct_rating":5.71,"rt":null,"stimulus":"Stimuli_Rocks480/I_Peridotite_09.png","response":null,"trial_type":"image-keyboard-response","trial_index":230,"plugin_version":"2.1.0","time_elapsed":448561,"subject_id":"87571","group":"Group1","date":"2025-09-16T21:32:48.133Z"},{"rt":null,"stimulus":"<p style=\"font-size: 50px; margin: 0; text-align: center;\">+</p>","response":null,"trial_type":"html-keyboard-response","trial_index":231,"plugin_version":"2.1.0","time_elapsed":449570,"subject_id":"87571","group":"Group1","date":"2025-09-16T21:32:48.133Z"},{"task":"memory_phase","broad_category":"I","image_png":"I_Pegmatite_12.png","image_id":108,"category_name":"Pegmatite","category":7,"distinct_rating":5.15,"rt":null,"stimulus":"Stimuli_Rocks480/I_Pegmatite_12.png","response":null,"trial_type":"image-keyboard-response","trial_index":232,"plugin_version":"2.1.0","time_elapsed":452084,"subject_id":"87571","group":"Group1","date":"2025-09-16T21:32:48.133Z"},{"rt":null,"stimulus":"<p style=\"font-size: 50px; margin: 0; text-align: center;\">+</p>","response":null,"trial_type":"html-keyboard-response","trial_index":233,"plugin_version":"2.1.0","time_elapsed":453090,"subject_id":"87571","group":"Group1","date":"2025-09-16T21:32:48.133Z"},{"task":"memory_phase","broad_category":"M","image_png":"M_Schist_13.png","image_id":301,"category_name":"Schist","category":19,"distinct_rating":3.37,"rt":null,"stimulus":"Stimuli_Rocks480/M_Schist_13.png","response":null,"trial_type":"image-keyboard-response","trial_index":234,"plugin_version":"2.1.0","time_elapsed":455607,"subject_id":"87571","group":"Group1","date":"2025-09-16T21:32:48.133Z"},{"rt":null,"stimulus":"<p style=\"font-size: 50px; margin: 0; text-align: center;\">+</p>","response":null,"trial_type":"html-keyboard-response","trial_index":235,"plugin_version":"2.1.0","time_elapsed":456621,"subject_id":"87571","group":"Group1","date":"2025-09-16T21:32:48.133Z"},{"task":"memory_phase","broad_category":"S","image_png":"S_Bituminous Coal_08.png","image_id":328,"category_name":"Bituminous Coal","category":21,"distinct_rating":3.92,"rt":null,"stimulus":"Stimuli_Rocks480/S_Bituminous Coal_08.png","response":null,"trial_type":"image-keyboard-response","trial_index":236,"plugin_version":"2.1.0","time_elapsed":459129,"subject_id":"87571","group":"Group1","date":"2025-09-16T21:32:48.133Z"},{"rt":null,"stimulus":"<p style=\"font-size: 50px; margin: 0; text-align: center;\">+</p>","response":null,"trial_type":"html-keyboard-response","trial_index":237,"plugin_version":"2.1.0","time_elapsed":460134,"subject_id":"87571","group":"Group1","date":"2025-09-16T21:32:48.133Z"},{"task":"memory_phase","broad_category":"M","image_png":"M_Migmatite_03.png","image_id":243,"category_name":"Migmatite","category":16,"distinct_rating":3.7,"rt":null,"stimulus":"Stimuli_Rocks480/M_Migmatite_03.png","response":null,"trial_type":"image-keyboard-response","trial_index":238,"plugin_version":"2.1.0","time_elapsed":462639,"subject_id":"87571","group":"Group1","date":"2025-09-16T21:32:48.133Z"},{"rt":null,"stimulus":"<p style=\"font-size: 50px; margin: 0; text-align: center;\">+</p>","response":null,"trial_type":"html-keyboard-response","trial_index":239,"plugin_version":"2.1.0","time_elapsed":463648,"subject_id":"87571","group":"Group1","date":"2025-09-16T21:32:48.133Z"},{"task":"memory_phase","broad_category":"I","image_png":"I_Andesite_11.png","image_id":11,"category_name":"Andesite","category":1,"distinct_rating":3.35,"rt":null,"stimulus":"Stimuli_Rocks480/I_Andesite_11.png","response":null,"trial_type":"image-keyboard-response","trial_index":240,"plugin_version":"2.1.0","time_elapsed":466156,"subject_id":"87571","group":"Group1","date":"2025-09-16T21:32:48.133Z"},{"rt":null,"stimulus":"<p style=\"font-size: 50px; margin: 0; text-align: center;\">+</p>","response":null,"trial_type":"html-keyboard-response","trial_index":241,"plugin_version":"2.1.0","time_elapsed":467166,"subject_id":"87571","group":"Group1","date":"2025-09-16T21:32:48.133Z"},{"task":"memory_phase","broad_category":"S","image_png":"S_Micrite_03.png","image_id":403,"category_name":"Micrite","category":26,"distinct_rating":4,"rt":null,"stimulus":"Stimuli_Rocks480/S_Micrite_03.png","response":null,"trial_type":"image-keyboard-response","trial_index":242,"plugin_version":"2.1.0","time_elapsed":469678,"subject_id":"87571","group":"Group1","date":"2025-09-16T21:32:48.133Z"},{"rt":null,"stimulus":"<p style=\"font-size: 50px; margin: 0; text-align: center;\">+</p>","response":null,"trial_type":"html-keyboard-response","trial_index":243,"plugin_version":"2.1.0","time_elapsed":470679,"subject_id":"87571","group":"Group1","date":"2025-09-16T21:32:48.133Z"},{"task":"memory_phase","broad_category":"M","image_png":"M_Quartzite_04.png","image_id":276,"category_name":"Quartzite","category":18,"distinct_rating":3.06,"rt":null,"stimulus":"Stimuli_Rocks480/M_Quartzite_04.png","response":null,"trial_type":"image-keyboard-response","trial_index":244,"plugin_version":"2.1.0","time_elapsed":473188,"subject_id":"87571","group":"Group1","date":"2025-09-16T21:32:48.133Z"},{"rt":null,"stimulus":"<p style=\"font-size: 50px; margin: 0; text-align: center;\">+</p>","response":null,"trial_type":"html-keyboard-response","trial_index":245,"plugin_version":"2.1.0","time_elapsed":474203,"subject_id":"87571","group":"Group1","date":"2025-09-16T21:32:48.133Z"},{"task":"memory_phase","broad_category":"M","image_png":"M_Schist_05.png","image_id":293,"category_name":"Schist","category":19,"distinct_rating":3.66,"rt":null,"stimulus":"Stimuli_Rocks480/M_Schist_05.png","response":null,"trial_type":"image-keyboard-response","trial_index":246,"plugin_version":"2.1.0","time_elapsed":476720,"subject_id":"87571","group":"Group1","date":"2025-09-16T21:32:48.133Z"},{"rt":27734,"stimulus":"<div style=\"max-width: 760px; margin: auto; font-size: 20px; line-height: 1.5;\">\n      <h1 style=\"text-align:center; font-size: 30px;\">Instructions for the Test Phase</h1>\n      <p>\n        The study phase is now complete.\n      </p>\n      <p>\n        In the test phase, you will again see a series of rock images. \n        Some will be ones you saw before - during the study phase, while others will be new.  \n        <b>Your task</b> is to decide whether you have seen each image before by pressing the corresponding key on your keyboard:<br><br>\n          <b>A</b> - NO (you did not see this image before)<br>\n          <b>L</b> - YES (you saw this image before)<br><br>\n        The test will proceed at your own pace. You will receive feedback after each response.  \n        Please try to respond <b>as accurately as possible</b>.\n      </p>\n      <p>\n        <b>Reminder:</b> If your computer has multiple language settings (e.g., English and another language),\n        please ensure it is set to English during the test phase.\n      </p>\n      <p>\n        You can track your progress using the <b>completion bar</b> at the top of the screen.  \n        Note that it has been refreshed to reflect your progress during this final phase.\n      </p>\n      <p>\n        Press the button below when you are ready to continue.\n      </p>\n    </div>","response":0,"trial_type":"html-button-response","trial_index":247,"plugin_version":"2.1.0","time_elapsed":504456,"subject_id":"87571","group":"Group1","date":"2025-09-16T21:32:48.133Z"},{"correct_response":"l","task":"test_phase","broad_category":"I","image_png":"I_Basalt_15.png","image_id":31,"category_name":"Basalt","category":2,"distinct_rating":4.03,"item_type":"Target","rt":4443,"stimulus":"Stimuli_Rocks480/I_Basalt_15.png","response":"a","trial_type":"image-keyboard-response","trial_index":248,"plugin_version":"2.1.0","time_elapsed":508901,"subject_id":"87571","group":"Group1","date":"2025-09-16T21:32:48.133Z","cor_ans":false},{"trial_type":"html-keyboard-response","rt":null,"stimulus":"<p style=\"color: red; font-size: 50px; font-weight: bold;\">Incorrect</p>","response":null,"trial_index":249,"plugin_version":"2.1.0","time_elapsed":509411,"subject_id":"87571","group":"Group1","date":"2025-09-16T21:32:48.133Z"},{"correct_response":"a","task":"test_phase","broad_category":"S","image_png":"S_Shale_08.png","image_id":472,"category_name":"Shale","category":30,"distinct_rating":2.55,"item_type":"Foil","rt":1338,"stimulus":"Stimuli_Rocks480/S_Shale_08.png","response":"a","trial_type":"image-keyboard-response","trial_index":250,"plugin_version":"2.1.0","time_elapsed":510751,"subject_id":"87571","group":"Group1","date":"2025-09-16T21:32:48.133Z","cor_ans":true},{"trial_type":"html-keyboard-response","rt":null,"stimulus":"<p style=\"color: green; font-size: 50px; font-weight: bold;\">Correct</p>","response":null,"trial_index":251,"plugin_version":"2.1.0","time_elapsed":511264,"subject_id":"87571","group":"Group1","date":"2025-09-16T21:32:48.133Z"},{"correct_response":"l","task":"test_phase","broad_category":"M","image_png":"M_Amphibolite_08.png","image_id":168,"category_name":"Amphibolite","category":11,"distinct_rating":4.89,"item_type":"Target","rt":1301,"stimulus":"Stimuli_Rocks480/M_Amphibolite_08.png","response":"l","trial_type":"image-keyboard-response","trial_index":252,"plugin_version":"2.1.0","time_elapsed":512566,"subject_id":"87571","group":"Group1","date":"2025-09-16T21:32:48.133Z","cor_ans":true},{"trial_type":"html-keyboard-response","rt":null,"stimulus":"<p style=\"color: green; font-size: 50px; font-weight: bold;\">Correct</p>","response":null,"trial_index":253,"plugin_version":"2.1.0","time_elapsed":513078,"subject_id":"87571","group":"Group1","date":"2025-09-16T21:32:48.133Z"},{"correct_response":"l","task":"test_phase","broad_category":"S","image_png":"S_Shale_11.png","image_id":475,"category_name":"Shale","category":30,"distinct_rating":4.05,"item_type":"Target","rt":1594,"stimulus":"Stimuli_Rocks480/S_Shale_11.png","response":"l","trial_type":"image-keyboard-response","trial_index":254,"plugin_version":"2.1.0","time_elapsed":514674,"subject_id":"87571","group":"Group1","date":"2025-09-16T21:32:48.133Z","cor_ans":true},{"trial_type":"html-keyboard-response","rt":null,"stimulus":"<p style=\"color: green; font-size: 50px; font-weight: bold;\">Correct</p>","response":null,"trial_index":255,"plugin_version":"2.1.0","time_elapsed":515183,"subject_id":"87571","group":"Group1","date":"2025-09-16T21:32:48.133Z"},{"correct_response":"l","task":"test_phase","broad_category":"S","image_png":"S_Rock Gypsum_04.png","image_id":420,"category_name":"Rock Gypsum","category":27,"distinct_rating":7.61,"item_type":"Target","rt":740,"stimulus":"Stimuli_Rocks480/S_Rock Gypsum_04.png","response":"l","trial_type":"image-keyboard-response","trial_index":256,"plugin_version":"2.1.0","time_elapsed":515926,"subject_id":"87571","group":"Group1","date":"2025-09-16T21:32:48.133Z","cor_ans":true},{"trial_type":"html-keyboard-response","rt":null,"stimulus":"<p style=\"color: green; font-size: 50px; font-weight: bold;\">Correct</p>","response":null,"trial_index":257,"plugin_version":"2.1.0","time_elapsed":516426,"subject_id":"87571","group":"Group1","date":"2025-09-16T21:32:48.133Z"},{"correct_response":"l","task":"test_phase","broad_category":"M","image_png":"M_Slate_10.png","image_id":314,"category_name":"Slate","category":20,"distinct_rating":1.94,"item_type":"Target","rt":868,"stimulus":"Stimuli_Rocks480/M_Slate_10.png","response":"l","trial_type":"image-keyboard-response","trial_index":258,"plugin_version":"2.1.0","time_elapsed":517296,"subject_id":"87571","group":"Group1","date":"2025-09-16T21:32:48.133Z","cor_ans":true},{"trial_type":"html-keyboard-response","rt":null,"stimulus":"<p style=\"color: green; font-size: 50px; font-weight: bold;\">Correct</p>","response":null,"trial_index":259,"plugin_version":"2.1.0","time_elapsed":517799,"subject_id":"87571","group":"Group1","date":"2025-09-16T21:32:48.133Z"},{"correct_response":"a","task":"test_phase","broad_category":"S","image_png":"S_Conglomerate_05.png","image_id":373,"category_name":"Conglomerate","category":24,"distinct_rating":7.32,"item_type":"Foil","rt":1416,"stimulus":"Stimuli_Rocks480/S_Conglomerate_05.png","response":"a","trial_type":"image-keyboard-response","trial_index":260,"plugin_version":"2.1.0","time_elapsed":519217,"subject_id":"87571","group":"Group1","date":"2025-09-16T21:32:48.133Z","cor_ans":true},{"trial_type":"html-keyboard-response","rt":null,"stimulus":"<p style=\"color: green; font-size: 50px; font-weight: bold;\">Correct</p>","response":null,"trial_index":261,"plugin_version":"2.1.0","time_elapsed":519732,"subject_id":"87571","group":"Group1","date":"2025-09-16T21:32:48.133Z"},{"correct_response":"a","task":"test_phase","broad_category":"I","image_png":"I_Pumice_16.png","image_id":144,"category_name":"Pumice","category":9,"distinct_rating":5.37,"item_type":"Foil","rt":1061,"stimulus":"Stimuli_Rocks480/I_Pumice_16.png","response":"l","trial_type":"image-keyboard-response","trial_index":262,"plugin_version":"2.1.0","time_elapsed":520795,"subject_id":"87571","group":"Group1","date":"2025-09-16T21:32:48.133Z","cor_ans":false},{"trial_type":"html-keyboard-response","rt":null,"stimulus":"<p style=\"color: red; font-size: 50px; font-weight: bold;\">Incorrect</p>","response":null,"trial_index":263,"plugin_version":"2.1.0","time_elapsed":521300,"subject_id":"87571","group":"Group1","date":"2025-09-16T21:32:48.133Z"},{"correct_response":"a","task":"test_phase","broad_category":"M","image_png":"M_Gneiss_14.png","image_id":206,"category_name":"Gneiss","category":13,"distinct_rating":3.41,"item_type":"Foil","rt":823,"stimulus":"Stimuli_Rocks480/M_Gneiss_14.png","response":"l","trial_type":"image-keyboard-response","trial_index":264,"plugin_version":"2.1.0","time_elapsed":522125,"subject_id":"87571","group":"Group1","date":"2025-09-16T21:32:48.133Z","cor_ans":false},{"trial_type":"html-keyboard-response","rt":null,"stimulus":"<p style=\"color: red; font-size: 50px; font-weight: bold;\">Incorrect</p>","response":null,"trial_index":265,"plugin_version":"2.1.0","time_elapsed":522634,"subject_id":"87571","group":"Group1","date":"2025-09-16T21:32:48.133Z"},{"correct_response":"a","task":"test_phase","broad_category":"M","image_png":"M_Marble_05.png","image_id":229,"category_name":"Marble","category":15,"distinct_rating":4.1,"item_type":"Foil","rt":567,"stimulus":"Stimuli_Rocks480/M_Marble_05.png","response":"l","trial_type":"image-keyboard-response","trial_index":266,"plugin_version":"2.1.0","time_elapsed":523203,"subject_id":"87571","group":"Group1","date":"2025-09-16T21:32:48.133Z","cor_ans":false},{"trial_type":"html-keyboard-response","rt":null,"stimulus":"<p style=\"color: red; font-size: 50px; font-weight: bold;\">Incorrect</p>","response":null,"trial_index":267,"plugin_version":"2.1.0","time_elapsed":523712,"subject_id":"87571","group":"Group1","date":"2025-09-16T21:32:48.133Z"},{"correct_response":"l","task":"test_phase","broad_category":"M","image_png":"M_Amphibolite_14.png","image_id":174,"category_name":"Amphibolite","category":11,"distinct_rating":3.65,"item_type":"Target","rt":569,"stimulus":"Stimuli_Rocks480/M_Amphibolite_14.png","response":"l","trial_type":"image-keyboard-response","trial_index":268,"plugin_version":"2.1.0","time_elapsed":524282,"subject_id":"87571","group":"Group1","date":"2025-09-16T21:32:48.133Z","cor_ans":true},{"trial_type":"html-keyboard-response","rt":null,"stimulus":"<p style=\"color: green; font-size: 50px; font-weight: bold;\">Correct</p>","response":null,"trial_index":269,"plugin_version":"2.1.0","time_elapsed":524795,"subject_id":"87571","group":"Group1","date":"2025-09-16T21:32:48.133Z"},{"correct_response":"l","task":"test_phase","broad_category":"M","image_png":"M_Quartzite_01.png","image_id":273,"category_name":"Quartzite","category":18,"distinct_rating":2.3,"item_type":"Target","rt":579,"stimulus":"Stimuli_Rocks480/M_Quartzite_01.png","response":"l","trial_type":"image-keyboard-response","trial_index":270,"plugin_version":"2.1.0","time_elapsed":525375,"subject_id":"87571","group":"Group1","date":"2025-09-16T21:32:48.133Z","cor_ans":true},{"trial_type":"html-keyboard-response","rt":null,"stimulus":"<p style=\"color: green; font-size: 50px; font-weight: bold;\">Correct</p>","response":null,"trial_index":271,"plugin_version":"2.1.0","time_elapsed":525891,"subject_id":"87571","group":"Group1","date":"2025-09-16T21:32:48.133Z"},{"correct_response":"a","task":"test_phase","broad_category":"S","image_png":"S_Chert_14.png","image_id":366,"category_name":"Chert","category":23,"distinct_rating":4.5,"item_type":"Foil","rt":597,"stimulus":"Stimuli_Rocks480/S_Chert_14.png","response":"l","trial_type":"image-keyboard-response","trial_index":272,"plugin_version":"2.1.0","time_elapsed":526489,"subject_id":"87571","group":"Group1","date":"2025-09-16T21:32:48.133Z","cor_ans":false},{"trial_type":"html-keyboard-response","rt":null,"stimulus":"<p style=\"color: red; font-size: 50px; font-weight: bold;\">Incorrect</p>","response":null,"trial_index":273,"plugin_version":"2.1.0","time_elapsed":526999,"subject_id":"87571","group":"Group1","date":"2025-09-16T21:32:48.133Z"},{"correct_response":"l","task":"test_phase","broad_category":"S","image_png":"S_Rock Salt_09.png","image_id":441,"category_name":"Rock Salt","category":28,"distinct_rating":7.08,"item_type":"Target","rt":743,"stimulus":"Stimuli_Rocks480/S_Rock Salt_09.png","response":"l","trial_type":"image-keyboard-response","trial_index":274,"plugin_version":"2.1.0","time_elapsed":527744,"subject_id":"87571","group":"Group1","date":"2025-09-16T21:32:48.133Z","cor_ans":true},{"trial_type":"html-keyboard-response","rt":null,"stimulus":"<p style=\"color: green; font-size: 50px; font-weight: bold;\">Correct</p>","response":null,"trial_index":275,"plugin_version":"2.1.0","time_elapsed":528248,"subject_id":"87571","group":"Group1","date":"2025-09-16T21:32:48.133Z"},{"correct_response":"l","task":"test_phase","broad_category":"M","image_png":"M_Schist_12.png","image_id":300,"category_name":"Schist","category":19,"distinct_rating":4.27,"item_type":"Target","rt":1277,"stimulus":"Stimuli_Rocks480/M_Schist_12.png","response":"l","trial_type":"image-keyboard-response","trial_index":276,"plugin_version":"2.1.0","time_elapsed":529526,"subject_id":"87571","group":"Group1","date":"2025-09-16T21:32:48.133Z","cor_ans":true},{"trial_type":"html-keyboard-response","rt":null,"stimulus":"<p style=\"color: green; font-size: 50px; font-weight: bold;\">Correct</p>","response":null,"trial_index":277,"plugin_version":"2.1.0","time_elapsed":530029,"subject_id":"87571","group":"Group1","date":"2025-09-16T21:32:48.133Z"},{"correct_response":"a","task":"test_phase","broad_category":"I","image_png":"I_Gabbro_07.png","image_id":55,"category_name":"Gabbro","category":4,"distinct_rating":4.29,"item_type":"Foil","rt":679,"stimulus":"Stimuli_Rocks480/I_Gabbro_07.png","response":"l","trial_type":"image-keyboard-response","trial_index":278,"plugin_version":"2.1.0","time_elapsed":530709,"subject_id":"87571","group":"Group1","date":"2025-09-16T21:32:48.133Z","cor_ans":false},{"trial_type":"html-keyboard-response","rt":null,"stimulus":"<p style=\"color: red; font-size: 50px; font-weight: bold;\">Incorrect</p>","response":null,"trial_index":279,"plugin_version":"2.1.0","time_elapsed":531217,"subject_id":"87571","group":"Group1","date":"2025-09-16T21:32:48.133Z"},{"correct_response":"a","task":"test_phase","broad_category":"M","image_png":"M_Anthracite_04.png","image_id":180,"category_name":"Anthracite","category":12,"distinct_rating":6.25,"item_type":"Foil","rt":668,"stimulus":"Stimuli_Rocks480/M_Anthracite_04.png","response":"l","trial_type":"image-keyboard-response","trial_index":280,"plugin_version":"2.1.0","time_elapsed":531887,"subject_id":"87571","group":"Group1","date":"2025-09-16T21:32:48.133Z","cor_ans":false},{"trial_type":"html-keyboard-response","rt":null,"stimulus":"<p style=\"color: red; font-size: 50px; font-weight: bold;\">Incorrect</p>","response":null,"trial_index":281,"plugin_version":"2.1.0","time_elapsed":532395,"subject_id":"87571","group":"Group1","date":"2025-09-16T21:32:48.133Z"},{"correct_respon