[{"width":1453,"height":854,"webaudio":true,"browser":"chrome","browser_version":"139.0.0","mobile":false,"os":"Mac OS","fullscreen":true,"vsync_rate":61.66,"webcam":true,"microphone":true,"trial_type":"browser-check","trial_index":0,"plugin_version":"2.1.0","time_elapsed":1014,"subject_id":"87902","group":"Group1","date":"2025-10-29T21:35:27.114Z"},{"success":true,"timeout":false,"failed_images":[],"failed_audio":[],"failed_video":[],"trial_type":"preload","trial_index":1,"plugin_version":"2.1.0","time_elapsed":27906,"subject_id":"87902","group":"Group1","date":"2025-10-29T21:35:27.114Z"},{"rt":25460,"url":"SONA_consent_memorability.html","trial_type":"external-html","trial_index":2,"plugin_version":"2.1.0","time_elapsed":53438,"subject_id":"87902","group":"Group1","date":"2025-10-29T21:35:27.114Z"},{"success":true,"rt":4395,"trial_type":"fullscreen","trial_index":3,"plugin_version":"2.1.0","time_elapsed":58838,"subject_id":"87902","group":"Group1","date":"2025-10-29T21:35:27.114Z"},{"rt":44379,"stimulus":"<div style=\"max-width: 760px; margin: auto; font-size: 20px; line-height: 1.5;\">\n      <h1 style=\"text-align:center; font-size: 30px;\">Instructions</h1>\n      <p>\n        Welcome to the study on <b>visual memory</b>. This experiment consists of <b>two phases</b>: \n        a <b>study phase</b> and a <b>test phase</b>.\n      </p>\n      <p>\n        In the study phase, you will see a series of rock images along with their category labels.\n        The images will appear one at a time.\n        <b>Your task</b> is to learn the categories to which the rock images belong \n        and to remember each image as accurately as possible.\n      </p> \n      <p>\n        After the study phase, <b>your memory will be tested</b>. \n        Additional instructions for the test phase will be provided at that time.\n      </p>\n      <p>\n        If your computer has multiple <b>language settings</b> (e.g., English and another language),\n        please make sure it is set to English before starting.\n      </p>\n      <p>\n        You can track your progress using the <b>completion bar</b> at the top of the screen. \n        Please note that the bar will refresh when the test phase begins \n        to give you an accurate sense of your progress in both phases.\n      </p> \n      <p>\n        Press the button below when you are ready to begin.\n      </p>\n    </div>","response":0,"trial_type":"html-button-response","trial_index":4,"plugin_version":"2.1.0","time_elapsed":103221,"subject_id":"87902","group":"Group1","date":"2025-10-29T21:35:27.114Z"},{"rt":null,"stimulus":"<p style=\"font-size: 50px; margin: 0; text-align: center;\">+</p>","response":null,"trial_type":"html-keyboard-response","trial_index":5,"plugin_version":"2.1.0","time_elapsed":104228,"subject_id":"87902","group":"Group1","date":"2025-10-29T21:35:27.114Z"},{"task":"memory_phase","broad_category":"S","image_png":"S_Rock Salt_15.png","image_id":447,"category_name":"Rock Salt","category":28,"distinct_rating":7.79,"rt":null,"stimulus":"Stimuli_Rocks480/S_Rock Salt_15.png","response":null,"trial_type":"image-keyboard-response","trial_index":6,"plugin_version":"2.1.0","time_elapsed":106737,"subject_id":"87902","group":"Group1","date":"2025-10-29T21:35:27.114Z"},{"rt":null,"stimulus":"<p style=\"font-size: 50px; margin: 0; text-align: center;\">+</p>","response":null,"trial_type":"html-keyboard-response","trial_index":7,"plugin_version":"2.1.0","time_elapsed":107740,"subject_id":"87902","group":"Group1","date":"2025-10-29T21:35:27.114Z"},{"task":"memory_phase","broad_category":"M","image_png":"M_Migmatite_14.png","image_id":254,"category_name":"Migmatite","category":16,"distinct_rating":4.62,"rt":null,"stimulus":"Stimuli_Rocks480/M_Migmatite_14.png","response":null,"trial_type":"image-keyboard-response","trial_index":8,"plugin_version":"2.1.0","time_elapsed":110244,"subject_id":"87902","group":"Group1","date":"2025-10-29T21:35:27.114Z"},{"rt":null,"stimulus":"<p style=\"font-size: 50px; margin: 0; text-align: center;\">+</p>","response":null,"trial_type":"html-keyboard-response","trial_index":9,"plugin_version":"2.1.0","time_elapsed":111247,"subject_id":"87902","group":"Group1","date":"2025-10-29T21:35:27.114Z"},{"task":"memory_phase","broad_category":"S","image_png":"S_Chert_12.png","image_id":364,"category_name":"Chert","category":23,"distinct_rating":4.06,"rt":null,"stimulus":"Stimuli_Rocks480/S_Chert_12.png","response":null,"trial_type":"image-keyboard-response","trial_index":10,"plugin_version":"2.1.0","time_elapsed":113751,"subject_id":"87902","group":"Group1","date":"2025-10-29T21:35:27.114Z"},{"rt":null,"stimulus":"<p style=\"font-size: 50px; margin: 0; text-align: center;\">+</p>","response":null,"trial_type":"html-keyboard-response","trial_index":11,"plugin_version":"2.1.0","time_elapsed":114754,"subject_id":"87902","group":"Group1","date":"2025-10-29T21:35:27.114Z"},{"task":"memory_phase","broad_category":"M","image_png":"M_Anthracite_13.png","image_id":189,"category_name":"Anthracite","category":12,"distinct_rating":4.81,"rt":null,"stimulus":"Stimuli_Rocks480/M_Anthracite_13.png","response":null,"trial_type":"image-keyboard-response","trial_index":12,"plugin_version":"2.1.0","time_elapsed":117257,"subject_id":"87902","group":"Group1","date":"2025-10-29T21:35:27.114Z"},{"rt":null,"stimulus":"<p style=\"font-size: 50px; margin: 0; text-align: center;\">+</p>","response":null,"trial_type":"html-keyboard-response","trial_index":13,"plugin_version":"2.1.0","time_elapsed":118260,"subject_id":"87902","group":"Group1","date":"2025-10-29T21:35:27.114Z"},{"task":"memory_phase","broad_category":"I","image_png":"I_Gabbro_10.png","image_id":58,"category_name":"Gabbro","category":4,"distinct_rating":3.11,"rt":null,"stimulus":"Stimuli_Rocks480/I_Gabbro_10.png","response":null,"trial_type":"image-keyboard-response","trial_index":14,"plugin_version":"2.1.0","time_elapsed":120764,"subject_id":"87902","group":"Group1","date":"2025-10-29T21:35:27.114Z"},{"rt":null,"stimulus":"<p style=\"font-size: 50px; margin: 0; text-align: center;\">+</p>","response":null,"trial_type":"html-keyboard-response","trial_index":15,"plugin_version":"2.1.0","time_elapsed":121767,"subject_id":"87902","group":"Group1","date":"2025-10-29T21:35:27.114Z"},{"task":"memory_phase","broad_category":"I","image_png":"I_Andesite_11.png","image_id":11,"category_name":"Andesite","category":1,"distinct_rating":3.35,"rt":null,"stimulus":"Stimuli_Rocks480/I_Andesite_11.png","response":null,"trial_type":"image-keyboard-response","trial_index":16,"plugin_version":"2.1.0","time_elapsed":124270,"subject_id":"87902","group":"Group1","date":"2025-10-29T21:35:27.114Z"},{"rt":null,"stimulus":"<p style=\"font-size: 50px; margin: 0; text-align: center;\">+</p>","response":null,"trial_type":"html-keyboard-response","trial_index":17,"plugin_version":"2.1.0","time_elapsed":125273,"subject_id":"87902","group":"Group1","date":"2025-10-29T21:35:27.114Z"},{"task":"memory_phase","broad_category":"M","image_png":"M_Gneiss_15.png","image_id":207,"category_name":"Gneiss","category":13,"distinct_rating":3.11,"rt":null,"stimulus":"Stimuli_Rocks480/M_Gneiss_15.png","response":null,"trial_type":"image-keyboard-response","trial_index":18,"plugin_version":"2.1.0","time_elapsed":127777,"subject_id":"87902","group":"Group1","date":"2025-10-29T21:35:27.114Z"},{"rt":null,"stimulus":"<p style=\"font-size: 50px; margin: 0; text-align: center;\">+</p>","response":null,"trial_type":"html-keyboard-response","trial_index":19,"plugin_version":"2.1.0","time_elapsed":128780,"subject_id":"87902","group":"Group1","date":"2025-10-29T21:35:27.114Z"},{"task":"memory_phase","broad_category":"S","image_png":"S_Dolomite_10.png","image_id":394,"category_name":"Dolomite","category":25,"distinct_rating":3.57,"rt":null,"stimulus":"Stimuli_Rocks480/S_Dolomite_10.png","response":null,"trial_type":"image-keyboard-response","trial_index":20,"plugin_version":"2.1.0","time_elapsed":131283,"subject_id":"87902","group":"Group1","date":"2025-10-29T21:35:27.114Z"},{"rt":null,"stimulus":"<p style=\"font-size: 50px; margin: 0; text-align: center;\">+</p>","response":null,"trial_type":"html-keyboard-response","trial_index":21,"plugin_version":"2.1.0","time_elapsed":132286,"subject_id":"87902","group":"Group1","date":"2025-10-29T21:35:27.114Z"},{"task":"memory_phase","broad_category":"I","image_png":"I_Diorite_13.png","image_id":45,"category_name":"Diorite","category":3,"distinct_rating":4.58,"rt":null,"stimulus":"Stimuli_Rocks480/I_Diorite_13.png","response":null,"trial_type":"image-keyboard-response","trial_index":22,"plugin_version":"2.1.0","time_elapsed":134790,"subject_id":"87902","group":"Group1","date":"2025-10-29T21:35:27.114Z"},{"rt":null,"stimulus":"<p style=\"font-size: 50px; margin: 0; text-align: center;\">+</p>","response":null,"trial_type":"html-keyboard-response","trial_index":23,"plugin_version":"2.1.0","time_elapsed":135793,"subject_id":"87902","group":"Group1","date":"2025-10-29T21:35:27.114Z"},{"task":"memory_phase","broad_category":"M","image_png":"M_Schist_13.png","image_id":301,"category_name":"Schist","category":19,"distinct_rating":3.37,"rt":null,"stimulus":"Stimuli_Rocks480/M_Schist_13.png","response":null,"trial_type":"image-keyboard-response","trial_index":24,"plugin_version":"2.1.0","time_elapsed":138297,"subject_id":"87902","group":"Group1","date":"2025-10-29T21:35:27.114Z"},{"rt":null,"stimulus":"<p style=\"font-size: 50px; margin: 0; text-align: center;\">+</p>","response":null,"trial_type":"html-keyboard-response","trial_index":25,"plugin_version":"2.1.0","time_elapsed":139300,"subject_id":"87902","group":"Group1","date":"2025-10-29T21:35:27.114Z"},{"task":"memory_phase","broad_category":"M","image_png":"M_Slate_06.png","image_id":310,"category_name":"Slate","category":20,"distinct_rating":2.86,"rt":null,"stimulus":"Stimuli_Rocks480/M_Slate_06.png","response":null,"trial_type":"image-keyboard-response","trial_index":26,"plugin_version":"2.1.0","time_elapsed":141803,"subject_id":"87902","group":"Group1","date":"2025-10-29T21:35:27.114Z"},{"rt":null,"stimulus":"<p style=\"font-size: 50px; margin: 0; text-align: center;\">+</p>","response":null,"trial_type":"html-keyboard-response","trial_index":27,"plugin_version":"2.1.0","time_elapsed":142805,"subject_id":"87902","group":"Group1","date":"2025-10-29T21:35:27.114Z"},{"task":"memory_phase","broad_category":"M","image_png":"M_Phyllite_01.png","image_id":257,"category_name":"Phyllite","category":17,"distinct_rating":5.54,"rt":null,"stimulus":"Stimuli_Rocks480/M_Phyllite_01.png","response":null,"trial_type":"image-keyboard-response","trial_index":28,"plugin_version":"2.1.0","time_elapsed":145309,"subject_id":"87902","group":"Group1","date":"2025-10-29T21:35:27.114Z"},{"rt":null,"stimulus":"<p style=\"font-size: 50px; margin: 0; text-align: center;\">+</p>","response":null,"trial_type":"html-keyboard-response","trial_index":29,"plugin_version":"2.1.0","time_elapsed":146312,"subject_id":"87902","group":"Group1","date":"2025-10-29T21:35:27.114Z"},{"task":"memory_phase","broad_category":"M","image_png":"M_Marble_13.png","image_id":237,"category_name":"Marble","category":15,"distinct_rating":3.8,"rt":null,"stimulus":"Stimuli_Rocks480/M_Marble_13.png","response":null,"trial_type":"image-keyboard-response","trial_index":30,"plugin_version":"2.1.0","time_elapsed":148816,"subject_id":"87902","group":"Group1","date":"2025-10-29T21:35:27.114Z"},{"rt":null,"stimulus":"<p style=\"font-size: 50px; margin: 0; text-align: center;\">+</p>","response":null,"trial_type":"html-keyboard-response","trial_index":31,"plugin_version":"2.1.0","time_elapsed":149819,"subject_id":"87902","group":"Group1","date":"2025-10-29T21:35:27.114Z"},{"task":"memory_phase","broad_category":"I","image_png":"I_Diorite_15.png","image_id":47,"category_name":"Diorite","category":3,"distinct_rating":3.05,"rt":null,"stimulus":"Stimuli_Rocks480/I_Diorite_15.png","response":null,"trial_type":"image-keyboard-response","trial_index":32,"plugin_version":"2.1.0","time_elapsed":152323,"subject_id":"87902","group":"Group1","date":"2025-10-29T21:35:27.114Z"},{"rt":null,"stimulus":"<p style=\"font-size: 50px; margin: 0; text-align: center;\">+</p>","response":null,"trial_type":"html-keyboard-response","trial_index":33,"plugin_version":"2.1.0","time_elapsed":153325,"subject_id":"87902","group":"Group1","date":"2025-10-29T21:35:27.114Z"},{"task":"memory_phase","broad_category":"I","image_png":"I_Obsidian_05.png","image_id":85,"category_name":"Obsidian","category":6,"distinct_rating":7.32,"rt":null,"stimulus":"Stimuli_Rocks480/I_Obsidian_05.png","response":null,"trial_type":"image-keyboard-response","trial_index":34,"plugin_version":"2.1.0","time_elapsed":155829,"subject_id":"87902","group":"Group1","date":"2025-10-29T21:35:27.114Z"},{"rt":null,"stimulus":"<p style=\"font-size: 50px; margin: 0; text-align: center;\">+</p>","response":null,"trial_type":"html-keyboard-response","trial_index":35,"plugin_version":"2.1.0","time_elapsed":156832,"subject_id":"87902","group":"Group1","date":"2025-10-29T21:35:27.114Z"},{"task":"memory_phase","broad_category":"S","image_png":"S_Shale_01.png","image_id":465,"category_name":"Shale","category":30,"distinct_rating":2.7,"rt":null,"stimulus":"Stimuli_Rocks480/S_Shale_01.png","response":null,"trial_type":"image-keyboard-response","trial_index":36,"plugin_version":"2.1.0","time_elapsed":159336,"subject_id":"87902","group":"Group1","date":"2025-10-29T21:35:27.114Z"},{"rt":null,"stimulus":"<p style=\"font-size: 50px; margin: 0; text-align: center;\">+</p>","response":null,"trial_type":"html-keyboard-response","trial_index":37,"plugin_version":"2.1.0","time_elapsed":160337,"subject_id":"87902","group":"Group1","date":"2025-10-29T21:35:27.114Z"},{"task":"memory_phase","broad_category":"S","image_png":"S_Chert_09.png","image_id":361,"category_name":"Chert","category":23,"distinct_rating":4.92,"rt":null,"stimulus":"Stimuli_Rocks480/S_Chert_09.png","response":null,"trial_type":"image-keyboard-response","trial_index":38,"plugin_version":"2.1.0","time_elapsed":162841,"subject_id":"87902","group":"Group1","date":"2025-10-29T21:35:27.114Z"},{"rt":null,"stimulus":"<p style=\"font-size: 50px; margin: 0; text-align: center;\">+</p>","response":null,"trial_type":"html-keyboard-response","trial_index":39,"plugin_version":"2.1.0","time_elapsed":163844,"subject_id":"87902","group":"Group1","date":"2025-10-29T21:35:27.114Z"},{"task":"memory_phase","broad_category":"M","image_png":"M_Slate_16.png","image_id":320,"category_name":"Slate","category":20,"distinct_rating":2.55,"rt":null,"stimulus":"Stimuli_Rocks480/M_Slate_16.png","response":null,"trial_type":"image-keyboard-response","trial_index":40,"plugin_version":"2.1.0","time_elapsed":166348,"subject_id":"87902","group":"Group1","date":"2025-10-29T21:35:27.114Z"},{"rt":null,"stimulus":"<p style=\"font-size: 50px; margin: 0; text-align: center;\">+</p>","response":null,"trial_type":"html-keyboard-response","trial_index":41,"plugin_version":"2.1.0","time_elapsed":167351,"subject_id":"87902","group":"Group1","date":"2025-10-29T21:35:27.114Z"},{"task":"memory_phase","broad_category":"S","image_png":"S_Sandstone_02.png","image_id":450,"category_name":"Sandstone","category":29,"distinct_rating":2.09,"rt":null,"stimulus":"Stimuli_Rocks480/S_Sandstone_02.png","response":null,"trial_type":"image-keyboard-response","trial_index":42,"plugin_version":"2.1.0","time_elapsed":169854,"subject_id":"87902","group":"Group1","date":"2025-10-29T21:35:27.114Z"},{"rt":null,"stimulus":"<p style=\"font-size: 50px; margin: 0; text-align: center;\">+</p>","response":null,"trial_type":"html-keyboard-response","trial_index":43,"plugin_version":"2.1.0","time_elapsed":170856,"subject_id":"87902","group":"Group1","date":"2025-10-29T21:35:27.114Z"},{"task":"memory_phase","broad_category":"M","image_png":"M_Amphibolite_03.png","image_id":163,"category_name":"Amphibolite","category":11,"distinct_rating":6.58,"rt":null,"stimulus":"Stimuli_Rocks480/M_Amphibolite_03.png","response":null,"trial_type":"image-keyboard-response","trial_index":44,"plugin_version":"2.1.0","time_elapsed":173360,"subject_id":"87902","group":"Group1","date":"2025-10-29T21:35:27.114Z"},{"rt":null,"stimulus":"<p style=\"font-size: 50px; margin: 0; text-align: center;\">+</p>","response":null,"trial_type":"html-keyboard-response","trial_index":45,"plugin_version":"2.1.0","time_elapsed":174361,"subject_id":"87902","group":"Group1","date":"2025-10-29T21:35:27.114Z"},{"task":"memory_phase","broad_category":"I","image_png":"I_Andesite_06.png","image_id":6,"category_name":"Andesite","category":1,"distinct_rating":3.17,"rt":null,"stimulus":"Stimuli_Rocks480/I_Andesite_06.png","response":null,"trial_type":"image-keyboard-response","trial_index":46,"plugin_version":"2.1.0","time_elapsed":176865,"subject_id":"87902","group":"Group1","date":"2025-10-29T21:35:27.114Z"},{"rt":null,"stimulus":"<p style=\"font-size: 50px; margin: 0; text-align: center;\">+</p>","response":null,"trial_type":"html-keyboard-response","trial_index":47,"plugin_version":"2.1.0","time_elapsed":177867,"subject_id":"87902","group":"Group1","date":"2025-10-29T21:35:27.114Z"},{"task":"memory_phase","broad_category":"M","image_png":"M_Quartzite_08.png","image_id":280,"category_name":"Quartzite","category":18,"distinct_rating":2.15,"rt":null,"stimulus":"Stimuli_Rocks480/M_Quartzite_08.png","response":null,"trial_type":"image-keyboard-response","trial_index":48,"plugin_version":"2.1.0","time_elapsed":180370,"subject_id":"87902","group":"Group1","date":"2025-10-29T21:35:27.114Z"},{"rt":null,"stimulus":"<p style=\"font-size: 50px; margin: 0; text-align: center;\">+</p>","response":null,"trial_type":"html-keyboard-response","trial_index":49,"plugin_version":"2.1.0","time_elapsed":181373,"subject_id":"87902","group":"Group1","date":"2025-10-29T21:35:27.114Z"},{"task":"memory_phase","broad_category":"S","image_png":"S_Conglomerate_16.png","image_id":384,"category_name":"Conglomerate","category":24,"distinct_rating":6.38,"rt":null,"stimulus":"Stimuli_Rocks480/S_Conglomerate_16.png","response":null,"trial_type":"image-keyboard-response","trial_index":50,"plugin_version":"2.1.0","time_elapsed":183876,"subject_id":"87902","group":"Group1","date":"2025-10-29T21:35:27.114Z"},{"rt":null,"stimulus":"<p style=\"font-size: 50px; margin: 0; text-align: center;\">+</p>","response":null,"trial_type":"html-keyboard-response","trial_index":51,"plugin_version":"2.1.0","time_elapsed":184879,"subject_id":"87902","group":"Group1","date":"2025-10-29T21:35:27.114Z"},{"task":"memory_phase","broad_category":"S","image_png":"S_Micrite_07.png","image_id":407,"category_name":"Micrite","category":26,"distinct_rating":1.85,"rt":null,"stimulus":"Stimuli_Rocks480/S_Micrite_07.png","response":null,"trial_type":"image-keyboard-response","trial_index":52,"plugin_version":"2.1.0","time_elapsed":187382,"subject_id":"87902","group":"Group1","date":"2025-10-29T21:35:27.114Z"},{"rt":null,"stimulus":"<p style=\"font-size: 50px; margin: 0; text-align: center;\">+</p>","response":null,"trial_type":"html-keyboard-response","trial_index":53,"plugin_version":"2.1.0","time_elapsed":188384,"subject_id":"87902","group":"Group1","date":"2025-10-29T21:35:27.114Z"},{"task":"memory_phase","broad_category":"M","image_png":"M_Phyllite_12.png","image_id":268,"category_name":"Phyllite","category":17,"distinct_rating":3.83,"rt":null,"stimulus":"Stimuli_Rocks480/M_Phyllite_12.png","response":null,"trial_type":"image-keyboard-response","trial_index":54,"plugin_version":"2.1.0","time_elapsed":190888,"subject_id":"87902","group":"Group1","date":"2025-10-29T21:35:27.114Z"},{"rt":null,"stimulus":"<p style=\"font-size: 50px; margin: 0; text-align: center;\">+</p>","response":null,"trial_type":"html-keyboard-response","trial_index":55,"plugin_version":"2.1.0","time_elapsed":191891,"subject_id":"87902","group":"Group1","date":"2025-10-29T21:35:27.114Z"},{"task":"memory_phase","broad_category":"I","image_png":"I_Pegmatite_09.png","image_id":105,"category_name":"Pegmatite","category":7,"distinct_rating":6.37,"rt":null,"stimulus":"Stimuli_Rocks480/I_Pegmatite_09.png","response":null,"trial_type":"image-keyboard-response","trial_index":56,"plugin_version":"2.1.0","time_elapsed":194394,"subject_id":"87902","group":"Group1","date":"2025-10-29T21:35:27.114Z"},{"rt":null,"stimulus":"<p style=\"font-size: 50px; margin: 0; text-align: center;\">+</p>","response":null,"trial_type":"html-keyboard-response","trial_index":57,"plugin_version":"2.1.0","time_elapsed":195397,"subject_id":"87902","group":"Group1","date":"2025-10-29T21:35:27.114Z"},{"task":"memory_phase","broad_category":"I","image_png":"I_Diorite_12.png","image_id":44,"category_name":"Diorite","category":3,"distinct_rating":3.55,"rt":null,"stimulus":"Stimuli_Rocks480/I_Diorite_12.png","response":null,"trial_type":"image-keyboard-response","trial_index":58,"plugin_version":"2.1.0","time_elapsed":197900,"subject_id":"87902","group":"Group1","date":"2025-10-29T21:35:27.114Z"},{"rt":null,"stimulus":"<p style=\"font-size: 50px; margin: 0; text-align: center;\">+</p>","response":null,"trial_type":"html-keyboard-response","trial_index":59,"plugin_version":"2.1.0","time_elapsed":198903,"subject_id":"87902","group":"Group1","date":"2025-10-29T21:35:27.114Z"},{"task":"memory_phase","broad_category":"I","image_png":"I_Gabbro_09.png","image_id":57,"category_name":"Gabbro","category":4,"distinct_rating":3.48,"rt":null,"stimulus":"Stimuli_Rocks480/I_Gabbro_09.png","response":null,"trial_type":"image-keyboard-response","trial_index":60,"plugin_version":"2.1.0","time_elapsed":201406,"subject_id":"87902","group":"Group1","date":"2025-10-29T21:35:27.114Z"},{"rt":null,"stimulus":"<p style=\"font-size: 50px; margin: 0; text-align: center;\">+</p>","response":null,"trial_type":"html-keyboard-response","trial_index":61,"plugin_version":"2.1.0","time_elapsed":202409,"subject_id":"87902","group":"Group1","date":"2025-10-29T21:35:27.114Z"},{"task":"memory_phase","broad_category":"M","image_png":"M_Hornfels_04.png","image_id":212,"category_name":"Hornfels","category":14,"distinct_rating":2.22,"rt":null,"stimulus":"Stimuli_Rocks480/M_Hornfels_04.png","response":null,"trial_type":"image-keyboard-response","trial_index":62,"plugin_version":"2.1.0","time_elapsed":204912,"subject_id":"87902","group":"Group1","date":"2025-10-29T21:35:27.114Z"},{"rt":null,"stimulus":"<p style=\"font-size: 50px; margin: 0; text-align: center;\">+</p>","response":null,"trial_type":"html-keyboard-response","trial_index":63,"plugin_version":"2.1.0","time_elapsed":205915,"subject_id":"87902","group":"Group1","date":"2025-10-29T21:35:27.114Z"},{"task":"memory_phase","broad_category":"I","image_png":"I_Rhyolite_16.png","image_id":160,"category_name":"Rhyolite","category":10,"distinct_rating":2.19,"rt":null,"stimulus":"Stimuli_Rocks480/I_Rhyolite_16.png","response":null,"trial_type":"image-keyboard-response","trial_index":64,"plugin_version":"2.1.0","time_elapsed":208417,"subject_id":"87902","group":"Group1","date":"2025-10-29T21:35:27.114Z"},{"rt":null,"stimulus":"<p style=\"font-size: 50px; margin: 0; text-align: center;\">+</p>","response":null,"trial_type":"html-keyboard-response","trial_index":65,"plugin_version":"2.1.0","time_elapsed":209420,"subject_id":"87902","group":"Group1","date":"2025-10-29T21:35:27.114Z"},{"task":"memory_phase","broad_category":"M","image_png":"M_Migmatite_12.png","image_id":252,"category_name":"Migmatite","category":16,"distinct_rating":4.03,"rt":null,"stimulus":"Stimuli_Rocks480/M_Migmatite_12.png","response":null,"trial_type":"image-keyboard-response","trial_index":66,"plugin_version":"2.1.0","time_elapsed":211923,"subject_id":"87902","group":"Group1","date":"2025-10-29T21:35:27.114Z"},{"rt":null,"stimulus":"<p style=\"font-size: 50px; margin: 0; text-align: center;\">+</p>","response":null,"trial_type":"html-keyboard-response","trial_index":67,"plugin_version":"2.1.0","time_elapsed":212926,"subject_id":"87902","group":"Group1","date":"2025-10-29T21:35:27.114Z"},{"task":"memory_phase","broad_category":"S","image_png":"S_Bituminous Coal_14.png","image_id":334,"category_name":"Bituminous Coal","category":21,"distinct_rating":4.51,"rt":null,"stimulus":"Stimuli_Rocks480/S_Bituminous Coal_14.png","response":null,"trial_type":"image-keyboard-response","trial_index":68,"plugin_version":"2.1.0","time_elapsed":215430,"subject_id":"87902","group":"Group1","date":"2025-10-29T21:35:27.114Z"},{"rt":null,"stimulus":"<p style=\"font-size: 50px; margin: 0; text-align: center;\">+</p>","response":null,"trial_type":"html-keyboard-response","trial_index":69,"plugin_version":"2.1.0","time_elapsed":216433,"subject_id":"87902","group":"Group1","date":"2025-10-29T21:35:27.114Z"},{"task":"memory_phase","broad_category":"I","image_png":"I_Andesite_07.png","image_id":7,"category_name":"Andesite","category":1,"distinct_rating":4.81,"rt":null,"stimulus":"Stimuli_Rocks480/I_Andesite_07.png","response":null,"trial_type":"image-keyboard-response","trial_index":70,"plugin_version":"2.1.0","time_elapsed":218935,"subject_id":"87902","group":"Group1","date":"2025-10-29T21:35:27.114Z"},{"rt":null,"stimulus":"<p style=\"font-size: 50px; margin: 0; text-align: center;\">+</p>","response":null,"trial_type":"html-keyboard-response","trial_index":71,"plugin_version":"2.1.0","time_elapsed":219938,"subject_id":"87902","group":"Group1","date":"2025-10-29T21:35:27.114Z"},{"task":"memory_phase","broad_category":"I","image_png":"I_Pumice_09.png","image_id":137,"category_name":"Pumice","category":9,"distinct_rating":5.5,"rt":null,"stimulus":"Stimuli_Rocks480/I_Pumice_09.png","response":null,"trial_type":"image-keyboard-response","trial_index":72,"plugin_version":"2.1.0","time_elapsed":222441,"subject_id":"87902","group":"Group1","date":"2025-10-29T21:35:27.114Z"},{"rt":null,"stimulus":"<p style=\"font-size: 50px; margin: 0; text-align: center;\">+</p>","response":null,"trial_type":"html-keyboard-response","trial_index":73,"plugin_version":"2.1.0","time_elapsed":223444,"subject_id":"87902","group":"Group1","date":"2025-10-29T21:35:27.114Z"},{"task":"memory_phase","broad_category":"S","image_png":"S_Micrite_15.png","image_id":415,"category_name":"Micrite","category":26,"distinct_rating":2.28,"rt":null,"stimulus":"Stimuli_Rocks480/S_Micrite_15.png","response":null,"trial_type":"image-keyboard-response","trial_index":74,"plugin_version":"2.1.0","time_elapsed":225948,"subject_id":"87902","group":"Group1","date":"2025-10-29T21:35:27.114Z"},{"rt":null,"stimulus":"<p style=\"font-size: 50px; margin: 0; text-align: center;\">+</p>","response":null,"trial_type":"html-keyboard-response","trial_index":75,"plugin_version":"2.1.0","time_elapsed":226951,"subject_id":"87902","group":"Group1","date":"2025-10-29T21:35:27.114Z"},{"task":"memory_phase","broad_category":"M","image_png":"M_Marble_02.png","image_id":226,"category_name":"Marble","category":15,"distinct_rating":3.2,"rt":null,"stimulus":"Stimuli_Rocks480/M_Marble_02.png","response":null,"trial_type":"image-keyboard-response","trial_index":76,"plugin_version":"2.1.0","time_elapsed":229455,"subject_id":"87902","group":"Group1","date":"2025-10-29T21:35:27.114Z"},{"rt":null,"stimulus":"<p style=\"font-size: 50px; margin: 0; text-align: center;\">+</p>","response":null,"trial_type":"html-keyboard-response","trial_index":77,"plugin_version":"2.1.0","time_elapsed":230457,"subject_id":"87902","group":"Group1","date":"2025-10-29T21:35:27.114Z"},{"task":"memory_phase","broad_category":"I","image_png":"I_Gabbro_04.png","image_id":52,"category_name":"Gabbro","category":4,"distinct_rating":4.1,"rt":null,"stimulus":"Stimuli_Rocks480/I_Gabbro_04.png","response":null,"trial_type":"image-keyboard-response","trial_index":78,"plugin_version":"2.1.0","time_elapsed":232961,"subject_id":"87902","group":"Group1","date":"2025-10-29T21:35:27.114Z"},{"rt":null,"stimulus":"<p style=\"font-size: 50px; margin: 0; text-align: center;\">+</p>","response":null,"trial_type":"html-keyboard-response","trial_index":79,"plugin_version":"2.1.0","time_elapsed":233964,"subject_id":"87902","group":"Group1","date":"2025-10-29T21:35:27.114Z"},{"task":"memory_phase","broad_category":"M","image_png":"M_Anthracite_15.png","image_id":191,"category_name":"Anthracite","category":12,"distinct_rating":4.62,"rt":null,"stimulus":"Stimuli_Rocks480/M_Anthracite_15.png","response":null,"trial_type":"image-keyboard-response","trial_index":80,"plugin_version":"2.1.0","time_elapsed":236468,"subject_id":"87902","group":"Group1","date":"2025-10-29T21:35:27.114Z"},{"rt":null,"stimulus":"<p style=\"font-size: 50px; margin: 0; text-align: center;\">+</p>","response":null,"trial_type":"html-keyboard-response","trial_index":81,"plugin_version":"2.1.0","time_elapsed":237470,"subject_id":"87902","group":"Group1","date":"2025-10-29T21:35:27.114Z"},{"task":"memory_phase","broad_category":"M","image_png":"M_Hornfels_05.png","image_id":213,"category_name":"Hornfels","category":14,"distinct_rating":3.12,"rt":null,"stimulus":"Stimuli_Rocks480/M_Hornfels_05.png","response":null,"trial_type":"image-keyboard-response","trial_index":82,"plugin_version":"2.1.0","time_elapsed":239974,"subject_id":"87902","group":"Group1","date":"2025-10-29T21:35:27.114Z"},{"rt":null,"stimulus":"<p style=\"font-size: 50px; margin: 0; text-align: center;\">+</p>","response":null,"trial_type":"html-keyboard-response","trial_index":83,"plugin_version":"2.1.0","time_elapsed":240977,"subject_id":"87902","group":"Group1","date":"2025-10-29T21:35:27.114Z"},{"task":"memory_phase","broad_category":"S","image_png":"S_Conglomerate_03.png","image_id":371,"category_name":"Conglomerate","category":24,"distinct_rating":4.73,"rt":null,"stimulus":"Stimuli_Rocks480/S_Conglomerate_03.png","response":null,"trial_type":"image-keyboard-response","trial_index":84,"plugin_version":"2.1.0","time_elapsed":243481,"subject_id":"87902","group":"Group1","date":"2025-10-29T21:35:27.114Z"},{"rt":null,"stimulus":"<p style=\"font-size: 50px; margin: 0; text-align: center;\">+</p>","response":null,"trial_type":"html-keyboard-response","trial_index":85,"plugin_version":"2.1.0","time_elapsed":244484,"subject_id":"87902","group":"Group1","date":"2025-10-29T21:35:27.114Z"},{"task":"memory_phase","broad_category":"I","image_png":"I_Rhyolite_12.png","image_id":156,"category_name":"Rhyolite","category":10,"distinct_rating":3.68,"rt":null,"stimulus":"Stimuli_Rocks480/I_Rhyolite_12.png","response":null,"trial_type":"image-keyboard-response","trial_index":86,"plugin_version":"2.1.0","time_elapsed":246987,"subject_id":"87902","group":"Group1","date":"2025-10-29T21:35:27.114Z"},{"rt":null,"stimulus":"<p style=\"font-size: 50px; margin: 0; text-align: center;\">+</p>","response":null,"trial_type":"html-keyboard-response","trial_index":87,"plugin_version":"2.1.0","time_elapsed":247990,"subject_id":"87902","group":"Group1","date":"2025-10-29T21:35:27.114Z"},{"task":"memory_phase","broad_category":"S","image_png":"S_Breccia_08.png","image_id":344,"category_name":"Breccia","category":22,"distinct_rating":7.14,"rt":null,"stimulus":"Stimuli_Rocks480/S_Breccia_08.png","response":null,"trial_type":"image-keyboard-response","trial_index":88,"plugin_version":"2.1.0","time_elapsed":250493,"subject_id":"87902","group":"Group1","date":"2025-10-29T21:35:27.114Z"},{"rt":null,"stimulus":"<p style=\"font-size: 50px; margin: 0; text-align: center;\">+</p>","response":null,"trial_type":"html-keyboard-response","trial_index":89,"plugin_version":"2.1.0","time_elapsed":251495,"subject_id":"87902","group":"Group1","date":"2025-10-29T21:35:27.114Z"},{"task":"memory_phase","broad_category":"S","image_png":"S_Chert_10.png","image_id":362,"category_name":"Chert","category":23,"distinct_rating":7.17,"rt":null,"stimulus":"Stimuli_Rocks480/S_Chert_10.png","response":null,"trial_type":"image-keyboard-response","trial_index":90,"plugin_version":"2.1.0","time_elapsed":253996,"subject_id":"87902","group":"Group1","date":"2025-10-29T21:35:27.114Z"},{"rt":null,"stimulus":"<p style=\"font-size: 50px; margin: 0; text-align: center;\">+</p>","response":null,"trial_type":"html-keyboard-response","trial_index":91,"plugin_version":"2.1.0","time_elapsed":254996,"subject_id":"87902","group":"Group1","date":"2025-10-29T21:35:27.114Z"},{"task":"memory_phase","broad_category":"M","image_png":"M_Gneiss_02.png","image_id":194,"category_name":"Gneiss","category":13,"distinct_rating":3.75,"rt":null,"stimulus":"Stimuli_Rocks480/M_Gneiss_02.png","response":null,"trial_type":"image-keyboard-response","trial_index":92,"plugin_version":"2.1.0","time_elapsed":257493,"subject_id":"87902","group":"Group1","date":"2025-10-29T21:35:27.114Z"},{"rt":null,"stimulus":"<p style=\"font-size: 50px; margin: 0; text-align: center;\">+</p>","response":null,"trial_type":"html-keyboard-response","trial_index":93,"plugin_version":"2.1.0","time_elapsed":258493,"subject_id":"87902","group":"Group1","date":"2025-10-29T21:35:27.114Z"},{"task":"memory_phase","broad_category":"I","image_png":"I_Basalt_04.png","image_id":20,"category_name":"Basalt","category":2,"distinct_rating":2.47,"rt":null,"stimulus":"Stimuli_Rocks480/I_Basalt_04.png","response":null,"trial_type":"image-keyboard-response","trial_index":94,"plugin_version":"2.1.0","time_elapsed":260996,"subject_id":"87902","group":"Group1","date":"2025-10-29T21:35:27.114Z"},{"rt":null,"stimulus":"<p style=\"font-size: 50px; margin: 0; text-align: center;\">+</p>","response":null,"trial_type":"html-keyboard-response","trial_index":95,"plugin_version":"2.1.0","time_elapsed":261996,"subject_id":"87902","group":"Group1","date":"2025-10-29T21:35:27.114Z"},{"task":"memory_phase","broad_category":"M","image_png":"M_Migmatite_04.png","image_id":244,"category_name":"Migmatite","category":16,"distinct_rating":5.07,"rt":null,"stimulus":"Stimuli_Rocks480/M_Migmatite_04.png","response":null,"trial_type":"image-keyboard-response","trial_index":96,"plugin_version":"2.1.0","time_elapsed":264496,"subject_id":"87902","group":"Group1","date":"2025-10-29T21:35:27.114Z"},{"rt":null,"stimulus":"<p style=\"font-size: 50px; margin: 0; text-align: center;\">+</p>","response":null,"trial_type":"html-keyboard-response","trial_index":97,"plugin_version":"2.1.0","time_elapsed":265497,"subject_id":"87902","group":"Group1","date":"2025-10-29T21:35:27.114Z"},{"task":"memory_phase","broad_category":"S","image_png":"S_Bituminous Coal_13.png","image_id":333,"category_name":"Bituminous Coal","category":21,"distinct_rating":5.06,"rt":null,"stimulus":"Stimuli_Rocks480/S_Bituminous Coal_13.png","response":null,"trial_type":"image-keyboard-response","trial_index":98,"plugin_version":"2.1.0","time_elapsed":267997,"subject_id":"87902","group":"Group1","date":"2025-10-29T21:35:27.114Z"},{"rt":null,"stimulus":"<p style=\"font-size: 50px; margin: 0; text-align: center;\">+</p>","response":null,"trial_type":"html-keyboard-response","trial_index":99,"plugin_version":"2.1.0","time_elapsed":268999,"subject_id":"87902","group":"Group1","date":"2025-10-29T21:35:27.114Z"},{"task":"memory_phase","broad_category":"S","image_png":"S_Conglomerate_10.png","image_id":378,"category_name":"Conglomerate","category":24,"distinct_rating":5.63,"rt":null,"stimulus":"Stimuli_Rocks480/S_Conglomerate_10.png","response":null,"trial_type":"image-keyboard-response","trial_index":100,"plugin_version":"2.1.0","time_elapsed":271499,"subject_id":"87902","group":"Group1","date":"2025-10-29T21:35:27.114Z"},{"rt":2139,"stimulus":"<p style=\"font-size: 35px;\">Press SPACE to continue study phase</p>","response":" ","trial_type":"html-keyboard-response","trial_index":101,"plugin_version":"2.1.0","time_elapsed":273639,"subject_id":"87902","group":"Group1","date":"2025-10-29T21:35:27.114Z"},{"rt":null,"stimulus":"<p style=\"font-size: 50px; margin: 0; text-align: center;\">+</p>","response":null,"trial_type":"html-keyboard-response","trial_index":102,"plugin_version":"2.1.0","time_elapsed":274641,"subject_id":"87902","group":"Group1","date":"2025-10-29T21:35:27.114Z"},{"task":"memory_phase","broad_category":"M","image_png":"M_Slate_10.png","image_id":314,"category_name":"Slate","category":20,"distinct_rating":1.94,"rt":null,"stimulus":"Stimuli_Rocks480/M_Slate_10.png","response":null,"trial_type":"image-keyboard-response","trial_index":103,"plugin_version":"2.1.0","time_elapsed":277143,"subject_id":"87902","group":"Group1","date":"2025-10-29T21:35:27.114Z"},{"rt":null,"stimulus":"<p style=\"font-size: 50px; margin: 0; text-align: center;\">+</p>","response":null,"trial_type":"html-keyboard-response","trial_index":104,"plugin_version":"2.1.0","time_elapsed":278144,"subject_id":"87902","group":"Group1","date":"2025-10-29T21:35:27.114Z"},{"task":"memory_phase","broad_category":"S","image_png":"S_Rock Gypsum_09.png","image_id":425,"category_name":"Rock Gypsum","category":27,"distinct_rating":6.03,"rt":null,"stimulus":"Stimuli_Rocks480/S_Rock Gypsum_09.png","response":null,"trial_type":"image-keyboard-response","trial_index":105,"plugin_version":"2.1.0","time_elapsed":280647,"subject_id":"87902","group":"Group1","date":"2025-10-29T21:35:27.114Z"},{"rt":null,"stimulus":"<p style=\"font-size: 50px; margin: 0; text-align: center;\">+</p>","response":null,"trial_type":"html-keyboard-response","trial_index":106,"plugin_version":"2.1.0","time_elapsed":281650,"subject_id":"87902","group":"Group1","date":"2025-10-29T21:35:27.114Z"},{"task":"memory_phase","broad_category":"I","image_png":"I_Obsidian_02.png","image_id":82,"category_name":"Obsidian","category":6,"distinct_rating":6.06,"rt":null,"stimulus":"Stimuli_Rocks480/I_Obsidian_02.png","response":null,"trial_type":"image-keyboard-response","trial_index":107,"plugin_version":"2.1.0","time_elapsed":284154,"subject_id":"87902","group":"Group1","date":"2025-10-29T21:35:27.114Z"},{"rt":null,"stimulus":"<p style=\"font-size: 50px; margin: 0; text-align: center;\">+</p>","response":null,"trial_type":"html-keyboard-response","trial_index":108,"plugin_version":"2.1.0","time_elapsed":285156,"subject_id":"87902","group":"Group1","date":"2025-10-29T21:35:27.114Z"},{"task":"memory_phase","broad_category":"M","image_png":"M_Gneiss_03.png","image_id":195,"category_name":"Gneiss","category":13,"distinct_rating":3.63,"rt":null,"stimulus":"Stimuli_Rocks480/M_Gneiss_03.png","response":null,"trial_type":"image-keyboard-response","trial_index":109,"plugin_version":"2.1.0","time_elapsed":287660,"subject_id":"87902","group":"Group1","date":"2025-10-29T21:35:27.114Z"},{"rt":null,"stimulus":"<p style=\"font-size: 50px; margin: 0; text-align: center;\">+</p>","response":null,"trial_type":"html-keyboard-response","trial_index":110,"plugin_version":"2.1.0","time_elapsed":288662,"subject_id":"87902","group":"Group1","date":"2025-10-29T21:35:27.114Z"},{"task":"memory_phase","broad_category":"S","image_png":"S_Breccia_15.png","image_id":351,"category_name":"Breccia","category":22,"distinct_rating":5.43,"rt":null,"stimulus":"Stimuli_Rocks480/S_Breccia_15.png","response":null,"trial_type":"image-keyboard-response","trial_index":111,"plugin_version":"2.1.0","time_elapsed":291164,"subject_id":"87902","group":"Group1","date":"2025-10-29T21:35:27.114Z"},{"rt":null,"stimulus":"<p style=\"font-size: 50px; margin: 0; text-align: center;\">+</p>","response":null,"trial_type":"html-keyboard-response","trial_index":112,"plugin_version":"2.1.0","time_elapsed":292166,"subject_id":"87902","group":"Group1","date":"2025-10-29T21:35:27.114Z"},{"task":"memory_phase","broad_category":"S","image_png":"S_Micrite_01.png","image_id":401,"category_name":"Micrite","category":26,"distinct_rating":2.94,"rt":null,"stimulus":"Stimuli_Rocks480/S_Micrite_01.png","response":null,"trial_type":"image-keyboard-response","trial_index":113,"plugin_version":"2.1.0","time_elapsed":294669,"subject_id":"87902","group":"Group1","date":"2025-10-29T21:35:27.114Z"},{"rt":null,"stimulus":"<p style=\"font-size: 50px; margin: 0; text-align: center;\">+</p>","response":null,"trial_type":"html-keyboard-response","trial_index":114,"plugin_version":"2.1.0","time_elapsed":295671,"subject_id":"87902","group":"Group1","date":"2025-10-29T21:35:27.114Z"},{"task":"memory_phase","broad_category":"S","image_png":"S_Dolomite_07.png","image_id":391,"category_name":"Dolomite","category":25,"distinct_rating":1.73,"rt":null,"stimulus":"Stimuli_Rocks480/S_Dolomite_07.png","response":null,"trial_type":"image-keyboard-response","trial_index":115,"plugin_version":"2.1.0","time_elapsed":298174,"subject_id":"87902","group":"Group1","date":"2025-10-29T21:35:27.114Z"},{"rt":null,"stimulus":"<p style=\"font-size: 50px; margin: 0; text-align: center;\">+</p>","response":null,"trial_type":"html-keyboard-response","trial_index":116,"plugin_version":"2.1.0","time_elapsed":299176,"subject_id":"87902","group":"Group1","date":"2025-10-29T21:35:27.114Z"},{"task":"memory_phase","broad_category":"S","image_png":"S_Rock Salt_09.png","image_id":441,"category_name":"Rock Salt","category":28,"distinct_rating":7.08,"rt":null,"stimulus":"Stimuli_Rocks480/S_Rock Salt_09.png","response":null,"trial_type":"image-keyboard-response","trial_index":117,"plugin_version":"2.1.0","time_elapsed":301678,"subject_id":"87902","group":"Group1","date":"2025-10-29T21:35:27.114Z"},{"rt":null,"stimulus":"<p style=\"font-size: 50px; margin: 0; text-align: center;\">+</p>","response":null,"trial_type":"html-keyboard-response","trial_index":118,"plugin_version":"2.1.0","time_elapsed":302681,"subject_id":"87902","group":"Group1","date":"2025-10-29T21:35:27.114Z"},{"task":"memory_phase","broad_category":"M","image_png":"M_Schist_05.png","image_id":293,"category_name":"Schist","category":19,"distinct_rating":3.66,"rt":null,"stimulus":"Stimuli_Rocks480/M_Schist_05.png","response":null,"trial_type":"image-keyboard-response","trial_index":119,"plugin_version":"2.1.0","time_elapsed":305184,"subject_id":"87902","group":"Group1","date":"2025-10-29T21:35:27.114Z"},{"rt":null,"stimulus":"<p style=\"font-size: 50px; margin: 0; text-align: center;\">+</p>","response":null,"trial_type":"html-keyboard-response","trial_index":120,"plugin_version":"2.1.0","time_elapsed":306187,"subject_id":"87902","group":"Group1","date":"2025-10-29T21:35:27.114Z"},{"task":"memory_phase","broad_category":"I","image_png":"I_Rhyolite_13.png","image_id":157,"category_name":"Rhyolite","category":10,"distinct_rating":4.83,"rt":null,"stimulus":"Stimuli_Rocks480/I_Rhyolite_13.png","response":null,"trial_type":"image-keyboard-response","trial_index":121,"plugin_version":"2.1.0","time_elapsed":308691,"subject_id":"87902","group":"Group1","date":"2025-10-29T21:35:27.114Z"},{"rt":null,"stimulus":"<p style=\"font-size: 50px; margin: 0; text-align: center;\">+</p>","response":null,"trial_type":"html-keyboard-response","trial_index":122,"plugin_version":"2.1.0","time_elapsed":309693,"subject_id":"87902","group":"Group1","date":"2025-10-29T21:35:27.114Z"},{"task":"memory_phase","broad_category":"S","image_png":"S_Shale_11.png","image_id":475,"category_name":"Shale","category":30,"distinct_rating":4.05,"rt":null,"stimulus":"Stimuli_Rocks480/S_Shale_11.png","response":null,"trial_type":"image-keyboard-response","trial_index":123,"plugin_version":"2.1.0","time_elapsed":312197,"subject_id":"87902","group":"Group1","date":"2025-10-29T21:35:27.114Z"},{"rt":null,"stimulus":"<p style=\"font-size: 50px; margin: 0; text-align: center;\">+</p>","response":null,"trial_type":"html-keyboard-response","trial_index":124,"plugin_version":"2.1.0","time_elapsed":313200,"subject_id":"87902","group":"Group1","date":"2025-10-29T21:35:27.114Z"},{"task":"memory_phase","broad_category":"I","image_png":"I_Granite_06.png","image_id":70,"category_name":"Granite","category":5,"distinct_rating":3.73,"rt":null,"stimulus":"Stimuli_Rocks480/I_Granite_06.png","response":null,"trial_type":"image-keyboard-response","trial_index":125,"plugin_version":"2.1.0","time_elapsed":315704,"subject_id":"87902","group":"Group1","date":"2025-10-29T21:35:27.114Z"},{"rt":null,"stimulus":"<p style=\"font-size: 50px; margin: 0; text-align: center;\">+</p>","response":null,"trial_type":"html-keyboard-response","trial_index":126,"plugin_version":"2.1.0","time_elapsed":316706,"subject_id":"87902","group":"Group1","date":"2025-10-29T21:35:27.114Z"},{"task":"memory_phase","broad_category":"M","image_png":"M_Amphibolite_14.png","image_id":174,"category_name":"Amphibolite","category":11,"distinct_rating":3.65,"rt":null,"stimulus":"Stimuli_Rocks480/M_Amphibolite_14.png","response":null,"trial_type":"image-keyboard-response","trial_index":127,"plugin_version":"2.1.0","time_elapsed":319216,"subject_id":"87902","group":"Group1","date":"2025-10-29T21:35:27.114Z"},{"rt":null,"stimulus":"<p style=\"font-size: 50px; margin: 0; text-align: center;\">+</p>","response":null,"trial_type":"html-keyboard-response","trial_index":128,"plugin_version":"2.1.0","time_elapsed":320220,"subject_id":"87902","group":"Group1","date":"2025-10-29T21:35:27.114Z"},{"task":"memory_phase","broad_category":"M","image_png":"M_Quartzite_06.png","image_id":278,"category_name":"Quartzite","category":18,"distinct_rating":3.63,"rt":null,"stimulus":"Stimuli_Rocks480/M_Quartzite_06.png","response":null,"trial_type":"image-keyboard-response","trial_index":129,"plugin_version":"2.1.0","time_elapsed":322725,"subject_id":"87902","group":"Group1","date":"2025-10-29T21:35:27.114Z"},{"rt":null,"stimulus":"<p style=\"font-size: 50px; margin: 0; text-align: center;\">+</p>","response":null,"trial_type":"html-keyboard-response","trial_index":130,"plugin_version":"2.1.0","time_elapsed":323727,"subject_id":"87902","group":"Group1","date":"2025-10-29T21:35:27.114Z"},{"task":"memory_phase","broad_category":"I","image_png":"I_Rhyolite_05.png","image_id":149,"category_name":"Rhyolite","category":10,"distinct_rating":3.02,"rt":null,"stimulus":"Stimuli_Rocks480/I_Rhyolite_05.png","response":null,"trial_type":"image-keyboard-response","trial_index":131,"plugin_version":"2.1.0","time_elapsed":326231,"subject_id":"87902","group":"Group1","date":"2025-10-29T21:35:27.114Z"},{"rt":null,"stimulus":"<p style=\"font-size: 50px; margin: 0; text-align: center;\">+</p>","response":null,"trial_type":"html-keyboard-response","trial_index":132,"plugin_version":"2.1.0","time_elapsed":327233,"subject_id":"87902","group":"Group1","date":"2025-10-29T21:35:27.114Z"},{"task":"memory_phase","broad_category":"S","image_png":"S_Dolomite_11.png","image_id":395,"category_name":"Dolomite","category":25,"distinct_rating":5.56,"rt":null,"stimulus":"Stimuli_Rocks480/S_Dolomite_11.png","response":null,"trial_type":"image-keyboard-response","trial_index":133,"plugin_version":"2.1.0","time_elapsed":329737,"subject_id":"87902","group":"Group1","date":"2025-10-29T21:35:27.114Z"},{"rt":null,"stimulus":"<p style=\"font-size: 50px; margin: 0; text-align: center;\">+</p>","response":null,"trial_type":"html-keyboard-response","trial_index":134,"plugin_version":"2.1.0","time_elapsed":330739,"subject_id":"87902","group":"Group1","date":"2025-10-29T21:35:27.114Z"},{"task":"memory_phase","broad_category":"S","image_png":"S_Dolomite_09.png","image_id":393,"category_name":"Dolomite","category":25,"distinct_rating":2.11,"rt":null,"stimulus":"Stimuli_Rocks480/S_Dolomite_09.png","response":null,"trial_type":"image-keyboard-response","trial_index":135,"plugin_version":"2.1.0","time_elapsed":333243,"subject_id":"87902","group":"Group1","date":"2025-10-29T21:35:27.114Z"},{"rt":null,"stimulus":"<p style=\"font-size: 50px; margin: 0; text-align: center;\">+</p>","response":null,"trial_type":"html-keyboard-response","trial_index":136,"plugin_version":"2.1.0","time_elapsed":334245,"subject_id":"87902","group":"Group1","date":"2025-10-29T21:35:27.114Z"},{"task":"memory_phase","broad_category":"S","image_png":"S_Shale_12.png","image_id":476,"category_name":"Shale","category":30,"distinct_rating":2.48,"rt":null,"stimulus":"Stimuli_Rocks480/S_Shale_12.png","response":null,"trial_type":"image-keyboard-response","trial_index":137,"plugin_version":"2.1.0","time_elapsed":336749,"subject_id":"87902","group":"Group1","date":"2025-10-29T21:35:27.114Z"},{"rt":null,"stimulus":"<p style=\"font-size: 50px; margin: 0; text-align: center;\">+</p>","response":null,"trial_type":"html-keyboard-response","trial_index":138,"plugin_version":"2.1.0","time_elapsed":337751,"subject_id":"87902","group":"Group1","date":"2025-10-29T21:35:27.114Z"},{"task":"memory_phase","broad_category":"M","image_png":"M_Migmatite_03.png","image_id":243,"category_name":"Migmatite","category":16,"distinct_rating":3.7,"rt":null,"stimulus":"Stimuli_Rocks480/M_Migmatite_03.png","response":null,"trial_type":"image-keyboard-response","trial_index":139,"plugin_version":"2.1.0","time_elapsed":340255,"subject_id":"87902","group":"Group1","date":"2025-10-29T21:35:27.114Z"},{"rt":null,"stimulus":"<p style=\"font-size: 50px; margin: 0; text-align: center;\">+</p>","response":null,"trial_type":"html-keyboard-response","trial_index":140,"plugin_version":"2.1.0","time_elapsed":341258,"subject_id":"87902","group":"Group1","date":"2025-10-29T21:35:27.114Z"},{"task":"memory_phase","broad_category":"I","image_png":"I_Pumice_03.png","image_id":131,"category_name":"Pumice","category":9,"distinct_rating":3.41,"rt":null,"stimulus":"Stimuli_Rocks480/I_Pumice_03.png","response":null,"trial_type":"image-keyboard-response","trial_index":141,"plugin_version":"2.1.0","time_elapsed":343761,"subject_id":"87902","group":"Group1","date":"2025-10-29T21:35:27.114Z"},{"rt":null,"stimulus":"<p style=\"font-size: 50px; margin: 0; text-align: center;\">+</p>","response":null,"trial_type":"html-keyboard-response","trial_index":142,"plugin_version":"2.1.0","time_elapsed":344763,"subject_id":"87902","group":"Group1","date":"2025-10-29T21:35:27.114Z"},{"task":"memory_phase","broad_category":"I","image_png":"I_Diorite_08.png","image_id":40,"category_name":"Diorite","category":3,"distinct_rating":4.94,"rt":null,"stimulus":"Stimuli_Rocks480/I_Diorite_08.png","response":null,"trial_type":"image-keyboard-response","trial_index":143,"plugin_version":"2.1.0","time_elapsed":347265,"subject_id":"87902","group":"Group1","date":"2025-10-29T21:35:27.114Z"},{"rt":null,"stimulus":"<p style=\"font-size: 50px; margin: 0; text-align: center;\">+</p>","response":null,"trial_type":"html-keyboard-response","trial_index":144,"plugin_version":"2.1.0","time_elapsed":348267,"subject_id":"87902","group":"Group1","date":"2025-10-29T21:35:27.114Z"},{"task":"memory_phase","broad_category":"M","image_png":"M_Amphibolite_08.png","image_id":168,"category_name":"Amphibolite","category":11,"distinct_rating":4.89,"rt":null,"stimulus":"Stimuli_Rocks480/M_Amphibolite_08.png","response":null,"trial_type":"image-keyboard-response","trial_index":145,"plugin_version":"2.1.0","time_elapsed":350770,"subject_id":"87902","group":"Group1","date":"2025-10-29T21:35:27.114Z"},{"rt":null,"stimulus":"<p style=\"font-size: 50px; margin: 0; text-align: center;\">+</p>","response":null,"trial_type":"html-keyboard-response","trial_index":146,"plugin_version":"2.1.0","time_elapsed":351773,"subject_id":"87902","group":"Group1","date":"2025-10-29T21:35:27.114Z"},{"task":"memory_phase","broad_category":"S","image_png":"S_Shale_10.png","image_id":474,"category_name":"Shale","category":30,"distinct_rating":1.91,"rt":null,"stimulus":"Stimuli_Rocks480/S_Shale_10.png","response":null,"trial_type":"image-keyboard-response","trial_index":147,"plugin_version":"2.1.0","time_elapsed":354277,"subject_id":"87902","group":"Group1","date":"2025-10-29T21:35:27.114Z"},{"rt":null,"stimulus":"<p style=\"font-size: 50px; margin: 0; text-align: center;\">+</p>","response":null,"trial_type":"html-keyboard-response","trial_index":148,"plugin_version":"2.1.0","time_elapsed":355280,"subject_id":"87902","group":"Group1","date":"2025-10-29T21:35:27.114Z"},{"task":"memory_phase","broad_category":"S","image_png":"S_Rock Salt_11.png","image_id":443,"category_name":"Rock Salt","category":28,"distinct_rating":4.9,"rt":null,"stimulus":"Stimuli_Rocks480/S_Rock Salt_11.png","response":null,"trial_type":"image-keyboard-response","trial_index":149,"plugin_version":"2.1.0","time_elapsed":357784,"subject_id":"87902","group":"Group1","date":"2025-10-29T21:35:27.114Z"},{"rt":null,"stimulus":"<p style=\"font-size: 50px; margin: 0; text-align: center;\">+</p>","response":null,"trial_type":"html-keyboard-response","trial_index":150,"plugin_version":"2.1.0","time_elapsed":358787,"subject_id":"87902","group":"Group1","date":"2025-10-29T21:35:27.114Z"},{"task":"memory_phase","broad_category":"I","image_png":"I_Pumice_13.png","image_id":141,"category_name":"Pumice","category":9,"distinct_rating":3.12,"rt":null,"stimulus":"Stimuli_Rocks480/I_Pumice_13.png","response":null,"trial_type":"image-keyboard-response","trial_index":151,"plugin_version":"2.1.0","time_elapsed":361290,"subject_id":"87902","group":"Group1","date":"2025-10-29T21:35:27.114Z"},{"rt":null,"stimulus":"<p style=\"font-size: 50px; margin: 0; text-align: center;\">+</p>","response":null,"trial_type":"html-keyboard-response","trial_index":152,"plugin_version":"2.1.0","time_elapsed":362293,"subject_id":"87902","group":"Group1","date":"2025-10-29T21:35:27.114Z"},{"task":"memory_phase","broad_category":"I","image_png":"I_Gabbro_12.png","image_id":60,"category_name":"Gabbro","category":4,"distinct_rating":2.6,"rt":null,"stimulus":"Stimuli_Rocks480/I_Gabbro_12.png","response":null,"trial_type":"image-keyboard-response","trial_index":153,"plugin_version":"2.1.0","time_elapsed":364797,"subject_id":"87902","group":"Group1","date":"2025-10-29T21:35:27.114Z"},{"rt":null,"stimulus":"<p style=\"font-size: 50px; margin: 0; text-align: center;\">+</p>","response":null,"trial_type":"html-keyboard-response","trial_index":154,"plugin_version":"2.1.0","time_elapsed":365799,"subject_id":"87902","group":"Group1","date":"2025-10-29T21:35:27.114Z"},{"task":"memory_phase","broad_category":"M","image_png":"M_Slate_07.png","image_id":311,"category_name":"Slate","category":20,"distinct_rating":3.48,"rt":null,"stimulus":"Stimuli_Rocks480/M_Slate_07.png","response":null,"trial_type":"image-keyboard-response","trial_index":155,"plugin_version":"2.1.0","time_elapsed":368303,"subject_id":"87902","group":"Group1","date":"2025-10-29T21:35:27.114Z"},{"rt":null,"stimulus":"<p style=\"font-size: 50px; margin: 0; text-align: center;\">+</p>","response":null,"trial_type":"html-keyboard-response","trial_index":156,"plugin_version":"2.1.0","time_elapsed":369305,"subject_id":"87902","group":"Group1","date":"2025-10-29T21:35:27.114Z"},{"task":"memory_phase","broad_category":"I","image_png":"I_Granite_11.png","image_id":75,"category_name":"Granite","category":5,"distinct_rating":4.03,"rt":null,"stimulus":"Stimuli_Rocks480/I_Granite_11.png","response":null,"trial_type":"image-keyboard-response","trial_index":157,"plugin_version":"2.1.0","time_elapsed":371809,"subject_id":"87902","group":"Group1","date":"2025-10-29T21:35:27.114Z"},{"rt":null,"stimulus":"<p style=\"font-size: 50px; margin: 0; text-align: center;\">+</p>","response":null,"trial_type":"html-keyboard-response","trial_index":158,"plugin_version":"2.1.0","time_elapsed":372811,"subject_id":"87902","group":"Group1","date":"2025-10-29T21:35:27.114Z"},{"task":"memory_phase","broad_category":"M","image_png":"M_Anthracite_12.png","image_id":188,"category_name":"Anthracite","category":12,"distinct_rating":5.69,"rt":null,"stimulus":"Stimuli_Rocks480/M_Anthracite_12.png","response":null,"trial_type":"image-keyboard-response","trial_index":159,"plugin_version":"2.1.0","time_elapsed":375314,"subject_id":"87902","group":"Group1","date":"2025-10-29T21:35:27.114Z"},{"rt":null,"stimulus":"<p style=\"font-size: 50px; margin: 0; text-align: center;\">+</p>","response":null,"trial_type":"html-keyboard-response","trial_index":160,"plugin_version":"2.1.0","time_elapsed":376317,"subject_id":"87902","group":"Group1","date":"2025-10-29T21:35:27.114Z"},{"task":"memory_phase","broad_category":"I","image_png":"I_Peridotite_11.png","image_id":123,"category_name":"Peridotite","category":8,"distinct_rating":3.59,"rt":null,"stimulus":"Stimuli_Rocks480/I_Peridotite_11.png","response":null,"trial_type":"image-keyboard-response","trial_index":161,"plugin_version":"2.1.0","time_elapsed":378820,"subject_id":"87902","group":"Group1","date":"2025-10-29T21:35:27.114Z"},{"rt":null,"stimulus":"<p style=\"font-size: 50px; margin: 0; text-align: center;\">+</p>","response":null,"trial_type":"html-keyboard-response","trial_index":162,"plugin_version":"2.1.0","time_elapsed":379823,"subject_id":"87902","group":"Group1","date":"2025-10-29T21:35:27.114Z"},{"task":"memory_phase","broad_category":"I","image_png":"I_Peridotite_10.png","image_id":122,"category_name":"Peridotite","category":8,"distinct_rating":4.64,"rt":null,"stimulus":"Stimuli_Rocks480/I_Peridotite_10.png","response":null,"trial_type":"image-keyboard-response","trial_index":163,"plugin_version":"2.1.0","time_elapsed":382327,"subject_id":"87902","group":"Group1","date":"2025-10-29T21:35:27.114Z"},{"rt":null,"stimulus":"<p style=\"font-size: 50px; margin: 0; text-align: center;\">+</p>","response":null,"trial_type":"html-keyboard-response","trial_index":164,"plugin_version":"2.1.0","time_elapsed":383330,"subject_id":"87902","group":"Group1","date":"2025-10-29T21:35:27.114Z"},{"task":"memory_phase","broad_category":"M","image_png":"M_Phyllite_10.png","image_id":266,"category_name":"Phyllite","category":17,"distinct_rating":2.6,"rt":null,"stimulus":"Stimuli_Rocks480/M_Phyllite_10.png","response":null,"trial_type":"image-keyboard-response","trial_index":165,"plugin_version":"2.1.0","time_elapsed":385834,"subject_id":"87902","group":"Group1","date":"2025-10-29T21:35:27.114Z"},{"rt":null,"stimulus":"<p style=\"font-size: 50px; margin: 0; text-align: center;\">+</p>","response":null,"trial_type":"html-keyboard-response","trial_index":166,"plugin_version":"2.1.0","time_elapsed":386837,"subject_id":"87902","group":"Group1","date":"2025-10-29T21:35:27.114Z"},{"task":"memory_phase","broad_category":"I","image_png":"I_Granite_09.png","image_id":73,"category_name":"Granite","category":5,"distinct_rating":5.38,"rt":null,"stimulus":"Stimuli_Rocks480/I_Granite_09.png","response":null,"trial_type":"image-keyboard-response","trial_index":167,"plugin_version":"2.1.0","time_elapsed":389340,"subject_id":"87902","group":"Group1","date":"2025-10-29T21:35:27.114Z"},{"rt":null,"stimulus":"<p style=\"font-size: 50px; margin: 0; text-align: center;\">+</p>","response":null,"trial_type":"html-keyboard-response","trial_index":168,"plugin_version":"2.1.0","time_elapsed":390342,"subject_id":"87902","group":"Group1","date":"2025-10-29T21:35:27.114Z"},{"task":"memory_phase","broad_category":"S","image_png":"S_Sandstone_09.png","image_id":457,"category_name":"Sandstone","category":29,"distinct_rating":3.66,"rt":null,"stimulus":"Stimuli_Rocks480/S_Sandstone_09.png","response":null,"trial_type":"image-keyboard-response","trial_index":169,"plugin_version":"2.1.0","time_elapsed":392846,"subject_id":"87902","group":"Group1","date":"2025-10-29T21:35:27.114Z"},{"rt":null,"stimulus":"<p style=\"font-size: 50px; margin: 0; text-align: center;\">+</p>","response":null,"trial_type":"html-keyboard-response","trial_index":170,"plugin_version":"2.1.0","time_elapsed":393849,"subject_id":"87902","group":"Group1","date":"2025-10-29T21:35:27.114Z"},{"task":"memory_phase","broad_category":"S","image_png":"S_Conglomerate_07.png","image_id":375,"category_name":"Conglomerate","category":24,"distinct_rating":6.97,"rt":null,"stimulus":"Stimuli_Rocks480/S_Conglomerate_07.png","response":null,"trial_type":"image-keyboard-response","trial_index":171,"plugin_version":"2.1.0","time_elapsed":396353,"subject_id":"87902","group":"Group1","date":"2025-10-29T21:35:27.114Z"},{"rt":null,"stimulus":"<p style=\"font-size: 50px; margin: 0; text-align: center;\">+</p>","response":null,"trial_type":"html-keyboard-response","trial_index":172,"plugin_version":"2.1.0","time_elapsed":397355,"subject_id":"87902","group":"Group1","date":"2025-10-29T21:35:27.114Z"},{"task":"memory_phase","broad_category":"S","image_png":"S_Sandstone_05.png","image_id":453,"category_name":"Sandstone","category":29,"distinct_rating":5.42,"rt":null,"stimulus":"Stimuli_Rocks480/S_Sandstone_05.png","response":null,"trial_type":"image-keyboard-response","trial_index":173,"plugin_version":"2.1.0","time_elapsed":399857,"subject_id":"87902","group":"Group1","date":"2025-10-29T21:35:27.114Z"},{"rt":null,"stimulus":"<p style=\"font-size: 50px; margin: 0; text-align: center;\">+</p>","response":null,"trial_type":"html-keyboard-response","trial_index":174,"plugin_version":"2.1.0","time_elapsed":400860,"subject_id":"87902","group":"Group1","date":"2025-10-29T21:35:27.114Z"},{"task":"memory_phase","broad_category":"M","image_png":"M_Hornfels_10.png","image_id":218,"category_name":"Hornfels","category":14,"distinct_rating":2.88,"rt":null,"stimulus":"Stimuli_Rocks480/M_Hornfels_10.png","response":null,"trial_type":"image-keyboard-response","trial_index":175,"plugin_version":"2.1.0","time_elapsed":403363,"subject_id":"87902","group":"Group1","date":"2025-10-29T21:35:27.114Z"},{"rt":null,"stimulus":"<p style=\"font-size: 50px; margin: 0; text-align: center;\">+</p>","response":null,"trial_type":"html-keyboard-response","trial_index":176,"plugin_version":"2.1.0","time_elapsed":404365,"subject_id":"87902","group":"Group1","date":"2025-10-29T21:35:27.114Z"},{"task":"memory_phase","broad_category":"M","image_png":"M_Anthracite_07.png","image_id":183,"category_name":"Anthracite","category":12,"distinct_rating":4.27,"rt":null,"stimulus":"Stimuli_Rocks480/M_Anthracite_07.png","response":null,"trial_type":"image-keyboard-response","trial_index":177,"plugin_version":"2.1.0","time_elapsed":406869,"subject_id":"87902","group":"Group1","date":"2025-10-29T21:35:27.114Z"},{"rt":null,"stimulus":"<p style=\"font-size: 50px; margin: 0; text-align: center;\">+</p>","response":null,"trial_type":"html-keyboard-response","trial_index":178,"plugin_version":"2.1.0","time_elapsed":407872,"subject_id":"87902","group":"Group1","date":"2025-10-29T21:35:27.114Z"},{"task":"memory_phase","broad_category":"S","image_png":"S_Rock Salt_12.png","image_id":444,"category_name":"Rock Salt","category":28,"distinct_rating":5.86,"rt":null,"stimulus":"Stimuli_Rocks480/S_Rock Salt_12.png","response":null,"trial_type":"image-keyboard-response","trial_index":179,"plugin_version":"2.1.0","time_elapsed":410375,"subject_id":"87902","group":"Group1","date":"2025-10-29T21:35:27.114Z"},{"rt":null,"stimulus":"<p style=\"font-size: 50px; margin: 0; text-align: center;\">+</p>","response":null,"trial_type":"html-keyboard-response","trial_index":180,"plugin_version":"2.1.0","time_elapsed":411377,"subject_id":"87902","group":"Group1","date":"2025-10-29T21:35:27.114Z"},{"task":"memory_phase","broad_category":"S","image_png":"S_Bituminous Coal_10.png","image_id":330,"category_name":"Bituminous Coal","category":21,"distinct_rating":3.47,"rt":null,"stimulus":"Stimuli_Rocks480/S_Bituminous Coal_10.png","response":null,"trial_type":"image-keyboard-response","trial_index":181,"plugin_version":"2.1.0","time_elapsed":413881,"subject_id":"87902","group":"Group1","date":"2025-10-29T21:35:27.114Z"},{"rt":null,"stimulus":"<p style=\"font-size: 50px; margin: 0; text-align: center;\">+</p>","response":null,"trial_type":"html-keyboard-response","trial_index":182,"plugin_version":"2.1.0","time_elapsed":414884,"subject_id":"87902","group":"Group1","date":"2025-10-29T21:35:27.114Z"},{"task":"memory_phase","broad_category":"M","image_png":"M_Hornfels_12.png","image_id":220,"category_name":"Hornfels","category":14,"distinct_rating":2.62,"rt":null,"stimulus":"Stimuli_Rocks480/M_Hornfels_12.png","response":null,"trial_type":"image-keyboard-response","trial_index":183,"plugin_version":"2.1.0","time_elapsed":417387,"subject_id":"87902","group":"Group1","date":"2025-10-29T21:35:27.114Z"},{"rt":null,"stimulus":"<p style=\"font-size: 50px; margin: 0; text-align: center;\">+</p>","response":null,"trial_type":"html-keyboard-response","trial_index":184,"plugin_version":"2.1.0","time_elapsed":418390,"subject_id":"87902","group":"Group1","date":"2025-10-29T21:35:27.114Z"},{"task":"memory_phase","broad_category":"I","image_png":"I_Peridotite_09.png","image_id":121,"category_name":"Peridotite","category":8,"distinct_rating":5.71,"rt":null,"stimulus":"Stimuli_Rocks480/I_Peridotite_09.png","response":null,"trial_type":"image-keyboard-response","trial_index":185,"plugin_version":"2.1.0","time_elapsed":420893,"subject_id":"87902","group":"Group1","date":"2025-10-29T21:35:27.114Z"},{"rt":null,"stimulus":"<p style=\"font-size: 50px; margin: 0; text-align: center;\">+</p>","response":null,"trial_type":"html-keyboard-response","trial_index":186,"plugin_version":"2.1.0","time_elapsed":421896,"subject_id":"87902","group":"Group1","date":"2025-10-29T21:35:27.114Z"},{"task":"memory_phase","broad_category":"M","image_png":"M_Schist_08.png","image_id":296,"category_name":"Schist","category":19,"distinct_rating":6.46,"rt":null,"stimulus":"Stimuli_Rocks480/M_Schist_08.png","response":null,"trial_type":"image-keyboard-response","trial_index":187,"plugin_version":"2.1.0","time_elapsed":424401,"subject_id":"87902","group":"Group1","date":"2025-10-29T21:35:27.114Z"},{"rt":null,"stimulus":"<p style=\"font-size: 50px; margin: 0; text-align: center;\">+</p>","response":null,"trial_type":"html-keyboard-response","trial_index":188,"plugin_version":"2.1.0","time_elapsed":425403,"subject_id":"87902","group":"Group1","date":"2025-10-29T21:35:27.114Z"},{"task":"memory_phase","broad_category":"M","image_png":"M_Gneiss_01.png","image_id":193,"category_name":"Gneiss","category":13,"distinct_rating":4.54,"rt":null,"stimulus":"Stimuli_Rocks480/M_Gneiss_01.png","response":null,"trial_type":"image-keyboard-response","trial_index":189,"plugin_version":"2.1.0","time_elapsed":427907,"subject_id":"87902","group":"Group1","date":"2025-10-29T21:35:27.114Z"},{"rt":null,"stimulus":"<p style=\"font-size: 50px; margin: 0; text-align: center;\">+</p>","response":null,"trial_type":"html-keyboard-response","trial_index":190,"plugin_version":"2.1.0","time_elapsed":428910,"subject_id":"87902","group":"Group1","date":"2025-10-29T21:35:27.114Z"},{"task":"memory_phase","broad_category":"S","image_png":"S_Micrite_03.png","image_id":403,"category_name":"Micrite","category":26,"distinct_rating":4,"rt":null,"stimulus":"Stimuli_Rocks480/S_Micrite_03.png","response":null,"trial_type":"image-keyboard-response","trial_index":191,"plugin_version":"2.1.0","time_elapsed":431413,"subject_id":"87902","group":"Group1","date":"2025-10-29T21:35:27.114Z"},{"rt":null,"stimulus":"<p style=\"font-size: 50px; margin: 0; text-align: center;\">+</p>","response":null,"trial_type":"html-keyboard-response","trial_index":192,"plugin_version":"2.1.0","time_elapsed":432416,"subject_id":"87902","group":"Group1","date":"2025-10-29T21:35:27.114Z"},{"task":"memory_phase","broad_category":"I","image_png":"I_Pegmatite_12.png","image_id":108,"category_name":"Pegmatite","category":7,"distinct_rating":5.15,"rt":null,"stimulus":"Stimuli_Rocks480/I_Pegmatite_12.png","response":null,"trial_type":"image-keyboard-response","trial_index":193,"plugin_version":"2.1.0","time_elapsed":434929,"subject_id":"87902","group":"Group1","date":"2025-10-29T21:35:27.114Z"},{"rt":null,"stimulus":"<p style=\"font-size: 50px; margin: 0; text-align: center;\">+</p>","response":null,"trial_type":"html-keyboard-response","trial_index":194,"plugin_version":"2.1.0","time_elapsed":435932,"subject_id":"87902","group":"Group1","date":"2025-10-29T21:35:27.114Z"},{"task":"memory_phase","broad_category":"I","image_png":"I_Basalt_15.png","image_id":31,"category_name":"Basalt","category":2,"distinct_rating":4.03,"rt":null,"stimulus":"Stimuli_Rocks480/I_Basalt_15.png","response":null,"trial_type":"image-keyboard-response","trial_index":195,"plugin_version":"2.1.0","time_elapsed":438435,"subject_id":"87902","group":"Group1","date":"2025-10-29T21:35:27.114Z"},{"rt":null,"stimulus":"<p style=\"font-size: 50px; margin: 0; text-align: center;\">+</p>","response":null,"trial_type":"html-keyboard-response","trial_index":196,"plugin_version":"2.1.0","time_elapsed":439437,"subject_id":"87902","group":"Group1","date":"2025-10-29T21:35:27.114Z"},{"task":"memory_phase","broad_category":"M","image_png":"M_Schist_12.png","image_id":300,"category_name":"Schist","category":19,"distinct_rating":4.27,"rt":null,"stimulus":"Stimuli_Rocks480/M_Schist_12.png","response":null,"trial_type":"image-keyboard-response","trial_index":197,"plugin_version":"2.1.0","time_elapsed":441941,"subject_id":"87902","group":"Group1","date":"2025-10-29T21:35:27.114Z"},{"rt":2209,"stimulus":"<p style=\"font-size: 35px;\">Press SPACE to continue study phase</p>","response":" ","trial_type":"html-keyboard-response","trial_index":198,"plugin_version":"2.1.0","time_elapsed":444151,"subject_id":"87902","group":"Group1","date":"2025-10-29T21:35:27.114Z"},{"rt":null,"stimulus":"<p style=\"font-size: 50px; margin: 0; text-align: center;\">+</p>","response":null,"trial_type":"html-keyboard-response","trial_index":199,"plugin_version":"2.1.0","time_elapsed":445154,"subject_id":"87902","group":"Group1","date":"2025-10-29T21:35:27.114Z"},{"task":"memory_phase","broad_category":"I","image_png":"I_Granite_10.png","image_id":74,"category_name":"Granite","category":5,"distinct_rating":4.34,"rt":null,"stimulus":"Stimuli_Rocks480/I_Granite_10.png","response":null,"trial_type":"image-keyboard-response","trial_index":200,"plugin_version":"2.1.0","time_elapsed":447658,"subject_id":"87902","group":"Group1","date":"2025-10-29T21:35:27.114Z"},{"rt":null,"stimulus":"<p style=\"font-size: 50px; margin: 0; text-align: center;\">+</p>","response":null,"trial_type":"html-keyboard-response","trial_index":201,"plugin_version":"2.1.0","time_elapsed":448660,"subject_id":"87902","group":"Group1","date":"2025-10-29T21:35:27.114Z"},{"task":"memory_phase","broad_category":"M","image_png":"M_Marble_15.png","image_id":239,"category_name":"Marble","category":15,"distinct_rating":6.35,"rt":null,"stimulus":"Stimuli_Rocks480/M_Marble_15.png","response":null,"trial_type":"image-keyboard-response","trial_index":202,"plugin_version":"2.1.0","time_elapsed":451164,"subject_id":"87902","group":"Group1","date":"2025-10-29T21:35:27.114Z"},{"rt":null,"stimulus":"<p style=\"font-size: 50px; margin: 0; text-align: center;\">+</p>","response":null,"trial_type":"html-keyboard-response","trial_index":203,"plugin_version":"2.1.0","time_elapsed":452166,"subject_id":"87902","group":"Group1","date":"2025-10-29T21:35:27.114Z"},{"task":"memory_phase","broad_category":"I","image_png":"I_Obsidian_04.png","image_id":84,"category_name":"Obsidian","category":6,"distinct_rating":5.67,"rt":null,"stimulus":"Stimuli_Rocks480/I_Obsidian_04.png","response":null,"trial_type":"image-keyboard-response","trial_index":204,"plugin_version":"2.1.0","time_elapsed":454670,"subject_id":"87902","group":"Group1","date":"2025-10-29T21:35:27.114Z"},{"rt":null,"stimulus":"<p style=\"font-size: 50px; margin: 0; text-align: center;\">+</p>","response":null,"trial_type":"html-keyboard-response","trial_index":205,"plugin_version":"2.1.0","time_elapsed":455672,"subject_id":"87902","group":"Group1","date":"2025-10-29T21:35:27.114Z"},{"task":"memory_phase","broad_category":"S","image_png":"S_Breccia_12.png","image_id":348,"category_name":"Breccia","category":22,"distinct_rating":5.03,"rt":null,"stimulus":"Stimuli_Rocks480/S_Breccia_12.png","response":null,"trial_type":"image-keyboard-response","trial_index":206,"plugin_version":"2.1.0","time_elapsed":458176,"subject_id":"87902","group":"Group1","date":"2025-10-29T21:35:27.114Z"},{"rt":null,"stimulus":"<p style=\"font-size: 50px; margin: 0; text-align: center;\">+</p>","response":null,"trial_type":"html-keyboard-response","trial_index":207,"plugin_version":"2.1.0","time_elapsed":459179,"subject_id":"87902","group":"Group1","date":"2025-10-29T21:35:27.114Z"},{"task":"memory_phase","broad_category":"S","image_png":"S_Rock Gypsum_01.png","image_id":417,"category_name":"Rock Gypsum","category":27,"distinct_rating":3.97,"rt":null,"stimulus":"Stimuli_Rocks480/S_Rock Gypsum_01.png","response":null,"trial_type":"image-keyboard-response","trial_index":208,"plugin_version":"2.1.0","time_elapsed":461684,"subject_id":"87902","group":"Group1","date":"2025-10-29T21:35:27.114Z"},{"rt":null,"stimulus":"<p style=\"font-size: 50px; margin: 0; text-align: center;\">+</p>","response":null,"trial_type":"html-keyboard-response","trial_index":209,"plugin_version":"2.1.0","time_elapsed":462687,"subject_id":"87902","group":"Group1","date":"2025-10-29T21:35:27.114Z"},{"task":"memory_phase","broad_category":"I","image_png":"I_Basalt_01.png","image_id":17,"category_name":"Basalt","category":2,"distinct_rating":1.92,"rt":null,"stimulus":"Stimuli_Rocks480/I_Basalt_01.png","response":null,"trial_type":"image-keyboard-response","trial_index":210,"plugin_version":"2.1.0","time_elapsed":465190,"subject_id":"87902","group":"Group1","date":"2025-10-29T21:35:27.114Z"},{"rt":null,"stimulus":"<p style=\"font-size: 50px; margin: 0; text-align: center;\">+</p>","response":null,"trial_type":"html-keyboard-response","trial_index":211,"plugin_version":"2.1.0","time_elapsed":466193,"subject_id":"87902","group":"Group1","date":"2025-10-29T21:35:27.114Z"},{"task":"memory_phase","broad_category":"S","image_png":"S_Sandstone_03.png","image_id":451,"category_name":"Sandstone","category":29,"distinct_rating":1.86,"rt":null,"stimulus":"Stimuli_Rocks480/S_Sandstone_03.png","response":null,"trial_type":"image-keyboard-response","trial_index":212,"plugin_version":"2.1.0","time_elapsed":468697,"subject_id":"87902","group":"Group1","date":"2025-10-29T21:35:27.114Z"},{"rt":null,"stimulus":"<p style=\"font-size: 50px; margin: 0; text-align: center;\">+</p>","response":null,"trial_type":"html-keyboard-response","trial_index":213,"plugin_version":"2.1.0","time_elapsed":469699,"subject_id":"87902","group":"Group1","date":"2025-10-29T21:35:27.114Z"},{"task":"memory_phase","broad_category":"S","image_png":"S_Rock Gypsum_13.png","image_id":429,"category_name":"Rock Gypsum","category":27,"distinct_rating":4.94,"rt":null,"stimulus":"Stimuli_Rocks480/S_Rock Gypsum_13.png","response":null,"trial_type":"image-keyboard-response","trial_index":214,"plugin_version":"2.1.0","time_elapsed":472203,"subject_id":"87902","group":"Group1","date":"2025-10-29T21:35:27.114Z"},{"rt":null,"stimulus":"<p style=\"font-size: 50px; margin: 0; text-align: center;\">+</p>","response":null,"trial_type":"html-keyboard-response","trial_index":215,"plugin_version":"2.1.0","time_elapsed":473206,"subject_id":"87902","group":"Group1","date":"2025-10-29T21:35:27.114Z"},{"task":"memory_phase","broad_category":"S","image_png":"S_Rock Gypsum_04.png","image_id":420,"category_name":"Rock Gypsum","category":27,"distinct_rating":7.61,"rt":null,"stimulus":"Stimuli_Rocks480/S_Rock Gypsum_04.png","response":null,"trial_type":"image-keyboard-response","trial_index":216,"plugin_version":"2.1.0","time_elapsed":475709,"subject_id":"87902","group":"Group1","date":"2025-10-29T21:35:27.114Z"},{"rt":null,"stimulus":"<p style=\"font-size: 50px; margin: 0; text-align: center;\">+</p>","response":null,"trial_type":"html-keyboard-response","trial_index":217,"plugin_version":"2.1.0","time_elapsed":476711,"subject_id":"87902","group":"Group1","date":"2025-10-29T21:35:27.114Z"},{"task":"memory_phase","broad_category":"I","image_png":"I_Andesite_02.png","image_id":2,"category_name":"Andesite","category":1,"distinct_rating":3.93,"rt":null,"stimulus":"Stimuli_Rocks480/I_Andesite_02.png","response":null,"trial_type":"image-keyboard-response","trial_index":218,"plugin_version":"2.1.0","time_elapsed":479214,"subject_id":"87902","group":"Group1","date":"2025-10-29T21:35:27.114Z"},{"rt":null,"stimulus":"<p style=\"font-size: 50px; margin: 0; text-align: center;\">+</p>","response":null,"trial_type":"html-keyboard-response","trial_index":219,"plugin_version":"2.1.0","time_elapsed":480216,"subject_id":"87902","group":"Group1","date":"2025-10-29T21:35:27.114Z"},{"task":"memory_phase","broad_category":"I","image_png":"I_Pegmatite_10.png","image_id":106,"category_name":"Pegmatite","category":7,"distinct_rating":7.66,"rt":null,"stimulus":"Stimuli_Rocks480/I_Pegmatite_10.png","response":null,"trial_type":"image-keyboard-response","trial_index":220,"plugin_version":"2.1.0","time_elapsed":482720,"subject_id":"87902","group":"Group1","date":"2025-10-29T21:35:27.114Z"},{"rt":null,"stimulus":"<p style=\"font-size: 50px; margin: 0; text-align: center;\">+</p>","response":null,"trial_type":"html-keyboard-response","trial_index":221,"plugin_version":"2.1.0","time_elapsed":483722,"subject_id":"87902","group":"Group1","date":"2025-10-29T21:35:27.114Z"},{"task":"memory_phase","broad_category":"I","image_png":"I_Peridotite_04.png","image_id":116,"category_name":"Peridotite","category":8,"distinct_rating":6.39,"rt":null,"stimulus":"Stimuli_Rocks480/I_Peridotite_04.png","response":null,"trial_type":"image-keyboard-response","trial_index":222,"plugin_version":"2.1.0","time_elapsed":486225,"subject_id":"87902","group":"Group1","date":"2025-10-29T21:35:27.114Z"},{"rt":null,"stimulus":"<p style=\"font-size: 50px; margin: 0; text-align: center;\">+</p>","response":null,"trial_type":"html-keyboard-response","trial_index":223,"plugin_version":"2.1.0","time_elapsed":487228,"subject_id":"87902","group":"Group1","date":"2025-10-29T21:35:27.114Z"},{"task":"memory_phase","broad_category":"M","image_png":"M_Phyllite_06.png","image_id":262,"category_name":"Phyllite","category":17,"distinct_rating":3.03,"rt":null,"stimulus":"Stimuli_Rocks480/M_Phyllite_06.png","response":null,"trial_type":"image-keyboard-response","trial_index":224,"plugin_version":"2.1.0","time_elapsed":489731,"subject_id":"87902","group":"Group1","date":"2025-10-29T21:35:27.114Z"},{"rt":null,"stimulus":"<p style=\"font-size: 50px; margin: 0; text-align: center;\">+</p>","response":null,"trial_type":"html-keyboard-response","trial_index":225,"plugin_version":"2.1.0","time_elapsed":490734,"subject_id":"87902","group":"Group1","date":"2025-10-29T21:35:27.114Z"},{"task":"memory_phase","broad_category":"I","image_png":"I_Obsidian_13.png","image_id":93,"category_name":"Obsidian","category":6,"distinct_rating":4.85,"rt":null,"stimulus":"Stimuli_Rocks480/I_Obsidian_13.png","response":null,"trial_type":"image-keyboard-response","trial_index":226,"plugin_version":"2.1.0","time_elapsed":493237,"subject_id":"87902","group":"Group1","date":"2025-10-29T21:35:27.114Z"},{"rt":null,"stimulus":"<p style=\"font-size: 50px; margin: 0; text-align: center;\">+</p>","response":null,"trial_type":"html-keyboard-response","trial_index":227,"plugin_version":"2.1.0","time_elapsed":494239,"subject_id":"87902","group":"Group1","date":"2025-10-29T21:35:27.114Z"},{"task":"memory_phase","broad_category":"M","image_png":"M_Amphibolite_04.png","image_id":164,"category_name":"Amphibolite","category":11,"distinct_rating":2.89,"rt":null,"stimulus":"Stimuli_Rocks480/M_Amphibolite_04.png","response":null,"trial_type":"image-keyboard-response","trial_index":228,"plugin_version":"2.1.0","time_elapsed":496743,"subject_id":"87902","group":"Group1","date":"2025-10-29T21:35:27.114Z"},{"rt":null,"stimulus":"<p style=\"font-size: 50px; margin: 0; text-align: center;\">+</p>","response":null,"trial_type":"html-keyboard-response","trial_index":229,"plugin_version":"2.1.0","time_elapsed":497745,"subject_id":"87902","group":"Group1","date":"2025-10-29T21:35:27.114Z"},{"task":"memory_phase","broad_category":"M","image_png":"M_Marble_01.png","image_id":225,"category_name":"Marble","category":15,"distinct_rating":4.1,"rt":null,"stimulus":"Stimuli_Rocks480/M_Marble_01.png","response":null,"trial_type":"image-keyboard-response","trial_index":230,"plugin_version":"2.1.0","time_elapsed":500248,"subject_id":"87902","group":"Group1","date":"2025-10-29T21:35:27.114Z"},{"rt":null,"stimulus":"<p style=\"font-size: 50px; margin: 0; text-align: center;\">+</p>","response":null,"trial_type":"html-keyboard-response","trial_index":231,"plugin_version":"2.1.0","time_elapsed":501251,"subject_id":"87902","group":"Group1","date":"2025-10-29T21:35:27.114Z"},{"task":"memory_phase","broad_category":"S","image_png":"S_Bituminous Coal_08.png","image_id":328,"category_name":"Bituminous Coal","category":21,"distinct_rating":3.92,"rt":null,"stimulus":"Stimuli_Rocks480/S_Bituminous Coal_08.png","response":null,"trial_type":"image-keyboard-response","trial_index":232,"plugin_version":"2.1.0","time_elapsed":503755,"subject_id":"87902","group":"Group1","date":"2025-10-29T21:35:27.114Z"},{"rt":null,"stimulus":"<p style=\"font-size: 50px; margin: 0; text-align: center;\">+</p>","response":null,"trial_type":"html-keyboard-response","trial_index":233,"plugin_version":"2.1.0","time_elapsed":504757,"subject_id":"87902","group":"Group1","date":"2025-10-29T21:35:27.114Z"},{"task":"memory_phase","broad_category":"I","image_png":"I_Basalt_03.png","image_id":19,"category_name":"Basalt","category":2,"distinct_rating":2.94,"rt":null,"stimulus":"Stimuli_Rocks480/I_Basalt_03.png","response":null,"trial_type":"image-keyboard-response","trial_index":234,"plugin_version":"2.1.0","time_elapsed":507261,"subject_id":"87902","group":"Group1","date":"2025-10-29T21:35:27.114Z"},{"rt":null,"stimulus":"<p style=\"font-size: 50px; margin: 0; text-align: center;\">+</p>","response":null,"trial_type":"html-keyboard-response","trial_index":235,"plugin_version":"2.1.0","time_elapsed":508263,"subject_id":"87902","group":"Group1","date":"2025-10-29T21:35:27.114Z"},{"task":"memory_phase","broad_category":"I","image_png":"I_Pumice_15.png","image_id":143,"category_name":"Pumice","category":9,"distinct_rating":4.18,"rt":null,"stimulus":"Stimuli_Rocks480/I_Pumice_15.png","response":null,"trial_type":"image-keyboard-response","trial_index":236,"plugin_version":"2.1.0","time_elapsed":510767,"subject_id":"87902","group":"Group1","date":"2025-10-29T21:35:27.114Z"},{"rt":null,"stimulus":"<p style=\"font-size: 50px; margin: 0; text-align: center;\">+</p>","response":null,"trial_type":"html-keyboard-response","trial_index":237,"plugin_version":"2.1.0","time_elapsed":511769,"subject_id":"87902","group":"Group1","date":"2025-10-29T21:35:27.114Z"},{"task":"memory_phase","broad_category":"M","image_png":"M_Quartzite_04.png","image_id":276,"category_name":"Quartzite","category":18,"distinct_rating":3.06,"rt":null,"stimulus":"Stimuli_Rocks480/M_Quartzite_04.png","response":null,"trial_type":"image-keyboard-response","trial_index":238,"plugin_version":"2.1.0","time_elapsed":514273,"subject_id":"87902","group":"Group1","date":"2025-10-29T21:35:27.114Z"},{"rt":null,"stimulus":"<p style=\"font-size: 50px; margin: 0; text-align: center;\">+</p>","response":null,"trial_type":"html-keyboard-response","trial_index":239,"plugin_version":"2.1.0","time_elapsed":515275,"subject_id":"87902","group":"Group1","date":"2025-10-29T21:35:27.114Z"},{"task":"memory_phase","broad_category":"M","image_png":"M_Quartzite_01.png","image_id":273,"category_name":"Quartzite","category":18,"distinct_rating":2.3,"rt":null,"stimulus":"Stimuli_Rocks480/M_Quartzite_01.png","response":null,"trial_type":"image-keyboard-response","trial_index":240,"plugin_version":"2.1.0","time_elapsed":517778,"subject_id":"87902","group":"Group1","date":"2025-10-29T21:35:27.114Z"},{"rt":null,"stimulus":"<p style=\"font-size: 50px; margin: 0; text-align: center;\">+</p>","response":null,"trial_type":"html-keyboard-response","trial_index":241,"plugin_version":"2.1.0","time_elapsed":518780,"subject_id":"87902","group":"Group1","date":"2025-10-29T21:35:27.114Z"},{"task":"memory_phase","broad_category":"S","image_png":"S_Chert_16.png","image_id":368,"category_name":"Chert","category":23,"distinct_rating":5.43,"rt":null,"stimulus":"Stimuli_Rocks480/S_Chert_16.png","response":null,"trial_type":"image-keyboard-response","trial_index":242,"plugin_version":"2.1.0","time_elapsed":521284,"subject_id":"87902","group":"Group1","date":"2025-10-29T21:35:27.114Z"},{"rt":null,"stimulus":"<p style=\"font-size: 50px; margin: 0; text-align: center;\">+</p>","response":null,"trial_type":"html-keyboard-response","trial_index":243,"plugin_version":"2.1.0","time_elapsed":522287,"subject_id":"87902","group":"Group1","date":"2025-10-29T21:35:27.114Z"},{"task":"memory_phase","broad_category":"S","image_png":"S_Breccia_07.png","image_id":343,"category_name":"Breccia","category":22,"distinct_rating":6.19,"rt":null,"stimulus":"Stimuli_Rocks480/S_Breccia_07.png","response":null,"trial_type":"image-keyboard-response","trial_index":244,"plugin_version":"2.1.0","time_elapsed":524790,"subject_id":"87902","group":"Group1","date":"2025-10-29T21:35:27.114Z"},{"rt":null,"stimulus":"<p style=\"font-size: 50px; margin: 0; text-align: center;\">+</p>","response":null,"trial_type":"html-keyboard-response","trial_index":245,"plugin_version":"2.1.0","time_elapsed":525792,"subject_id":"87902","group":"Group1","date":"2025-10-29T21:35:27.114Z"},{"task":"memory_phase","broad_category":"I","image_png":"I_Pegmatite_16.png","image_id":112,"category_name":"Pegmatite","category":7,"distinct_rating":7.03,"rt":null,"stimulus":"Stimuli_Rocks480/I_Pegmatite_16.png","response":null,"trial_type":"image-keyboard-response","trial_index":246,"plugin_version":"2.1.0","time_elapsed":528296,"subject_id":"87902","group":"Group1","date":"2025-10-29T21:35:27.114Z"},{"rt":13818,"stimulus":"<div style=\"max-width: 760px; margin: auto; font-size: 20px; line-height: 1.5;\">\n      <h1 style=\"text-align:center; font-size: 30px;\">Instructions for the Test Phase</h1>\n      <p>\n        The study phase is now complete.\n      </p>\n      <p>\n        In the test phase, you will again see a series of rock images. \n        Some will be ones you saw before - during the study phase, while others will be new.  \n        <b>Your task</b> is to decide whether you have seen each image before by pressing the corresponding key on your keyboard:<br><br>\n          <b>A</b> - NO (you did not see this image before)<br>\n          <b>L</b> - YES (you saw this image before)<br><br>\n        The test will proceed at your own pace. You will receive feedback after each response.  \n        Please try to respond <b>as accurately as possible</b>.\n      </p>\n      <p>\n        <b>Reminder:</b> If your computer has multiple language settings (e.g., English and another language),\n        please ensure it is set to English during the test phase.\n      </p>\n      <p>\n        You can track your progress using the <b>completion bar</b> at the top of the screen.  \n        Note that it has been refreshed to reflect your progress during this final phase.\n      </p>\n      <p>\n        Press the button below when you are ready to continue.\n      </p>\n    </div>","response":0,"trial_type":"html-button-response","trial_index":247,"plugin_version":"2.1.0","time_elapsed":542119,"subject_id":"87902","group":"Group1","date":"2025-10-29T21:35:27.114Z"},{"correct_response":"a","task":"test_phase","broad_category":"I","image_png":"I_Granite_14.png","image_id":78,"category_name":"Granite","category":5,"distinct_rating":4.29,"item_type":"Foil","rt":2479,"stimulus":"Stimuli_Rocks480/I_Granite_14.png","response":"l","trial_type":"image-keyboard-response","trial_index":248,"plugin_version":"2.1.0","time_elapsed":544600,"subject_id":"87902","group":"Group1","date":"2025-10-29T21:35:27.114Z","cor_ans":false},{"trial_type":"html-keyboard-response","rt":null,"stimulus":"<p style=\"color: red; font-size: 50px; font-weight: bold;\">Incorrect</p>","response":null,"trial_index":249,"plugin_version":"2.1.0","time_elapsed":545101,"subject_id":"87902","group":"Group1","date":"2025-10-29T21:35:27.114Z"},{"correct_response":"a","task":"test_phase","broad_category":"I","image_png":"I_Rhyolite_04.png","image_id":148,"category_name":"Rhyolite","category":10,"distinct_rating":3.73,"item_type":"Foil","rt":1672,"stimulus":"Stimuli_Rocks480/I_Rhyolite_04.png","response":"a","trial_type":"image-keyboard-response","trial_index":250,"plugin_version":"2.1.0","time_elapsed":546775,"subject_id":"87902","group":"Group1","date":"2025-10-29T21:35:27.114Z","cor_ans":true},{"trial_type":"html-keyboard-response","rt":null,"stimulus":"<p style=\"color: green; font-size: 50px; font-weight: bold;\">Correct</p>","response":null,"trial_index":251,"plugin_version":"2.1.0","time_elapsed":547277,"subject_id":"87902","group":"Group1","date":"2025-10-29T21:35:27.114Z"},{"correct_response":"l","task":"test_phase","broad_category":"I","image_png":"I_Pegmatite_09.png","image_id":105,"category_name":"Pegmatite","category":7,"distinct_rating":6.37,"item_type":"Target","rt":2322,"stimulus":"Stimuli_Rocks480/I_Pegmatite_09.png","response":"a","trial_type":"image-keyboard-response","trial_index":252,"plugin_version":"2.1.0","time_elapsed":549602,"subject_id":"87902","group":"Group1","date":"2025-10-29T21:35:27.114Z","cor_ans":false},{"trial_type":"html-keyboard-response","rt":null,"stimulus":"<p style=\"color: red; font-size: 50px; font-weight: bold;\">Incorrect</p>","response":null,"trial_index":253,"plugin_version":"2.1.0","time_elapsed":550103,"subject_id":"87902","group":"Group1","date":"2025-10-29T21:35:27.114Z"},{"correct_response":"a","task":"test_phase","broad_category":"I","image_png":"I_Andesite_05.png","image_id":5,"category_name":"Andesite","category":1,"distinct_rating":3.32,"item_type":"Foil","rt":2929,"stimulus":"Stimuli_Rocks480/I_Andesite_05.png","response":"l","trial_type":"image-keyboard-response","trial_index":254,"plugin_version":"2.1.0","time_elapsed":553035,"subject_id":"87902","group":"Group1","date":"2025-10-29T21:35:27.114Z","cor_ans":false},{"trial_type":"html-keyboard-response","rt":null,"stimulus":"<p style=\"color: red; font-size: 50px; font-weight: bold;\">Incorrect</p>","response":null,"trial_index":255,"plugin_version":"2.1.0","time_elapsed":553536,"subject_id":"87902","group":"Group1","date":"2025-10-29T21:35:27.114Z"},{"correct_response":"l","task":"test_phase","broad_category":"S","image_png":"S_Conglomerate_07.png","image_id":375,"category_name":"Conglomerate","category":24,"distinct_rating":6.97,"item_type":"Target","rt":1712,"stimulus":"Stimuli_Rocks480/S_Conglomerate_07.png","response":"l","trial_type":"image-keyboard-response","trial_index":256,"plugin_version":"2.1.0","time_elapsed":555250,"subject_id":"87902","group":"Group1","date":"2025-10-29T21:35:27.114Z","cor_ans":true},{"trial_type":"html-keyboard-response","rt":null,"stimulus":"<p style=\"color: green; font-size: 50px; font-weight: bold;\">Correct</p>","response":null,"trial_index":257,"plugin_version":"2.1.0","time_elapsed":555751,"subject_id":"87902","group":"Group1","date":"2025-10-29T21:35:27.114Z"},{"correct_response":"l","task":"test_phase","broad_category":"S","image_png":"S_Shale_12.png","image_id":476,"category_name":"Shale","category":30,"distinct_rating":2.48,"item_type":"Target","rt":1688,"stimulus":"Stimuli_Rocks480/S_Shale_12.png","response":"l","trial_type":"image-keyboard-response","trial_index":258,"plugin_version":"2.1.0","time_elapsed":557441,"subject_id":"87902","group":"Group1","date":"2025-10-29T21:35:27.114Z","cor_ans":true},{"trial_type":"html-keyboard-response","rt":null,"stimulus":"<p style=\"color: green; font-size: 50px; font-weight: bold;\">Correct</p>","response":null,"trial_index":259,"plugin_version":"2.1.0","time_elapsed":557942,"subject_id":"87902","group":"Group1","date":"2025-10-29T21:35:27.114Z"},{"correct_response":"a","task":"test_phase","broad_category":"I","image_png":"I_Rhyolite_02.png","image_id":146,"category_name":"Rhyolite","category":10,"distinct_rating":3.26,"item_type":"Foil","rt":1490,"stimulus":"Stimuli_Rocks480/I_Rhyolite_02.png","response":"a","trial_type":"image-keyboard-response","trial_index":260,"plugin_version":"2.1.0","time_elapsed":559434,"subject_id":"87902","group":"Group1","date":"2025-10-29T21:35:27.114Z","cor_ans":true},{"trial_type":"html-keyboard-response","rt":null,"stimulus":"<p style=\"color: green; font-size: 50px; font-weight: bold;\">Correct</p>","response":null,"trial_index":261,"plugin_version":"2.1.0","time_elapsed":559935,"subject_id":"87902","group":"Group1","date":"2025-10-29T21:35:27.114Z"},{"correct_response":"a","task":"test_phase","broad_category":"S","image_png":"S_Bituminous Coal_06.png","image_id":326,"category_name":"Bituminous Coal","category":21,"distinct_rating":3.4,"item_type":"Foil","rt":1399,"stimulus":"Stimuli_Rocks480/S_Bituminous Coal_06.png","response":"a","trial_type":"image-keyboard-response","trial_index":262,"plugin_version":"2.1.0","time_elapsed":561337,"subject_id":"87902","group":"Group1","date":"2025-10-29T21:35:27.114Z","cor_ans":true},{"trial_type":"html-keyboard-response","rt":null,"stimulus":"<p style=\"color: green; font-size: 50px; font-weight: bold;\">Correct</p>","response":null,"trial_index":263,"plugin_version":"2.1.0","time_elapsed":561839,"subject_id":"87902","group":"Group1","date":"2025-10-29T21:35:27.114Z"},{"correct_response":"a","task":"test_phase","broad_category":"I","image_png":"I_Pumice_06.png","image_id":134,"category_name":"Pumice","category":9,"distinct_rating":4.16,"item_type":"Foil","rt":1934,"stimulus":"Stimuli_Rocks480/I_Pumice_06.png","response":"a","trial_type":"image-keyboard-response","trial_index":264,"plugin_version":"2.1.0","time_elapsed":563774,"subject_id":"87902","group":"Group1","date":"2025-10-29T21:35:27.114Z","cor_ans":true},{"trial_type":"html-keyboard-response","rt":null,"stimulus":"<p style=\"color: green; font-size: 50px; font-weight: bold;\">Correct</p>","response":null,"trial_index":265,"plugin_version":"2.1.0","time_elapsed":564276,"subject_id":"87902","group":"Group1","date":"2025-10-29T21:35:27.114Z"},{"correct_response":"l","task":"test_phase","broad_category":"S","image_png":"S_Rock Gypsum_04.png","image_id":420,"category_name":"Rock Gypsum","category":27,"distinct_rating":7.61,"item_type":"Target","rt":1439,"stimulus":"Stimuli_Rocks480/S_Rock Gypsum_04.png","response":"a","trial_type":"image-keyboard-response","trial_index":266,"plugin_version":"2.1.0","time_elapsed":565717,"subject_id":"87902","group":"Group1","date":"2025-10-29T21:35:27.114Z","cor_ans":false},{"trial_type":"html-keyboard-response","rt":null,"stimulus":"<p style=\"color: red; font-size: 50px; font-weight: bold;\">Incorrect</p>","response":null,"trial_index":267,"plugin_version":"2.1.0","time_elapsed":566218,"subject_id":"87902","group":"Group1","date":"2025-10-29T21:35:27.114Z"},{"correct_response":"l","task":"test_phase","broad_category":"I","image_png":"I_Obsidian_02.png","image_id":82,"category_name":"Obsidian","category":6,"distinct_rating":6.06,"item_type":"Target","rt":1470,"stimulus":"Stimuli_Rocks480/I_Obsidian_02.png","response":"l","trial_type":"image-keyboard-response","trial_index":268,"plugin_version":"2.1.0","time_elapsed":567690,"subject_id":"87902","group":"Group1","date":"2025-10-29T21:35:27.114Z","cor_ans":true},{"trial_type":"html-keyboard-response","rt":null,"stimulus":"<p style=\"color: green; font-size: 50px; font-weight: bold;\">Correct</p>","response":null,"trial_index":269,"plugin_version":"2.1.0","time_elapsed":568192,"subject_id":"87902","group":"Group1","date":"2025-10-29T21:35:27.114Z"},{"correct_response":"l","task":"test_phase","broad_category":"M","image_png":"M_Migmatite_12.png","image_id":252,"category_name":"Migmatite","category":16,"distinct_rating":4.03,"item_type":"Target","rt":790,"stimulus":"Stimuli_Rocks480/M_Migmatite_12.png","response":"l","trial_type":"image-keyboard-response","trial_index":270,"plugin_version":"2.1.0","time_elapsed":568983,"subject_id":"87902","group":"Group1","date":"2025-10-29T21:35:27.114Z","cor_ans":true},{"trial_type":"html-keyboard-response","rt":null,"stimulus":"<p style=\"color: green; font-size: 50px; font-weight: bold;\">Correct</p>","response":null,"trial_index":271,"plugin_version":"2.1.0","time_elapsed":569485,"subject_id":"87902","group":"Group1","date":"2025-10-29T21:35:27.114Z"},{"correct_response":"l","task":"test_phase","broad_category":"M","image_png":"M_Hornfels_04.png","image_id":212,"category_name":"Hornfels","category":14,"distinct_rating":2.22,"item_type":"Target","rt":1154,"stimulus":"Stimuli_Rocks480/M_Hornfels_04.png","response":"l","trial_type":"image-keyboard-response","trial_index":272,"plugin_version":"2.1.0","time_elapsed":570641,"subject_id":"87902","group":"Group1","date":"2025-10-29T21:35:27.114Z","cor_ans":true},{"trial_type":"html-keyboard-response","rt":null,"stimulus":"<p style=\"color: green; font-size: 50px; font-weight: bold;\">Correct</p>","response":null,"trial_index":273,"plugin_version":"2.1.0","time_elapsed":571143,"subject_id":"87902","group":"Group1","date":"2025-10-29T21:35:27.114Z"},{"correct_response":"l","task":"test_phase","broad_category":"S","image_png":"S_Shale_10.png","image_id":474,"category_name":"Shale","category":30,"distinct_rating":1.91,"item_type":"Target","rt":1689,"stimulus":"Stimuli_Rocks480/S_Shale_10.png","response":"a","trial_type":"image-keyboard-response","trial_index":274,"plugin_version":"2.1.0","time_elapsed":572834,"subject_id":"87902","group":"Group1","date":"2025-10-29T21:35:27.114Z","cor_ans":false},{"trial_type":"html-keyboard-response","rt":null,"stimulus":"<p style=\"color: red; font-size: 50px; font-weight: bold;\">Incorrect</p>","response":null,"trial_index":275,"plugin_version":"2.1.0","time_elapsed":573336,"subject_id":"87902","group":"Group1","date":"2025-10-29T21:35:27.114Z"},{"correct_response":"a","task":"test_phase","broad_category":"M","image_png":"M_Slate_09.png","image_id":313,"category_name":"Slate","category":20,"distinct_rating":3.6,"item_type":"Foil","rt":2426,"stimulus":"Stimuli_Rocks480/M_Slate_09.png","response":"l","trial_type":"image-keyboard-response","trial_index":276,"plugin_version":"2.1.0","time_elapsed":575764,"subject_id":"87902","group":"Group1","date":"2025-10-29T21:35:27.114Z","cor_ans":false},{"trial_type":"html-keyboard-response","rt":null,"stimulus":"<p style=\"color: red; font-size: 50px; font-weight: bold;\">Incorrect</p>","response":null,"trial_index":277,"plugin_version":"2.1.0","time_elapsed":576266,"subject_id":"87902","group":"Group1","date":"2025-10-29T21:35:27.114Z"},{"correct_response":"a","task":"test_phase","broad_category":"S","image_png":"S_Chert_14.png","image_id":366,"category_name":"Chert","category":23,"distinct_rating":4.5,"item_type":"Foil","rt":1307,"stimulus":"Stimuli_Rocks480/S_Chert_14.png","response":"a","trial_type":"image-keyboard-response","trial_index":278,"plugin_version":"2.1.0","time_elapsed":577575,"subject_id":"87902","group":"Group1","date":"2025-10-29T21:35:27.114Z","cor_ans":true},{"trial_type":"html-keyboard-response","rt":null,"stimulus":"<p style=\"color: green; font-size: 50px; font-weight: bold;\">Correct</p>","response":null,"trial_index":279,"plugin_version":"2.1.0","time_elapsed":578076,"subject_id":"87902","group":"Group1","date":"2025-10-29T21:35:27.114Z"},{"correct_response":"a","task":"test_phase","broad_category":"M","image_png":"M_Amphibolite_06.png","image_id":166,"category_name":"Amphibolite","category":11,"distinct_rating":2.8,"item_type":"Foil","rt":1334,"stimulus":"Stimuli_Rocks480/M_Amphibolite_06.png","response":"l","trial_type":"image-keyboard-response","trial_index":280,"plugin_version":"2.1.0","time_elapsed":579412,"subject_id":"87902","group":"Group1","date":"2025-10-29T21:35:27.114Z","cor_ans":false},{"trial_type":"html-keyboard-response","rt":null,"stimulus":"<p style=\"color: red; font-size: 50px; font-weight: bold;\">Incorrect</p>","response":null,"trial_index":281,"plugin_version":"2.1.0","time_elapsed":579914,"subject_id":"87902