[{"width":1512,"height":857,"webaudio":true,"browser":"chrome","browser_version":"139.0.0","mobile":false,"os":"Mac OS","fullscreen":true,"vsync_rate":121.04,"webcam":true,"microphone":true,"trial_type":"browser-check","trial_index":0,"plugin_version":"2.1.0","time_elapsed":503,"subject_id":"86309","group":"Group2","date":"2025-09-14T19:53:50.206Z"},{"success":true,"timeout":false,"failed_images":[],"failed_audio":[],"failed_video":[],"trial_type":"preload","trial_index":1,"plugin_version":"2.1.0","time_elapsed":6238,"subject_id":"86309","group":"Group2","date":"2025-09-14T19:53:50.206Z"},{"rt":28942,"url":"SONA_consent_memorability.html","trial_type":"external-html","trial_index":2,"plugin_version":"2.1.0","time_elapsed":35228,"subject_id":"86309","group":"Group2","date":"2025-09-14T19:53:50.206Z"},{"success":true,"rt":1949,"trial_type":"fullscreen","trial_index":3,"plugin_version":"2.1.0","time_elapsed":38181,"subject_id":"86309","group":"Group2","date":"2025-09-14T19:53:50.206Z"},{"rt":89724,"stimulus":"<div style=\"max-width: 760px; margin: auto; font-size: 20px; line-height: 1.5;\">\n      <h1 style=\"text-align:center; font-size: 30px;\">Instructions</h1>\n      <p>\n        Welcome to the study on <b>visual memory</b>. This experiment consists of <b>two phases</b>: \n        a <b>study phase</b> and a <b>test phase</b>.\n      </p>\n      <p>\n        In the study phase, you will see a series of rock images along with their category labels.\n        The images will appear one at a time.\n        <b>Your task</b> is to learn the categories to which the rock images belong \n        and to remember each image as accurately as possible.\n      </p> \n      <p>\n        After the study phase, <b>your memory will be tested</b>. \n        Additional instructions for the test phase will be provided at that time.\n      </p>\n      <p>\n        If your computer has multiple <b>language settings</b> (e.g., English and another language),\n        please make sure it is set to English before starting.\n      </p>\n      <p>\n        You can track your progress using the <b>completion bar</b> at the top of the screen. \n        Please note that the bar will refresh when the test phase begins \n        to give you an accurate sense of your progress in both phases.\n      </p> \n      <p>\n        Press the button below when you are ready to begin.\n      </p>\n    </div>","response":0,"trial_type":"html-button-response","trial_index":4,"plugin_version":"2.1.0","time_elapsed":127907,"subject_id":"86309","group":"Group2","date":"2025-09-14T19:53:50.206Z"},{"rt":null,"stimulus":"<p style=\"font-size: 50px; margin: 0; text-align: center;\">+</p>","response":null,"trial_type":"html-keyboard-response","trial_index":5,"plugin_version":"2.1.0","time_elapsed":128910,"subject_id":"86309","group":"Group2","date":"2025-09-14T19:53:50.206Z"},{"task":"memory_phase","broad_category":"S","image_png":"S_Breccia_03.png","image_id":339,"category_name":"Breccia","category":22,"distinct_rating":5.07,"rt":null,"stimulus":"Stimuli_Rocks480/S_Breccia_03.png","response":null,"trial_type":"image-keyboard-response","trial_index":6,"plugin_version":"2.1.0","time_elapsed":131416,"subject_id":"86309","group":"Group2","date":"2025-09-14T19:53:50.206Z"},{"rt":null,"stimulus":"<p style=\"font-size: 50px; margin: 0; text-align: center;\">+</p>","response":null,"trial_type":"html-keyboard-response","trial_index":7,"plugin_version":"2.1.0","time_elapsed":132420,"subject_id":"86309","group":"Group2","date":"2025-09-14T19:53:50.206Z"},{"task":"memory_phase","broad_category":"I","image_png":"I_Granite_03.png","image_id":67,"category_name":"Granite","category":5,"distinct_rating":3.6,"rt":null,"stimulus":"Stimuli_Rocks480/I_Granite_03.png","response":null,"trial_type":"image-keyboard-response","trial_index":8,"plugin_version":"2.1.0","time_elapsed":134924,"subject_id":"86309","group":"Group2","date":"2025-09-14T19:53:50.206Z"},{"rt":null,"stimulus":"<p style=\"font-size: 50px; margin: 0; text-align: center;\">+</p>","response":null,"trial_type":"html-keyboard-response","trial_index":9,"plugin_version":"2.1.0","time_elapsed":135926,"subject_id":"86309","group":"Group2","date":"2025-09-14T19:53:50.206Z"},{"task":"memory_phase","broad_category":"I","image_png":"I_Andesite_14.png","image_id":14,"category_name":"Andesite","category":1,"distinct_rating":4.47,"rt":null,"stimulus":"Stimuli_Rocks480/I_Andesite_14.png","response":null,"trial_type":"image-keyboard-response","trial_index":10,"plugin_version":"2.1.0","time_elapsed":138430,"subject_id":"86309","group":"Group2","date":"2025-09-14T19:53:50.206Z"},{"rt":null,"stimulus":"<p style=\"font-size: 50px; margin: 0; text-align: center;\">+</p>","response":null,"trial_type":"html-keyboard-response","trial_index":11,"plugin_version":"2.1.0","time_elapsed":139432,"subject_id":"86309","group":"Group2","date":"2025-09-14T19:53:50.206Z"},{"task":"memory_phase","broad_category":"I","image_png":"I_Gabbro_03.png","image_id":51,"category_name":"Gabbro","category":4,"distinct_rating":3.48,"rt":null,"stimulus":"Stimuli_Rocks480/I_Gabbro_03.png","response":null,"trial_type":"image-keyboard-response","trial_index":12,"plugin_version":"2.1.0","time_elapsed":141936,"subject_id":"86309","group":"Group2","date":"2025-09-14T19:53:50.206Z"},{"rt":null,"stimulus":"<p style=\"font-size: 50px; margin: 0; text-align: center;\">+</p>","response":null,"trial_type":"html-keyboard-response","trial_index":13,"plugin_version":"2.1.0","time_elapsed":142938,"subject_id":"86309","group":"Group2","date":"2025-09-14T19:53:50.206Z"},{"task":"memory_phase","broad_category":"M","image_png":"M_Quartzite_10.png","image_id":282,"category_name":"Quartzite","category":18,"distinct_rating":3.75,"rt":null,"stimulus":"Stimuli_Rocks480/M_Quartzite_10.png","response":null,"trial_type":"image-keyboard-response","trial_index":14,"plugin_version":"2.1.0","time_elapsed":145441,"subject_id":"86309","group":"Group2","date":"2025-09-14T19:53:50.206Z"},{"rt":null,"stimulus":"<p style=\"font-size: 50px; margin: 0; text-align: center;\">+</p>","response":null,"trial_type":"html-keyboard-response","trial_index":15,"plugin_version":"2.1.0","time_elapsed":146444,"subject_id":"86309","group":"Group2","date":"2025-09-14T19:53:50.206Z"},{"task":"memory_phase","broad_category":"M","image_png":"M_Schist_11.png","image_id":299,"category_name":"Schist","category":19,"distinct_rating":6.22,"rt":null,"stimulus":"Stimuli_Rocks480/M_Schist_11.png","response":null,"trial_type":"image-keyboard-response","trial_index":16,"plugin_version":"2.1.0","time_elapsed":148948,"subject_id":"86309","group":"Group2","date":"2025-09-14T19:53:50.206Z"},{"rt":null,"stimulus":"<p style=\"font-size: 50px; margin: 0; text-align: center;\">+</p>","response":null,"trial_type":"html-keyboard-response","trial_index":17,"plugin_version":"2.1.0","time_elapsed":149950,"subject_id":"86309","group":"Group2","date":"2025-09-14T19:53:50.206Z"},{"task":"memory_phase","broad_category":"I","image_png":"I_Peridotite_14.png","image_id":126,"category_name":"Peridotite","category":8,"distinct_rating":3.64,"rt":null,"stimulus":"Stimuli_Rocks480/I_Peridotite_14.png","response":null,"trial_type":"image-keyboard-response","trial_index":18,"plugin_version":"2.1.0","time_elapsed":152453,"subject_id":"86309","group":"Group2","date":"2025-09-14T19:53:50.206Z"},{"rt":null,"stimulus":"<p style=\"font-size: 50px; margin: 0; text-align: center;\">+</p>","response":null,"trial_type":"html-keyboard-response","trial_index":19,"plugin_version":"2.1.0","time_elapsed":153456,"subject_id":"86309","group":"Group2","date":"2025-09-14T19:53:50.206Z"},{"task":"memory_phase","broad_category":"M","image_png":"M_Schist_07.png","image_id":295,"category_name":"Schist","category":19,"distinct_rating":4.2,"rt":null,"stimulus":"Stimuli_Rocks480/M_Schist_07.png","response":null,"trial_type":"image-keyboard-response","trial_index":20,"plugin_version":"2.1.0","time_elapsed":155959,"subject_id":"86309","group":"Group2","date":"2025-09-14T19:53:50.206Z"},{"rt":null,"stimulus":"<p style=\"font-size: 50px; margin: 0; text-align: center;\">+</p>","response":null,"trial_type":"html-keyboard-response","trial_index":21,"plugin_version":"2.1.0","time_elapsed":156962,"subject_id":"86309","group":"Group2","date":"2025-09-14T19:53:50.206Z"},{"task":"memory_phase","broad_category":"I","image_png":"I_Granite_14.png","image_id":78,"category_name":"Granite","category":5,"distinct_rating":4.29,"rt":null,"stimulus":"Stimuli_Rocks480/I_Granite_14.png","response":null,"trial_type":"image-keyboard-response","trial_index":22,"plugin_version":"2.1.0","time_elapsed":159465,"subject_id":"86309","group":"Group2","date":"2025-09-14T19:53:50.206Z"},{"rt":null,"stimulus":"<p style=\"font-size: 50px; margin: 0; text-align: center;\">+</p>","response":null,"trial_type":"html-keyboard-response","trial_index":23,"plugin_version":"2.1.0","time_elapsed":160468,"subject_id":"86309","group":"Group2","date":"2025-09-14T19:53:50.206Z"},{"task":"memory_phase","broad_category":"I","image_png":"I_Diorite_11.png","image_id":43,"category_name":"Diorite","category":3,"distinct_rating":3.36,"rt":null,"stimulus":"Stimuli_Rocks480/I_Diorite_11.png","response":null,"trial_type":"image-keyboard-response","trial_index":24,"plugin_version":"2.1.0","time_elapsed":162972,"subject_id":"86309","group":"Group2","date":"2025-09-14T19:53:50.206Z"},{"rt":null,"stimulus":"<p style=\"font-size: 50px; margin: 0; text-align: center;\">+</p>","response":null,"trial_type":"html-keyboard-response","trial_index":25,"plugin_version":"2.1.0","time_elapsed":163974,"subject_id":"86309","group":"Group2","date":"2025-09-14T19:53:50.206Z"},{"task":"memory_phase","broad_category":"M","image_png":"M_Gneiss_12.png","image_id":204,"category_name":"Gneiss","category":13,"distinct_rating":4.52,"rt":null,"stimulus":"Stimuli_Rocks480/M_Gneiss_12.png","response":null,"trial_type":"image-keyboard-response","trial_index":26,"plugin_version":"2.1.0","time_elapsed":166478,"subject_id":"86309","group":"Group2","date":"2025-09-14T19:53:50.206Z"},{"rt":null,"stimulus":"<p style=\"font-size: 50px; margin: 0; text-align: center;\">+</p>","response":null,"trial_type":"html-keyboard-response","trial_index":27,"plugin_version":"2.1.0","time_elapsed":167480,"subject_id":"86309","group":"Group2","date":"2025-09-14T19:53:50.206Z"},{"task":"memory_phase","broad_category":"M","image_png":"M_Quartzite_15.png","image_id":287,"category_name":"Quartzite","category":18,"distinct_rating":2.19,"rt":null,"stimulus":"Stimuli_Rocks480/M_Quartzite_15.png","response":null,"trial_type":"image-keyboard-response","trial_index":28,"plugin_version":"2.1.0","time_elapsed":169983,"subject_id":"86309","group":"Group2","date":"2025-09-14T19:53:50.206Z"},{"rt":null,"stimulus":"<p style=\"font-size: 50px; margin: 0; text-align: center;\">+</p>","response":null,"trial_type":"html-keyboard-response","trial_index":29,"plugin_version":"2.1.0","time_elapsed":170986,"subject_id":"86309","group":"Group2","date":"2025-09-14T19:53:50.206Z"},{"task":"memory_phase","broad_category":"I","image_png":"I_Obsidian_06.png","image_id":86,"category_name":"Obsidian","category":6,"distinct_rating":8.01,"rt":null,"stimulus":"Stimuli_Rocks480/I_Obsidian_06.png","response":null,"trial_type":"image-keyboard-response","trial_index":30,"plugin_version":"2.1.0","time_elapsed":173489,"subject_id":"86309","group":"Group2","date":"2025-09-14T19:53:50.206Z"},{"rt":null,"stimulus":"<p style=\"font-size: 50px; margin: 0; text-align: center;\">+</p>","response":null,"trial_type":"html-keyboard-response","trial_index":31,"plugin_version":"2.1.0","time_elapsed":174491,"subject_id":"86309","group":"Group2","date":"2025-09-14T19:53:50.206Z"},{"task":"memory_phase","broad_category":"S","image_png":"S_Shale_08.png","image_id":472,"category_name":"Shale","category":30,"distinct_rating":2.55,"rt":null,"stimulus":"Stimuli_Rocks480/S_Shale_08.png","response":null,"trial_type":"image-keyboard-response","trial_index":32,"plugin_version":"2.1.0","time_elapsed":176995,"subject_id":"86309","group":"Group2","date":"2025-09-14T19:53:50.206Z"},{"rt":null,"stimulus":"<p style=\"font-size: 50px; margin: 0; text-align: center;\">+</p>","response":null,"trial_type":"html-keyboard-response","trial_index":33,"plugin_version":"2.1.0","time_elapsed":177997,"subject_id":"86309","group":"Group2","date":"2025-09-14T19:53:50.206Z"},{"task":"memory_phase","broad_category":"M","image_png":"M_Schist_09.png","image_id":297,"category_name":"Schist","category":19,"distinct_rating":3.31,"rt":null,"stimulus":"Stimuli_Rocks480/M_Schist_09.png","response":null,"trial_type":"image-keyboard-response","trial_index":34,"plugin_version":"2.1.0","time_elapsed":180500,"subject_id":"86309","group":"Group2","date":"2025-09-14T19:53:50.206Z"},{"rt":null,"stimulus":"<p style=\"font-size: 50px; margin: 0; text-align: center;\">+</p>","response":null,"trial_type":"html-keyboard-response","trial_index":35,"plugin_version":"2.1.0","time_elapsed":181502,"subject_id":"86309","group":"Group2","date":"2025-09-14T19:53:50.206Z"},{"task":"memory_phase","broad_category":"S","image_png":"S_Bituminous Coal_04.png","image_id":324,"category_name":"Bituminous Coal","category":21,"distinct_rating":4.93,"rt":null,"stimulus":"Stimuli_Rocks480/S_Bituminous Coal_04.png","response":null,"trial_type":"image-keyboard-response","trial_index":36,"plugin_version":"2.1.0","time_elapsed":184005,"subject_id":"86309","group":"Group2","date":"2025-09-14T19:53:50.206Z"},{"rt":null,"stimulus":"<p style=\"font-size: 50px; margin: 0; text-align: center;\">+</p>","response":null,"trial_type":"html-keyboard-response","trial_index":37,"plugin_version":"2.1.0","time_elapsed":185007,"subject_id":"86309","group":"Group2","date":"2025-09-14T19:53:50.206Z"},{"task":"memory_phase","broad_category":"M","image_png":"M_Anthracite_10.png","image_id":186,"category_name":"Anthracite","category":12,"distinct_rating":5.19,"rt":null,"stimulus":"Stimuli_Rocks480/M_Anthracite_10.png","response":null,"trial_type":"image-keyboard-response","trial_index":38,"plugin_version":"2.1.0","time_elapsed":187510,"subject_id":"86309","group":"Group2","date":"2025-09-14T19:53:50.206Z"},{"rt":null,"stimulus":"<p style=\"font-size: 50px; margin: 0; text-align: center;\">+</p>","response":null,"trial_type":"html-keyboard-response","trial_index":39,"plugin_version":"2.1.0","time_elapsed":188512,"subject_id":"86309","group":"Group2","date":"2025-09-14T19:53:50.206Z"},{"task":"memory_phase","broad_category":"I","image_png":"I_Obsidian_14.png","image_id":94,"category_name":"Obsidian","category":6,"distinct_rating":5.17,"rt":null,"stimulus":"Stimuli_Rocks480/I_Obsidian_14.png","response":null,"trial_type":"image-keyboard-response","trial_index":40,"plugin_version":"2.1.0","time_elapsed":191016,"subject_id":"86309","group":"Group2","date":"2025-09-14T19:53:50.206Z"},{"rt":null,"stimulus":"<p style=\"font-size: 50px; margin: 0; text-align: center;\">+</p>","response":null,"trial_type":"html-keyboard-response","trial_index":41,"plugin_version":"2.1.0","time_elapsed":192018,"subject_id":"86309","group":"Group2","date":"2025-09-14T19:53:50.206Z"},{"task":"memory_phase","broad_category":"I","image_png":"I_Diorite_04.png","image_id":36,"category_name":"Diorite","category":3,"distinct_rating":2.98,"rt":null,"stimulus":"Stimuli_Rocks480/I_Diorite_04.png","response":null,"trial_type":"image-keyboard-response","trial_index":42,"plugin_version":"2.1.0","time_elapsed":194522,"subject_id":"86309","group":"Group2","date":"2025-09-14T19:53:50.206Z"},{"rt":null,"stimulus":"<p style=\"font-size: 50px; margin: 0; text-align: center;\">+</p>","response":null,"trial_type":"html-keyboard-response","trial_index":43,"plugin_version":"2.1.0","time_elapsed":195525,"subject_id":"86309","group":"Group2","date":"2025-09-14T19:53:50.206Z"},{"task":"memory_phase","broad_category":"M","image_png":"M_Hornfels_08.png","image_id":216,"category_name":"Hornfels","category":14,"distinct_rating":2.9,"rt":null,"stimulus":"Stimuli_Rocks480/M_Hornfels_08.png","response":null,"trial_type":"image-keyboard-response","trial_index":44,"plugin_version":"2.1.0","time_elapsed":198028,"subject_id":"86309","group":"Group2","date":"2025-09-14T19:53:50.206Z"},{"rt":null,"stimulus":"<p style=\"font-size: 50px; margin: 0; text-align: center;\">+</p>","response":null,"trial_type":"html-keyboard-response","trial_index":45,"plugin_version":"2.1.0","time_elapsed":199030,"subject_id":"86309","group":"Group2","date":"2025-09-14T19:53:50.206Z"},{"task":"memory_phase","broad_category":"S","image_png":"S_Rock Gypsum_14.png","image_id":430,"category_name":"Rock Gypsum","category":27,"distinct_rating":7.01,"rt":null,"stimulus":"Stimuli_Rocks480/S_Rock Gypsum_14.png","response":null,"trial_type":"image-keyboard-response","trial_index":46,"plugin_version":"2.1.0","time_elapsed":201533,"subject_id":"86309","group":"Group2","date":"2025-09-14T19:53:50.206Z"},{"rt":null,"stimulus":"<p style=\"font-size: 50px; margin: 0; text-align: center;\">+</p>","response":null,"trial_type":"html-keyboard-response","trial_index":47,"plugin_version":"2.1.0","time_elapsed":202535,"subject_id":"86309","group":"Group2","date":"2025-09-14T19:53:50.206Z"},{"task":"memory_phase","broad_category":"M","image_png":"M_Quartzite_02.png","image_id":274,"category_name":"Quartzite","category":18,"distinct_rating":2.52,"rt":null,"stimulus":"Stimuli_Rocks480/M_Quartzite_02.png","response":null,"trial_type":"image-keyboard-response","trial_index":48,"plugin_version":"2.1.0","time_elapsed":205038,"subject_id":"86309","group":"Group2","date":"2025-09-14T19:53:50.206Z"},{"rt":null,"stimulus":"<p style=\"font-size: 50px; margin: 0; text-align: center;\">+</p>","response":null,"trial_type":"html-keyboard-response","trial_index":49,"plugin_version":"2.1.0","time_elapsed":206041,"subject_id":"86309","group":"Group2","date":"2025-09-14T19:53:50.206Z"},{"task":"memory_phase","broad_category":"S","image_png":"S_Chert_03.png","image_id":355,"category_name":"Chert","category":23,"distinct_rating":5.3,"rt":null,"stimulus":"Stimuli_Rocks480/S_Chert_03.png","response":null,"trial_type":"image-keyboard-response","trial_index":50,"plugin_version":"2.1.0","time_elapsed":208544,"subject_id":"86309","group":"Group2","date":"2025-09-14T19:53:50.206Z"},{"rt":null,"stimulus":"<p style=\"font-size: 50px; margin: 0; text-align: center;\">+</p>","response":null,"trial_type":"html-keyboard-response","trial_index":51,"plugin_version":"2.1.0","time_elapsed":209546,"subject_id":"86309","group":"Group2","date":"2025-09-14T19:53:50.206Z"},{"task":"memory_phase","broad_category":"M","image_png":"M_Marble_05.png","image_id":229,"category_name":"Marble","category":15,"distinct_rating":4.1,"rt":null,"stimulus":"Stimuli_Rocks480/M_Marble_05.png","response":null,"trial_type":"image-keyboard-response","trial_index":52,"plugin_version":"2.1.0","time_elapsed":212050,"subject_id":"86309","group":"Group2","date":"2025-09-14T19:53:50.206Z"},{"rt":null,"stimulus":"<p style=\"font-size: 50px; margin: 0; text-align: center;\">+</p>","response":null,"trial_type":"html-keyboard-response","trial_index":53,"plugin_version":"2.1.0","time_elapsed":213052,"subject_id":"86309","group":"Group2","date":"2025-09-14T19:53:50.206Z"},{"task":"memory_phase","broad_category":"M","image_png":"M_Amphibolite_06.png","image_id":166,"category_name":"Amphibolite","category":11,"distinct_rating":2.8,"rt":null,"stimulus":"Stimuli_Rocks480/M_Amphibolite_06.png","response":null,"trial_type":"image-keyboard-response","trial_index":54,"plugin_version":"2.1.0","time_elapsed":215555,"subject_id":"86309","group":"Group2","date":"2025-09-14T19:53:50.206Z"},{"rt":null,"stimulus":"<p style=\"font-size: 50px; margin: 0; text-align: center;\">+</p>","response":null,"trial_type":"html-keyboard-response","trial_index":55,"plugin_version":"2.1.0","time_elapsed":216558,"subject_id":"86309","group":"Group2","date":"2025-09-14T19:53:50.206Z"},{"task":"memory_phase","broad_category":"I","image_png":"I_Pumice_16.png","image_id":144,"category_name":"Pumice","category":9,"distinct_rating":5.37,"rt":null,"stimulus":"Stimuli_Rocks480/I_Pumice_16.png","response":null,"trial_type":"image-keyboard-response","trial_index":56,"plugin_version":"2.1.0","time_elapsed":219061,"subject_id":"86309","group":"Group2","date":"2025-09-14T19:53:50.206Z"},{"rt":null,"stimulus":"<p style=\"font-size: 50px; margin: 0; text-align: center;\">+</p>","response":null,"trial_type":"html-keyboard-response","trial_index":57,"plugin_version":"2.1.0","time_elapsed":220064,"subject_id":"86309","group":"Group2","date":"2025-09-14T19:53:50.206Z"},{"task":"memory_phase","broad_category":"I","image_png":"I_Peridotite_13.png","image_id":125,"category_name":"Peridotite","category":8,"distinct_rating":7.28,"rt":null,"stimulus":"Stimuli_Rocks480/I_Peridotite_13.png","response":null,"trial_type":"image-keyboard-response","trial_index":58,"plugin_version":"2.1.0","time_elapsed":222567,"subject_id":"86309","group":"Group2","date":"2025-09-14T19:53:50.206Z"},{"rt":null,"stimulus":"<p style=\"font-size: 50px; margin: 0; text-align: center;\">+</p>","response":null,"trial_type":"html-keyboard-response","trial_index":59,"plugin_version":"2.1.0","time_elapsed":223569,"subject_id":"86309","group":"Group2","date":"2025-09-14T19:53:50.206Z"},{"task":"memory_phase","broad_category":"S","image_png":"S_Dolomite_16.png","image_id":400,"category_name":"Dolomite","category":25,"distinct_rating":1.71,"rt":null,"stimulus":"Stimuli_Rocks480/S_Dolomite_16.png","response":null,"trial_type":"image-keyboard-response","trial_index":60,"plugin_version":"2.1.0","time_elapsed":226072,"subject_id":"86309","group":"Group2","date":"2025-09-14T19:53:50.206Z"},{"rt":null,"stimulus":"<p style=\"font-size: 50px; margin: 0; text-align: center;\">+</p>","response":null,"trial_type":"html-keyboard-response","trial_index":61,"plugin_version":"2.1.0","time_elapsed":227075,"subject_id":"86309","group":"Group2","date":"2025-09-14T19:53:50.206Z"},{"task":"memory_phase","broad_category":"S","image_png":"S_Micrite_14.png","image_id":414,"category_name":"Micrite","category":26,"distinct_rating":2.42,"rt":null,"stimulus":"Stimuli_Rocks480/S_Micrite_14.png","response":null,"trial_type":"image-keyboard-response","trial_index":62,"plugin_version":"2.1.0","time_elapsed":229578,"subject_id":"86309","group":"Group2","date":"2025-09-14T19:53:50.206Z"},{"rt":null,"stimulus":"<p style=\"font-size: 50px; margin: 0; text-align: center;\">+</p>","response":null,"trial_type":"html-keyboard-response","trial_index":63,"plugin_version":"2.1.0","time_elapsed":230580,"subject_id":"86309","group":"Group2","date":"2025-09-14T19:53:50.206Z"},{"task":"memory_phase","broad_category":"I","image_png":"I_Rhyolite_04.png","image_id":148,"category_name":"Rhyolite","category":10,"distinct_rating":3.73,"rt":null,"stimulus":"Stimuli_Rocks480/I_Rhyolite_04.png","response":null,"trial_type":"image-keyboard-response","trial_index":64,"plugin_version":"2.1.0","time_elapsed":233084,"subject_id":"86309","group":"Group2","date":"2025-09-14T19:53:50.206Z"},{"rt":null,"stimulus":"<p style=\"font-size: 50px; margin: 0; text-align: center;\">+</p>","response":null,"trial_type":"html-keyboard-response","trial_index":65,"plugin_version":"2.1.0","time_elapsed":234087,"subject_id":"86309","group":"Group2","date":"2025-09-14T19:53:50.206Z"},{"task":"memory_phase","broad_category":"I","image_png":"I_Basalt_11.png","image_id":27,"category_name":"Basalt","category":2,"distinct_rating":3.11,"rt":null,"stimulus":"Stimuli_Rocks480/I_Basalt_11.png","response":null,"trial_type":"image-keyboard-response","trial_index":66,"plugin_version":"2.1.0","time_elapsed":236590,"subject_id":"86309","group":"Group2","date":"2025-09-14T19:53:50.206Z"},{"rt":null,"stimulus":"<p style=\"font-size: 50px; margin: 0; text-align: center;\">+</p>","response":null,"trial_type":"html-keyboard-response","trial_index":67,"plugin_version":"2.1.0","time_elapsed":237592,"subject_id":"86309","group":"Group2","date":"2025-09-14T19:53:50.206Z"},{"task":"memory_phase","broad_category":"S","image_png":"S_Micrite_12.png","image_id":412,"category_name":"Micrite","category":26,"distinct_rating":3.14,"rt":null,"stimulus":"Stimuli_Rocks480/S_Micrite_12.png","response":null,"trial_type":"image-keyboard-response","trial_index":68,"plugin_version":"2.1.0","time_elapsed":240096,"subject_id":"86309","group":"Group2","date":"2025-09-14T19:53:50.206Z"},{"rt":null,"stimulus":"<p style=\"font-size: 50px; margin: 0; text-align: center;\">+</p>","response":null,"trial_type":"html-keyboard-response","trial_index":69,"plugin_version":"2.1.0","time_elapsed":241098,"subject_id":"86309","group":"Group2","date":"2025-09-14T19:53:50.206Z"},{"task":"memory_phase","broad_category":"M","image_png":"M_Slate_02.png","image_id":306,"category_name":"Slate","category":20,"distinct_rating":2.88,"rt":null,"stimulus":"Stimuli_Rocks480/M_Slate_02.png","response":null,"trial_type":"image-keyboard-response","trial_index":70,"plugin_version":"2.1.0","time_elapsed":243601,"subject_id":"86309","group":"Group2","date":"2025-09-14T19:53:50.206Z"},{"rt":null,"stimulus":"<p style=\"font-size: 50px; margin: 0; text-align: center;\">+</p>","response":null,"trial_type":"html-keyboard-response","trial_index":71,"plugin_version":"2.1.0","time_elapsed":244604,"subject_id":"86309","group":"Group2","date":"2025-09-14T19:53:50.206Z"},{"task":"memory_phase","broad_category":"S","image_png":"S_Shale_06.png","image_id":470,"category_name":"Shale","category":30,"distinct_rating":4.11,"rt":null,"stimulus":"Stimuli_Rocks480/S_Shale_06.png","response":null,"trial_type":"image-keyboard-response","trial_index":72,"plugin_version":"2.1.0","time_elapsed":247107,"subject_id":"86309","group":"Group2","date":"2025-09-14T19:53:50.206Z"},{"rt":null,"stimulus":"<p style=\"font-size: 50px; margin: 0; text-align: center;\">+</p>","response":null,"trial_type":"html-keyboard-response","trial_index":73,"plugin_version":"2.1.0","time_elapsed":248109,"subject_id":"86309","group":"Group2","date":"2025-09-14T19:53:50.206Z"},{"task":"memory_phase","broad_category":"I","image_png":"I_Rhyolite_06.png","image_id":150,"category_name":"Rhyolite","category":10,"distinct_rating":5,"rt":null,"stimulus":"Stimuli_Rocks480/I_Rhyolite_06.png","response":null,"trial_type":"image-keyboard-response","trial_index":74,"plugin_version":"2.1.0","time_elapsed":250612,"subject_id":"86309","group":"Group2","date":"2025-09-14T19:53:50.206Z"},{"rt":null,"stimulus":"<p style=\"font-size: 50px; margin: 0; text-align: center;\">+</p>","response":null,"trial_type":"html-keyboard-response","trial_index":75,"plugin_version":"2.1.0","time_elapsed":251614,"subject_id":"86309","group":"Group2","date":"2025-09-14T19:53:50.206Z"},{"task":"memory_phase","broad_category":"M","image_png":"M_Hornfels_14.png","image_id":222,"category_name":"Hornfels","category":14,"distinct_rating":2.3,"rt":null,"stimulus":"Stimuli_Rocks480/M_Hornfels_14.png","response":null,"trial_type":"image-keyboard-response","trial_index":76,"plugin_version":"2.1.0","time_elapsed":254117,"subject_id":"86309","group":"Group2","date":"2025-09-14T19:53:50.206Z"},{"rt":null,"stimulus":"<p style=\"font-size: 50px; margin: 0; text-align: center;\">+</p>","response":null,"trial_type":"html-keyboard-response","trial_index":77,"plugin_version":"2.1.0","time_elapsed":255119,"subject_id":"86309","group":"Group2","date":"2025-09-14T19:53:50.206Z"},{"task":"memory_phase","broad_category":"S","image_png":"S_Sandstone_07.png","image_id":455,"category_name":"Sandstone","category":29,"distinct_rating":5.02,"rt":null,"stimulus":"Stimuli_Rocks480/S_Sandstone_07.png","response":null,"trial_type":"image-keyboard-response","trial_index":78,"plugin_version":"2.1.0","time_elapsed":257623,"subject_id":"86309","group":"Group2","date":"2025-09-14T19:53:50.206Z"},{"rt":null,"stimulus":"<p style=\"font-size: 50px; margin: 0; text-align: center;\">+</p>","response":null,"trial_type":"html-keyboard-response","trial_index":79,"plugin_version":"2.1.0","time_elapsed":258625,"subject_id":"86309","group":"Group2","date":"2025-09-14T19:53:50.206Z"},{"task":"memory_phase","broad_category":"S","image_png":"S_Breccia_05.png","image_id":341,"category_name":"Breccia","category":22,"distinct_rating":6.25,"rt":null,"stimulus":"Stimuli_Rocks480/S_Breccia_05.png","response":null,"trial_type":"image-keyboard-response","trial_index":80,"plugin_version":"2.1.0","time_elapsed":261128,"subject_id":"86309","group":"Group2","date":"2025-09-14T19:53:50.206Z"},{"rt":null,"stimulus":"<p style=\"font-size: 50px; margin: 0; text-align: center;\">+</p>","response":null,"trial_type":"html-keyboard-response","trial_index":81,"plugin_version":"2.1.0","time_elapsed":262131,"subject_id":"86309","group":"Group2","date":"2025-09-14T19:53:50.206Z"},{"task":"memory_phase","broad_category":"S","image_png":"S_Rock Salt_04.png","image_id":436,"category_name":"Rock Salt","category":28,"distinct_rating":7.89,"rt":null,"stimulus":"Stimuli_Rocks480/S_Rock Salt_04.png","response":null,"trial_type":"image-keyboard-response","trial_index":82,"plugin_version":"2.1.0","time_elapsed":264634,"subject_id":"86309","group":"Group2","date":"2025-09-14T19:53:50.206Z"},{"rt":null,"stimulus":"<p style=\"font-size: 50px; margin: 0; text-align: center;\">+</p>","response":null,"trial_type":"html-keyboard-response","trial_index":83,"plugin_version":"2.1.0","time_elapsed":265636,"subject_id":"86309","group":"Group2","date":"2025-09-14T19:53:50.206Z"},{"task":"memory_phase","broad_category":"S","image_png":"S_Chert_02.png","image_id":354,"category_name":"Chert","category":23,"distinct_rating":3.81,"rt":null,"stimulus":"Stimuli_Rocks480/S_Chert_02.png","response":null,"trial_type":"image-keyboard-response","trial_index":84,"plugin_version":"2.1.0","time_elapsed":268140,"subject_id":"86309","group":"Group2","date":"2025-09-14T19:53:50.206Z"},{"rt":null,"stimulus":"<p style=\"font-size: 50px; margin: 0; text-align: center;\">+</p>","response":null,"trial_type":"html-keyboard-response","trial_index":85,"plugin_version":"2.1.0","time_elapsed":269143,"subject_id":"86309","group":"Group2","date":"2025-09-14T19:53:50.206Z"},{"task":"memory_phase","broad_category":"S","image_png":"S_Chert_11.png","image_id":363,"category_name":"Chert","category":23,"distinct_rating":7.12,"rt":null,"stimulus":"Stimuli_Rocks480/S_Chert_11.png","response":null,"trial_type":"image-keyboard-response","trial_index":86,"plugin_version":"2.1.0","time_elapsed":271646,"subject_id":"86309","group":"Group2","date":"2025-09-14T19:53:50.206Z"},{"rt":null,"stimulus":"<p style=\"font-size: 50px; margin: 0; text-align: center;\">+</p>","response":null,"trial_type":"html-keyboard-response","trial_index":87,"plugin_version":"2.1.0","time_elapsed":272649,"subject_id":"86309","group":"Group2","date":"2025-09-14T19:53:50.206Z"},{"task":"memory_phase","broad_category":"S","image_png":"S_Chert_14.png","image_id":366,"category_name":"Chert","category":23,"distinct_rating":4.5,"rt":null,"stimulus":"Stimuli_Rocks480/S_Chert_14.png","response":null,"trial_type":"image-keyboard-response","trial_index":88,"plugin_version":"2.1.0","time_elapsed":275153,"subject_id":"86309","group":"Group2","date":"2025-09-14T19:53:50.206Z"},{"rt":null,"stimulus":"<p style=\"font-size: 50px; margin: 0; text-align: center;\">+</p>","response":null,"trial_type":"html-keyboard-response","trial_index":89,"plugin_version":"2.1.0","time_elapsed":276155,"subject_id":"86309","group":"Group2","date":"2025-09-14T19:53:50.206Z"},{"task":"memory_phase","broad_category":"M","image_png":"M_Anthracite_05.png","image_id":181,"category_name":"Anthracite","category":12,"distinct_rating":4.71,"rt":null,"stimulus":"Stimuli_Rocks480/M_Anthracite_05.png","response":null,"trial_type":"image-keyboard-response","trial_index":90,"plugin_version":"2.1.0","time_elapsed":278658,"subject_id":"86309","group":"Group2","date":"2025-09-14T19:53:50.206Z"},{"rt":null,"stimulus":"<p style=\"font-size: 50px; margin: 0; text-align: center;\">+</p>","response":null,"trial_type":"html-keyboard-response","trial_index":91,"plugin_version":"2.1.0","time_elapsed":279660,"subject_id":"86309","group":"Group2","date":"2025-09-14T19:53:50.206Z"},{"task":"memory_phase","broad_category":"S","image_png":"S_Bituminous Coal_11.png","image_id":331,"category_name":"Bituminous Coal","category":21,"distinct_rating":3.71,"rt":null,"stimulus":"Stimuli_Rocks480/S_Bituminous Coal_11.png","response":null,"trial_type":"image-keyboard-response","trial_index":92,"plugin_version":"2.1.0","time_elapsed":282163,"subject_id":"86309","group":"Group2","date":"2025-09-14T19:53:50.206Z"},{"rt":null,"stimulus":"<p style=\"font-size: 50px; margin: 0; text-align: center;\">+</p>","response":null,"trial_type":"html-keyboard-response","trial_index":93,"plugin_version":"2.1.0","time_elapsed":283165,"subject_id":"86309","group":"Group2","date":"2025-09-14T19:53:50.206Z"},{"task":"memory_phase","broad_category":"M","image_png":"M_Migmatite_09.png","image_id":249,"category_name":"Migmatite","category":16,"distinct_rating":3.84,"rt":null,"stimulus":"Stimuli_Rocks480/M_Migmatite_09.png","response":null,"trial_type":"image-keyboard-response","trial_index":94,"plugin_version":"2.1.0","time_elapsed":285668,"subject_id":"86309","group":"Group2","date":"2025-09-14T19:53:50.206Z"},{"rt":null,"stimulus":"<p style=\"font-size: 50px; margin: 0; text-align: center;\">+</p>","response":null,"trial_type":"html-keyboard-response","trial_index":95,"plugin_version":"2.1.0","time_elapsed":286671,"subject_id":"86309","group":"Group2","date":"2025-09-14T19:53:50.206Z"},{"task":"memory_phase","broad_category":"S","image_png":"S_Sandstone_10.png","image_id":458,"category_name":"Sandstone","category":29,"distinct_rating":2.05,"rt":null,"stimulus":"Stimuli_Rocks480/S_Sandstone_10.png","response":null,"trial_type":"image-keyboard-response","trial_index":96,"plugin_version":"2.1.0","time_elapsed":289174,"subject_id":"86309","group":"Group2","date":"2025-09-14T19:53:50.206Z"},{"rt":null,"stimulus":"<p style=\"font-size: 50px; margin: 0; text-align: center;\">+</p>","response":null,"trial_type":"html-keyboard-response","trial_index":97,"plugin_version":"2.1.0","time_elapsed":290176,"subject_id":"86309","group":"Group2","date":"2025-09-14T19:53:50.206Z"},{"task":"memory_phase","broad_category":"S","image_png":"S_Dolomite_04.png","image_id":388,"category_name":"Dolomite","category":25,"distinct_rating":1.93,"rt":null,"stimulus":"Stimuli_Rocks480/S_Dolomite_04.png","response":null,"trial_type":"image-keyboard-response","trial_index":98,"plugin_version":"2.1.0","time_elapsed":292684,"subject_id":"86309","group":"Group2","date":"2025-09-14T19:53:50.206Z"},{"rt":null,"stimulus":"<p style=\"font-size: 50px; margin: 0; text-align: center;\">+</p>","response":null,"trial_type":"html-keyboard-response","trial_index":99,"plugin_version":"2.1.0","time_elapsed":293686,"subject_id":"86309","group":"Group2","date":"2025-09-14T19:53:50.206Z"},{"task":"memory_phase","broad_category":"S","image_png":"S_Rock Gypsum_08.png","image_id":424,"category_name":"Rock Gypsum","category":27,"distinct_rating":5.57,"rt":null,"stimulus":"Stimuli_Rocks480/S_Rock Gypsum_08.png","response":null,"trial_type":"image-keyboard-response","trial_index":100,"plugin_version":"2.1.0","time_elapsed":296189,"subject_id":"86309","group":"Group2","date":"2025-09-14T19:53:50.206Z"},{"rt":4009,"stimulus":"<p style=\"font-size: 35px;\">Press SPACE to continue study phase</p>","response":" ","trial_type":"html-keyboard-response","trial_index":101,"plugin_version":"2.1.0","time_elapsed":300199,"subject_id":"86309","group":"Group2","date":"2025-09-14T19:53:50.206Z"},{"rt":null,"stimulus":"<p style=\"font-size: 50px; margin: 0; text-align: center;\">+</p>","response":null,"trial_type":"html-keyboard-response","trial_index":102,"plugin_version":"2.1.0","time_elapsed":301202,"subject_id":"86309","group":"Group2","date":"2025-09-14T19:53:50.206Z"},{"task":"memory_phase","broad_category":"S","image_png":"S_Bituminous Coal_16.png","image_id":336,"category_name":"Bituminous Coal","category":21,"distinct_rating":4.3,"rt":null,"stimulus":"Stimuli_Rocks480/S_Bituminous Coal_16.png","response":null,"trial_type":"image-keyboard-response","trial_index":103,"plugin_version":"2.1.0","time_elapsed":303705,"subject_id":"86309","group":"Group2","date":"2025-09-14T19:53:50.206Z"},{"rt":null,"stimulus":"<p style=\"font-size: 50px; margin: 0; text-align: center;\">+</p>","response":null,"trial_type":"html-keyboard-response","trial_index":104,"plugin_version":"2.1.0","time_elapsed":304707,"subject_id":"86309","group":"Group2","date":"2025-09-14T19:53:50.206Z"},{"task":"memory_phase","broad_category":"M","image_png":"M_Slate_09.png","image_id":313,"category_name":"Slate","category":20,"distinct_rating":3.6,"rt":null,"stimulus":"Stimuli_Rocks480/M_Slate_09.png","response":null,"trial_type":"image-keyboard-response","trial_index":105,"plugin_version":"2.1.0","time_elapsed":307210,"subject_id":"86309","group":"Group2","date":"2025-09-14T19:53:50.206Z"},{"rt":null,"stimulus":"<p style=\"font-size: 50px; margin: 0; text-align: center;\">+</p>","response":null,"trial_type":"html-keyboard-response","trial_index":106,"plugin_version":"2.1.0","time_elapsed":308212,"subject_id":"86309","group":"Group2","date":"2025-09-14T19:53:50.206Z"},{"task":"memory_phase","broad_category":"S","image_png":"S_Rock Salt_02.png","image_id":434,"category_name":"Rock Salt","category":28,"distinct_rating":5.13,"rt":null,"stimulus":"Stimuli_Rocks480/S_Rock Salt_02.png","response":null,"trial_type":"image-keyboard-response","trial_index":107,"plugin_version":"2.1.0","time_elapsed":310715,"subject_id":"86309","group":"Group2","date":"2025-09-14T19:53:50.206Z"},{"rt":null,"stimulus":"<p style=\"font-size: 50px; margin: 0; text-align: center;\">+</p>","response":null,"trial_type":"html-keyboard-response","trial_index":108,"plugin_version":"2.1.0","time_elapsed":311718,"subject_id":"86309","group":"Group2","date":"2025-09-14T19:53:50.206Z"},{"task":"memory_phase","broad_category":"I","image_png":"I_Basalt_05.png","image_id":21,"category_name":"Basalt","category":2,"distinct_rating":2.55,"rt":null,"stimulus":"Stimuli_Rocks480/I_Basalt_05.png","response":null,"trial_type":"image-keyboard-response","trial_index":109,"plugin_version":"2.1.0","time_elapsed":314221,"subject_id":"86309","group":"Group2","date":"2025-09-14T19:53:50.206Z"},{"rt":null,"stimulus":"<p style=\"font-size: 50px; margin: 0; text-align: center;\">+</p>","response":null,"trial_type":"html-keyboard-response","trial_index":110,"plugin_version":"2.1.0","time_elapsed":315223,"subject_id":"86309","group":"Group2","date":"2025-09-14T19:53:50.206Z"},{"task":"memory_phase","broad_category":"I","image_png":"I_Pumice_06.png","image_id":134,"category_name":"Pumice","category":9,"distinct_rating":4.16,"rt":null,"stimulus":"Stimuli_Rocks480/I_Pumice_06.png","response":null,"trial_type":"image-keyboard-response","trial_index":111,"plugin_version":"2.1.0","time_elapsed":317727,"subject_id":"86309","group":"Group2","date":"2025-09-14T19:53:50.206Z"},{"rt":null,"stimulus":"<p style=\"font-size: 50px; margin: 0; text-align: center;\">+</p>","response":null,"trial_type":"html-keyboard-response","trial_index":112,"plugin_version":"2.1.0","time_elapsed":318730,"subject_id":"86309","group":"Group2","date":"2025-09-14T19:53:50.206Z"},{"task":"memory_phase","broad_category":"I","image_png":"I_Rhyolite_14.png","image_id":158,"category_name":"Rhyolite","category":10,"distinct_rating":2.59,"rt":null,"stimulus":"Stimuli_Rocks480/I_Rhyolite_14.png","response":null,"trial_type":"image-keyboard-response","trial_index":113,"plugin_version":"2.1.0","time_elapsed":321233,"subject_id":"86309","group":"Group2","date":"2025-09-14T19:53:50.206Z"},{"rt":null,"stimulus":"<p style=\"font-size: 50px; margin: 0; text-align: center;\">+</p>","response":null,"trial_type":"html-keyboard-response","trial_index":114,"plugin_version":"2.1.0","time_elapsed":322236,"subject_id":"86309","group":"Group2","date":"2025-09-14T19:53:50.206Z"},{"task":"memory_phase","broad_category":"M","image_png":"M_Gneiss_08.png","image_id":200,"category_name":"Gneiss","category":13,"distinct_rating":3.69,"rt":null,"stimulus":"Stimuli_Rocks480/M_Gneiss_08.png","response":null,"trial_type":"image-keyboard-response","trial_index":115,"plugin_version":"2.1.0","time_elapsed":324739,"subject_id":"86309","group":"Group2","date":"2025-09-14T19:53:50.206Z"},{"rt":null,"stimulus":"<p style=\"font-size: 50px; margin: 0; text-align: center;\">+</p>","response":null,"trial_type":"html-keyboard-response","trial_index":116,"plugin_version":"2.1.0","time_elapsed":325742,"subject_id":"86309","group":"Group2","date":"2025-09-14T19:53:50.206Z"},{"task":"memory_phase","broad_category":"S","image_png":"S_Rock Salt_01.png","image_id":433,"category_name":"Rock Salt","category":28,"distinct_rating":7.18,"rt":null,"stimulus":"Stimuli_Rocks480/S_Rock Salt_01.png","response":null,"trial_type":"image-keyboard-response","trial_index":117,"plugin_version":"2.1.0","time_elapsed":328245,"subject_id":"86309","group":"Group2","date":"2025-09-14T19:53:50.206Z"},{"rt":null,"stimulus":"<p style=\"font-size: 50px; margin: 0; text-align: center;\">+</p>","response":null,"trial_type":"html-keyboard-response","trial_index":118,"plugin_version":"2.1.0","time_elapsed":329247,"subject_id":"86309","group":"Group2","date":"2025-09-14T19:53:50.206Z"},{"task":"memory_phase","broad_category":"S","image_png":"S_Conglomerate_13.png","image_id":381,"category_name":"Conglomerate","category":24,"distinct_rating":6.48,"rt":null,"stimulus":"Stimuli_Rocks480/S_Conglomerate_13.png","response":null,"trial_type":"image-keyboard-response","trial_index":119,"plugin_version":"2.1.0","time_elapsed":331750,"subject_id":"86309","group":"Group2","date":"2025-09-14T19:53:50.206Z"},{"rt":null,"stimulus":"<p style=\"font-size: 50px; margin: 0; text-align: center;\">+</p>","response":null,"trial_type":"html-keyboard-response","trial_index":120,"plugin_version":"2.1.0","time_elapsed":332752,"subject_id":"86309","group":"Group2","date":"2025-09-14T19:53:50.206Z"},{"task":"memory_phase","broad_category":"M","image_png":"M_Migmatite_15.png","image_id":255,"category_name":"Migmatite","category":16,"distinct_rating":5.37,"rt":null,"stimulus":"Stimuli_Rocks480/M_Migmatite_15.png","response":null,"trial_type":"image-keyboard-response","trial_index":121,"plugin_version":"2.1.0","time_elapsed":335256,"subject_id":"86309","group":"Group2","date":"2025-09-14T19:53:50.206Z"},{"rt":null,"stimulus":"<p style=\"font-size: 50px; margin: 0; text-align: center;\">+</p>","response":null,"trial_type":"html-keyboard-response","trial_index":122,"plugin_version":"2.1.0","time_elapsed":336258,"subject_id":"86309","group":"Group2","date":"2025-09-14T19:53:50.206Z"},{"task":"memory_phase","broad_category":"I","image_png":"I_Diorite_09.png","image_id":41,"category_name":"Diorite","category":3,"distinct_rating":4.38,"rt":null,"stimulus":"Stimuli_Rocks480/I_Diorite_09.png","response":null,"trial_type":"image-keyboard-response","trial_index":123,"plugin_version":"2.1.0","time_elapsed":338761,"subject_id":"86309","group":"Group2","date":"2025-09-14T19:53:50.206Z"},{"rt":null,"stimulus":"<p style=\"font-size: 50px; margin: 0; text-align: center;\">+</p>","response":null,"trial_type":"html-keyboard-response","trial_index":124,"plugin_version":"2.1.0","time_elapsed":339764,"subject_id":"86309","group":"Group2","date":"2025-09-14T19:53:50.206Z"},{"task":"memory_phase","broad_category":"S","image_png":"S_Bituminous Coal_06.png","image_id":326,"category_name":"Bituminous Coal","category":21,"distinct_rating":3.4,"rt":null,"stimulus":"Stimuli_Rocks480/S_Bituminous Coal_06.png","response":null,"trial_type":"image-keyboard-response","trial_index":125,"plugin_version":"2.1.0","time_elapsed":342267,"subject_id":"86309","group":"Group2","date":"2025-09-14T19:53:50.206Z"},{"rt":null,"stimulus":"<p style=\"font-size: 50px; margin: 0; text-align: center;\">+</p>","response":null,"trial_type":"html-keyboard-response","trial_index":126,"plugin_version":"2.1.0","time_elapsed":343270,"subject_id":"86309","group":"Group2","date":"2025-09-14T19:53:50.206Z"},{"task":"memory_phase","broad_category":"I","image_png":"I_Pumice_08.png","image_id":136,"category_name":"Pumice","category":9,"distinct_rating":3.1,"rt":null,"stimulus":"Stimuli_Rocks480/I_Pumice_08.png","response":null,"trial_type":"image-keyboard-response","trial_index":127,"plugin_version":"2.1.0","time_elapsed":345773,"subject_id":"86309","group":"Group2","date":"2025-09-14T19:53:50.206Z"},{"rt":null,"stimulus":"<p style=\"font-size: 50px; margin: 0; text-align: center;\">+</p>","response":null,"trial_type":"html-keyboard-response","trial_index":128,"plugin_version":"2.1.0","time_elapsed":346776,"subject_id":"86309","group":"Group2","date":"2025-09-14T19:53:50.206Z"},{"task":"memory_phase","broad_category":"I","image_png":"I_Basalt_12.png","image_id":28,"category_name":"Basalt","category":2,"distinct_rating":4.08,"rt":null,"stimulus":"Stimuli_Rocks480/I_Basalt_12.png","response":null,"trial_type":"image-keyboard-response","trial_index":129,"plugin_version":"2.1.0","time_elapsed":349279,"subject_id":"86309","group":"Group2","date":"2025-09-14T19:53:50.206Z"},{"rt":null,"stimulus":"<p style=\"font-size: 50px; margin: 0; text-align: center;\">+</p>","response":null,"trial_type":"html-keyboard-response","trial_index":130,"plugin_version":"2.1.0","time_elapsed":350281,"subject_id":"86309","group":"Group2","date":"2025-09-14T19:53:50.206Z"},{"task":"memory_phase","broad_category":"M","image_png":"M_Marble_07.png","image_id":231,"category_name":"Marble","category":15,"distinct_rating":3.77,"rt":null,"stimulus":"Stimuli_Rocks480/M_Marble_07.png","response":null,"trial_type":"image-keyboard-response","trial_index":131,"plugin_version":"2.1.0","time_elapsed":352785,"subject_id":"86309","group":"Group2","date":"2025-09-14T19:53:50.206Z"},{"rt":null,"stimulus":"<p style=\"font-size: 50px; margin: 0; text-align: center;\">+</p>","response":null,"trial_type":"html-keyboard-response","trial_index":132,"plugin_version":"2.1.0","time_elapsed":353787,"subject_id":"86309","group":"Group2","date":"2025-09-14T19:53:50.206Z"},{"task":"memory_phase","broad_category":"S","image_png":"S_Rock Gypsum_05.png","image_id":421,"category_name":"Rock Gypsum","category":27,"distinct_rating":3.48,"rt":null,"stimulus":"Stimuli_Rocks480/S_Rock Gypsum_05.png","response":null,"trial_type":"image-keyboard-response","trial_index":133,"plugin_version":"2.1.0","time_elapsed":356291,"subject_id":"86309","group":"Group2","date":"2025-09-14T19:53:50.206Z"},{"rt":null,"stimulus":"<p style=\"font-size: 50px; margin: 0; text-align: center;\">+</p>","response":null,"trial_type":"html-keyboard-response","trial_index":134,"plugin_version":"2.1.0","time_elapsed":357293,"subject_id":"86309","group":"Group2","date":"2025-09-14T19:53:50.206Z"},{"task":"memory_phase","broad_category":"I","image_png":"I_Diorite_02.png","image_id":34,"category_name":"Diorite","category":3,"distinct_rating":4.9,"rt":null,"stimulus":"Stimuli_Rocks480/I_Diorite_02.png","response":null,"trial_type":"image-keyboard-response","trial_index":135,"plugin_version":"2.1.0","time_elapsed":359796,"subject_id":"86309","group":"Group2","date":"2025-09-14T19:53:50.206Z"},{"rt":null,"stimulus":"<p style=\"font-size: 50px; margin: 0; text-align: center;\">+</p>","response":null,"trial_type":"html-keyboard-response","trial_index":136,"plugin_version":"2.1.0","time_elapsed":360799,"subject_id":"86309","group":"Group2","date":"2025-09-14T19:53:50.206Z"},{"task":"memory_phase","broad_category":"S","image_png":"S_Sandstone_11.png","image_id":459,"category_name":"Sandstone","category":29,"distinct_rating":1.82,"rt":null,"stimulus":"Stimuli_Rocks480/S_Sandstone_11.png","response":null,"trial_type":"image-keyboard-response","trial_index":137,"plugin_version":"2.1.0","time_elapsed":363302,"subject_id":"86309","group":"Group2","date":"2025-09-14T19:53:50.206Z"},{"rt":null,"stimulus":"<p style=\"font-size: 50px; margin: 0; text-align: center;\">+</p>","response":null,"trial_type":"html-keyboard-response","trial_index":138,"plugin_version":"2.1.0","time_elapsed":364305,"subject_id":"86309","group":"Group2","date":"2025-09-14T19:53:50.206Z"},{"task":"memory_phase","broad_category":"M","image_png":"M_Marble_08.png","image_id":232,"category_name":"Marble","category":15,"distinct_rating":4.35,"rt":null,"stimulus":"Stimuli_Rocks480/M_Marble_08.png","response":null,"trial_type":"image-keyboard-response","trial_index":139,"plugin_version":"2.1.0","time_elapsed":366808,"subject_id":"86309","group":"Group2","date":"2025-09-14T19:53:50.206Z"},{"rt":null,"stimulus":"<p style=\"font-size: 50px; margin: 0; text-align: center;\">+</p>","response":null,"trial_type":"html-keyboard-response","trial_index":140,"plugin_version":"2.1.0","time_elapsed":367811,"subject_id":"86309","group":"Group2","date":"2025-09-14T19:53:50.206Z"},{"task":"memory_phase","broad_category":"M","image_png":"M_Slate_15.png","image_id":319,"category_name":"Slate","category":20,"distinct_rating":2.13,"rt":null,"stimulus":"Stimuli_Rocks480/M_Slate_15.png","response":null,"trial_type":"image-keyboard-response","trial_index":141,"plugin_version":"2.1.0","time_elapsed":370314,"subject_id":"86309","group":"Group2","date":"2025-09-14T19:53:50.206Z"},{"rt":null,"stimulus":"<p style=\"font-size: 50px; margin: 0; text-align: center;\">+</p>","response":null,"trial_type":"html-keyboard-response","trial_index":142,"plugin_version":"2.1.0","time_elapsed":371317,"subject_id":"86309","group":"Group2","date":"2025-09-14T19:53:50.206Z"},{"task":"memory_phase","broad_category":"I","image_png":"I_Gabbro_06.png","image_id":54,"category_name":"Gabbro","category":4,"distinct_rating":3.26,"rt":null,"stimulus":"Stimuli_Rocks480/I_Gabbro_06.png","response":null,"trial_type":"image-keyboard-response","trial_index":143,"plugin_version":"2.1.0","time_elapsed":373820,"subject_id":"86309","group":"Group2","date":"2025-09-14T19:53:50.206Z"},{"rt":null,"stimulus":"<p style=\"font-size: 50px; margin: 0; text-align: center;\">+</p>","response":null,"trial_type":"html-keyboard-response","trial_index":144,"plugin_version":"2.1.0","time_elapsed":374822,"subject_id":"86309","group":"Group2","date":"2025-09-14T19:53:50.206Z"},{"task":"memory_phase","broad_category":"M","image_png":"M_Gneiss_14.png","image_id":206,"category_name":"Gneiss","category":13,"distinct_rating":3.41,"rt":null,"stimulus":"Stimuli_Rocks480/M_Gneiss_14.png","response":null,"trial_type":"image-keyboard-response","trial_index":145,"plugin_version":"2.1.0","time_elapsed":377326,"subject_id":"86309","group":"Group2","date":"2025-09-14T19:53:50.206Z"},{"rt":null,"stimulus":"<p style=\"font-size: 50px; margin: 0; text-align: center;\">+</p>","response":null,"trial_type":"html-keyboard-response","trial_index":146,"plugin_version":"2.1.0","time_elapsed":378328,"subject_id":"86309","group":"Group2","date":"2025-09-14T19:53:50.206Z"},{"task":"memory_phase","broad_category":"M","image_png":"M_Amphibolite_12.png","image_id":172,"category_name":"Amphibolite","category":11,"distinct_rating":5.62,"rt":null,"stimulus":"Stimuli_Rocks480/M_Amphibolite_12.png","response":null,"trial_type":"image-keyboard-response","trial_index":147,"plugin_version":"2.1.0","time_elapsed":380832,"subject_id":"86309","group":"Group2","date":"2025-09-14T19:53:50.206Z"},{"rt":null,"stimulus":"<p style=\"font-size: 50px; margin: 0; text-align: center;\">+</p>","response":null,"trial_type":"html-keyboard-response","trial_index":148,"plugin_version":"2.1.0","time_elapsed":381835,"subject_id":"86309","group":"Group2","date":"2025-09-14T19:53:50.206Z"},{"task":"memory_phase","broad_category":"S","image_png":"S_Shale_03.png","image_id":467,"category_name":"Shale","category":30,"distinct_rating":1.95,"rt":null,"stimulus":"Stimuli_Rocks480/S_Shale_03.png","response":null,"trial_type":"image-keyboard-response","trial_index":149,"plugin_version":"2.1.0","time_elapsed":384338,"subject_id":"86309","group":"Group2","date":"2025-09-14T19:53:50.206Z"},{"rt":null,"stimulus":"<p style=\"font-size: 50px; margin: 0; text-align: center;\">+</p>","response":null,"trial_type":"html-keyboard-response","trial_index":150,"plugin_version":"2.1.0","time_elapsed":385340,"subject_id":"86309","group":"Group2","date":"2025-09-14T19:53:50.206Z"},{"task":"memory_phase","broad_category":"S","image_png":"S_Shale_07.png","image_id":471,"category_name":"Shale","category":30,"distinct_rating":2.73,"rt":null,"stimulus":"Stimuli_Rocks480/S_Shale_07.png","response":null,"trial_type":"image-keyboard-response","trial_index":151,"plugin_version":"2.1.0","time_elapsed":387843,"subject_id":"86309","group":"Group2","date":"2025-09-14T19:53:50.206Z"},{"rt":null,"stimulus":"<p style=\"font-size: 50px; margin: 0; text-align: center;\">+</p>","response":null,"trial_type":"html-keyboard-response","trial_index":152,"plugin_version":"2.1.0","time_elapsed":388846,"subject_id":"86309","group":"Group2","date":"2025-09-14T19:53:50.206Z"},{"task":"memory_phase","broad_category":"I","image_png":"I_Peridotite_08.png","image_id":120,"category_name":"Peridotite","category":8,"distinct_rating":4.77,"rt":null,"stimulus":"Stimuli_Rocks480/I_Peridotite_08.png","response":null,"trial_type":"image-keyboard-response","trial_index":153,"plugin_version":"2.1.0","time_elapsed":391349,"subject_id":"86309","group":"Group2","date":"2025-09-14T19:53:50.206Z"},{"rt":null,"stimulus":"<p style=\"font-size: 50px; margin: 0; text-align: center;\">+</p>","response":null,"trial_type":"html-keyboard-response","trial_index":154,"plugin_version":"2.1.0","time_elapsed":392351,"subject_id":"86309","group":"Group2","date":"2025-09-14T19:53:50.206Z"},{"task":"memory_phase","broad_category":"I","image_png":"I_Gabbro_07.png","image_id":55,"category_name":"Gabbro","category":4,"distinct_rating":4.29,"rt":null,"stimulus":"Stimuli_Rocks480/I_Gabbro_07.png","response":null,"trial_type":"image-keyboard-response","trial_index":155,"plugin_version":"2.1.0","time_elapsed":394855,"subject_id":"86309","group":"Group2","date":"2025-09-14T19:53:50.206Z"},{"rt":null,"stimulus":"<p style=\"font-size: 50px; margin: 0; text-align: center;\">+</p>","response":null,"trial_type":"html-keyboard-response","trial_index":156,"plugin_version":"2.1.0","time_elapsed":395858,"subject_id":"86309","group":"Group2","date":"2025-09-14T19:53:50.206Z"},{"task":"memory_phase","broad_category":"S","image_png":"S_Dolomite_02.png","image_id":386,"category_name":"Dolomite","category":25,"distinct_rating":5.49,"rt":null,"stimulus":"Stimuli_Rocks480/S_Dolomite_02.png","response":null,"trial_type":"image-keyboard-response","trial_index":157,"plugin_version":"2.1.0","time_elapsed":398361,"subject_id":"86309","group":"Group2","date":"2025-09-14T19:53:50.206Z"},{"rt":null,"stimulus":"<p style=\"font-size: 50px; margin: 0; text-align: center;\">+</p>","response":null,"trial_type":"html-keyboard-response","trial_index":158,"plugin_version":"2.1.0","time_elapsed":399364,"subject_id":"86309","group":"Group2","date":"2025-09-14T19:53:50.206Z"},{"task":"memory_phase","broad_category":"S","image_png":"S_Rock Salt_16.png","image_id":448,"category_name":"Rock Salt","category":28,"distinct_rating":6.23,"rt":null,"stimulus":"Stimuli_Rocks480/S_Rock Salt_16.png","response":null,"trial_type":"image-keyboard-response","trial_index":159,"plugin_version":"2.1.0","time_elapsed":401867,"subject_id":"86309","group":"Group2","date":"2025-09-14T19:53:50.206Z"},{"rt":null,"stimulus":"<p style=\"font-size: 50px; margin: 0; text-align: center;\">+</p>","response":null,"trial_type":"html-keyboard-response","trial_index":160,"plugin_version":"2.1.0","time_elapsed":402870,"subject_id":"86309","group":"Group2","date":"2025-09-14T19:53:50.206Z"},{"task":"memory_phase","broad_category":"M","image_png":"M_Quartzite_14.png","image_id":286,"category_name":"Quartzite","category":18,"distinct_rating":3.3,"rt":null,"stimulus":"Stimuli_Rocks480/M_Quartzite_14.png","response":null,"trial_type":"image-keyboard-response","trial_index":161,"plugin_version":"2.1.0","time_elapsed":405373,"subject_id":"86309","group":"Group2","date":"2025-09-14T19:53:50.206Z"},{"rt":null,"stimulus":"<p style=\"font-size: 50px; margin: 0; text-align: center;\">+</p>","response":null,"trial_type":"html-keyboard-response","trial_index":162,"plugin_version":"2.1.0","time_elapsed":406375,"subject_id":"86309","group":"Group2","date":"2025-09-14T19:53:50.206Z"},{"task":"memory_phase","broad_category":"S","image_png":"S_Micrite_11.png","image_id":411,"category_name":"Micrite","category":26,"distinct_rating":1.87,"rt":null,"stimulus":"Stimuli_Rocks480/S_Micrite_11.png","response":null,"trial_type":"image-keyboard-response","trial_index":163,"plugin_version":"2.1.0","time_elapsed":408879,"subject_id":"86309","group":"Group2","date":"2025-09-14T19:53:50.206Z"},{"rt":null,"stimulus":"<p style=\"font-size: 50px; margin: 0; text-align: center;\">+</p>","response":null,"trial_type":"html-keyboard-response","trial_index":164,"plugin_version":"2.1.0","time_elapsed":409881,"subject_id":"86309","group":"Group2","date":"2025-09-14T19:53:50.206Z"},{"task":"memory_phase","broad_category":"S","image_png":"S_Conglomerate_08.png","image_id":376,"category_name":"Conglomerate","category":24,"distinct_rating":4.83,"rt":null,"stimulus":"Stimuli_Rocks480/S_Conglomerate_08.png","response":null,"trial_type":"image-keyboard-response","trial_index":165,"plugin_version":"2.1.0","time_elapsed":412385,"subject_id":"86309","group":"Group2","date":"2025-09-14T19:53:50.206Z"},{"rt":null,"stimulus":"<p style=\"font-size: 50px; margin: 0; text-align: center;\">+</p>","response":null,"trial_type":"html-keyboard-response","trial_index":166,"plugin_version":"2.1.0","time_elapsed":413387,"subject_id":"86309","group":"Group2","date":"2025-09-14T19:53:50.206Z"},{"task":"memory_phase","broad_category":"M","image_png":"M_Phyllite_04.png","image_id":260,"category_name":"Phyllite","category":17,"distinct_rating":4.37,"rt":null,"stimulus":"Stimuli_Rocks480/M_Phyllite_04.png","response":null,"trial_type":"image-keyboard-response","trial_index":167,"plugin_version":"2.1.0","time_elapsed":415890,"subject_id":"86309","group":"Group2","date":"2025-09-14T19:53:50.206Z"},{"rt":null,"stimulus":"<p style=\"font-size: 50px; margin: 0; text-align: center;\">+</p>","response":null,"trial_type":"html-keyboard-response","trial_index":168,"plugin_version":"2.1.0","time_elapsed":416892,"subject_id":"86309","group":"Group2","date":"2025-09-14T19:53:50.206Z"},{"task":"memory_phase","broad_category":"M","image_png":"M_Marble_04.png","image_id":228,"category_name":"Marble","category":15,"distinct_rating":3.15,"rt":null,"stimulus":"Stimuli_Rocks480/M_Marble_04.png","response":null,"trial_type":"image-keyboard-response","trial_index":169,"plugin_version":"2.1.0","time_elapsed":419396,"subject_id":"86309","group":"Group2","date":"2025-09-14T19:53:50.206Z"},{"rt":null,"stimulus":"<p style=\"font-size: 50px; margin: 0; text-align: center;\">+</p>","response":null,"trial_type":"html-keyboard-response","trial_index":170,"plugin_version":"2.1.0","time_elapsed":420398,"subject_id":"86309","group":"Group2","date":"2025-09-14T19:53:50.206Z"},{"task":"memory_phase","broad_category":"M","image_png":"M_Schist_04.png","image_id":292,"category_name":"Schist","category":19,"distinct_rating":3.63,"rt":null,"stimulus":"Stimuli_Rocks480/M_Schist_04.png","response":null,"trial_type":"image-keyboard-response","trial_index":171,"plugin_version":"2.1.0","time_elapsed":422901,"subject_id":"86309","group":"Group2","date":"2025-09-14T19:53:50.206Z"},{"rt":null,"stimulus":"<p style=\"font-size: 50px; margin: 0; text-align: center;\">+</p>","response":null,"trial_type":"html-keyboard-response","trial_index":172,"plugin_version":"2.1.0","time_elapsed":423904,"subject_id":"86309","group":"Group2","date":"2025-09-14T19:53:50.206Z"},{"task":"memory_phase","broad_category":"I","image_png":"I_Andesite_10.png","image_id":10,"category_name":"Andesite","category":1,"distinct_rating":3.15,"rt":null,"stimulus":"Stimuli_Rocks480/I_Andesite_10.png","response":null,"trial_type":"image-keyboard-response","trial_index":173,"plugin_version":"2.1.0","time_elapsed":426407,"subject_id":"86309","group":"Group2","date":"2025-09-14T19:53:50.206Z"},{"rt":null,"stimulus":"<p style=\"font-size: 50px; margin: 0; text-align: center;\">+</p>","response":null,"trial_type":"html-keyboard-response","trial_index":174,"plugin_version":"2.1.0","time_elapsed":427410,"subject_id":"86309","group":"Group2","date":"2025-09-14T19:53:50.206Z"},{"task":"memory_phase","broad_category":"I","image_png":"I_Andesite_12.png","image_id":12,"category_name":"Andesite","category":1,"distinct_rating":3.75,"rt":null,"stimulus":"Stimuli_Rocks480/I_Andesite_12.png","response":null,"trial_type":"image-keyboard-response","trial_index":175,"plugin_version":"2.1.0","time_elapsed":429913,"subject_id":"86309","group":"Group2","date":"2025-09-14T19:53:50.206Z"},{"rt":null,"stimulus":"<p style=\"font-size: 50px; margin: 0; text-align: center;\">+</p>","response":null,"trial_type":"html-keyboard-response","trial_index":176,"plugin_version":"2.1.0","time_elapsed":430916,"subject_id":"86309","group":"Group2","date":"2025-09-14T19:53:50.206Z"},{"task":"memory_phase","broad_category":"M","image_png":"M_Anthracite_14.png","image_id":190,"category_name":"Anthracite","category":12,"distinct_rating":4.36,"rt":null,"stimulus":"Stimuli_Rocks480/M_Anthracite_14.png","response":null,"trial_type":"image-keyboard-response","trial_index":177,"plugin_version":"2.1.0","time_elapsed":433419,"subject_id":"86309","group":"Group2","date":"2025-09-14T19:53:50.206Z"},{"rt":null,"stimulus":"<p style=\"font-size: 50px; margin: 0; text-align: center;\">+</p>","response":null,"trial_type":"html-keyboard-response","trial_index":178,"plugin_version":"2.1.0","time_elapsed":434422,"subject_id":"86309","group":"Group2","date":"2025-09-14T19:53:50.206Z"},{"task":"memory_phase","broad_category":"M","image_png":"M_Migmatite_05.png","image_id":245,"category_name":"Migmatite","category":16,"distinct_rating":4.03,"rt":null,"stimulus":"Stimuli_Rocks480/M_Migmatite_05.png","response":null,"trial_type":"image-keyboard-response","trial_index":179,"plugin_version":"2.1.0","time_elapsed":436924,"subject_id":"86309","group":"Group2","date":"2025-09-14T19:53:50.206Z"},{"rt":null,"stimulus":"<p style=\"font-size: 50px; margin: 0; text-align: center;\">+</p>","response":null,"trial_type":"html-keyboard-response","trial_index":180,"plugin_version":"2.1.0","time_elapsed":437927,"subject_id":"86309","group":"Group2","date":"2025-09-14T19:53:50.206Z"},{"task":"memory_phase","broad_category":"S","image_png":"S_Conglomerate_04.png","image_id":372,"category_name":"Conglomerate","category":24,"distinct_rating":5.91,"rt":null,"stimulus":"Stimuli_Rocks480/S_Conglomerate_04.png","response":null,"trial_type":"image-keyboard-response","trial_index":181,"plugin_version":"2.1.0","time_elapsed":440430,"subject_id":"86309","group":"Group2","date":"2025-09-14T19:53:50.206Z"},{"rt":null,"stimulus":"<p style=\"font-size: 50px; margin: 0; text-align: center;\">+</p>","response":null,"trial_type":"html-keyboard-response","trial_index":182,"plugin_version":"2.1.0","time_elapsed":441432,"subject_id":"86309","group":"Group2","date":"2025-09-14T19:53:50.206Z"},{"task":"memory_phase","broad_category":"S","image_png":"S_Breccia_01.png","image_id":337,"category_name":"Breccia","category":22,"distinct_rating":7.35,"rt":null,"stimulus":"Stimuli_Rocks480/S_Breccia_01.png","response":null,"trial_type":"image-keyboard-response","trial_index":183,"plugin_version":"2.1.0","time_elapsed":443935,"subject_id":"86309","group":"Group2","date":"2025-09-14T19:53:50.206Z"},{"rt":null,"stimulus":"<p style=\"font-size: 50px; margin: 0; text-align: center;\">+</p>","response":null,"trial_type":"html-keyboard-response","trial_index":184,"plugin_version":"2.1.0","time_elapsed":444938,"subject_id":"86309","group":"Group2","date":"2025-09-14T19:53:50.206Z"},{"task":"memory_phase","broad_category":"M","image_png":"M_Amphibolite_05.png","image_id":165,"category_name":"Amphibolite","category":11,"distinct_rating":3.59,"rt":null,"stimulus":"Stimuli_Rocks480/M_Amphibolite_05.png","response":null,"trial_type":"image-keyboard-response","trial_index":185,"plugin_version":"2.1.0","time_elapsed":447441,"subject_id":"86309","group":"Group2","date":"2025-09-14T19:53:50.206Z"},{"rt":null,"stimulus":"<p style=\"font-size: 50px; margin: 0; text-align: center;\">+</p>","response":null,"trial_type":"html-keyboard-response","trial_index":186,"plugin_version":"2.1.0","time_elapsed":448443,"subject_id":"86309","group":"Group2","date":"2025-09-14T19:53:50.206Z"},{"task":"memory_phase","broad_category":"I","image_png":"I_Granite_01.png","image_id":65,"category_name":"Granite","category":5,"distinct_rating":5.23,"rt":null,"stimulus":"Stimuli_Rocks480/I_Granite_01.png","response":null,"trial_type":"image-keyboard-response","trial_index":187,"plugin_version":"2.1.0","time_elapsed":450946,"subject_id":"86309","group":"Group2","date":"2025-09-14T19:53:50.206Z"},{"rt":null,"stimulus":"<p style=\"font-size: 50px; margin: 0; text-align: center;\">+</p>","response":null,"trial_type":"html-keyboard-response","trial_index":188,"plugin_version":"2.1.0","time_elapsed":451948,"subject_id":"86309","group":"Group2","date":"2025-09-14T19:53:50.206Z"},{"task":"memory_phase","broad_category":"S","image_png":"S_Rock Gypsum_11.png","image_id":427,"category_name":"Rock Gypsum","category":27,"distinct_rating":4.73,"rt":null,"stimulus":"Stimuli_Rocks480/S_Rock Gypsum_11.png","response":null,"trial_type":"image-keyboard-response","trial_index":189,"plugin_version":"2.1.0","time_elapsed":454452,"subject_id":"86309","group":"Group2","date":"2025-09-14T19:53:50.206Z"},{"rt":null,"stimulus":"<p style=\"font-size: 50px; margin: 0; text-align: center;\">+</p>","response":null,"trial_type":"html-keyboard-response","trial_index":190,"plugin_version":"2.1.0","time_elapsed":455454,"subject_id":"86309","group":"Group2","date":"2025-09-14T19:53:50.206Z"},{"task":"memory_phase","broad_category":"I","image_png":"I_Granite_08.png","image_id":72,"category_name":"Granite","category":5,"distinct_rating":3.95,"rt":null,"stimulus":"Stimuli_Rocks480/I_Granite_08.png","response":null,"trial_type":"image-keyboard-response","trial_index":191,"plugin_version":"2.1.0","time_elapsed":457958,"subject_id":"86309","group":"Group2","date":"2025-09-14T19:53:50.206Z"},{"rt":null,"stimulus":"<p style=\"font-size: 50px; margin: 0; text-align: center;\">+</p>","response":null,"trial_type":"html-keyboard-response","trial_index":192,"plugin_version":"2.1.0","time_elapsed":458960,"subject_id":"86309","group":"Group2","date":"2025-09-14T19:53:50.206Z"},{"task":"memory_phase","broad_category":"I","image_png":"I_Pegmatite_05.png","image_id":101,"category_name":"Pegmatite","category":7,"distinct_rating":6.22,"rt":null,"stimulus":"Stimuli_Rocks480/I_Pegmatite_05.png","response":null,"trial_type":"image-keyboard-response","trial_index":193,"plugin_version":"2.1.0","time_elapsed":461467,"subject_id":"86309","group":"Group2","date":"2025-09-14T19:53:50.206Z"},{"rt":null,"stimulus":"<p style=\"font-size: 50px; margin: 0; text-align: center;\">+</p>","response":null,"trial_type":"html-keyboard-response","trial_index":194,"plugin_version":"2.1.0","time_elapsed":462469,"subject_id":"86309","group":"Group2","date":"2025-09-14T19:53:50.206Z"},{"task":"memory_phase","broad_category":"I","image_png":"I_Rhyolite_02.png","image_id":146,"category_name":"Rhyolite","category":10,"distinct_rating":3.26,"rt":null,"stimulus":"Stimuli_Rocks480/I_Rhyolite_02.png","response":null,"trial_type":"image-keyboard-response","trial_index":195,"plugin_version":"2.1.0","time_elapsed":464972,"subject_id":"86309","group":"Group2","date":"2025-09-14T19:53:50.206Z"},{"rt":null,"stimulus":"<p style=\"font-size: 50px; margin: 0; text-align: center;\">+</p>","response":null,"trial_type":"html-keyboard-response","trial_index":196,"plugin_version":"2.1.0","time_elapsed":465975,"subject_id":"86309","group":"Group2","date":"2025-09-14T19:53:50.206Z"},{"task":"memory_phase","broad_category":"I","image_png":"I_Andesite_05.png","image_id":5,"category_name":"Andesite","category":1,"distinct_rating":3.32,"rt":null,"stimulus":"Stimuli_Rocks480/I_Andesite_05.png","response":null,"trial_type":"image-keyboard-response","trial_index":197,"plugin_version":"2.1.0","time_elapsed":468478,"subject_id":"86309","group":"Group2","date":"2025-09-14T19:53:50.206Z"},{"rt":1763,"stimulus":"<p style=\"font-size: 35px;\">Press SPACE to continue study phase</p>","response":" ","trial_type":"html-keyboard-response","trial_index":198,"plugin_version":"2.1.0","time_elapsed":470242,"subject_id":"86309","group":"Group2","date":"2025-09-14T19:53:50.206Z"},{"rt":null,"stimulus":"<p style=\"font-size: 50px; margin: 0; text-align: center;\">+</p>","response":null,"trial_type":"html-keyboard-response","trial_index":199,"plugin_version":"2.1.0","time_elapsed":471244,"subject_id":"86309","group":"Group2","date":"2025-09-14T19:53:50.206Z"},{"task":"memory_phase","broad_category":"M","image_png":"M_Hornfels_13.png","image_id":221,"category_name":"Hornfels","category":14,"distinct_rating":3.2,"rt":null,"stimulus":"Stimuli_Rocks480/M_Hornfels_13.png","response":null,"trial_type":"image-keyboard-response","trial_index":200,"plugin_version":"2.1.0","time_elapsed":473747,"subject_id":"86309","group":"Group2","date":"2025-09-14T19:53:50.206Z"},{"rt":null,"stimulus":"<p style=\"font-size: 50px; margin: 0; text-align: center;\">+</p>","response":null,"trial_type":"html-keyboard-response","trial_index":201,"plugin_version":"2.1.0","time_elapsed":474749,"subject_id":"86309","group":"Group2","date":"2025-09-14T19:53:50.206Z"},{"task":"memory_phase","broad_category":"M","image_png":"M_Slate_14.png","image_id":318,"category_name":"Slate","category":20,"distinct_rating":2.58,"rt":null,"stimulus":"Stimuli_Rocks480/M_Slate_14.png","response":null,"trial_type":"image-keyboard-response","trial_index":202,"plugin_version":"2.1.0","time_elapsed":477253,"subject_id":"86309","group":"Group2","date":"2025-09-14T19:53:50.206Z"},{"rt":null,"stimulus":"<p style=\"font-size: 50px; margin: 0; text-align: center;\">+</p>","response":null,"trial_type":"html-keyboard-response","trial_index":203,"plugin_version":"2.1.0","time_elapsed":478256,"subject_id":"86309","group":"Group2","date":"2025-09-14T19:53:50.206Z"},{"task":"memory_phase","broad_category":"M","image_png":"M_Gneiss_10.png","image_id":202,"category_name":"Gneiss","category":13,"distinct_rating":3.09,"rt":null,"stimulus":"Stimuli_Rocks480/M_Gneiss_10.png","response":null,"trial_type":"image-keyboard-response","trial_index":204,"plugin_version":"2.1.0","time_elapsed":480759,"subject_id":"86309","group":"Group2","date":"2025-09-14T19:53:50.206Z"},{"rt":null,"stimulus":"<p style=\"font-size: 50px; margin: 0; text-align: center;\">+</p>","response":null,"trial_type":"html-keyboard-response","trial_index":205,"plugin_version":"2.1.0","time_elapsed":481761,"subject_id":"86309","group":"Group2","date":"2025-09-14T19:53:50.206Z"},{"task":"memory_phase","broad_category":"S","image_png":"S_Dolomite_03.png","image_id":387,"category_name":"Dolomite","category":25,"distinct_rating":3.42,"rt":null,"stimulus":"Stimuli_Rocks480/S_Dolomite_03.png","response":null,"trial_type":"image-keyboard-response","trial_index":206,"plugin_version":"2.1.0","time_elapsed":484264,"subject_id":"86309","group":"Group2","date":"2025-09-14T19:53:50.206Z"},{"rt":null,"stimulus":"<p style=\"font-size: 50px; margin: 0; text-align: center;\">+</p>","response":null,"trial_type":"html-keyboard-response","trial_index":207,"plugin_version":"2.1.0","time_elapsed":485266,"subject_id":"86309","group":"Group2","date":"2025-09-14T19:53:50.206Z"},{"task":"memory_phase","broad_category":"S","image_png":"S_Breccia_13.png","image_id":349,"category_name":"Breccia","category":22,"distinct_rating":5.56,"rt":null,"stimulus":"Stimuli_Rocks480/S_Breccia_13.png","response":null,"trial_type":"image-keyboard-response","trial_index":208,"plugin_version":"2.1.0","time_elapsed":487770,"subject_id":"86309","group":"Group2","date":"2025-09-14T19:53:50.206Z"},{"rt":null,"stimulus":"<p style=\"font-size: 50px; margin: 0; text-align: center;\">+</p>","response":null,"trial_type":"html-keyboard-response","trial_index":209,"plugin_version":"2.1.0","time_elapsed":488772,"subject_id":"86309","group":"Group2","date":"2025-09-14T19:53:50.206Z"},{"task":"memory_phase","broad_category":"I","image_png":"I_Pegmatite_13.png","image_id":109,"category_name":"Pegmatite","category":7,"distinct_rating":5.15,"rt":null,"stimulus":"Stimuli_Rocks480/I_Pegmatite_13.png","response":null,"trial_type":"image-keyboard-response","trial_index":210,"plugin_version":"2.1.0","time_elapsed":491276,"subject_id":"86309","group":"Group2","date":"2025-09-14T19:53:50.206Z"},{"rt":null,"stimulus":"<p style=\"font-size: 50px; margin: 0; text-align: center;\">+</p>","response":null,"trial_type":"html-keyboard-response","trial_index":211,"plugin_version":"2.1.0","time_elapsed":492278,"subject_id":"86309","group":"Group2","date":"2025-09-14T19:53:50.206Z"},{"task":"memory_phase","broad_category":"M","image_png":"M_Phyllite_07.png","image_id":263,"category_name":"Phyllite","category":17,"distinct_rating":2.59,"rt":null,"stimulus":"Stimuli_Rocks480/M_Phyllite_07.png","response":null,"trial_type":"image-keyboard-response","trial_index":212,"plugin_version":"2.1.0","time_elapsed":494781,"subject_id":"86309","group":"Group2","date":"2025-09-14T19:53:50.206Z"},{"rt":null,"stimulus":"<p style=\"font-size: 50px; margin: 0; text-align: center;\">+</p>","response":null,"trial_type":"html-keyboard-response","trial_index":213,"plugin_version":"2.1.0","time_elapsed":495783,"subject_id":"86309","group":"Group2","date":"2025-09-14T19:53:50.206Z"},{"task":"memory_phase","broad_category":"M","image_png":"M_Hornfels_06.png","image_id":214,"category_name":"Hornfels","category":14,"distinct_rating":2.66,"rt":null,"stimulus":"Stimuli_Rocks480/M_Hornfels_06.png","response":null,"trial_type":"image-keyboard-response","trial_index":214,"plugin_version":"2.1.0","time_elapsed":498287,"subject_id":"86309","group":"Group2","date":"2025-09-14T19:53:50.206Z"},{"rt":null,"stimulus":"<p style=\"font-size: 50px; margin: 0; text-align: center;\">+</p>","response":null,"trial_type":"html-keyboard-response","trial_index":215,"plugin_version":"2.1.0","time_elapsed":499289,"subject_id":"86309","group":"Group2","date":"2025-09-14T19:53:50.206Z"},{"task":"memory_phase","broad_category":"I","image_png":"I_Pegmatite_03.png","image_id":99,"category_name":"Pegmatite","category":7,"distinct_rating":7.24,"rt":null,"stimulus":"Stimuli_Rocks480/I_Pegmatite_03.png","response":null,"trial_type":"image-keyboard-response","trial_index":216,"plugin_version":"2.1.0","time_elapsed":501793,"subject_id":"86309","group":"Group2","date":"2025-09-14T19:53:50.206Z"},{"rt":null,"stimulus":"<p style=\"font-size: 50px; margin: 0; text-align: center;\">+</p>","response":null,"trial_type":"html-keyboard-response","trial_index":217,"plugin_version":"2.1.0","time_elapsed":502795,"subject_id":"86309","group":"Group2","date":"2025-09-14T19:53:50.206Z"},{"task":"memory_phase","broad_category":"I","image_png":"I_Obsidian_12.png","image_id":92,"category_name":"Obsidian","category":6,"distinct_rating":5.7,"rt":null,"stimulus":"Stimuli_Rocks480/I_Obsidian_12.png","response":null,"trial_type":"image-keyboard-response","trial_index":218,"plugin_version":"2.1.0","time_elapsed":505298,"subject_id":"86309","group":"Group2","date":"2025-09-14T19:53:50.206Z"},{"rt":null,"stimulus":"<p style=\"font-size: 50px; margin: 0; text-align: center;\">+</p>","response":null,"trial_type":"html-keyboard-response","trial_index":219,"plugin_version":"2.1.0","time_elapsed":506301,"subject_id":"86309","group":"Group2","date":"2025-09-14T19:53:50.206Z"},{"task":"memory_phase","broad_category":"I","image_png":"I_Obsidian_15.png","image_id":95,"category_name":"Obsidian","category":6,"distinct_rating":6.67,"rt":null,"stimulus":"Stimuli_Rocks480/I_Obsidian_15.png","response":null,"trial_type":"image-keyboard-response","trial_index":220,"plugin_version":"2.1.0","time_elapsed":508805,"subject_id":"86309","group":"Group2","date":"2025-09-14T19:53:50.206Z"},{"rt":null,"stimulus":"<p style=\"font-size: 50px; margin: 0; text-align: center;\">+</p>","response":null,"trial_type":"html-keyboard-response","trial_index":221,"plugin_version":"2.1.0","time_elapsed":509808,"subject_id":"86309","group":"Group2","date":"2025-09-14T19:53:50.206Z"},{"task":"memory_phase","broad_category":"S","image_png":"S_Conglomerate_05.png","image_id":373,"category_name":"Conglomerate","category":24,"distinct_rating":7.32,"rt":null,"stimulus":"Stimuli_Rocks480/S_Conglomerate_05.png","response":null,"trial_type":"image-keyboard-response","trial_index":222,"plugin_version":"2.1.0","time_elapsed":512310,"subject_id":"86309","group":"Group2","date":"2025-09-14T19:53:50.206Z"},{"rt":null,"stimulus":"<p style=\"font-size: 50px; margin: 0; text-align: center;\">+</p>","response":null,"trial_type":"html-keyboard-response","trial_index":223,"plugin_version":"2.1.0","time_elapsed":513313,"subject_id":"86309","group":"Group2","date":"2025-09-14T19:53:50.206Z"},{"task":"memory_phase","broad_category":"I","image_png":"I_Peridotite_03.png","image_id":115,"category_name":"Peridotite","category":8,"distinct_rating":5.71,"rt":null,"stimulus":"Stimuli_Rocks480/I_Peridotite_03.png","response":null,"trial_type":"image-keyboard-response","trial_index":224,"plugin_version":"2.1.0","time_elapsed":515815,"subject_id":"86309","group":"Group2","date":"2025-09-14T19:53:50.206Z"},{"rt":null,"stimulus":"<p style=\"font-size: 50px; margin: 0; text-align: center;\">+</p>","response":null,"trial_type":"html-keyboard-response","trial_index":225,"plugin_version":"2.1.0","time_elapsed":516817,"subject_id":"86309","group":"Group2","date":"2025-09-14T19:53:50.206Z"},{"task":"memory_phase","broad_category":"M","image_png":"M_Anthracite_04.png","image_id":180,"category_name":"Anthracite","category":12,"distinct_rating":6.25,"rt":null,"stimulus":"Stimuli_Rocks480/M_Anthracite_04.png","response":null,"trial_type":"image-keyboard-response","trial_index":226,"plugin_version":"2.1.0","time_elapsed":519320,"subject_id":"86309","group":"Group2","date":"2025-09-14T19:53:50.206Z"},{"rt":null,"stimulus":"<p style=\"font-size: 50px; margin: 0; text-align: center;\">+</p>","response":null,"trial_type":"html-keyboard-response","trial_index":227,"plugin_version":"2.1.0","time_elapsed":520322,"subject_id":"86309","group":"Group2","date":"2025-09-14T19:53:50.206Z"},{"task":"memory_phase","broad_category":"M","image_png":"M_Phyllite_11.png","image_id":267,"category_name":"Phyllite","category":17,"distinct_rating":3.56,"rt":null,"stimulus":"Stimuli_Rocks480/M_Phyllite_11.png","response":null,"trial_type":"image-keyboard-response","trial_index":228,"plugin_version":"2.1.0","time_elapsed":522826,"subject_id":"86309","group":"Group2","date":"2025-09-14T19:53:50.206Z"},{"rt":null,"stimulus":"<p style=\"font-size: 50px; margin: 0; text-align: center;\">+</p>","response":null,"trial_type":"html-keyboard-response","trial_index":229,"plugin_version":"2.1.0","time_elapsed":523828,"subject_id":"86309","group":"Group2","date":"2025-09-14T19:53:50.206Z"},{"task":"memory_phase","broad_category":"I","image_png":"I_Pumice_05.png","image_id":133,"category_name":"Pumice","category":9,"distinct_rating":3.37,"rt":null,"stimulus":"Stimuli_Rocks480/I_Pumice_05.png","response":null,"trial_type":"image-keyboard-response","trial_index":230,"plugin_version":"2.1.0","time_elapsed":526331,"subject_id":"86309","group":"Group2","date":"2025-09-14T19:53:50.206Z"},{"rt":null,"stimulus":"<p style=\"font-size: 50px; margin: 0; text-align: center;\">+</p>","response":null,"trial_type":"html-keyboard-response","trial_index":231,"plugin_version":"2.1.0","time_elapsed":527334,"subject_id":"86309","group":"Group2","date":"2025-09-14T19:53:50.206Z"},{"task":"memory_phase","broad_category":"M","image_png":"M_Amphibolite_09.png","image_id":169,"category_name":"Amphibolite","category":11,"distinct_rating":3.83,"rt":null,"stimulus":"Stimuli_Rocks480/M_Amphibolite_09.png","response":null,"trial_type":"image-keyboard-response","trial_index":232,"plugin_version":"2.1.0","time_elapsed":529837,"subject_id":"86309","group":"Group2","date":"2025-09-14T19:53:50.206Z"},{"rt":null,"stimulus":"<p style=\"font-size: 50px; margin: 0; text-align: center;\">+</p>","response":null,"trial_type":"html-keyboard-response","trial_index":233,"plugin_version":"2.1.0","time_elapsed":530839,"subject_id":"86309","group":"Group2","date":"2025-09-14T19:53:50.206Z"},{"task":"memory_phase","broad_category":"M","image_png":"M_Phyllite_09.png","image_id":265,"category_name":"Phyllite","category":17,"distinct_rating":2.96,"rt":null,"stimulus":"Stimuli_Rocks480/M_Phyllite_09.png","response":null,"trial_type":"image-keyboard-response","trial_index":234,"plugin_version":"2.1.0","time_elapsed":533343,"subject_id":"86309","group":"Group2","date":"2025-09-14T19:53:50.206Z"},{"rt":null,"stimulus":"<p style=\"font-size: 50px; margin: 0; text-align: center;\">+</p>","response":null,"trial_type":"html-keyboard-response","trial_index":235,"plugin_version":"2.1.0","time_elapsed":534345,"subject_id":"86309","group":"Group2","date":"2025-09-14T19:53:50.206Z"},{"task":"memory_phase","broad_category":"I","image_png":"I_Gabbro_02.png","image_id":50,"category_name":"Gabbro","category":4,"distinct_rating":2.73,"rt":null,"stimulus":"Stimuli_Rocks480/I_Gabbro_02.png","response":null,"trial_type":"image-keyboard-response","trial_index":236,"plugin_version":"2.1.0","time_elapsed":536849,"subject_id":"86309","group":"Group2","date":"2025-09-14T19:53:50.206Z"},{"rt":null,"stimulus":"<p style=\"font-size: 50px; margin: 0; text-align: center;\">+</p>","response":null,"trial_type":"html-keyboard-response","trial_index":237,"plugin_version":"2.1.0","time_elapsed":537851,"subject_id":"86309","group":"Group2","date":"2025-09-14T19:53:50.206Z"},{"task":"memory_phase","broad_category":"I","image_png":"I_Basalt_06.png","image_id":22,"category_name":"Basalt","category":2,"distinct_rating":2.08,"rt":null,"stimulus":"Stimuli_Rocks480/I_Basalt_06.png","response":null,"trial_type":"image-keyboard-response","trial_index":238,"plugin_version":"2.1.0","time_elapsed":540354,"subject_id":"86309","group":"Group2","date":"2025-09-14T19:53:50.206Z"},{"rt":null,"stimulus":"<p style=\"font-size: 50px; margin: 0; text-align: center;\">+</p>","response":null,"trial_type":"html-keyboard-response","trial_index":239,"plugin_version":"2.1.0","time_elapsed":541357,"subject_id":"86309","group":"Group2","date":"2025-09-14T19:53:50.206Z"},{"task":"memory_phase","broad_category":"M","image_png":"M_Migmatite_06.png","image_id":246,"category_name":"Migmatite","category":16,"distinct_rating":4.63,"rt":null,"stimulus":"Stimuli_Rocks480/M_Migmatite_06.png","response":null,"trial_type":"image-keyboard-response","trial_index":240,"plugin_version":"2.1.0","time_elapsed":543860,"subject_id":"86309","group":"Group2","date":"2025-09-14T19:53:50.206Z"},{"rt":null,"stimulus":"<p style=\"font-size: 50px; margin: 0; text-align: center;\">+</p>","response":null,"trial_type":"html-keyboard-response","trial_index":241,"plugin_version":"2.1.0","time_elapsed":544862,"subject_id":"86309","group":"Group2","date":"2025-09-14T19:53:50.206Z"},{"task":"memory_phase","broad_category":"I","image_png":"I_Pegmatite_15.png","image_id":111,"category_name":"Pegmatite","category":7,"distinct_rating":7.02,"rt":null,"stimulus":"Stimuli_Rocks480/I_Pegmatite_15.png","response":null,"trial_type":"image-keyboard-response","trial_index":242,"plugin_version":"2.1.0","time_elapsed":547365,"subject_id":"86309","group":"Group2","date":"2025-09-14T19:53:50.206Z"},{"rt":null,"stimulus":"<p style=\"font-size: 50px; margin: 0; text-align: center;\">+</p>","response":null,"trial_type":"html-keyboard-response","trial_index":243,"plugin_version":"2.1.0","time_elapsed":548367,"subject_id":"86309","group":"Group2","date":"2025-09-14T19:53:50.206Z"},{"task":"memory_phase","broad_category":"S","image_png":"S_Sandstone_13.png","image_id":461,"category_name":"Sandstone","category":29,"distinct_rating":2.94,"rt":null,"stimulus":"Stimuli_Rocks480/S_Sandstone_13.png","response":null,"trial_type":"image-keyboard-response","trial_index":244,"plugin_version":"2.1.0","time_elapsed":550871,"subject_id":"86309","group":"Group2","date":"2025-09-14T19:53:50.206Z"},{"rt":null,"stimulus":"<p style=\"font-size: 50px; margin: 0; text-align: center;\">+</p>","response":null,"trial_type":"html-keyboard-response","trial_index":245,"plugin_version":"2.1.0","time_elapsed":551873,"subject_id":"86309","group":"Group2","date":"2025-09-14T19:53:50.206Z"},{"task":"memory_phase","broad_category":"S","image_png":"S_Micrite_05.png","image_id":405,"category_name":"Micrite","category":26,"distinct_rating":8.21,"rt":null,"stimulus":"Stimuli_Rocks480/S_Micrite_05.png","response":null,"trial_type":"image-keyboard-response","trial_index":246,"plugin_version":"2.1.0","time_elapsed":554376,"subject_id":"86309","group":"Group2","date":"2025-09-14T19:53:50.206Z"},{"rt":8062,"stimulus":"<div style=\"max-width: 760px; margin: auto; font-size: 20px; line-height: 1.5;\">\n      <h1 style=\"text-align:center; font-size: 30px;\">Instructions for the Test Phase</h1>\n      <p>\n        The study phase is now complete.\n      </p>\n      <p>\n        In the test phase, you will again see a series of rock images. \n        Some will be ones you saw before - during the study phase, while others will be new.  \n        <b>Your task</b> is to decide whether you have seen each image before by pressing the corresponding key on your keyboard:<br><br>\n          <b>A</b> - NO (you did not see this image before)<br>\n          <b>L</b> - YES (you saw this image before)<br><br>\n        The test will proceed at your own pace. You will receive feedback after each response.  \n        Please try to respond <b>as accurately as possible</b>.\n      </p>\n      <p>\n        <b>Reminder:</b> If your computer has multiple language settings (e.g., English and another language),\n        please ensure it is set to English during the test phase.\n      </p>\n      <p>\n        You can track your progress using the <b>completion bar</b> at the top of the screen.  \n        Note that it has been refreshed to reflect your progress during this final phase.\n      </p>\n      <p>\n        Press the button below when you are ready to continue.\n      </p>\n    </div>","response":0,"trial_type":"html-button-response","trial_index":247,"plugin_version":"2.1.0","time_elapsed":562439,"subject_id":"86309","group":"Group2","date":"2025-09-14T19:53:50.206Z"},{"correct_response":"l","task":"test_phase","broad_category":"I","image_png":"I_Pegmatite_15.png","image_id":111,"category_name":"Pegmatite","category":7,"distinct_rating":7.02,"item_type":"Target","rt":2888,"stimulus":"Stimuli_Rocks480/I_Pegmatite_15.png","response":"a","trial_type":"image-keyboard-response","trial_index":248,"plugin_version":"2.1.0","time_elapsed":565329,"subject_id":"86309","group":"Group2","date":"2025-09-14T19:53:50.206Z","cor_ans":false},{"trial_type":"html-keyboard-response","rt":null,"stimulus":"<p style=\"color: red; font-size: 50px; font-weight: bold;\">Incorrect</p>","response":null,"trial_index":249,"plugin_version":"2.1.0","time_elapsed":565830,"subject_id":"86309","group":"Group2","date":"2025-09-14T19:53:50.206Z"},{"correct_response":"a","task":"test_phase","broad_category":"I","image_png":"I_Obsidian_02.png","image_id":82,"category_name":"Obsidian","category":6,"distinct_rating":6.06,"item_type":"Foil","rt":2314,"stimulus":"Stimuli_Rocks480/I_Obsidian_02.png","response":"l","trial_type":"image-keyboard-response","trial_index":250,"plugin_version":"2.1.0","time_elapsed":568146,"subject_id":"86309","group":"Group2","date":"2025-09-14T19:53:50.206Z","cor_ans":false},{"trial_type":"html-keyboard-response","rt":null,"stimulus":"<p style=\"color: red; font-size: 50px; font-weight: bold;\">Incorrect</p>","response":null,"trial_index":251,"plugin_version":"2.1.0","time_elapsed":568647,"subject_id":"86309","group":"Group2","date":"2025-09-14T19:53:50.206Z"},{"correct_response":"l","task":"test_phase","broad_category":"M","image_png":"M_Hornfels_06.png","image_id":214,"category_name":"Hornfels","category":14,"distinct_rating":2.66,"item_type":"Target","rt":2459,"stimulus":"Stimuli_Rocks480/M_Hornfels_06.png","response":"l","trial_type":"image-keyboard-response","trial_index":252,"plugin_version":"2.1.0","time_elapsed":571108,"subject_id":"86309","group":"Group2","date":"2025-09-14T19:53:50.206Z","cor_ans":true},{"trial_type":"html-keyboard-response","rt":null,"stimulus":"<p style=\"color: green; font-size: 50px; font-weight: bold;\">Correct</p>","response":null,"trial_index":253,"plugin_version":"2.1.0","time_elapsed":571609,"subject_id":"86309","group":"Group2","date":"2025-09-14T19:53:50.206Z"},{"correct_response":"a","task":"test_phase","broad_category":"M","image_png":"M_Schist_13.png","image_id":301,"category_name":"Schist","category":19,"distinct_rating":3.37,"item_type":"Foil","rt":3163,"stimulus":"Stimuli_Rocks480/M_Schist_13.png","response":"a","trial_type":"image-keyboard-response","trial_index":254,"plugin_version":"2.1.0","time_elapsed":574774,"subject_id":"86309","group":"Group2","date":"2025-09-14T19:53:50.206Z","cor_ans":true},{"trial_type":"html-keyboard-response","rt":null,"stimulus":"<p style=\"color: green; font-size: 50px; font-weight: bold;\">Correct</p>","response":null,"trial_index":255,"plugin_version":"2.1.0","time_elapsed":575275,"subject_id":"86309","group":"Group2","date":"2025-09-14T19:53:50.206Z"},{"correct_response":"a","task":"test_phase","broad_category":"S","image_png":"S_Rock Salt_11.png","image_id":443,"category_name":"Rock Salt","category":28,"distinct_rating":4.9,"item_type":"Foil","rt":1422,"stimulus":"Stimuli_Rocks480/S_Rock Salt_11.png","response":"l","trial_type":"image-keyboard-response","trial_index":256,"plugin_version":"2.1.0","time_elapsed":576698,"subject_id":"86309","group":"Group2","date":"2025-09-14T19:53:50.206Z","cor_ans":false},{"trial_type":"html-keyboard-response","rt":null,"stimulus":"<p style=\"color: red; font-size: 50px; font-weight: bold;\">Incorrect</p>","response":null,"trial_index":257,"plugin_version":"2.1.0","time_elapsed":577200,"subject_id":"86309","group":"Group2","date":"2025-09-14T19:53:50.206Z"},{"correct_response":"l","task":"test_phase","broad_category":"I","image_png":"I_Basalt_11.png","image_id":27,"category_name":"Basalt","category":2,"distinct_rating":3.11,"item_type":"Target","rt":3554,"stimulus":"Stimuli_Rocks480/I_Basalt_11.png","response":"a","trial_type":"image-keyboard-response","trial_index":258,"plugin_version":"2.1.0","time_elapsed":580756,"subject_id":"86309","group":"Group2","date":"2025-09-14T19:53:50.206Z","cor_ans":false},{"trial_type":"html-keyboard-response","rt":null,"stimulus":"<p style=\"color: red; font-size: 50px; font-weight: bold;\">Incorrect</p>","response":null,"trial_index":259,"plugin_version":"2.1.0","time_elapsed":581258,"subject_id":"86309","group":"Group2","date":"2025-09-14T19:53:50.206Z"},{"correct_response":"a","task":"test_phase","broad_category":"S","image_png":"S_Shale_11.png","image_id":475,"category_name":"Shale","category":30,"distinct_rating":4.05,"item_type":"Foil","rt":1974,"stimulus":"Stimuli_Rocks480/S_Shale_11.png","response":"l","trial_type":"image-keyboard-response","trial_index":260,"plugin_version":"2.1.0","time_elapsed":583233,"subject_id":"86309","group":"Group2","date":"2025-09-14T19:53:50.206Z","cor_ans":false},{"trial_type":"html-keyboard-response","rt":null,"stimulus":"<p style=\"color: red; font-size: 50px; font-weight: bold;\">Incorrect</p>","response":null,"trial_index":261,"plugin_version":"2.1.0","time_elapsed":583734,"subject_id":"86309","group":"Group2","date":"2025-09-14T19:53:50.206Z"},{"correct_response":"l","task":"test_phase","broad_category":"M","image_png":"M_Phyllite_07.png","image_id":263,"category_name":"Phyllite","category":17,"distinct_rating":2.59,"item_type":"Target","rt":2275,"stimulus":"Stimuli_Rocks480/M_Phyllite_07.png","response":"l","trial_type":"image-keyboard-response","trial_index":262,"plugin_version":"2.1.0","time_elapsed":586010,"subject_id":"86309","group":"Group2","date":"2025-09-14T19:53:50.206Z","cor_ans":true},{"trial_type":"html-keyboard-response","rt":null,"stimulus":"<p style=\"color: green; font-size: 50px; font-weight: bold;\">Correct</p>","response":null,"trial_index":263,"plugin_version":"2.1.0","time_elapsed":586511,"subject_id":"86309","group":"Group2","date":"2025-09-14T19:53:50.206Z"},{"correct_response":"l","task":"test_phase","broad_category":"M","image_png":"M_Schist_09.png","image_id":297,"category_name":"Schist","category":19,"distinct_rating":3.31,"item_type":"Target","rt":1439,"stimulus":"Stimuli_Rocks480/M_Schist_09.png","response":"l","trial_type":"image-keyboard-response","trial_index":264,"plugin_version":"2.1.0","time_elapsed":587952,"subject_id":"86309","group":"Group2","date":"2025-09-14T19:53:50.206Z","cor_ans":true},{"trial_type":"html-keyboard-response","rt":null,"stimulus":"<p style=\"color: green; font-size: 50px; font-weight: bold;\">Correct</p>","response":null,"trial_index":265,"plugin_version":"2.1.0","time_elapsed":588453,"subject_id":"86309","group":"Group2","date":"2025-09-14T19:53:50.206Z"},{"correct_response":"a","task":"test_phase","broad_category":"S","image_png":"S_Micrite_07.png","image_id":407,"category_name":"Micrite","category":26,"distinct_rating":1.85,"item_type":"Foil","rt":1635,"stimulus":"Stimuli_Rocks480/S_Micrite_07.png","response":"a","trial_type":"image-keyboard-response","trial_index":266,"plugin_version":"2.1.0","time_elapsed":590089,"subject_id":"86309","group":"Group2","date":"2025-09-14T19:53:50.206Z","cor_ans":true},{"trial_type":"html-keyboard-response","rt":null,"stimulus":"<p style=\"color: green; font-size: 50px; font-weight: bold;\">Correct</p>","response":null,"trial_index":267,"plugin_version":"2.1.0","time_elapsed":590590,"subject_id":"86309","group":"Group2","date":"2025-09-14T19:53:50.206Z"},{"correct_response":"l","task":"test_phase","broad_category":"I","image_png":"I_Peridotite_14.png","image_id":126,"category_name":"Peridotite","category":8,"distinct_rating":3.64,"item_type":"Target","rt":1367,"stimulus":"Stimuli_Rocks480/I_Peridotite_14.png","response":"l","trial_type":"image-keyboard-response","trial_index":268,"plugin_version":"2.1.0","time_elapsed":591959,"subject_id":"86309","group":"Group2","date":"2025-09-14T19:53:50.206Z","cor_ans":true},{"trial_type":"html-keyboard-response","rt":null,"stimulus":"<p style=\"color: green; font-size: 50px; font-weight: bold;\">Correct</p>","response":null,"trial_index":269,"plugin_version":"2.1.0","time_elapsed":592459,"subject_id":"86309","group":"Group2","date":"2025-09-14T19:53:50.206Z"},{"correct_response":"l","task":"test_phase","broad_category":"M","image_png":"M_Gneiss_08.png","image_id":200,"category_name":"Gneiss","category":13,"distinct_rating":3.69,"item_type":"Target","rt":1397,"stimulus":"Stimuli_Rocks480/M_Gneiss_08.png","response":"a","trial_type":"image-keyboard-response","trial_index":270,"plugin_version":"2.1.0","time_elapsed":593858,"subject_id":"86309","group":"Group2","date":"2025-09-14T19:53:50.206Z","cor_ans":false},{"trial_type":"html-keyboard-response","rt":null,"stimulus":"<p style=\"color: red; font-size: 50px; font-weight: bold;\">Incorrect</p>","response":null,"trial_index":271,"plugin_version":"2.1.0","time_elapsed":594360,"subject_id":"86309","group":"Group2","date":"2025-09-14T19:53:50.206Z"},{"correct_response":"l","task":"test_phase","broad_category":"M","image_png":"M_Quartzite_02.png","image_id":274,"category_name":"Quartzite","category":18,"distinct_rating":2.52,"item_type":"Target","rt":1269,"stimulus":"Stimuli_Rocks480/M_Quartzite_02.png","response":"l","trial_type":"image-keyboard-response","trial_index":272,"plugin_version":"2.1.0","time_elapsed":595631,"subject_id":"86309","group":"Group2","date":"2025-09-14T19:53:50.206Z","cor_ans":true},{"trial_type":"html-keyboard-response","rt":null,"stimulus":"<p style=\"color: green; font-size: 50px; font-weight: bold;\">Correct</p>","response":null,"trial_index":273,"plugin_version":"2.1.0","time_elapsed":596132,"subject_id":"86309","group":"Group2","date":"2025-09-14T19:53:50.206Z"},{"correct_response":"a","task":"test_phase","broad_category":"M","image_png":"M_Phyllite_06.png","image_id":262,"category_name":"Phyllite","category":17,"distinct_rating":3.03,"item_type":"Foil","rt":1345,"stimulus":"Stimuli_Rocks480/M_Phyllite_06.png","response":"a","trial_type":"image-keyboard-response","trial_index":274,"plugin_version":"2.1.0","time_elapsed":597479,"subject_id":"86309","group":"Group2","date":"2025-09-14T19:53:50.206Z","cor_ans":true},{"trial_type":"html-keyboard-response","rt":null,"stimulus":"<p style=\"color: green; font-size: 50px; font-weight: bold;\">Correct</p>","response":null,"trial_index":275,"plugin_version":"2.1.0","time_elapsed":597980,"subject_id":"86309","group":"Group2","date":"2025-09-14T19:53:50.206Z"},{"correct_response":"l","task":"test_phase","broad_category":"M","image_png":"M_Hornfels_14.png","image_id":222,"category_name":"Hornfels","category":14,"distinct_rating":2.3,"item_type":"Target","rt":2450,"stimulus":"Stimuli_Rocks480/M_Hornfels_14.png","response":"a","trial_type":"image-keyboard-response","trial_index":276,"plugin_version":"2.1.0","time_elapsed":600431,"subject_id":"86309","group":"Group2","date":"2025-09-14T19:53:50.206Z","cor_ans":false},{"trial_type":"html-keyboard-response","rt":null,"stimulus":"<p style=\"color: red; font-size: 50px; font-weight: bold;\">Incorrect</p>","response":null,"trial_index":277,"plugin_version":"2.1.0","time_elapsed":600933,"subject_id":"86309","group":"Group2","date":"2025-09-14T19:53:50.206Z"},{"correct_response":"a","task":"test_phase","broad_category":"S","image_png":"S_Rock Salt_12.png","image_id":444,"category_name":"Rock Salt","category":28,"distinct_rating":5.86,"item_type":"Foil","rt":1379,"stimulus":"Stimuli_Rocks480/S_Rock Salt_12.png","response":"l","trial_type":"image-keyboard-response","trial_index":278,"plugin_version":"2.1.0","time_elapsed":602314,"subject_id":"86309","group":"Group2","date":"2025-09-14T19:53:50.206Z","cor_ans":false},{"trial_type":"html-keyboard-response","rt":null,"stimulus":"<p style=\"color: red; font-size: 50px; font-weight: bold;\">Incorrect</p>","response":null,"trial_index":279,"plugin_version":"2.1.0","time_elapsed":602816,"subject_id":"86309","group":"Group2","date":"2025-09-14T19:53:50.206Z"},{"correct_response":"l","task":"test_phase","broad_category":"S","image_png":"S_Shale_07.png","image_id":471,"category_name":"Shale","category":30,"distinct_rating":2.73,"item_type":"Target","rt":1185,"stimulus":"Stimuli_Rocks480/S_Shale_07.png","response":"l","trial_type":"image-keyboard-response","trial_index":280,"plugin_version":"2.1.0","time_elapsed":604002,"subject_id":"86309","group":"Group2","date":"2025-09-14T19:53:50.206Z","cor_ans":true},{"trial_type":"html-keyboard-response","rt":null,"stimulus":"<p style=\"color: green; font-size: 50px; font-weight: bold;\">Correct</p>","response":null,"trial_index":281,"plugin_version":"2.1.0","time_elapsed":604504,"subject_id":"86309","group":"Group2","date":"2025-09