[{"width":1528,"height":738,"webaudio":true,"browser":"edge-chromium","browser_version":"142.0.0","mobile":false,"os":"Windows 10","fullscreen":true,"vsync_rate":60.01,"webcam":true,"microphone":true,"trial_type":"browser-check","trial_index":0,"plugin_version":"2.1.0","time_elapsed":1014,"subject_id":"88137","group":"Group2","date":"2025-11-04T21:00:26.664Z"},{"success":true,"timeout":false,"failed_images":[],"failed_audio":[],"failed_video":[],"trial_type":"preload","trial_index":1,"plugin_version":"2.1.0","time_elapsed":121082,"subject_id":"88137","group":"Group2","date":"2025-11-04T21:00:26.664Z"},{"rt":9478,"url":"SONA_consent_memorability.html","trial_type":"external-html","trial_index":2,"plugin_version":"2.1.0","time_elapsed":130626,"subject_id":"88137","group":"Group2","date":"2025-11-04T21:00:26.664Z"},{"success":true,"rt":1930,"trial_type":"fullscreen","trial_index":3,"plugin_version":"2.1.0","time_elapsed":133567,"subject_id":"88137","group":"Group2","date":"2025-11-04T21:00:26.664Z"},{"rt":5072,"stimulus":"<div style=\"max-width: 760px; margin: auto; font-size: 20px; line-height: 1.5;\">\n      <h1 style=\"text-align:center; font-size: 30px;\">Instructions</h1>\n      <p>\n        Welcome to the study on <b>visual memory</b>. This experiment consists of <b>two phases</b>: \n        a <b>study phase</b> and a <b>test phase</b>.\n      </p>\n      <p>\n        In the study phase, you will see a series of rock images along with their category labels.\n        The images will appear one at a time.\n        <b>Your task</b> is to learn the categories to which the rock images belong \n        and to remember each image as accurately as possible.\n      </p> \n      <p>\n        After the study phase, <b>your memory will be tested</b>. \n        Additional instructions for the test phase will be provided at that time.\n      </p>\n      <p>\n        If your computer has multiple <b>language settings</b> (e.g., English and another language),\n        please make sure it is set to English before starting.\n      </p>\n      <p>\n        You can track your progress using the <b>completion bar</b> at the top of the screen. \n        Please note that the bar will refresh when the test phase begins \n        to give you an accurate sense of your progress in both phases.\n      </p> \n      <p>\n        Press the button below when you are ready to begin.\n      </p>\n    </div>","response":0,"trial_type":"html-button-response","trial_index":4,"plugin_version":"2.1.0","time_elapsed":138641,"subject_id":"88137","group":"Group2","date":"2025-11-04T21:00:26.664Z"},{"rt":null,"stimulus":"<p style=\"font-size: 50px; margin: 0; text-align: center;\">+</p>","response":null,"trial_type":"html-keyboard-response","trial_index":5,"plugin_version":"2.1.0","time_elapsed":139656,"subject_id":"88137","group":"Group2","date":"2025-11-04T21:00:26.664Z"},{"task":"memory_phase","broad_category":"I","image_png":"I_Obsidian_12.png","image_id":92,"category_name":"Obsidian","category":6,"distinct_rating":5.7,"rt":null,"stimulus":"Stimuli_Rocks480/I_Obsidian_12.png","response":null,"trial_type":"image-keyboard-response","trial_index":6,"plugin_version":"2.1.0","time_elapsed":142176,"subject_id":"88137","group":"Group2","date":"2025-11-04T21:00:26.664Z"},{"rt":null,"stimulus":"<p style=\"font-size: 50px; margin: 0; text-align: center;\">+</p>","response":null,"trial_type":"html-keyboard-response","trial_index":7,"plugin_version":"2.1.0","time_elapsed":143185,"subject_id":"88137","group":"Group2","date":"2025-11-04T21:00:26.664Z"},{"task":"memory_phase","broad_category":"I","image_png":"I_Granite_14.png","image_id":78,"category_name":"Granite","category":5,"distinct_rating":4.29,"rt":null,"stimulus":"Stimuli_Rocks480/I_Granite_14.png","response":null,"trial_type":"image-keyboard-response","trial_index":8,"plugin_version":"2.1.0","time_elapsed":145698,"subject_id":"88137","group":"Group2","date":"2025-11-04T21:00:26.664Z"},{"rt":null,"stimulus":"<p style=\"font-size: 50px; margin: 0; text-align: center;\">+</p>","response":null,"trial_type":"html-keyboard-response","trial_index":9,"plugin_version":"2.1.0","time_elapsed":146705,"subject_id":"88137","group":"Group2","date":"2025-11-04T21:00:26.664Z"},{"task":"memory_phase","broad_category":"S","image_png":"S_Conglomerate_05.png","image_id":373,"category_name":"Conglomerate","category":24,"distinct_rating":7.32,"rt":null,"stimulus":"Stimuli_Rocks480/S_Conglomerate_05.png","response":null,"trial_type":"image-keyboard-response","trial_index":10,"plugin_version":"2.1.0","time_elapsed":149219,"subject_id":"88137","group":"Group2","date":"2025-11-04T21:00:26.664Z"},{"rt":null,"stimulus":"<p style=\"font-size: 50px; margin: 0; text-align: center;\">+</p>","response":null,"trial_type":"html-keyboard-response","trial_index":11,"plugin_version":"2.1.0","time_elapsed":150225,"subject_id":"88137","group":"Group2","date":"2025-11-04T21:00:26.664Z"},{"task":"memory_phase","broad_category":"I","image_png":"I_Peridotite_03.png","image_id":115,"category_name":"Peridotite","category":8,"distinct_rating":5.71,"rt":null,"stimulus":"Stimuli_Rocks480/I_Peridotite_03.png","response":null,"trial_type":"image-keyboard-response","trial_index":12,"plugin_version":"2.1.0","time_elapsed":152735,"subject_id":"88137","group":"Group2","date":"2025-11-04T21:00:26.664Z"},{"rt":null,"stimulus":"<p style=\"font-size: 50px; margin: 0; text-align: center;\">+</p>","response":null,"trial_type":"html-keyboard-response","trial_index":13,"plugin_version":"2.1.0","time_elapsed":153741,"subject_id":"88137","group":"Group2","date":"2025-11-04T21:00:26.664Z"},{"task":"memory_phase","broad_category":"I","image_png":"I_Peridotite_13.png","image_id":125,"category_name":"Peridotite","category":8,"distinct_rating":7.28,"rt":null,"stimulus":"Stimuli_Rocks480/I_Peridotite_13.png","response":null,"trial_type":"image-keyboard-response","trial_index":14,"plugin_version":"2.1.0","time_elapsed":156248,"subject_id":"88137","group":"Group2","date":"2025-11-04T21:00:26.664Z"},{"rt":null,"stimulus":"<p style=\"font-size: 50px; margin: 0; text-align: center;\">+</p>","response":null,"trial_type":"html-keyboard-response","trial_index":15,"plugin_version":"2.1.0","time_elapsed":157253,"subject_id":"88137","group":"Group2","date":"2025-11-04T21:00:26.664Z"},{"task":"memory_phase","broad_category":"S","image_png":"S_Bituminous Coal_04.png","image_id":324,"category_name":"Bituminous Coal","category":21,"distinct_rating":4.93,"rt":null,"stimulus":"Stimuli_Rocks480/S_Bituminous Coal_04.png","response":null,"trial_type":"image-keyboard-response","trial_index":16,"plugin_version":"2.1.0","time_elapsed":159758,"subject_id":"88137","group":"Group2","date":"2025-11-04T21:00:26.664Z"},{"rt":null,"stimulus":"<p style=\"font-size: 50px; margin: 0; text-align: center;\">+</p>","response":null,"trial_type":"html-keyboard-response","trial_index":17,"plugin_version":"2.1.0","time_elapsed":160765,"subject_id":"88137","group":"Group2","date":"2025-11-04T21:00:26.664Z"},{"task":"memory_phase","broad_category":"S","image_png":"S_Rock Gypsum_11.png","image_id":427,"category_name":"Rock Gypsum","category":27,"distinct_rating":4.73,"rt":null,"stimulus":"Stimuli_Rocks480/S_Rock Gypsum_11.png","response":null,"trial_type":"image-keyboard-response","trial_index":18,"plugin_version":"2.1.0","time_elapsed":163283,"subject_id":"88137","group":"Group2","date":"2025-11-04T21:00:26.664Z"},{"rt":null,"stimulus":"<p style=\"font-size: 50px; margin: 0; text-align: center;\">+</p>","response":null,"trial_type":"html-keyboard-response","trial_index":19,"plugin_version":"2.1.0","time_elapsed":164292,"subject_id":"88137","group":"Group2","date":"2025-11-04T21:00:26.664Z"},{"task":"memory_phase","broad_category":"I","image_png":"I_Gabbro_03.png","image_id":51,"category_name":"Gabbro","category":4,"distinct_rating":3.48,"rt":null,"stimulus":"Stimuli_Rocks480/I_Gabbro_03.png","response":null,"trial_type":"image-keyboard-response","trial_index":20,"plugin_version":"2.1.0","time_elapsed":166803,"subject_id":"88137","group":"Group2","date":"2025-11-04T21:00:26.664Z"},{"rt":null,"stimulus":"<p style=\"font-size: 50px; margin: 0; text-align: center;\">+</p>","response":null,"trial_type":"html-keyboard-response","trial_index":21,"plugin_version":"2.1.0","time_elapsed":167816,"subject_id":"88137","group":"Group2","date":"2025-11-04T21:00:26.664Z"},{"task":"memory_phase","broad_category":"I","image_png":"I_Gabbro_02.png","image_id":50,"category_name":"Gabbro","category":4,"distinct_rating":2.73,"rt":null,"stimulus":"Stimuli_Rocks480/I_Gabbro_02.png","response":null,"trial_type":"image-keyboard-response","trial_index":22,"plugin_version":"2.1.0","time_elapsed":170328,"subject_id":"88137","group":"Group2","date":"2025-11-04T21:00:26.664Z"},{"rt":null,"stimulus":"<p style=\"font-size: 50px; margin: 0; text-align: center;\">+</p>","response":null,"trial_type":"html-keyboard-response","trial_index":23,"plugin_version":"2.1.0","time_elapsed":171343,"subject_id":"88137","group":"Group2","date":"2025-11-04T21:00:26.664Z"},{"task":"memory_phase","broad_category":"S","image_png":"S_Dolomite_04.png","image_id":388,"category_name":"Dolomite","category":25,"distinct_rating":1.93,"rt":null,"stimulus":"Stimuli_Rocks480/S_Dolomite_04.png","response":null,"trial_type":"image-keyboard-response","trial_index":24,"plugin_version":"2.1.0","time_elapsed":173845,"subject_id":"88137","group":"Group2","date":"2025-11-04T21:00:26.664Z"},{"rt":null,"stimulus":"<p style=\"font-size: 50px; margin: 0; text-align: center;\">+</p>","response":null,"trial_type":"html-keyboard-response","trial_index":25,"plugin_version":"2.1.0","time_elapsed":174859,"subject_id":"88137","group":"Group2","date":"2025-11-04T21:00:26.664Z"},{"task":"memory_phase","broad_category":"S","image_png":"S_Chert_14.png","image_id":366,"category_name":"Chert","category":23,"distinct_rating":4.5,"rt":null,"stimulus":"Stimuli_Rocks480/S_Chert_14.png","response":null,"trial_type":"image-keyboard-response","trial_index":26,"plugin_version":"2.1.0","time_elapsed":177361,"subject_id":"88137","group":"Group2","date":"2025-11-04T21:00:26.664Z"},{"rt":null,"stimulus":"<p style=\"font-size: 50px; margin: 0; text-align: center;\">+</p>","response":null,"trial_type":"html-keyboard-response","trial_index":27,"plugin_version":"2.1.0","time_elapsed":178364,"subject_id":"88137","group":"Group2","date":"2025-11-04T21:00:26.664Z"},{"task":"memory_phase","broad_category":"S","image_png":"S_Sandstone_07.png","image_id":455,"category_name":"Sandstone","category":29,"distinct_rating":5.02,"rt":null,"stimulus":"Stimuli_Rocks480/S_Sandstone_07.png","response":null,"trial_type":"image-keyboard-response","trial_index":28,"plugin_version":"2.1.0","time_elapsed":180876,"subject_id":"88137","group":"Group2","date":"2025-11-04T21:00:26.664Z"},{"rt":null,"stimulus":"<p style=\"font-size: 50px; margin: 0; text-align: center;\">+</p>","response":null,"trial_type":"html-keyboard-response","trial_index":29,"plugin_version":"2.1.0","time_elapsed":181878,"subject_id":"88137","group":"Group2","date":"2025-11-04T21:00:26.664Z"},{"task":"memory_phase","broad_category":"I","image_png":"I_Basalt_12.png","image_id":28,"category_name":"Basalt","category":2,"distinct_rating":4.08,"rt":null,"stimulus":"Stimuli_Rocks480/I_Basalt_12.png","response":null,"trial_type":"image-keyboard-response","trial_index":30,"plugin_version":"2.1.0","time_elapsed":184392,"subject_id":"88137","group":"Group2","date":"2025-11-04T21:00:26.664Z"},{"rt":null,"stimulus":"<p style=\"font-size: 50px; margin: 0; text-align: center;\">+</p>","response":null,"trial_type":"html-keyboard-response","trial_index":31,"plugin_version":"2.1.0","time_elapsed":185400,"subject_id":"88137","group":"Group2","date":"2025-11-04T21:00:26.664Z"},{"task":"memory_phase","broad_category":"I","image_png":"I_Andesite_12.png","image_id":12,"category_name":"Andesite","category":1,"distinct_rating":3.75,"rt":null,"stimulus":"Stimuli_Rocks480/I_Andesite_12.png","response":null,"trial_type":"image-keyboard-response","trial_index":32,"plugin_version":"2.1.0","time_elapsed":187916,"subject_id":"88137","group":"Group2","date":"2025-11-04T21:00:26.664Z"},{"rt":null,"stimulus":"<p style=\"font-size: 50px; margin: 0; text-align: center;\">+</p>","response":null,"trial_type":"html-keyboard-response","trial_index":33,"plugin_version":"2.1.0","time_elapsed":188918,"subject_id":"88137","group":"Group2","date":"2025-11-04T21:00:26.664Z"},{"task":"memory_phase","broad_category":"S","image_png":"S_Rock Gypsum_14.png","image_id":430,"category_name":"Rock Gypsum","category":27,"distinct_rating":7.01,"rt":null,"stimulus":"Stimuli_Rocks480/S_Rock Gypsum_14.png","response":null,"trial_type":"image-keyboard-response","trial_index":34,"plugin_version":"2.1.0","time_elapsed":191431,"subject_id":"88137","group":"Group2","date":"2025-11-04T21:00:26.664Z"},{"rt":null,"stimulus":"<p style=\"font-size: 50px; margin: 0; text-align: center;\">+</p>","response":null,"trial_type":"html-keyboard-response","trial_index":35,"plugin_version":"2.1.0","time_elapsed":192436,"subject_id":"88137","group":"Group2","date":"2025-11-04T21:00:26.664Z"},{"task":"memory_phase","broad_category":"S","image_png":"S_Bituminous Coal_16.png","image_id":336,"category_name":"Bituminous Coal","category":21,"distinct_rating":4.3,"rt":null,"stimulus":"Stimuli_Rocks480/S_Bituminous Coal_16.png","response":null,"trial_type":"image-keyboard-response","trial_index":36,"plugin_version":"2.1.0","time_elapsed":194939,"subject_id":"88137","group":"Group2","date":"2025-11-04T21:00:26.664Z"},{"rt":null,"stimulus":"<p style=\"font-size: 50px; margin: 0; text-align: center;\">+</p>","response":null,"trial_type":"html-keyboard-response","trial_index":37,"plugin_version":"2.1.0","time_elapsed":195943,"subject_id":"88137","group":"Group2","date":"2025-11-04T21:00:26.664Z"},{"task":"memory_phase","broad_category":"S","image_png":"S_Bituminous Coal_11.png","image_id":331,"category_name":"Bituminous Coal","category":21,"distinct_rating":3.71,"rt":null,"stimulus":"Stimuli_Rocks480/S_Bituminous Coal_11.png","response":null,"trial_type":"image-keyboard-response","trial_index":38,"plugin_version":"2.1.0","time_elapsed":198448,"subject_id":"88137","group":"Group2","date":"2025-11-04T21:00:26.664Z"},{"rt":null,"stimulus":"<p style=\"font-size: 50px; margin: 0; text-align: center;\">+</p>","response":null,"trial_type":"html-keyboard-response","trial_index":39,"plugin_version":"2.1.0","time_elapsed":199464,"subject_id":"88137","group":"Group2","date":"2025-11-04T21:00:26.664Z"},{"task":"memory_phase","broad_category":"M","image_png":"M_Schist_04.png","image_id":292,"category_name":"Schist","category":19,"distinct_rating":3.63,"rt":null,"stimulus":"Stimuli_Rocks480/M_Schist_04.png","response":null,"trial_type":"image-keyboard-response","trial_index":40,"plugin_version":"2.1.0","time_elapsed":201967,"subject_id":"88137","group":"Group2","date":"2025-11-04T21:00:26.664Z"},{"rt":null,"stimulus":"<p style=\"font-size: 50px; margin: 0; text-align: center;\">+</p>","response":null,"trial_type":"html-keyboard-response","trial_index":41,"plugin_version":"2.1.0","time_elapsed":202974,"subject_id":"88137","group":"Group2","date":"2025-11-04T21:00:26.664Z"},{"task":"memory_phase","broad_category":"M","image_png":"M_Marble_08.png","image_id":232,"category_name":"Marble","category":15,"distinct_rating":4.35,"rt":null,"stimulus":"Stimuli_Rocks480/M_Marble_08.png","response":null,"trial_type":"image-keyboard-response","trial_index":42,"plugin_version":"2.1.0","time_elapsed":205476,"subject_id":"88137","group":"Group2","date":"2025-11-04T21:00:26.664Z"},{"rt":null,"stimulus":"<p style=\"font-size: 50px; margin: 0; text-align: center;\">+</p>","response":null,"trial_type":"html-keyboard-response","trial_index":43,"plugin_version":"2.1.0","time_elapsed":206480,"subject_id":"88137","group":"Group2","date":"2025-11-04T21:00:26.664Z"},{"task":"memory_phase","broad_category":"S","image_png":"S_Sandstone_13.png","image_id":461,"category_name":"Sandstone","category":29,"distinct_rating":2.94,"rt":null,"stimulus":"Stimuli_Rocks480/S_Sandstone_13.png","response":null,"trial_type":"image-keyboard-response","trial_index":44,"plugin_version":"2.1.0","time_elapsed":208990,"subject_id":"88137","group":"Group2","date":"2025-11-04T21:00:26.664Z"},{"rt":null,"stimulus":"<p style=\"font-size: 50px; margin: 0; text-align: center;\">+</p>","response":null,"trial_type":"html-keyboard-response","trial_index":45,"plugin_version":"2.1.0","time_elapsed":209991,"subject_id":"88137","group":"Group2","date":"2025-11-04T21:00:26.664Z"},{"task":"memory_phase","broad_category":"M","image_png":"M_Migmatite_09.png","image_id":249,"category_name":"Migmatite","category":16,"distinct_rating":3.84,"rt":null,"stimulus":"Stimuli_Rocks480/M_Migmatite_09.png","response":null,"trial_type":"image-keyboard-response","trial_index":46,"plugin_version":"2.1.0","time_elapsed":212509,"subject_id":"88137","group":"Group2","date":"2025-11-04T21:00:26.664Z"},{"rt":null,"stimulus":"<p style=\"font-size: 50px; margin: 0; text-align: center;\">+</p>","response":null,"trial_type":"html-keyboard-response","trial_index":47,"plugin_version":"2.1.0","time_elapsed":213516,"subject_id":"88137","group":"Group2","date":"2025-11-04T21:00:26.664Z"},{"task":"memory_phase","broad_category":"M","image_png":"M_Phyllite_04.png","image_id":260,"category_name":"Phyllite","category":17,"distinct_rating":4.37,"rt":null,"stimulus":"Stimuli_Rocks480/M_Phyllite_04.png","response":null,"trial_type":"image-keyboard-response","trial_index":48,"plugin_version":"2.1.0","time_elapsed":216025,"subject_id":"88137","group":"Group2","date":"2025-11-04T21:00:26.664Z"},{"rt":null,"stimulus":"<p style=\"font-size: 50px; margin: 0; text-align: center;\">+</p>","response":null,"trial_type":"html-keyboard-response","trial_index":49,"plugin_version":"2.1.0","time_elapsed":217033,"subject_id":"88137","group":"Group2","date":"2025-11-04T21:00:26.664Z"},{"task":"memory_phase","broad_category":"I","image_png":"I_Pumice_05.png","image_id":133,"category_name":"Pumice","category":9,"distinct_rating":3.37,"rt":null,"stimulus":"Stimuli_Rocks480/I_Pumice_05.png","response":null,"trial_type":"image-keyboard-response","trial_index":50,"plugin_version":"2.1.0","time_elapsed":219543,"subject_id":"88137","group":"Group2","date":"2025-11-04T21:00:26.664Z"},{"rt":null,"stimulus":"<p style=\"font-size: 50px; margin: 0; text-align: center;\">+</p>","response":null,"trial_type":"html-keyboard-response","trial_index":51,"plugin_version":"2.1.0","time_elapsed":220549,"subject_id":"88137","group":"Group2","date":"2025-11-04T21:00:26.664Z"},{"task":"memory_phase","broad_category":"M","image_png":"M_Phyllite_11.png","image_id":267,"category_name":"Phyllite","category":17,"distinct_rating":3.56,"rt":null,"stimulus":"Stimuli_Rocks480/M_Phyllite_11.png","response":null,"trial_type":"image-keyboard-response","trial_index":52,"plugin_version":"2.1.0","time_elapsed":223050,"subject_id":"88137","group":"Group2","date":"2025-11-04T21:00:26.664Z"},{"rt":null,"stimulus":"<p style=\"font-size: 50px; margin: 0; text-align: center;\">+</p>","response":null,"trial_type":"html-keyboard-response","trial_index":53,"plugin_version":"2.1.0","time_elapsed":224064,"subject_id":"88137","group":"Group2","date":"2025-11-04T21:00:26.664Z"},{"task":"memory_phase","broad_category":"I","image_png":"I_Diorite_09.png","image_id":41,"category_name":"Diorite","category":3,"distinct_rating":4.38,"rt":null,"stimulus":"Stimuli_Rocks480/I_Diorite_09.png","response":null,"trial_type":"image-keyboard-response","trial_index":54,"plugin_version":"2.1.0","time_elapsed":226577,"subject_id":"88137","group":"Group2","date":"2025-11-04T21:00:26.664Z"},{"rt":null,"stimulus":"<p style=\"font-size: 50px; margin: 0; text-align: center;\">+</p>","response":null,"trial_type":"html-keyboard-response","trial_index":55,"plugin_version":"2.1.0","time_elapsed":227590,"subject_id":"88137","group":"Group2","date":"2025-11-04T21:00:26.664Z"},{"task":"memory_phase","broad_category":"M","image_png":"M_Gneiss_10.png","image_id":202,"category_name":"Gneiss","category":13,"distinct_rating":3.09,"rt":null,"stimulus":"Stimuli_Rocks480/M_Gneiss_10.png","response":null,"trial_type":"image-keyboard-response","trial_index":56,"plugin_version":"2.1.0","time_elapsed":230093,"subject_id":"88137","group":"Group2","date":"2025-11-04T21:00:26.664Z"},{"rt":null,"stimulus":"<p style=\"font-size: 50px; margin: 0; text-align: center;\">+</p>","response":null,"trial_type":"html-keyboard-response","trial_index":57,"plugin_version":"2.1.0","time_elapsed":231107,"subject_id":"88137","group":"Group2","date":"2025-11-04T21:00:26.664Z"},{"task":"memory_phase","broad_category":"M","image_png":"M_Anthracite_04.png","image_id":180,"category_name":"Anthracite","category":12,"distinct_rating":6.25,"rt":null,"stimulus":"Stimuli_Rocks480/M_Anthracite_04.png","response":null,"trial_type":"image-keyboard-response","trial_index":58,"plugin_version":"2.1.0","time_elapsed":233608,"subject_id":"88137","group":"Group2","date":"2025-11-04T21:00:26.664Z"},{"rt":null,"stimulus":"<p style=\"font-size: 50px; margin: 0; text-align: center;\">+</p>","response":null,"trial_type":"html-keyboard-response","trial_index":59,"plugin_version":"2.1.0","time_elapsed":234612,"subject_id":"88137","group":"Group2","date":"2025-11-04T21:00:26.664Z"},{"task":"memory_phase","broad_category":"S","image_png":"S_Rock Gypsum_05.png","image_id":421,"category_name":"Rock Gypsum","category":27,"distinct_rating":3.48,"rt":null,"stimulus":"Stimuli_Rocks480/S_Rock Gypsum_05.png","response":null,"trial_type":"image-keyboard-response","trial_index":60,"plugin_version":"2.1.0","time_elapsed":237114,"subject_id":"88137","group":"Group2","date":"2025-11-04T21:00:26.664Z"},{"rt":null,"stimulus":"<p style=\"font-size: 50px; margin: 0; text-align: center;\">+</p>","response":null,"trial_type":"html-keyboard-response","trial_index":61,"plugin_version":"2.1.0","time_elapsed":238126,"subject_id":"88137","group":"Group2","date":"2025-11-04T21:00:26.664Z"},{"task":"memory_phase","broad_category":"I","image_png":"I_Granite_08.png","image_id":72,"category_name":"Granite","category":5,"distinct_rating":3.95,"rt":null,"stimulus":"Stimuli_Rocks480/I_Granite_08.png","response":null,"trial_type":"image-keyboard-response","trial_index":62,"plugin_version":"2.1.0","time_elapsed":240640,"subject_id":"88137","group":"Group2","date":"2025-11-04T21:00:26.664Z"},{"rt":null,"stimulus":"<p style=\"font-size: 50px; margin: 0; text-align: center;\">+</p>","response":null,"trial_type":"html-keyboard-response","trial_index":63,"plugin_version":"2.1.0","time_elapsed":241646,"subject_id":"88137","group":"Group2","date":"2025-11-04T21:00:26.664Z"},{"task":"memory_phase","broad_category":"I","image_png":"I_Granite_01.png","image_id":65,"category_name":"Granite","category":5,"distinct_rating":5.23,"rt":null,"stimulus":"Stimuli_Rocks480/I_Granite_01.png","response":null,"trial_type":"image-keyboard-response","trial_index":64,"plugin_version":"2.1.0","time_elapsed":244162,"subject_id":"88137","group":"Group2","date":"2025-11-04T21:00:26.664Z"},{"rt":null,"stimulus":"<p style=\"font-size: 50px; margin: 0; text-align: center;\">+</p>","response":null,"trial_type":"html-keyboard-response","trial_index":65,"plugin_version":"2.1.0","time_elapsed":245174,"subject_id":"88137","group":"Group2","date":"2025-11-04T21:00:26.664Z"},{"task":"memory_phase","broad_category":"I","image_png":"I_Andesite_05.png","image_id":5,"category_name":"Andesite","category":1,"distinct_rating":3.32,"rt":null,"stimulus":"Stimuli_Rocks480/I_Andesite_05.png","response":null,"trial_type":"image-keyboard-response","trial_index":66,"plugin_version":"2.1.0","time_elapsed":247679,"subject_id":"88137","group":"Group2","date":"2025-11-04T21:00:26.664Z"},{"rt":null,"stimulus":"<p style=\"font-size: 50px; margin: 0; text-align: center;\">+</p>","response":null,"trial_type":"html-keyboard-response","trial_index":67,"plugin_version":"2.1.0","time_elapsed":248686,"subject_id":"88137","group":"Group2","date":"2025-11-04T21:00:26.664Z"},{"task":"memory_phase","broad_category":"M","image_png":"M_Quartzite_02.png","image_id":274,"category_name":"Quartzite","category":18,"distinct_rating":2.52,"rt":null,"stimulus":"Stimuli_Rocks480/M_Quartzite_02.png","response":null,"trial_type":"image-keyboard-response","trial_index":68,"plugin_version":"2.1.0","time_elapsed":251197,"subject_id":"88137","group":"Group2","date":"2025-11-04T21:00:26.664Z"},{"rt":null,"stimulus":"<p style=\"font-size: 50px; margin: 0; text-align: center;\">+</p>","response":null,"trial_type":"html-keyboard-response","trial_index":69,"plugin_version":"2.1.0","time_elapsed":252209,"subject_id":"88137","group":"Group2","date":"2025-11-04T21:00:26.664Z"},{"task":"memory_phase","broad_category":"S","image_png":"S_Shale_07.png","image_id":471,"category_name":"Shale","category":30,"distinct_rating":2.73,"rt":null,"stimulus":"Stimuli_Rocks480/S_Shale_07.png","response":null,"trial_type":"image-keyboard-response","trial_index":70,"plugin_version":"2.1.0","time_elapsed":254719,"subject_id":"88137","group":"Group2","date":"2025-11-04T21:00:26.664Z"},{"rt":null,"stimulus":"<p style=\"font-size: 50px; margin: 0; text-align: center;\">+</p>","response":null,"trial_type":"html-keyboard-response","trial_index":71,"plugin_version":"2.1.0","time_elapsed":255723,"subject_id":"88137","group":"Group2","date":"2025-11-04T21:00:26.664Z"},{"task":"memory_phase","broad_category":"I","image_png":"I_Rhyolite_02.png","image_id":146,"category_name":"Rhyolite","category":10,"distinct_rating":3.26,"rt":null,"stimulus":"Stimuli_Rocks480/I_Rhyolite_02.png","response":null,"trial_type":"image-keyboard-response","trial_index":72,"plugin_version":"2.1.0","time_elapsed":258229,"subject_id":"88137","group":"Group2","date":"2025-11-04T21:00:26.664Z"},{"rt":null,"stimulus":"<p style=\"font-size: 50px; margin: 0; text-align: center;\">+</p>","response":null,"trial_type":"html-keyboard-response","trial_index":73,"plugin_version":"2.1.0","time_elapsed":259242,"subject_id":"88137","group":"Group2","date":"2025-11-04T21:00:26.664Z"},{"task":"memory_phase","broad_category":"M","image_png":"M_Hornfels_13.png","image_id":221,"category_name":"Hornfels","category":14,"distinct_rating":3.2,"rt":null,"stimulus":"Stimuli_Rocks480/M_Hornfels_13.png","response":null,"trial_type":"image-keyboard-response","trial_index":74,"plugin_version":"2.1.0","time_elapsed":261753,"subject_id":"88137","group":"Group2","date":"2025-11-04T21:00:26.664Z"},{"rt":null,"stimulus":"<p style=\"font-size: 50px; margin: 0; text-align: center;\">+</p>","response":null,"trial_type":"html-keyboard-response","trial_index":75,"plugin_version":"2.1.0","time_elapsed":262764,"subject_id":"88137","group":"Group2","date":"2025-11-04T21:00:26.664Z"},{"task":"memory_phase","broad_category":"M","image_png":"M_Quartzite_15.png","image_id":287,"category_name":"Quartzite","category":18,"distinct_rating":2.19,"rt":null,"stimulus":"Stimuli_Rocks480/M_Quartzite_15.png","response":null,"trial_type":"image-keyboard-response","trial_index":76,"plugin_version":"2.1.0","time_elapsed":265276,"subject_id":"88137","group":"Group2","date":"2025-11-04T21:00:26.664Z"},{"rt":null,"stimulus":"<p style=\"font-size: 50px; margin: 0; text-align: center;\">+</p>","response":null,"trial_type":"html-keyboard-response","trial_index":77,"plugin_version":"2.1.0","time_elapsed":266289,"subject_id":"88137","group":"Group2","date":"2025-11-04T21:00:26.664Z"},{"task":"memory_phase","broad_category":"M","image_png":"M_Anthracite_10.png","image_id":186,"category_name":"Anthracite","category":12,"distinct_rating":5.19,"rt":null,"stimulus":"Stimuli_Rocks480/M_Anthracite_10.png","response":null,"trial_type":"image-keyboard-response","trial_index":78,"plugin_version":"2.1.0","time_elapsed":268802,"subject_id":"88137","group":"Group2","date":"2025-11-04T21:00:26.664Z"},{"rt":null,"stimulus":"<p style=\"font-size: 50px; margin: 0; text-align: center;\">+</p>","response":null,"trial_type":"html-keyboard-response","trial_index":79,"plugin_version":"2.1.0","time_elapsed":269814,"subject_id":"88137","group":"Group2","date":"2025-11-04T21:00:26.664Z"},{"task":"memory_phase","broad_category":"M","image_png":"M_Slate_14.png","image_id":318,"category_name":"Slate","category":20,"distinct_rating":2.58,"rt":null,"stimulus":"Stimuli_Rocks480/M_Slate_14.png","response":null,"trial_type":"image-keyboard-response","trial_index":80,"plugin_version":"2.1.0","time_elapsed":272318,"subject_id":"88137","group":"Group2","date":"2025-11-04T21:00:26.664Z"},{"rt":null,"stimulus":"<p style=\"font-size: 50px; margin: 0; text-align: center;\">+</p>","response":null,"trial_type":"html-keyboard-response","trial_index":81,"plugin_version":"2.1.0","time_elapsed":273320,"subject_id":"88137","group":"Group2","date":"2025-11-04T21:00:26.664Z"},{"task":"memory_phase","broad_category":"M","image_png":"M_Schist_09.png","image_id":297,"category_name":"Schist","category":19,"distinct_rating":3.31,"rt":null,"stimulus":"Stimuli_Rocks480/M_Schist_09.png","response":null,"trial_type":"image-keyboard-response","trial_index":82,"plugin_version":"2.1.0","time_elapsed":275824,"subject_id":"88137","group":"Group2","date":"2025-11-04T21:00:26.664Z"},{"rt":null,"stimulus":"<p style=\"font-size: 50px; margin: 0; text-align: center;\">+</p>","response":null,"trial_type":"html-keyboard-response","trial_index":83,"plugin_version":"2.1.0","time_elapsed":276839,"subject_id":"88137","group":"Group2","date":"2025-11-04T21:00:26.664Z"},{"task":"memory_phase","broad_category":"M","image_png":"M_Schist_07.png","image_id":295,"category_name":"Schist","category":19,"distinct_rating":4.2,"rt":null,"stimulus":"Stimuli_Rocks480/M_Schist_07.png","response":null,"trial_type":"image-keyboard-response","trial_index":84,"plugin_version":"2.1.0","time_elapsed":279346,"subject_id":"88137","group":"Group2","date":"2025-11-04T21:00:26.664Z"},{"rt":null,"stimulus":"<p style=\"font-size: 50px; margin: 0; text-align: center;\">+</p>","response":null,"trial_type":"html-keyboard-response","trial_index":85,"plugin_version":"2.1.0","time_elapsed":280362,"subject_id":"88137","group":"Group2","date":"2025-11-04T21:00:26.664Z"},{"task":"memory_phase","broad_category":"I","image_png":"I_Pumice_08.png","image_id":136,"category_name":"Pumice","category":9,"distinct_rating":3.1,"rt":null,"stimulus":"Stimuli_Rocks480/I_Pumice_08.png","response":null,"trial_type":"image-keyboard-response","trial_index":86,"plugin_version":"2.1.0","time_elapsed":282880,"subject_id":"88137","group":"Group2","date":"2025-11-04T21:00:26.664Z"},{"rt":null,"stimulus":"<p style=\"font-size: 50px; margin: 0; text-align: center;\">+</p>","response":null,"trial_type":"html-keyboard-response","trial_index":87,"plugin_version":"2.1.0","time_elapsed":283893,"subject_id":"88137","group":"Group2","date":"2025-11-04T21:00:26.664Z"},{"task":"memory_phase","broad_category":"S","image_png":"S_Shale_06.png","image_id":470,"category_name":"Shale","category":30,"distinct_rating":4.11,"rt":null,"stimulus":"Stimuli_Rocks480/S_Shale_06.png","response":null,"trial_type":"image-keyboard-response","trial_index":88,"plugin_version":"2.1.0","time_elapsed":286402,"subject_id":"88137","group":"Group2","date":"2025-11-04T21:00:26.664Z"},{"rt":null,"stimulus":"<p style=\"font-size: 50px; margin: 0; text-align: center;\">+</p>","response":null,"trial_type":"html-keyboard-response","trial_index":89,"plugin_version":"2.1.0","time_elapsed":287411,"subject_id":"88137","group":"Group2","date":"2025-11-04T21:00:26.664Z"},{"task":"memory_phase","broad_category":"S","image_png":"S_Micrite_14.png","image_id":414,"category_name":"Micrite","category":26,"distinct_rating":2.42,"rt":null,"stimulus":"Stimuli_Rocks480/S_Micrite_14.png","response":null,"trial_type":"image-keyboard-response","trial_index":90,"plugin_version":"2.1.0","time_elapsed":289920,"subject_id":"88137","group":"Group2","date":"2025-11-04T21:00:26.664Z"},{"rt":null,"stimulus":"<p style=\"font-size: 50px; margin: 0; text-align: center;\">+</p>","response":null,"trial_type":"html-keyboard-response","trial_index":91,"plugin_version":"2.1.0","time_elapsed":290921,"subject_id":"88137","group":"Group2","date":"2025-11-04T21:00:26.664Z"},{"task":"memory_phase","broad_category":"M","image_png":"M_Slate_15.png","image_id":319,"category_name":"Slate","category":20,"distinct_rating":2.13,"rt":null,"stimulus":"Stimuli_Rocks480/M_Slate_15.png","response":null,"trial_type":"image-keyboard-response","trial_index":92,"plugin_version":"2.1.0","time_elapsed":293429,"subject_id":"88137","group":"Group2","date":"2025-11-04T21:00:26.664Z"},{"rt":null,"stimulus":"<p style=\"font-size: 50px; margin: 0; text-align: center;\">+</p>","response":null,"trial_type":"html-keyboard-response","trial_index":93,"plugin_version":"2.1.0","time_elapsed":294430,"subject_id":"88137","group":"Group2","date":"2025-11-04T21:00:26.664Z"},{"task":"memory_phase","broad_category":"S","image_png":"S_Micrite_05.png","image_id":405,"category_name":"Micrite","category":26,"distinct_rating":8.21,"rt":null,"stimulus":"Stimuli_Rocks480/S_Micrite_05.png","response":null,"trial_type":"image-keyboard-response","trial_index":94,"plugin_version":"2.1.0","time_elapsed":296942,"subject_id":"88137","group":"Group2","date":"2025-11-04T21:00:26.664Z"},{"rt":null,"stimulus":"<p style=\"font-size: 50px; margin: 0; text-align: center;\">+</p>","response":null,"trial_type":"html-keyboard-response","trial_index":95,"plugin_version":"2.1.0","time_elapsed":297950,"subject_id":"88137","group":"Group2","date":"2025-11-04T21:00:26.664Z"},{"task":"memory_phase","broad_category":"I","image_png":"I_Pumice_16.png","image_id":144,"category_name":"Pumice","category":9,"distinct_rating":5.37,"rt":null,"stimulus":"Stimuli_Rocks480/I_Pumice_16.png","response":null,"trial_type":"image-keyboard-response","trial_index":96,"plugin_version":"2.1.0","time_elapsed":300457,"subject_id":"88137","group":"Group2","date":"2025-11-04T21:00:26.664Z"},{"rt":null,"stimulus":"<p style=\"font-size: 50px; margin: 0; text-align: center;\">+</p>","response":null,"trial_type":"html-keyboard-response","trial_index":97,"plugin_version":"2.1.0","time_elapsed":301458,"subject_id":"88137","group":"Group2","date":"2025-11-04T21:00:26.664Z"},{"task":"memory_phase","broad_category":"M","image_png":"M_Amphibolite_06.png","image_id":166,"category_name":"Amphibolite","category":11,"distinct_rating":2.8,"rt":null,"stimulus":"Stimuli_Rocks480/M_Amphibolite_06.png","response":null,"trial_type":"image-keyboard-response","trial_index":98,"plugin_version":"2.1.0","time_elapsed":303982,"subject_id":"88137","group":"Group2","date":"2025-11-04T21:00:26.664Z"},{"rt":null,"stimulus":"<p style=\"font-size: 50px; margin: 0; text-align: center;\">+</p>","response":null,"trial_type":"html-keyboard-response","trial_index":99,"plugin_version":"2.1.0","time_elapsed":304986,"subject_id":"88137","group":"Group2","date":"2025-11-04T21:00:26.664Z"},{"task":"memory_phase","broad_category":"S","image_png":"S_Micrite_12.png","image_id":412,"category_name":"Micrite","category":26,"distinct_rating":3.14,"rt":null,"stimulus":"Stimuli_Rocks480/S_Micrite_12.png","response":null,"trial_type":"image-keyboard-response","trial_index":100,"plugin_version":"2.1.0","time_elapsed":307499,"subject_id":"88137","group":"Group2","date":"2025-11-04T21:00:26.664Z"},{"rt":4499,"stimulus":"<p style=\"font-size: 35px;\">Press SPACE to continue study phase</p>","response":" ","trial_type":"html-keyboard-response","trial_index":101,"plugin_version":"2.1.0","time_elapsed":311999,"subject_id":"88137","group":"Group2","date":"2025-11-04T21:00:26.664Z"},{"rt":null,"stimulus":"<p style=\"font-size: 50px; margin: 0; text-align: center;\">+</p>","response":null,"trial_type":"html-keyboard-response","trial_index":102,"plugin_version":"2.1.0","time_elapsed":313001,"subject_id":"88137","group":"Group2","date":"2025-11-04T21:00:26.664Z"},{"task":"memory_phase","broad_category":"M","image_png":"M_Migmatite_05.png","image_id":245,"category_name":"Migmatite","category":16,"distinct_rating":4.03,"rt":null,"stimulus":"Stimuli_Rocks480/M_Migmatite_05.png","response":null,"trial_type":"image-keyboard-response","trial_index":103,"plugin_version":"2.1.0","time_elapsed":315512,"subject_id":"88137","group":"Group2","date":"2025-11-04T21:00:26.664Z"},{"rt":null,"stimulus":"<p style=\"font-size: 50px; margin: 0; text-align: center;\">+</p>","response":null,"trial_type":"html-keyboard-response","trial_index":104,"plugin_version":"2.1.0","time_elapsed":316527,"subject_id":"88137","group":"Group2","date":"2025-11-04T21:00:26.664Z"},{"task":"memory_phase","broad_category":"S","image_png":"S_Shale_03.png","image_id":467,"category_name":"Shale","category":30,"distinct_rating":1.95,"rt":null,"stimulus":"Stimuli_Rocks480/S_Shale_03.png","response":null,"trial_type":"image-keyboard-response","trial_index":105,"plugin_version":"2.1.0","time_elapsed":319032,"subject_id":"88137","group":"Group2","date":"2025-11-04T21:00:26.664Z"},{"rt":null,"stimulus":"<p style=\"font-size: 50px; margin: 0; text-align: center;\">+</p>","response":null,"trial_type":"html-keyboard-response","trial_index":106,"plugin_version":"2.1.0","time_elapsed":320033,"subject_id":"88137","group":"Group2","date":"2025-11-04T21:00:26.664Z"},{"task":"memory_phase","broad_category":"S","image_png":"S_Dolomite_03.png","image_id":387,"category_name":"Dolomite","category":25,"distinct_rating":3.42,"rt":null,"stimulus":"Stimuli_Rocks480/S_Dolomite_03.png","response":null,"trial_type":"image-keyboard-response","trial_index":107,"plugin_version":"2.1.0","time_elapsed":322543,"subject_id":"88137","group":"Group2","date":"2025-11-04T21:00:26.664Z"},{"rt":null,"stimulus":"<p style=\"font-size: 50px; margin: 0; text-align: center;\">+</p>","response":null,"trial_type":"html-keyboard-response","trial_index":108,"plugin_version":"2.1.0","time_elapsed":323554,"subject_id":"88137","group":"Group2","date":"2025-11-04T21:00:26.664Z"},{"task":"memory_phase","broad_category":"I","image_png":"I_Basalt_05.png","image_id":21,"category_name":"Basalt","category":2,"distinct_rating":2.55,"rt":null,"stimulus":"Stimuli_Rocks480/I_Basalt_05.png","response":null,"trial_type":"image-keyboard-response","trial_index":109,"plugin_version":"2.1.0","time_elapsed":326057,"subject_id":"88137","group":"Group2","date":"2025-11-04T21:00:26.664Z"},{"rt":null,"stimulus":"<p style=\"font-size: 50px; margin: 0; text-align: center;\">+</p>","response":null,"trial_type":"html-keyboard-response","trial_index":110,"plugin_version":"2.1.0","time_elapsed":327072,"subject_id":"88137","group":"Group2","date":"2025-11-04T21:00:26.664Z"},{"task":"memory_phase","broad_category":"S","image_png":"S_Conglomerate_08.png","image_id":376,"category_name":"Conglomerate","category":24,"distinct_rating":4.83,"rt":null,"stimulus":"Stimuli_Rocks480/S_Conglomerate_08.png","response":null,"trial_type":"image-keyboard-response","trial_index":111,"plugin_version":"2.1.0","time_elapsed":329587,"subject_id":"88137","group":"Group2","date":"2025-11-04T21:00:26.664Z"},{"rt":null,"stimulus":"<p style=\"font-size: 50px; margin: 0; text-align: center;\">+</p>","response":null,"trial_type":"html-keyboard-response","trial_index":112,"plugin_version":"2.1.0","time_elapsed":330604,"subject_id":"88137","group":"Group2","date":"2025-11-04T21:00:26.664Z"},{"task":"memory_phase","broad_category":"I","image_png":"I_Granite_03.png","image_id":67,"category_name":"Granite","category":5,"distinct_rating":3.6,"rt":null,"stimulus":"Stimuli_Rocks480/I_Granite_03.png","response":null,"trial_type":"image-keyboard-response","trial_index":113,"plugin_version":"2.1.0","time_elapsed":333107,"subject_id":"88137","group":"Group2","date":"2025-11-04T21:00:26.664Z"},{"rt":null,"stimulus":"<p style=\"font-size: 50px; margin: 0; text-align: center;\">+</p>","response":null,"trial_type":"html-keyboard-response","trial_index":114,"plugin_version":"2.1.0","time_elapsed":334124,"subject_id":"88137","group":"Group2","date":"2025-11-04T21:00:26.664Z"},{"task":"memory_phase","broad_category":"S","image_png":"S_Breccia_05.png","image_id":341,"category_name":"Breccia","category":22,"distinct_rating":6.25,"rt":null,"stimulus":"Stimuli_Rocks480/S_Breccia_05.png","response":null,"trial_type":"image-keyboard-response","trial_index":115,"plugin_version":"2.1.0","time_elapsed":336642,"subject_id":"88137","group":"Group2","date":"2025-11-04T21:00:26.664Z"},{"rt":null,"stimulus":"<p style=\"font-size: 50px; margin: 0; text-align: center;\">+</p>","response":null,"trial_type":"html-keyboard-response","trial_index":116,"plugin_version":"2.1.0","time_elapsed":337647,"subject_id":"88137","group":"Group2","date":"2025-11-04T21:00:26.664Z"},{"task":"memory_phase","broad_category":"S","image_png":"S_Sandstone_10.png","image_id":458,"category_name":"Sandstone","category":29,"distinct_rating":2.05,"rt":null,"stimulus":"Stimuli_Rocks480/S_Sandstone_10.png","response":null,"trial_type":"image-keyboard-response","trial_index":117,"plugin_version":"2.1.0","time_elapsed":340163,"subject_id":"88137","group":"Group2","date":"2025-11-04T21:00:26.664Z"},{"rt":null,"stimulus":"<p style=\"font-size: 50px; margin: 0; text-align: center;\">+</p>","response":null,"trial_type":"html-keyboard-response","trial_index":118,"plugin_version":"2.1.0","time_elapsed":341178,"subject_id":"88137","group":"Group2","date":"2025-11-04T21:00:26.664Z"},{"task":"memory_phase","broad_category":"I","image_png":"I_Rhyolite_06.png","image_id":150,"category_name":"Rhyolite","category":10,"distinct_rating":5,"rt":null,"stimulus":"Stimuli_Rocks480/I_Rhyolite_06.png","response":null,"trial_type":"image-keyboard-response","trial_index":119,"plugin_version":"2.1.0","time_elapsed":343692,"subject_id":"88137","group":"Group2","date":"2025-11-04T21:00:26.664Z"},{"rt":null,"stimulus":"<p style=\"font-size: 50px; margin: 0; text-align: center;\">+</p>","response":null,"trial_type":"html-keyboard-response","trial_index":120,"plugin_version":"2.1.0","time_elapsed":344708,"subject_id":"88137","group":"Group2","date":"2025-11-04T21:00:26.664Z"},{"task":"memory_phase","broad_category":"M","image_png":"M_Marble_04.png","image_id":228,"category_name":"Marble","category":15,"distinct_rating":3.15,"rt":null,"stimulus":"Stimuli_Rocks480/M_Marble_04.png","response":null,"trial_type":"image-keyboard-response","trial_index":121,"plugin_version":"2.1.0","time_elapsed":347223,"subject_id":"88137","group":"Group2","date":"2025-11-04T21:00:26.664Z"},{"rt":null,"stimulus":"<p style=\"font-size: 50px; margin: 0; text-align: center;\">+</p>","response":null,"trial_type":"html-keyboard-response","trial_index":122,"plugin_version":"2.1.0","time_elapsed":348240,"subject_id":"88137","group":"Group2","date":"2025-11-04T21:00:26.664Z"},{"task":"memory_phase","broad_category":"I","image_png":"I_Basalt_11.png","image_id":27,"category_name":"Basalt","category":2,"distinct_rating":3.11,"rt":null,"stimulus":"Stimuli_Rocks480/I_Basalt_11.png","response":null,"trial_type":"image-keyboard-response","trial_index":123,"plugin_version":"2.1.0","time_elapsed":350749,"subject_id":"88137","group":"Group2","date":"2025-11-04T21:00:26.664Z"},{"rt":null,"stimulus":"<p style=\"font-size: 50px; margin: 0; text-align: center;\">+</p>","response":null,"trial_type":"html-keyboard-response","trial_index":124,"plugin_version":"2.1.0","time_elapsed":351757,"subject_id":"88137","group":"Group2","date":"2025-11-04T21:00:26.664Z"},{"task":"memory_phase","broad_category":"S","image_png":"S_Breccia_03.png","image_id":339,"category_name":"Breccia","category":22,"distinct_rating":5.07,"rt":null,"stimulus":"Stimuli_Rocks480/S_Breccia_03.png","response":null,"trial_type":"image-keyboard-response","trial_index":125,"plugin_version":"2.1.0","time_elapsed":354270,"subject_id":"88137","group":"Group2","date":"2025-11-04T21:00:26.664Z"},{"rt":null,"stimulus":"<p style=\"font-size: 50px; margin: 0; text-align: center;\">+</p>","response":null,"trial_type":"html-keyboard-response","trial_index":126,"plugin_version":"2.1.0","time_elapsed":355277,"subject_id":"88137","group":"Group2","date":"2025-11-04T21:00:26.664Z"},{"task":"memory_phase","broad_category":"I","image_png":"I_Gabbro_07.png","image_id":55,"category_name":"Gabbro","category":4,"distinct_rating":4.29,"rt":null,"stimulus":"Stimuli_Rocks480/I_Gabbro_07.png","response":null,"trial_type":"image-keyboard-response","trial_index":127,"plugin_version":"2.1.0","time_elapsed":357795,"subject_id":"88137","group":"Group2","date":"2025-11-04T21:00:26.664Z"},{"rt":null,"stimulus":"<p style=\"font-size: 50px; margin: 0; text-align: center;\">+</p>","response":null,"trial_type":"html-keyboard-response","trial_index":128,"plugin_version":"2.1.0","time_elapsed":358800,"subject_id":"88137","group":"Group2","date":"2025-11-04T21:00:26.664Z"},{"task":"memory_phase","broad_category":"I","image_png":"I_Diorite_04.png","image_id":36,"category_name":"Diorite","category":3,"distinct_rating":2.98,"rt":null,"stimulus":"Stimuli_Rocks480/I_Diorite_04.png","response":null,"trial_type":"image-keyboard-response","trial_index":129,"plugin_version":"2.1.0","time_elapsed":361311,"subject_id":"88137","group":"Group2","date":"2025-11-04T21:00:26.664Z"},{"rt":null,"stimulus":"<p style=\"font-size: 50px; margin: 0; text-align: center;\">+</p>","response":null,"trial_type":"html-keyboard-response","trial_index":130,"plugin_version":"2.1.0","time_elapsed":362326,"subject_id":"88137","group":"Group2","date":"2025-11-04T21:00:26.664Z"},{"task":"memory_phase","broad_category":"M","image_png":"M_Schist_11.png","image_id":299,"category_name":"Schist","category":19,"distinct_rating":6.22,"rt":null,"stimulus":"Stimuli_Rocks480/M_Schist_11.png","response":null,"trial_type":"image-keyboard-response","trial_index":131,"plugin_version":"2.1.0","time_elapsed":364844,"subject_id":"88137","group":"Group2","date":"2025-11-04T21:00:26.664Z"},{"rt":null,"stimulus":"<p style=\"font-size: 50px; margin: 0; text-align: center;\">+</p>","response":null,"trial_type":"html-keyboard-response","trial_index":132,"plugin_version":"2.1.0","time_elapsed":365854,"subject_id":"88137","group":"Group2","date":"2025-11-04T21:00:26.664Z"},{"task":"memory_phase","broad_category":"M","image_png":"M_Gneiss_08.png","image_id":200,"category_name":"Gneiss","category":13,"distinct_rating":3.69,"rt":null,"stimulus":"Stimuli_Rocks480/M_Gneiss_08.png","response":null,"trial_type":"image-keyboard-response","trial_index":133,"plugin_version":"2.1.0","time_elapsed":368357,"subject_id":"88137","group":"Group2","date":"2025-11-04T21:00:26.664Z"},{"rt":null,"stimulus":"<p style=\"font-size: 50px; margin: 0; text-align: center;\">+</p>","response":null,"trial_type":"html-keyboard-response","trial_index":134,"plugin_version":"2.1.0","time_elapsed":369364,"subject_id":"88137","group":"Group2","date":"2025-11-04T21:00:26.664Z"},{"task":"memory_phase","broad_category":"I","image_png":"I_Obsidian_15.png","image_id":95,"category_name":"Obsidian","category":6,"distinct_rating":6.67,"rt":null,"stimulus":"Stimuli_Rocks480/I_Obsidian_15.png","response":null,"trial_type":"image-keyboard-response","trial_index":135,"plugin_version":"2.1.0","time_elapsed":371875,"subject_id":"88137","group":"Group2","date":"2025-11-04T21:00:26.664Z"},{"rt":null,"stimulus":"<p style=\"font-size: 50px; margin: 0; text-align: center;\">+</p>","response":null,"trial_type":"html-keyboard-response","trial_index":136,"plugin_version":"2.1.0","time_elapsed":372890,"subject_id":"88137","group":"Group2","date":"2025-11-04T21:00:26.664Z"},{"task":"memory_phase","broad_category":"S","image_png":"S_Bituminous Coal_06.png","image_id":326,"category_name":"Bituminous Coal","category":21,"distinct_rating":3.4,"rt":null,"stimulus":"Stimuli_Rocks480/S_Bituminous Coal_06.png","response":null,"trial_type":"image-keyboard-response","trial_index":137,"plugin_version":"2.1.0","time_elapsed":375395,"subject_id":"88137","group":"Group2","date":"2025-11-04T21:00:26.664Z"},{"rt":null,"stimulus":"<p style=\"font-size: 50px; margin: 0; text-align: center;\">+</p>","response":null,"trial_type":"html-keyboard-response","trial_index":138,"plugin_version":"2.1.0","time_elapsed":376409,"subject_id":"88137","group":"Group2","date":"2025-11-04T21:00:26.664Z"},{"task":"memory_phase","broad_category":"S","image_png":"S_Shale_08.png","image_id":472,"category_name":"Shale","category":30,"distinct_rating":2.55,"rt":null,"stimulus":"Stimuli_Rocks480/S_Shale_08.png","response":null,"trial_type":"image-keyboard-response","trial_index":139,"plugin_version":"2.1.0","time_elapsed":378924,"subject_id":"88137","group":"Group2","date":"2025-11-04T21:00:26.664Z"},{"rt":null,"stimulus":"<p style=\"font-size: 50px; margin: 0; text-align: center;\">+</p>","response":null,"trial_type":"html-keyboard-response","trial_index":140,"plugin_version":"2.1.0","time_elapsed":379935,"subject_id":"88137","group":"Group2","date":"2025-11-04T21:00:26.664Z"},{"task":"memory_phase","broad_category":"M","image_png":"M_Phyllite_07.png","image_id":263,"category_name":"Phyllite","category":17,"distinct_rating":2.59,"rt":null,"stimulus":"Stimuli_Rocks480/M_Phyllite_07.png","response":null,"trial_type":"image-keyboard-response","trial_index":141,"plugin_version":"2.1.0","time_elapsed":382446,"subject_id":"88137","group":"Group2","date":"2025-11-04T21:00:26.664Z"},{"rt":null,"stimulus":"<p style=\"font-size: 50px; margin: 0; text-align: center;\">+</p>","response":null,"trial_type":"html-keyboard-response","trial_index":142,"plugin_version":"2.1.0","time_elapsed":383455,"subject_id":"88137","group":"Group2","date":"2025-11-04T21:00:26.664Z"},{"task":"memory_phase","broad_category":"S","image_png":"S_Rock Salt_04.png","image_id":436,"category_name":"Rock Salt","category":28,"distinct_rating":7.89,"rt":null,"stimulus":"Stimuli_Rocks480/S_Rock Salt_04.png","response":null,"trial_type":"image-keyboard-response","trial_index":143,"plugin_version":"2.1.0","time_elapsed":385963,"subject_id":"88137","group":"Group2","date":"2025-11-04T21:00:26.664Z"},{"rt":null,"stimulus":"<p style=\"font-size: 50px; margin: 0; text-align: center;\">+</p>","response":null,"trial_type":"html-keyboard-response","trial_index":144,"plugin_version":"2.1.0","time_elapsed":386966,"subject_id":"88137","group":"Group2","date":"2025-11-04T21:00:26.664Z"},{"task":"memory_phase","broad_category":"I","image_png":"I_Andesite_10.png","image_id":10,"category_name":"Andesite","category":1,"distinct_rating":3.15,"rt":null,"stimulus":"Stimuli_Rocks480/I_Andesite_10.png","response":null,"trial_type":"image-keyboard-response","trial_index":145,"plugin_version":"2.1.0","time_elapsed":389482,"subject_id":"88137","group":"Group2","date":"2025-11-04T21:00:26.664Z"},{"rt":null,"stimulus":"<p style=\"font-size: 50px; margin: 0; text-align: center;\">+</p>","response":null,"trial_type":"html-keyboard-response","trial_index":146,"plugin_version":"2.1.0","time_elapsed":390499,"subject_id":"88137","group":"Group2","date":"2025-11-04T21:00:26.664Z"},{"task":"memory_phase","broad_category":"M","image_png":"M_Gneiss_14.png","image_id":206,"category_name":"Gneiss","category":13,"distinct_rating":3.41,"rt":null,"stimulus":"Stimuli_Rocks480/M_Gneiss_14.png","response":null,"trial_type":"image-keyboard-response","trial_index":147,"plugin_version":"2.1.0","time_elapsed":393017,"subject_id":"88137","group":"Group2","date":"2025-11-04T21:00:26.664Z"},{"rt":null,"stimulus":"<p style=\"font-size: 50px; margin: 0; text-align: center;\">+</p>","response":null,"trial_type":"html-keyboard-response","trial_index":148,"plugin_version":"2.1.0","time_elapsed":394019,"subject_id":"88137","group":"Group2","date":"2025-11-04T21:00:26.664Z"},{"task":"memory_phase","broad_category":"S","image_png":"S_Dolomite_02.png","image_id":386,"category_name":"Dolomite","category":25,"distinct_rating":5.49,"rt":null,"stimulus":"Stimuli_Rocks480/S_Dolomite_02.png","response":null,"trial_type":"image-keyboard-response","trial_index":149,"plugin_version":"2.1.0","time_elapsed":396531,"subject_id":"88137","group":"Group2","date":"2025-11-04T21:00:26.664Z"},{"rt":null,"stimulus":"<p style=\"font-size: 50px; margin: 0; text-align: center;\">+</p>","response":null,"trial_type":"html-keyboard-response","trial_index":150,"plugin_version":"2.1.0","time_elapsed":397547,"subject_id":"88137","group":"Group2","date":"2025-11-04T21:00:26.664Z"},{"task":"memory_phase","broad_category":"M","image_png":"M_Slate_02.png","image_id":306,"category_name":"Slate","category":20,"distinct_rating":2.88,"rt":null,"stimulus":"Stimuli_Rocks480/M_Slate_02.png","response":null,"trial_type":"image-keyboard-response","trial_index":151,"plugin_version":"2.1.0","time_elapsed":400064,"subject_id":"88137","group":"Group2","date":"2025-11-04T21:00:26.664Z"},{"rt":null,"stimulus":"<p style=\"font-size: 50px; margin: 0; text-align: center;\">+</p>","response":null,"trial_type":"html-keyboard-response","trial_index":152,"plugin_version":"2.1.0","time_elapsed":401075,"subject_id":"88137","group":"Group2","date":"2025-11-04T21:00:26.664Z"},{"task":"memory_phase","broad_category":"S","image_png":"S_Rock Gypsum_08.png","image_id":424,"category_name":"Rock Gypsum","category":27,"distinct_rating":5.57,"rt":null,"stimulus":"Stimuli_Rocks480/S_Rock Gypsum_08.png","response":null,"trial_type":"image-keyboard-response","trial_index":153,"plugin_version":"2.1.0","time_elapsed":403578,"subject_id":"88137","group":"Group2","date":"2025-11-04T21:00:26.664Z"},{"rt":null,"stimulus":"<p style=\"font-size: 50px; margin: 0; text-align: center;\">+</p>","response":null,"trial_type":"html-keyboard-response","trial_index":154,"plugin_version":"2.1.0","time_elapsed":404580,"subject_id":"88137","group":"Group2","date":"2025-11-04T21:00:26.664Z"},{"task":"memory_phase","broad_category":"M","image_png":"M_Amphibolite_09.png","image_id":169,"category_name":"Amphibolite","category":11,"distinct_rating":3.83,"rt":null,"stimulus":"Stimuli_Rocks480/M_Amphibolite_09.png","response":null,"trial_type":"image-keyboard-response","trial_index":155,"plugin_version":"2.1.0","time_elapsed":407089,"subject_id":"88137","group":"Group2","date":"2025-11-04T21:00:26.664Z"},{"rt":null,"stimulus":"<p style=\"font-size: 50px; margin: 0; text-align: center;\">+</p>","response":null,"trial_type":"html-keyboard-response","trial_index":156,"plugin_version":"2.1.0","time_elapsed":408101,"subject_id":"88137","group":"Group2","date":"2025-11-04T21:00:26.664Z"},{"task":"memory_phase","broad_category":"M","image_png":"M_Anthracite_14.png","image_id":190,"category_name":"Anthracite","category":12,"distinct_rating":4.36,"rt":null,"stimulus":"Stimuli_Rocks480/M_Anthracite_14.png","response":null,"trial_type":"image-keyboard-response","trial_index":157,"plugin_version":"2.1.0","time_elapsed":410603,"subject_id":"88137","group":"Group2","date":"2025-11-04T21:00:26.664Z"},{"rt":null,"stimulus":"<p style=\"font-size: 50px; margin: 0; text-align: center;\">+</p>","response":null,"trial_type":"html-keyboard-response","trial_index":158,"plugin_version":"2.1.0","time_elapsed":411618,"subject_id":"88137","group":"Group2","date":"2025-11-04T21:00:26.664Z"},{"task":"memory_phase","broad_category":"M","image_png":"M_Marble_05.png","image_id":229,"category_name":"Marble","category":15,"distinct_rating":4.1,"rt":null,"stimulus":"Stimuli_Rocks480/M_Marble_05.png","response":null,"trial_type":"image-keyboard-response","trial_index":159,"plugin_version":"2.1.0","time_elapsed":414125,"subject_id":"88137","group":"Group2","date":"2025-11-04T21:00:26.664Z"},{"rt":null,"stimulus":"<p style=\"font-size: 50px; margin: 0; text-align: center;\">+</p>","response":null,"trial_type":"html-keyboard-response","trial_index":160,"plugin_version":"2.1.0","time_elapsed":415135,"subject_id":"88137","group":"Group2","date":"2025-11-04T21:00:26.664Z"},{"task":"memory_phase","broad_category":"I","image_png":"I_Pegmatite_15.png","image_id":111,"category_name":"Pegmatite","category":7,"distinct_rating":7.02,"rt":null,"stimulus":"Stimuli_Rocks480/I_Pegmatite_15.png","response":null,"trial_type":"image-keyboard-response","trial_index":161,"plugin_version":"2.1.0","time_elapsed":417641,"subject_id":"88137","group":"Group2","date":"2025-11-04T21:00:26.664Z"},{"rt":null,"stimulus":"<p style=\"font-size: 50px; margin: 0; text-align: center;\">+</p>","response":null,"trial_type":"html-keyboard-response","trial_index":162,"plugin_version":"2.1.0","time_elapsed":418650,"subject_id":"88137","group":"Group2","date":"2025-11-04T21:00:26.664Z"},{"task":"memory_phase","broad_category":"M","image_png":"M_Migmatite_15.png","image_id":255,"category_name":"Migmatite","category":16,"distinct_rating":5.37,"rt":null,"stimulus":"Stimuli_Rocks480/M_Migmatite_15.png","response":null,"trial_type":"image-keyboard-response","trial_index":163,"plugin_version":"2.1.0","time_elapsed":421158,"subject_id":"88137","group":"Group2","date":"2025-11-04T21:00:26.664Z"},{"rt":null,"stimulus":"<p style=\"font-size: 50px; margin: 0; text-align: center;\">+</p>","response":null,"trial_type":"html-keyboard-response","trial_index":164,"plugin_version":"2.1.0","time_elapsed":422165,"subject_id":"88137","group":"Group2","date":"2025-11-04T21:00:26.664Z"},{"task":"memory_phase","broad_category":"M","image_png":"M_Amphibolite_12.png","image_id":172,"category_name":"Amphibolite","category":11,"distinct_rating":5.62,"rt":null,"stimulus":"Stimuli_Rocks480/M_Amphibolite_12.png","response":null,"trial_type":"image-keyboard-response","trial_index":165,"plugin_version":"2.1.0","time_elapsed":424674,"subject_id":"88137","group":"Group2","date":"2025-11-04T21:00:26.664Z"},{"rt":null,"stimulus":"<p style=\"font-size: 50px; margin: 0; text-align: center;\">+</p>","response":null,"trial_type":"html-keyboard-response","trial_index":166,"plugin_version":"2.1.0","time_elapsed":425677,"subject_id":"88137","group":"Group2","date":"2025-11-04T21:00:26.664Z"},{"task":"memory_phase","broad_category":"S","image_png":"S_Sandstone_11.png","image_id":459,"category_name":"Sandstone","category":29,"distinct_rating":1.82,"rt":null,"stimulus":"Stimuli_Rocks480/S_Sandstone_11.png","response":null,"trial_type":"image-keyboard-response","trial_index":167,"plugin_version":"2.1.0","time_elapsed":428193,"subject_id":"88137","group":"Group2","date":"2025-11-04T21:00:26.664Z"},{"rt":null,"stimulus":"<p style=\"font-size: 50px; margin: 0; text-align: center;\">+</p>","response":null,"trial_type":"html-keyboard-response","trial_index":168,"plugin_version":"2.1.0","time_elapsed":429202,"subject_id":"88137","group":"Group2","date":"2025-11-04T21:00:26.664Z"},{"task":"memory_phase","broad_category":"M","image_png":"M_Anthracite_05.png","image_id":181,"category_name":"Anthracite","category":12,"distinct_rating":4.71,"rt":null,"stimulus":"Stimuli_Rocks480/M_Anthracite_05.png","response":null,"trial_type":"image-keyboard-response","trial_index":169,"plugin_version":"2.1.0","time_elapsed":431714,"subject_id":"88137","group":"Group2","date":"2025-11-04T21:00:26.664Z"},{"rt":null,"stimulus":"<p style=\"font-size: 50px; margin: 0; text-align: center;\">+</p>","response":null,"trial_type":"html-keyboard-response","trial_index":170,"plugin_version":"2.1.0","time_elapsed":432722,"subject_id":"88137","group":"Group2","date":"2025-11-04T21:00:26.664Z"},{"task":"memory_phase","broad_category":"M","image_png":"M_Hornfels_08.png","image_id":216,"category_name":"Hornfels","category":14,"distinct_rating":2.9,"rt":null,"stimulus":"Stimuli_Rocks480/M_Hornfels_08.png","response":null,"trial_type":"image-keyboard-response","trial_index":171,"plugin_version":"2.1.0","time_elapsed":435232,"subject_id":"88137","group":"Group2","date":"2025-11-04T21:00:26.664Z"},{"rt":null,"stimulus":"<p style=\"font-size: 50px; margin: 0; text-align: center;\">+</p>","response":null,"trial_type":"html-keyboard-response","trial_index":172,"plugin_version":"2.1.0","time_elapsed":436234,"subject_id":"88137","group":"Group2","date":"2025-11-04T21:00:26.664Z"},{"task":"memory_phase","broad_category":"I","image_png":"I_Diorite_02.png","image_id":34,"category_name":"Diorite","category":3,"distinct_rating":4.9,"rt":null,"stimulus":"Stimuli_Rocks480/I_Diorite_02.png","response":null,"trial_type":"image-keyboard-response","trial_index":173,"plugin_version":"2.1.0","time_elapsed":438744,"subject_id":"88137","group":"Group2","date":"2025-11-04T21:00:26.664Z"},{"rt":null,"stimulus":"<p style=\"font-size: 50px; margin: 0; text-align: center;\">+</p>","response":null,"trial_type":"html-keyboard-response","trial_index":174,"plugin_version":"2.1.0","time_elapsed":439760,"subject_id":"88137","group":"Group2","date":"2025-11-04T21:00:26.664Z"},{"task":"memory_phase","broad_category":"I","image_png":"I_Rhyolite_14.png","image_id":158,"category_name":"Rhyolite","category":10,"distinct_rating":2.59,"rt":null,"stimulus":"Stimuli_Rocks480/I_Rhyolite_14.png","response":null,"trial_type":"image-keyboard-response","trial_index":175,"plugin_version":"2.1.0","time_elapsed":442268,"subject_id":"88137","group":"Group2","date":"2025-11-04T21:00:26.664Z"},{"rt":null,"stimulus":"<p style=\"font-size: 50px; margin: 0; text-align: center;\">+</p>","response":null,"trial_type":"html-keyboard-response","trial_index":176,"plugin_version":"2.1.0","time_elapsed":443276,"subject_id":"88137","group":"Group2","date":"2025-11-04T21:00:26.664Z"},{"task":"memory_phase","broad_category":"S","image_png":"S_Chert_11.png","image_id":363,"category_name":"Chert","category":23,"distinct_rating":7.12,"rt":null,"stimulus":"Stimuli_Rocks480/S_Chert_11.png","response":null,"trial_type":"image-keyboard-response","trial_index":177,"plugin_version":"2.1.0","time_elapsed":445793,"subject_id":"88137","group":"Group2","date":"2025-11-04T21:00:26.664Z"},{"rt":null,"stimulus":"<p style=\"font-size: 50px; margin: 0; text-align: center;\">+</p>","response":null,"trial_type":"html-keyboard-response","trial_index":178,"plugin_version":"2.1.0","time_elapsed":446809,"subject_id":"88137","group":"Group2","date":"2025-11-04T21:00:26.664Z"},{"task":"memory_phase","broad_category":"I","image_png":"I_Obsidian_06.png","image_id":86,"category_name":"Obsidian","category":6,"distinct_rating":8.01,"rt":null,"stimulus":"Stimuli_Rocks480/I_Obsidian_06.png","response":null,"trial_type":"image-keyboard-response","trial_index":179,"plugin_version":"2.1.0","time_elapsed":449311,"subject_id":"88137","group":"Group2","date":"2025-11-04T21:00:26.664Z"},{"rt":null,"stimulus":"<p style=\"font-size: 50px; margin: 0; text-align: center;\">+</p>","response":null,"trial_type":"html-keyboard-response","trial_index":180,"plugin_version":"2.1.0","time_elapsed":450319,"subject_id":"88137","group":"Group2","date":"2025-11-04T21:00:26.664Z"},{"task":"memory_phase","broad_category":"I","image_png":"I_Diorite_11.png","image_id":43,"category_name":"Diorite","category":3,"distinct_rating":3.36,"rt":null,"stimulus":"Stimuli_Rocks480/I_Diorite_11.png","response":null,"trial_type":"image-keyboard-response","trial_index":181,"plugin_version":"2.1.0","time_elapsed":452826,"subject_id":"88137","group":"Group2","date":"2025-11-04T21:00:26.664Z"},{"rt":null,"stimulus":"<p style=\"font-size: 50px; margin: 0; text-align: center;\">+</p>","response":null,"trial_type":"html-keyboard-response","trial_index":182,"plugin_version":"2.1.0","time_elapsed":453836,"subject_id":"88137","group":"Group2","date":"2025-11-04T21:00:26.664Z"},{"task":"memory_phase","broad_category":"S","image_png":"S_Rock Salt_01.png","image_id":433,"category_name":"Rock Salt","category":28,"distinct_rating":7.18,"rt":null,"stimulus":"Stimuli_Rocks480/S_Rock Salt_01.png","response":null,"trial_type":"image-keyboard-response","trial_index":183,"plugin_version":"2.1.0","time_elapsed":456340,"subject_id":"88137","group":"Group2","date":"2025-11-04T21:00:26.664Z"},{"rt":null,"stimulus":"<p style=\"font-size: 50px; margin: 0; text-align: center;\">+</p>","response":null,"trial_type":"html-keyboard-response","trial_index":184,"plugin_version":"2.1.0","time_elapsed":457342,"subject_id":"88137","group":"Group2","date":"2025-11-04T21:00:26.664Z"},{"task":"memory_phase","broad_category":"I","image_png":"I_Peridotite_14.png","image_id":126,"category_name":"Peridotite","category":8,"distinct_rating":3.64,"rt":null,"stimulus":"Stimuli_Rocks480/I_Peridotite_14.png","response":null,"trial_type":"image-keyboard-response","trial_index":185,"plugin_version":"2.1.0","time_elapsed":459847,"subject_id":"88137","group":"Group2","date":"2025-11-04T21:00:26.664Z"},{"rt":null,"stimulus":"<p style=\"font-size: 50px; margin: 0; text-align: center;\">+</p>","response":null,"trial_type":"html-keyboard-response","trial_index":186,"plugin_version":"2.1.0","time_elapsed":460850,"subject_id":"88137","group":"Group2","date":"2025-11-04T21:00:26.664Z"},{"task":"memory_phase","broad_category":"M","image_png":"M_Gneiss_12.png","image_id":204,"category_name":"Gneiss","category":13,"distinct_rating":4.52,"rt":null,"stimulus":"Stimuli_Rocks480/M_Gneiss_12.png","response":null,"trial_type":"image-keyboard-response","trial_index":187,"plugin_version":"2.1.0","time_elapsed":463365,"subject_id":"88137","group":"Group2","date":"2025-11-04T21:00:26.664Z"},{"rt":null,"stimulus":"<p style=\"font-size: 50px; margin: 0; text-align: center;\">+</p>","response":null,"trial_type":"html-keyboard-response","trial_index":188,"plugin_version":"2.1.0","time_elapsed":464378,"subject_id":"88137","group":"Group2","date":"2025-11-04T21:00:26.664Z"},{"task":"memory_phase","broad_category":"I","image_png":"I_Gabbro_06.png","image_id":54,"category_name":"Gabbro","category":4,"distinct_rating":3.26,"rt":null,"stimulus":"Stimuli_Rocks480/I_Gabbro_06.png","response":null,"trial_type":"image-keyboard-response","trial_index":189,"plugin_version":"2.1.0","time_elapsed":466888,"subject_id":"88137","group":"Group2","date":"2025-11-04T21:00:26.664Z"},{"rt":null,"stimulus":"<p style=\"font-size: 50px; margin: 0; text-align: center;\">+</p>","response":null,"trial_type":"html-keyboard-response","trial_index":190,"plugin_version":"2.1.0","time_elapsed":467903,"subject_id":"88137","group":"Group2","date":"2025-11-04T21:00:26.664Z"},{"task":"memory_phase","broad_category":"I","image_png":"I_Basalt_06.png","image_id":22,"category_name":"Basalt","category":2,"distinct_rating":2.08,"rt":null,"stimulus":"Stimuli_Rocks480/I_Basalt_06.png","response":null,"trial_type":"image-keyboard-response","trial_index":191,"plugin_version":"2.1.0","time_elapsed":470413,"subject_id":"88137","group":"Group2","date":"2025-11-04T21:00:26.664Z"},{"rt":null,"stimulus":"<p style=\"font-size: 50px; margin: 0; text-align: center;\">+</p>","response":null,"trial_type":"html-keyboard-response","trial_index":192,"plugin_version":"2.1.0","time_elapsed":471420,"subject_id":"88137","group":"Group2","date":"2025-11-04T21:00:26.664Z"},{"task":"memory_phase","broad_category":"S","image_png":"S_Conglomerate_13.png","image_id":381,"category_name":"Conglomerate","category":24,"distinct_rating":6.48,"rt":null,"stimulus":"Stimuli_Rocks480/S_Conglomerate_13.png","response":null,"trial_type":"image-keyboard-response","trial_index":193,"plugin_version":"2.1.0","time_elapsed":473936,"subject_id":"88137","group":"Group2","date":"2025-11-04T21:00:26.664Z"},{"rt":null,"stimulus":"<p style=\"font-size: 50px; margin: 0; text-align: center;\">+</p>","response":null,"trial_type":"html-keyboard-response","trial_index":194,"plugin_version":"2.1.0","time_elapsed":474952,"subject_id":"88137","group":"Group2","date":"2025-11-04T21:00:26.664Z"},{"task":"memory_phase","broad_category":"M","image_png":"M_Slate_09.png","image_id":313,"category_name":"Slate","category":20,"distinct_rating":3.6,"rt":null,"stimulus":"Stimuli_Rocks480/M_Slate_09.png","response":null,"trial_type":"image-keyboard-response","trial_index":195,"plugin_version":"2.1.0","time_elapsed":477471,"subject_id":"88137","group":"Group2","date":"2025-11-04T21:00:26.664Z"},{"rt":null,"stimulus":"<p style=\"font-size: 50px; margin: 0; text-align: center;\">+</p>","response":null,"trial_type":"html-keyboard-response","trial_index":196,"plugin_version":"2.1.0","time_elapsed":478485,"subject_id":"88137","group":"Group2","date":"2025-11-04T21:00:26.664Z"},{"task":"memory_phase","broad_category":"I","image_png":"I_Pegmatite_13.png","image_id":109,"category_name":"Pegmatite","category":7,"distinct_rating":5.15,"rt":null,"stimulus":"Stimuli_Rocks480/I_Pegmatite_13.png","response":null,"trial_type":"image-keyboard-response","trial_index":197,"plugin_version":"2.1.0","time_elapsed":480997,"subject_id":"88137","group":"Group2","date":"2025-11-04T21:00:26.664Z"},{"rt":1286,"stimulus":"<p style=\"font-size: 35px;\">Press SPACE to continue study phase</p>","response":" ","trial_type":"html-keyboard-response","trial_index":198,"plugin_version":"2.1.0","time_elapsed":482284,"subject_id":"88137","group":"Group2","date":"2025-11-04T21:00:26.664Z"},{"rt":null,"stimulus":"<p style=\"font-size: 50px; margin: 0; text-align: center;\">+</p>","response":null,"trial_type":"html-keyboard-response","trial_index":199,"plugin_version":"2.1.0","time_elapsed":483291,"subject_id":"88137","group":"Group2","date":"2025-11-04T21:00:26.664Z"},{"task":"memory_phase","broad_category":"M","image_png":"M_Hornfels_06.png","image_id":214,"category_name":"Hornfels","category":14,"distinct_rating":2.66,"rt":null,"stimulus":"Stimuli_Rocks480/M_Hornfels_06.png","response":null,"trial_type":"image-keyboard-response","trial_index":200,"plugin_version":"2.1.0","time_elapsed":485809,"subject_id":"88137","group":"Group2","date":"2025-11-04T21:00:26.664Z"},{"rt":null,"stimulus":"<p style=\"font-size: 50px; margin: 0; text-align: center;\">+</p>","response":null,"trial_type":"html-keyboard-response","trial_index":201,"plugin_version":"2.1.0","time_elapsed":486823,"subject_id":"88137","group":"Group2","date":"2025-11-04T21:00:26.664Z"},{"task":"memory_phase","broad_category":"S","image_png":"S_Rock Salt_02.png","image_id":434,"category_name":"Rock Salt","category":28,"distinct_rating":5.13,"rt":null,"stimulus":"Stimuli_Rocks480/S_Rock Salt_02.png","response":null,"trial_type":"image-keyboard-response","trial_index":202,"plugin_version":"2.1.0","time_elapsed":489338,"subject_id":"88137","group":"Group2","date":"2025-11-04T21:00:26.664Z"},{"rt":null,"stimulus":"<p style=\"font-size: 50px; margin: 0; text-align: center;\">+</p>","response":null,"trial_type":"html-keyboard-response","trial_index":203,"plugin_version":"2.1.0","time_elapsed":490345,"subject_id":"88137","group":"Group2","date":"2025-11-04T21:00:26.664Z"},{"task":"memory_phase","broad_category":"I","image_png":"I_Pumice_06.png","image_id":134,"category_name":"Pumice","category":9,"distinct_rating":4.16,"rt":null,"stimulus":"Stimuli_Rocks480/I_Pumice_06.png","response":null,"trial_type":"image-keyboard-response","trial_index":204,"plugin_version":"2.1.0","time_elapsed":492849,"subject_id":"88137","group":"Group2","date":"2025-11-04T21:00:26.664Z"},{"rt":null,"stimulus":"<p style=\"font-size: 50px; margin: 0; text-align: center;\">+</p>","response":null,"trial_type":"html-keyboard-response","trial_index":205,"plugin_version":"2.1.0","time_elapsed":493863,"subject_id":"88137","group":"Group2","date":"2025-11-04T21:00:26.664Z"},{"task":"memory_phase","broad_category":"S","image_png":"S_Dolomite_16.png","image_id":400,"category_name":"Dolomite","category":25,"distinct_rating":1.71,"rt":null,"stimulus":"Stimuli_Rocks480/S_Dolomite_16.png","response":null,"trial_type":"image-keyboard-response","trial_index":206,"plugin_version":"2.1.0","time_elapsed":496368,"subject_id":"88137","group":"Group2","date":"2025-11-04T21:00:26.664Z"},{"rt":null,"stimulus":"<p style=\"font-size: 50px; margin: 0; text-align: center;\">+</p>","response":null,"trial_type":"html-keyboard-response","trial_index":207,"plugin_version":"2.1.0","time_elapsed":497377,"subject_id":"88137","group":"Group2","date":"2025-11-04T21:00:26.664Z"},{"task":"memory_phase","broad_category":"S","image_png":"S_Micrite_11.png","image_id":411,"category_name":"Micrite","category":26,"distinct_rating":1.87,"rt":null,"stimulus":"Stimuli_Rocks480/S_Micrite_11.png","response":null,"trial_type":"image-keyboard-response","trial_index":208,"plugin_version":"2.1.0","time_elapsed":499889,"subject_id":"88137","group":"Group2","date":"2025-11-04T21:00:26.664Z"},{"rt":null,"stimulus":"<p style=\"font-size: 50px; margin: 0; text-align: center;\">+</p>","response":null,"trial_type":"html-keyboard-response","trial_index":209,"plugin_version":"2.1.0","time_elapsed":500908,"subject_id":"88137","group":"Group2","date":"2025-11-04T21:00:26.664Z"},{"task":"memory_phase","broad_category":"I","image_png":"I_Peridotite_08.png","image_id":120,"category_name":"Peridotite","category":8,"distinct_rating":4.77,"rt":null,"stimulus":"Stimuli_Rocks480/I_Peridotite_08.png","response":null,"trial_type":"image-keyboard-response","trial_index":210,"plugin_version":"2.1.0","time_elapsed":503417,"subject_id":"88137","group":"Group2","date":"2025-11-04T21:00:26.664Z"},{"rt":null,"stimulus":"<p style=\"font-size: 50px; margin: 0; text-align: center;\">+</p>","response":null,"trial_type":"html-keyboard-response","trial_index":211,"plugin_version":"2.1.0","time_elapsed":504430,"subject_id":"88137","group":"Group2","date":"2025-11-04T21:00:26.664Z"},{"task":"memory_phase","broad_category":"I","image_png":"I_Rhyolite_04.png","image_id":148,"category_name":"Rhyolite","category":10,"distinct_rating":3.73,"rt":null,"stimulus":"Stimuli_Rocks480/I_Rhyolite_04.png","response":null,"trial_type":"image-keyboard-response","trial_index":212,"plugin_version":"2.1.0","time_elapsed":506941,"subject_id":"88137","group":"Group2","date":"2025-11-04T21:00:26.664Z"},{"rt":null,"stimulus":"<p style=\"font-size: 50px; margin: 0; text-align: center;\">+</p>","response":null,"trial_type":"html-keyboard-response","trial_index":213,"plugin_version":"2.1.0","time_elapsed":507956,"subject_id":"88137","group":"Group2","date":"2025-11-04T21:00:26.664Z"},{"task":"memory_phase","broad_category":"I","image_png":"I_Pegmatite_03.png","image_id":99,"category_name":"Pegmatite","category":7,"distinct_rating":7.24,"rt":null,"stimulus":"Stimuli_Rocks480/I_Pegmatite_03.png","response":null,"trial_type":"image-keyboard-response","trial_index":214,"plugin_version":"2.1.0","time_elapsed":510467,"subject_id":"88137","group":"Group2","date":"2025-11-04T21:00:26.664Z"},{"rt":null,"stimulus":"<p style=\"font-size: 50px; margin: 0; text-align: center;\">+</p>","response":null,"trial_type":"html-keyboard-response","trial_index":215,"plugin_version":"2.1.0","time_elapsed":511480,"subject_id":"88137","group":"Group2","date":"2025-11-04T21:00:26.664Z"},{"task":"memory_phase","broad_category":"M","image_png":"M_Quartzite_14.png","image_id":286,"category_name":"Quartzite","category":18,"distinct_rating":3.3,"rt":null,"stimulus":"Stimuli_Rocks480/M_Quartzite_14.png","response":null,"trial_type":"image-keyboard-response","trial_index":216,"plugin_version":"2.1.0","time_elapsed":513997,"subject_id":"88137","group":"Group2","date":"2025-11-04T21:00:26.664Z"},{"rt":null,"stimulus":"<p style=\"font-size: 50px; margin: 0; text-align: center;\">+</p>","response":null,"trial_type":"html-keyboard-response","trial_index":217,"plugin_version":"2.1.0","time_elapsed":515013,"subject_id":"88137","group":"Group2","date":"2025-11-04T21:00:26.664Z"},{"task":"memory_phase","broad_category":"S","image_png":"S_Conglomerate_04.png","image_id":372,"category_name":"Conglomerate","category":24,"distinct_rating":5.91,"rt":null,"stimulus":"Stimuli_Rocks480/S_Conglomerate_04.png","response":null,"trial_type":"image-keyboard-response","trial_index":218,"plugin_version":"2.1.0","time_elapsed":517518,"subject_id":"88137","group":"Group2","date":"2025-11-04T21:00:26.664Z"},{"rt":null,"stimulus":"<p style=\"font-size: 50px; margin: 0; text-align: center;\">+</p>","response":null,"trial_type":"html-keyboard-response","trial_index":219,"plugin_version":"2.1.0","time_elapsed":518522,"subject_id":"88137","group":"Group2","date":"2025-11-04T21:00:26.664Z"},{"task":"memory_phase","broad_category":"M","image_png":"M_Migmatite_06.png","image_id":246,"category_name":"Migmatite","category":16,"distinct_rating":4.63,"rt":null,"stimulus":"Stimuli_Rocks480/M_Migmatite_06.png","response":null,"trial_type":"image-keyboard-response","trial_index":220,"plugin_version":"2.1.0","time_elapsed":521032,"subject_id":"88137","group":"Group2","date":"2025-11-04T21:00:26.664Z"},{"rt":null,"stimulus":"<p style=\"font-size: 50px; margin: 0; text-align: center;\">+</p>","response":null,"trial_type":"html-keyboard-response","trial_index":221,"plugin_version":"2.1.0","time_elapsed":522036,"subject_id":"88137","group":"Group2","date":"2025-11-04T21:00:26.664Z"},{"task":"memory_phase","broad_category":"M","image_png":"M_Hornfels_14.png","image_id":222,"category_name":"Hornfels","category":14,"distinct_rating":2.3,"rt":null,"stimulus":"Stimuli_Rocks480/M_Hornfels_14.png","response":null,"trial_type":"image-keyboard-response","trial_index":222,"plugin_version":"2.1.0","time_elapsed":524539,"subject_id":"88137","group":"Group2","date":"2025-11-04T21:00:26.664Z"},{"rt":null,"stimulus":"<p style=\"font-size: 50px; margin: 0; text-align: center;\">+</p>","response":null,"trial_type":"html-keyboard-response","trial_index":223,"plugin_version":"2.1.0","time_elapsed":525547,"subject_id":"88137","group":"Group2","date":"2025-11-04T21:00:26.664Z"},{"task":"memory_phase","broad_category":"M","image_png":"M_Phyllite_09.png","image_id":265,"category_name":"Phyllite","category":17,"distinct_rating":2.96,"rt":null,"stimulus":"Stimuli_Rocks480/M_Phyllite_09.png","response":null,"trial_type":"image-keyboard-response","trial_index":224,"plugin_version":"2.1.0","time_elapsed":528061,"subject_id":"88137","group":"Group2","date":"2025-11-04T21:00:26.664Z"},{"rt":null,"stimulus":"<p style=\"font-size: 50px; margin: 0; text-align: center;\">+</p>","response":null,"trial_type":"html-keyboard-response","trial_index":225,"plugin_version":"2.1.0","time_elapsed":529064,"subject_id":"88137","group":"Group2","date":"2025-11-04T21:00:26.664Z"},{"task":"memory_phase","broad_category":"I","image_png":"I_Andesite_14.png","image_id":14,"category_name":"Andesite","category":1,"distinct_rating":4.47,"rt":null,"stimulus":"Stimuli_Rocks480/I_Andesite_14.png","response":null,"trial_type":"image-keyboard-response","trial_index":226,"plugin_version":"2.1.0","time_elapsed":531570,"subject_id":"88137","group":"Group2","date":"2025-11-04T21:00:26.664Z"},{"rt":null,"stimulus":"<p style=\"font-size: 50px; margin: 0; text-align: center;\">+</p>","response":null,"trial_type":"html-keyboard-response","trial_index":227,"plugin_version":"2.1.0","time_elapsed":532582,"subject_id":"88137","group":"Group2","date":"2025-11-04T21:00:26.664Z"},{"task":"memory_phase","broad_category":"S","image_png":"S_Chert_02.png","image_id":354,"category_name":"Chert","category":23,"distinct_rating":3.81,"rt":null,"stimulus":"Stimuli_Rocks480/S_Chert_02.png","response":null,"trial_type":"image-keyboard-response","trial_index":228,"plugin_version":"2.1.0","time_elapsed":535084,"subject_id":"88137","group":"Group2","date":"2025-11-04T21:00:26.664Z"},{"rt":null,"stimulus":"<p style=\"font-size: 50px; margin: 0; text-align: center;\">+</p>","response":null,"trial_type":"html-keyboard-response","trial_index":229,"plugin_version":"2.1.0","time_elapsed":536090,"subject_id":"88137","group":"Group2","date":"2025-11-04T21:00:26.664Z"},{"task":"memory_phase","broad_category":"S","image_png":"S_Rock Salt_16.png","image_id":448,"category_name":"Rock Salt","category":28,"distinct_rating":6.23,"rt":null,"stimulus":"Stimuli_Rocks480/S_Rock Salt_16.png","response":null,"trial_type":"image-keyboard-response","trial_index":230,"plugin_version":"2.1.0","time_elapsed":538601,"subject_id":"88137","group":"Group2","date":"2025-11-04T21:00:26.664Z"},{"rt":null,"stimulus":"<p style=\"font-size: 50px; margin: 0; text-align: center;\">+</p>","response":null,"trial_type":"html-keyboard-response","trial_index":231,"plugin_version":"2.1.0","time_elapsed":539609,"subject_id":"88137","group":"Group2","date":"2025-11-04T21:00:26.664Z"},{"task":"memory_phase","broad_category":"I","image_png":"I_Pegmatite_05.png","image_id":101,"category_name":"Pegmatite","category":7,"distinct_rating":6.22,"rt":null,"stimulus":"Stimuli_Rocks480/I_Pegmatite_05.png","response":null,"trial_type":"image-keyboard-response","trial_index":232,"plugin_version":"2.1.0","time_elapsed":542120,"subject_id":"88137","group":"Group2","date":"2025-11-04T21:00:26.664Z"},{"rt":null,"stimulus":"<p style=\"font-size: 50px; margin: 0; text-align: center;\">+</p>","response":null,"trial_type":"html-keyboard-response","trial_index":233,"plugin_version":"2.1.0","time_elapsed":543137,"subject_id":"88137","group":"Group2","date":"2025-11-04T21:00:26.664Z"},{"task":"memory_phase","broad_category":"S","image_png":"S_Breccia_13.png","image_id":349,"category_name":"Breccia","category":22,"distinct_rating":5.56,"rt":null,"stimulus":"Stimuli_Rocks480/S_Breccia_13.png","response":null,"trial_type":"image-keyboard-response","trial_index":234,"plugin_version":"2.1.0","time_elapsed":545655,"subject_id":"88137","group":"Group2","date":"2025-11-04T21:00:26.664Z"},{"rt":null,"stimulus":"<p style=\"font-size: 50px; margin: 0; text-align: center;\">+</p>","response":null,"trial_type":"html-keyboard-response","trial_index":235,"plugin_version":"2.1.0","time_elapsed":546658,"subject_id":"88137","group":"Group2","date":"2025-11-04T21:00:26.664Z"},{"task":"memory_phase","broad_category":"M","image_png":"M_Amphibolite_05.png","image_id":165,"category_name":"Amphibolite","category":11,"distinct_rating":3.59,"rt":null,"stimulus":"Stimuli_Rocks480/M_Amphibolite_05.png","response":null,"trial_type":"image-keyboard-response","trial_index":236,"plugin_version":"2.1.0","time_elapsed":549173,"subject_id":"88137","group":"Group2","date":"2025-11-04T21:00:26.664Z"},{"rt":null,"stimulus":"<p style=\"font-size: 50px; margin: 0; text-align: center;\">+</p>","response":null,"trial_type":"html-keyboard-response","trial_index":237,"plugin_version":"2.1.0","time_elapsed":550174,"subject_id":"88137","group":"Group2","date":"2025-11-04T21:00:26.664Z"},{"task":"memory_phase","broad_category":"S","image_png":"S_Chert_03.png","image_id":355,"category_name":"Chert","category":23,"distinct_rating":5.3,"rt":null,"stimulus":"Stimuli_Rocks480/S_Chert_03.png","response":null,"trial_type":"image-keyboard-response","trial_index":238,"plugin_version":"2.1.0","time_elapsed":552684,"subject_id":"88137","group":"Group2","date":"2025-11-04T21:00:26.664Z"},{"rt":null,"stimulus":"<p style=\"font-size: 50px; margin: 0; text-align: center;\">+</p>","response":null,"trial_type":"html-keyboard-response","trial_index":239,"plugin_version":"2.1.0","time_elapsed":553692,"subject_id":"88137","group":"Group2","date":"2025-11-04T21:00:26.664Z"},{"task":"memory_phase","broad_category":"I","image_png":"I_Obsidian_14.png","image_id":94,"category_name":"Obsidian","category":6,"distinct_rating":5.17,"rt":null,"stimulus":"Stimuli_Rocks480/I_Obsidian_14.png","response":null,"trial_type":"image-keyboard-response","trial_index":240,"plugin_version":"2.1.0","time_elapsed":556196,"subject_id":"88137","group":"Group2","date":"2025-11-04T21:00:26.664Z"},{"rt":null,"stimulus":"<p style=\"font-size: 50px; margin: 0; text-align: center;\">+</p>","response":null,"trial_type":"html-keyboard-response","trial_index":241,"plugin_version":"2.1.0","time_elapsed":557202,"subject_id":"88137","group":"Group2","date":"2025-11-04T21:00:26.664Z"},{"task":"memory_phase","broad_category":"M","image_png":"M_Marble_07.png","image_id":231,"category_name":"Marble","category":15,"distinct_rating":3.77,"rt":null,"stimulus":"Stimuli_Rocks480/M_Marble_07.png","response":null,"trial_type":"image-keyboard-response","trial_index":242,"plugin_version":"2.1.0","time_elapsed":559714,"subject_id":"88137","group":"Group2","date":"2025-11-04T21:00:26.664Z"},{"rt":null,"stimulus":"<p style=\"font-size: 50px; margin: 0; text-align: center;\">+</p>","response":null,"trial_type":"html-keyboard-response","trial_index":243,"plugin_version":"2.1.0","time_elapsed":560725,"subject_id":"88137","group":"Group2","date":"2025-11-04T21:00:26.664Z"},{"task":"memory_phase","broad_category":"S","image_png":"S_Breccia_01.png","image_id":337,"category_name":"Breccia","category":22,"distinct_rating":7.35,"rt":null,"stimulus":"Stimuli_Rocks480/S_Breccia_01.png","response":null,"trial_type":"image-keyboard-response","trial_index":244,"plugin_version":"2.1.0","time_elapsed":563227,"subject_id":"88137","group":"Group2","date":"2025-11-04T21:00:26.664Z"},{"rt":null,"stimulus":"<p style=\"font-size: 50px; margin: 0; text-align: center;\">+</p>","response":null,"trial_type":"html-keyboard-response","trial_index":245,"plugin_version":"2.1.0","time_elapsed":564241,"subject_id":"88137","group":"Group2","date":"2025-11-04T21:00:26.664Z"},{"task":"memory_phase","broad_category":"M","image_png":"M_Quartzite_10.png","image_id":282,"category_name":"Quartzite","category":18,"distinct_rating":3.75,"rt":null,"stimulus":"Stimuli_Rocks480/M_Quartzite_10.png","response":null,"trial_type":"image-keyboard-response","trial_index":246,"plugin_version":"2.1.0","time_elapsed":566755,"subject_id":"88137","group":"Group2","date":"2025-11-04T21:00:26.664Z"},{"rt":16644,"stimulus":"<div style=\"max-width: 760px; margin: auto; font-size: 20px; line-height: 1.5;\">\n      <h1 style=\"text-align:center; font-size: 30px;\">Instructions for the Test Phase</h1>\n      <p>\n        The study phase is now complete.\n      </p>\n      <p>\n        In the test phase, you will again see a series of rock images. \n        Some will be ones you saw before - during the study phase, while others will be new.  \n        <b>Your task</b> is to decide whether you have seen each image before by pressing the corresponding key on your keyboard:<br><br>\n          <b>A</b> - NO (you did not see this image before)<br>\n          <b>L</b> - YES (you saw this image before)<br><br>\n        The test will proceed at your own pace. You will receive feedback after each response.  \n        Please try to respond <b>as accurately as possible</b>.\n      </p>\n      <p>\n        <b>Reminder:</b> If your computer has multiple language settings (e.g., English and another language),\n        please ensure it is set to English during the test phase.\n      </p>\n      <p>\n        You can track your progress using the <b>completion bar</b> at the top of the screen.  \n        Note that it has been refreshed to reflect your progress during this final phase.\n      </p>\n      <p>\n        Press the button below when you are ready to continue.\n      </p>\n    </div>","response":0,"trial_type":"html-button-response","trial_index":247,"plugin_version":"2.1.0","time_elapsed":583401,"subject_id":"88137","group":"Group2","date":"2025-11-04T21:00:26.664Z"},{"correct_response":"l","task":"test_phase","broad_category":"M","image_png":"M_Slate_14.png","image_id":318,"category_name":"Slate","category":20,"distinct_rating":2.58,"item_type":"Target","rt":2805,"stimulus":"Stimuli_Rocks480/M_Slate_14.png","response":"l","trial_type":"image-keyboard-response","trial_index":248,"plugin_version":"2.1.0","time_elapsed":586208,"subject_id":"88137","group":"Group2","date":"2025-11-04T21:00:26.664Z","cor_ans":true},{"trial_type":"html-keyboard-response","rt":null,"stimulus":"<p style=\"color: green; font-size: 50px; font-weight: bold;\">Correct</p>","response":null,"trial_index":249,"plugin_version":"2.1.0","time_elapsed":586712,"subject_id":"88137","group":"Group2","date":"2025-11-04T21:00:26.664Z"},{"correct_response":"l","task":"test_phase","broad_category":"M","image_png":"M_Migmatite_06.png","image_id":246,"category_name":"Migmatite","category":16,"distinct_rating":4.63,"item_type":"Target","rt":1023,"stimulus":"Stimuli_Rocks480/M_Migmatite_06.png","response":"l","trial_type":"image-keyboard-response","trial_index":250,"plugin_version":"2.1.0","time_elapsed":587737,"subject_id":"88137","group":"Group2","date":"2025-11-04T21:00:26.664Z","cor_ans":true},{"trial_type":"html-keyboard-response","rt":null,"stimulus":"<p style=\"color: green; font-size: 50px; font-weight: bold;\">Correct</p>","response":null,"trial_index":251,"plugin_version":"2.1.0","time_elapsed":588243,"subject_id":"88137","group":"Group2","date":"2025-11-04T21:00:26.664Z"},{"correct_response":"l","task":"test_phase","broad_category":"I","image_png":"I_Pegmatite_13.png","image_id":109,"category_name":"Pegmatite","category":7,"distinct_rating":5.15,"item_type":"Target","rt":1271,"stimulus":"Stimuli_Rocks480/I_Pegmatite_13.png","response":"l","trial_type":"image-keyboard-response","trial_index":252,"plugin_version":"2.1.0","time_elapsed":589515,"subject_id":"88137","group":"Group2","date":"2025-11-04T21:00:26.664Z","cor_ans":true},{"trial_type":"html-keyboard-response","rt":null,"stimulus":"<p style=\"color: green; font-size: 50px; font-weight: bold;\">Correct</p>","response":null,"trial_index":253,"plugin_version":"2.1.0","time_elapsed":590020,"subject_id":"88137","group":"Group2","date":"2025-11-04T21:00:26.664Z"},{"correct_response":"l","task":"test_phase","broad_category":"M","image_png":"M_Slate_09.png","image_id":313,"category_name":"Slate","category":20,"distinct_rating":3.6,"item_type":"Target","rt":1998,"stimulus":"Stimuli_Rocks480/M_Slate_09.png","response":"l","trial_type":"image-keyboard-response","trial_index":254,"plugin_version":"2.1.0","time_elapsed":592020,"subject_id":"88137","group":"Group2","date":"2025-11-04T21:00:26.664Z","cor_ans":true},{"trial_type":"html-keyboard-response","rt":null,"stimulus":"<p style=\"color: green; font-size: 50px; font-weight: bold;\">Correct</p>","response":null,"trial_index":255,"plugin_version":"2.1.0","time_elapsed":592527,"subject_id":"88137","group":"Group2","date":"2025-11-04T21:00:26.664Z"},{"correct_response":"l","task":"test_phase","broad_category":"I","image_png":"I_Granite_08.png","image_id":72,"category_name":"Granite","category":5,"distinct_rating":3.95,"item_type":"Target","rt":1636,"stimulus":"Stimuli_Rocks480/I_Granite_08.png","response":"l","trial_type":"image-keyboard-response","trial_index":256,"plugin_version":"2.1.0","time_elapsed":594166,"subject_id":"88137","group":"Group2","date":"2025-11-04T21:00:26.664Z","cor_ans":true},{"trial_type":"html-keyboard-response","rt":null,"stimulus":"<p style=\"color: green; font-size: 50px; font-weight: bold;\">Correct</p>","response":null,"trial_index":257,"plugin_version":"2.1.0","time_elapsed":594669,"subject_id":"88137","group":"Group2","date":"2025-11-04T21:00:26.664Z"},{"correct_response":"a","task":"test_phase","broad_category":"I","image_png":"I_Gabbro_04.png","image_id":52,"category_name":"Gabbro","category":4,"distinct_rating":4.1,"item_type":"Foil","rt":807,"stimulus":"Stimuli_Rocks480/I_Gabbro_04.png","response":"l","trial_type":"image-keyboard-response","trial_index":258,"plugin_version":"2.1.0","time_elapsed":595478,"subject_id":"88137","group":"Group2","date":"2025-11-04T21:00:26.664Z","cor_ans":false},{"trial_type":"html-keyboard-response","rt":null,"stimulus":"<p style=\"color: red; font-size: 50px; font-weight: bold;\">Incorrect</p>","response":null,"trial_index":259,"plugin_version":"2.1.0","time_elapsed":595989,"subject_id":"88137","group":"Group2","date":"2025-11-04T21:00:26.664Z"},{"correct_response":"l","task":"test_phase","broad_category":"M","image_png":"M_Gneiss_10.png","image_id":202,"category_name":"Gneiss","category":13,"distinct_rating":3.09,"item_type":"Target","rt":316,"stimulus":"Stimuli_Rocks480/M_Gneiss_10.png","response":"l","trial_type":"image-keyboard-response","trial_index":260,"plugin_version":"2.1.0","time_elapsed":596306,"subject_id":"88137","group":"Group2","date":"2025-11-04T21:00:26.664Z","cor_ans":true},{"trial_type":"html-keyboard-response","rt":null,"stimulus":"<p style=\"color: green; font-size: 50px; font-weight: bold;\">Correct</p>","response":null,"trial_index":261,"plugin_version":"2.1.0","time_elapsed":596822,"subject_id":"88137","group":"Group2","date":"2025-11-04T21:00:26.664Z"},{"correct_response":"l","task":"test_phase","broad_category":"S","image_png":"S_Chert_14.png","image_id":366,"category_name":"Chert","category":23,"distinct_rating":4.5,"item_type":"Target","rt":237,"stimulus":"Stimuli_Rocks480/S_Chert_14.png","response":"l","trial_type":"image-keyboard-response","trial_index":262,"plugin_version":"2.1.0","time_elapsed":597062,"subject_id":"88137","group":"Group2","date":"2025-11-04T21:00:26.664Z","cor_ans":true},{"trial_type":"html-keyboard-response","rt":null,"stimulus":"<p style=\"color: green; font-size: 50px; font-weight: bold;\">Correct</p>","response":null,"trial_index":263,"plugin_version":"2.1.0","time_elapsed":597574,"subject_id":"88137","group":"Group2","date":"2025-11-04T21:00:26.664Z"},{"correct_response":"a","task":"test_phase","broad_category":"S","image_png":"S_Conglomerate_07.png","image_id":375,"category_name":"Conglomerate","category":24,"distinct_rating":6.97,"item_type":"Foil","rt":36,"stimulus":"Stimuli_Rocks480/S_Conglomerate_07.png","response":"l","trial_type":"image-keyboard-response","trial_index":264,"plugin_version":"2.1.0","time_elapsed":597611,"subject_id":"88137","group":"Group2","date":"2025-11-04T21:00:26.664Z","cor_ans":false},{"trial_type":"html-keyboard-response","rt":null,"stimulus":"<p style=\"color: red; font-size: 50px; font-weight: bold;\">Incorrect</p>","response":null,"trial_index":265,"plugin_version":"2.1.0","time_elapsed":598113,"subject_id":"88137","group":"Group2","date":"2025-11-04T21:00:26.664Z"},{"correct_response":"a","task":"test_phase","broad_category":"M","image_png":"M_Quartzite_08.png","image_id":280,"category_name":"Quartzite","category":18,"distinct_rating":2.15,"item_type":"Foil","rt":203,"stimulus":"Stimuli_Rocks480/M_Quartzite_08.png","response":"l","trial_type":"image-keyboard-response","trial_index":266,"plugin_version":"2.1.0","time_elapsed":598317,"subject_id":"88137","group":"Group2","date":"2025-11-04T21:00:26.664Z","cor_ans":false},{"trial_type":"html-keyboard-response","rt":null,"stimulus":"<p style=\"color: red; font-size: 50px; font-weight: bold;\">Incorrect</p>","response":null,"trial_index":267,"plugin_version":"2.1.0","time_elapsed":598824,"subject_id":"88137","group":"Group2","date":"2025-11-04T21:00:26.664Z"},{"correct_response":"a","task":"test_phase","broad_category":"M","image_png":"M_Anthracite_12.png","image_id":188,"category_name":"Anthracite","category":12,"distinct_rating":5.69,"item_type":"Foil","rt":27,"stimulus":"Stimuli_Rocks480/M_Anthracite_12.png","response":"l","trial_type":"image-keyboard-response","trial_index":268,"plugin_version":"2.1.0","time_elapsed":598852,"subject_id":"88137","group":"Group2","date":"2025-11-04T21:00:26.664Z","cor_ans":false},{"trial_type":"html-keyboard-response","rt":null,"stimulus":"<p style=\"color: red; font-size: 50px; font-weight: bold;\">Incorrect</p>","response":null,"trial_index":269,"plugin_version":"2.1.0","time_elapsed":599363,"subject_id":"88137","group":"Group2","date":"2025-11-04T21:00:26.664Z"},{"correct_response":"l","task":"test_phase","broad_category":"I","image_png":"I_Granite_01.png","image_id":65,"category_name":"Granite","category":5,"distinct_rating":5.23,"item_type":"Target","rt":195,"stimulus":"Stimuli_Rocks480/I_Granite_01.png","response":"l","trial_type":"image-keyboard-response","trial_index":270,"plugin_version":"2.1.0","time_elapsed":599559,"subject_id":"88137","group":"Group2","date":"2025-11-04T21:00:26.664Z","cor_ans":true},{"trial_type":"html-keyboard-response","rt":null,"stimulus":"<p style=\"color: green; font-size: 50px; font-weight: bold;\">Correct</p>","response":null,"trial_index":271,"plugin_version":"2.1.0","time_elapsed":600068,"subject_id":"88137","group":"Group2","date":"2025-11-04T21:00:26.664Z"},{"correct_response":"a","task":"test_phase","broad_category":"I","image_png":"I_Granite_10.png","image_id":74,"category_name":"Granite","category":5,"distinct_rating":4.34,"item_type":"Foil","rt":12,"stimulus":"Stimuli_Rocks480/I_Granite_10.png","response":"l","trial_type":"image-keyboard-response","trial_index":272,"plugin_version":"2.1.0","time_elapsed":600081,"subject_id":"88137","group":"Group2","date":"2025-11-04T21:00:26.664Z","cor_ans":false},{"trial_type":"html-keyboard-response","rt":null,"stimulus":"<p style=\"color: red; font-size: 50px; font-weight: bold;\">Incorrect</p>","response":null,"trial_index":273,"plugin_version":"2.1.0","time_elapsed":600586,"subject_id":"88137","group":"Group2","date":"2025-11-04T21:00:26.664Z"},{"correct_response":"l","task":"test_phase","broad_category":"I","image_png":"I_Pumice_05.png","image_id":133,"category_name":"Pumice","category":9,"distinct_rating":3.37,"item_type":"Target","rt":87,"stimulus":"Stimuli_Rocks480/I_Pumice_05.png","response":"l","trial_type":"image-keyboard-response","trial_index":274,"plugin_version":"2.1.0","time_elapsed":600675,"subject_id":"88137","group":"Group2","date":"2025-11-04T21:00:26.664Z","cor_ans":true},{"trial_type":"html-keyboard-response","rt":null,"stimulus":"<p style=\"color: green; font-size: 50px; font-weight: bold;\">Correct</p>","response":null,"trial_index":275,"plugin_version":"2.1.0","time_elapsed":601184,"subject_id":"88137","group":"Group2","date":"2025-11-04T21:00:26.664Z"},{"correct_response":"a","task":"test_phase","broad_category":"S","image_png":"S_Breccia_07.png","image_id":343,"category_name":"Breccia","category":22,"distinct_rating":6.19,"item_type":"Foil","rt":50,"stimulus":"Stimuli_Rocks480/S_Breccia_07.png","response":"l","trial_type":"image-keyboard-response","trial_index":276,"plugin_version":"2.1.0","time_elapsed":601236,"subject_id":"88137","group":"Group2","date":"2025-11-04T21:00:26.664Z","cor_ans":false},{"trial_type":"html-keyboard-response","rt":null,"stimulus":"<p style=\"color: red; font-size: 50px; font-weight: bold;\">Incorrect</p>","response":null,"trial_index":277,"plugin_version":"2.1.0","time_elapsed":601741,"subject_id":"88137","group":"Group2","date":"2025-11-04T21:00:26.664Z"},{"correct_response":"l","task":"test_phase","broad_category":"S","image_png":"S_Breccia_01.png","image_id":337,"category_name":"Breccia","category":22,"distinct_rating":7.35,"item_type":"Target","rt":24,"stimulus":"Stimuli_Rocks480/S_Breccia_01.png","response":"l","trial_type":"image-keyboard-response","trial_index":278,"plugin_version":"2.1.0","time_elapsed":601767,"subject_id":"88137","group":"Group2","date":"2025-11-04T21:00:26.664Z","cor_ans":true},{"trial_type":"html-keyboard-response","rt":null,"stimulus":"<p style=\"color: green; font-size: 50px; font-weight: bold;\">Correct</p>","response":null,"trial_index":279,"plugin_version":"2.1.0","time_elapsed":602284,"subject_id":"88137","group":"Group2","date":"2025-11-04T21:00:26.664Z"},{"correct_response":"l","task":"test_phase","broad_category":"I","image_png":"I_Basalt_06.png","image_id":22,"category_name":"Basalt","category":2,"distinct_rating":2.08,"item_type":"Target","rt":57,"stimulus":"Stimuli_Rocks480/I_Basalt_06.png","response":"l","trial_type":"image-keyboard-response","trial_index":280,"plugin_version":"2.1.0","time_elapsed":602343,"subject_id":"88137","group":"Group2","date":"2025-11-04T21:00:26.664Z","cor_ans":true},{"trial_type":"html-keyboard-response","rt":null,"stimulus":"<p style=\"color: green; font-size: 50px; font-weight: bold;\">Correct</p>","response":null,"trial_index":281,"plugin_version":"2.1.0","time_elapsed":602858,"subject_id":"88137","group":"Group2","date":"2025-11-04T21:00:26.664Z"},{"co