[{"width":1512,"height":865,"webaudio":true,"browser":"safari","browser_version":"18.6.0","mobile":false,"os":"Mac OS","fullscreen":true,"vsync_rate":60.48,"webcam":true,"microphone":true,"trial_type":"browser-check","trial_index":0,"plugin_version":"2.1.0","time_elapsed":997,"subject_id":"89029","group":"Group1","date":"2025-09-30T18:37:06.868Z"},{"success":true,"timeout":false,"failed_images":[],"failed_audio":[],"failed_video":[],"trial_type":"preload","trial_index":1,"plugin_version":"2.1.0","time_elapsed":5593,"subject_id":"89029","group":"Group1","date":"2025-09-30T18:37:06.868Z"},{"rt":10024,"url":"SONA_consent_memorability.html","trial_type":"external-html","trial_index":2,"plugin_version":"2.1.0","time_elapsed":15658,"subject_id":"89029","group":"Group1","date":"2025-09-30T18:37:06.868Z"},{"success":true,"rt":1016,"trial_type":"fullscreen","trial_index":3,"plugin_version":"2.1.0","time_elapsed":17677,"subject_id":"89029","group":"Group1","date":"2025-09-30T18:37:06.868Z"},{"rt":1606,"stimulus":"<div style=\"max-width: 760px; margin: auto; font-size: 20px; line-height: 1.5;\">\n      <h1 style=\"text-align:center; font-size: 30px;\">Instructions</h1>\n      <p>\n        Welcome to the study on <b>visual memory</b>. This experiment consists of <b>two phases</b>: \n        a <b>study phase</b> and a <b>test phase</b>.\n      </p>\n      <p>\n        In the study phase, you will see a series of rock images along with their category labels.\n        The images will appear one at a time.\n        <b>Your task</b> is to learn the categories to which the rock images belong \n        and to remember each image as accurately as possible.\n      </p> \n      <p>\n        After the study phase, <b>your memory will be tested</b>. \n        Additional instructions for the test phase will be provided at that time.\n      </p>\n      <p>\n        If your computer has multiple <b>language settings</b> (e.g., English and another language),\n        please make sure it is set to English before starting.\n      </p>\n      <p>\n        You can track your progress using the <b>completion bar</b> at the top of the screen. \n        Please note that the bar will refresh when the test phase begins \n        to give you an accurate sense of your progress in both phases.\n      </p> \n      <p>\n        Press the button below when you are ready to begin.\n      </p>\n    </div>","response":0,"trial_type":"html-button-response","trial_index":4,"plugin_version":"2.1.0","time_elapsed":19283,"subject_id":"89029","group":"Group1","date":"2025-09-30T18:37:06.868Z"},{"rt":null,"stimulus":"<p style=\"font-size: 50px; margin: 0; text-align: center;\">+</p>","response":null,"trial_type":"html-keyboard-response","trial_index":5,"plugin_version":"2.1.0","time_elapsed":20285,"subject_id":"89029","group":"Group1","date":"2025-09-30T18:37:06.868Z"},{"task":"memory_phase","broad_category":"I","image_png":"I_Basalt_03.png","image_id":19,"category_name":"Basalt","category":2,"distinct_rating":2.94,"rt":null,"stimulus":"Stimuli_Rocks480/I_Basalt_03.png","response":null,"trial_type":"image-keyboard-response","trial_index":6,"plugin_version":"2.1.0","time_elapsed":22793,"subject_id":"89029","group":"Group1","date":"2025-09-30T18:37:06.868Z"},{"rt":null,"stimulus":"<p style=\"font-size: 50px; margin: 0; text-align: center;\">+</p>","response":null,"trial_type":"html-keyboard-response","trial_index":7,"plugin_version":"2.1.0","time_elapsed":23794,"subject_id":"89029","group":"Group1","date":"2025-09-30T18:37:06.868Z"},{"task":"memory_phase","broad_category":"I","image_png":"I_Rhyolite_12.png","image_id":156,"category_name":"Rhyolite","category":10,"distinct_rating":3.68,"rt":null,"stimulus":"Stimuli_Rocks480/I_Rhyolite_12.png","response":null,"trial_type":"image-keyboard-response","trial_index":8,"plugin_version":"2.1.0","time_elapsed":26301,"subject_id":"89029","group":"Group1","date":"2025-09-30T18:37:06.868Z"},{"rt":null,"stimulus":"<p style=\"font-size: 50px; margin: 0; text-align: center;\">+</p>","response":null,"trial_type":"html-keyboard-response","trial_index":9,"plugin_version":"2.1.0","time_elapsed":27302,"subject_id":"89029","group":"Group1","date":"2025-09-30T18:37:06.868Z"},{"task":"memory_phase","broad_category":"I","image_png":"I_Rhyolite_16.png","image_id":160,"category_name":"Rhyolite","category":10,"distinct_rating":2.19,"rt":null,"stimulus":"Stimuli_Rocks480/I_Rhyolite_16.png","response":null,"trial_type":"image-keyboard-response","trial_index":10,"plugin_version":"2.1.0","time_elapsed":29808,"subject_id":"89029","group":"Group1","date":"2025-09-30T18:37:06.868Z"},{"rt":null,"stimulus":"<p style=\"font-size: 50px; margin: 0; text-align: center;\">+</p>","response":null,"trial_type":"html-keyboard-response","trial_index":11,"plugin_version":"2.1.0","time_elapsed":30809,"subject_id":"89029","group":"Group1","date":"2025-09-30T18:37:06.868Z"},{"task":"memory_phase","broad_category":"M","image_png":"M_Marble_01.png","image_id":225,"category_name":"Marble","category":15,"distinct_rating":4.1,"rt":null,"stimulus":"Stimuli_Rocks480/M_Marble_01.png","response":null,"trial_type":"image-keyboard-response","trial_index":12,"plugin_version":"2.1.0","time_elapsed":33316,"subject_id":"89029","group":"Group1","date":"2025-09-30T18:37:06.868Z"},{"rt":null,"stimulus":"<p style=\"font-size: 50px; margin: 0; text-align: center;\">+</p>","response":null,"trial_type":"html-keyboard-response","trial_index":13,"plugin_version":"2.1.0","time_elapsed":34317,"subject_id":"89029","group":"Group1","date":"2025-09-30T18:37:06.868Z"},{"task":"memory_phase","broad_category":"M","image_png":"M_Slate_07.png","image_id":311,"category_name":"Slate","category":20,"distinct_rating":3.48,"rt":null,"stimulus":"Stimuli_Rocks480/M_Slate_07.png","response":null,"trial_type":"image-keyboard-response","trial_index":14,"plugin_version":"2.1.0","time_elapsed":36824,"subject_id":"89029","group":"Group1","date":"2025-09-30T18:37:06.868Z"},{"rt":null,"stimulus":"<p style=\"font-size: 50px; margin: 0; text-align: center;\">+</p>","response":null,"trial_type":"html-keyboard-response","trial_index":15,"plugin_version":"2.1.0","time_elapsed":37825,"subject_id":"89029","group":"Group1","date":"2025-09-30T18:37:06.868Z"},{"task":"memory_phase","broad_category":"S","image_png":"S_Bituminous Coal_08.png","image_id":328,"category_name":"Bituminous Coal","category":21,"distinct_rating":3.92,"rt":null,"stimulus":"Stimuli_Rocks480/S_Bituminous Coal_08.png","response":null,"trial_type":"image-keyboard-response","trial_index":16,"plugin_version":"2.1.0","time_elapsed":40331,"subject_id":"89029","group":"Group1","date":"2025-09-30T18:37:06.868Z"},{"rt":null,"stimulus":"<p style=\"font-size: 50px; margin: 0; text-align: center;\">+</p>","response":null,"trial_type":"html-keyboard-response","trial_index":17,"plugin_version":"2.1.0","time_elapsed":41331,"subject_id":"89029","group":"Group1","date":"2025-09-30T18:37:06.868Z"},{"task":"memory_phase","broad_category":"I","image_png":"I_Pumice_03.png","image_id":131,"category_name":"Pumice","category":9,"distinct_rating":3.41,"rt":null,"stimulus":"Stimuli_Rocks480/I_Pumice_03.png","response":null,"trial_type":"image-keyboard-response","trial_index":18,"plugin_version":"2.1.0","time_elapsed":43840,"subject_id":"89029","group":"Group1","date":"2025-09-30T18:37:06.868Z"},{"rt":null,"stimulus":"<p style=\"font-size: 50px; margin: 0; text-align: center;\">+</p>","response":null,"trial_type":"html-keyboard-response","trial_index":19,"plugin_version":"2.1.0","time_elapsed":44841,"subject_id":"89029","group":"Group1","date":"2025-09-30T18:37:06.868Z"},{"task":"memory_phase","broad_category":"M","image_png":"M_Amphibolite_03.png","image_id":163,"category_name":"Amphibolite","category":11,"distinct_rating":6.58,"rt":null,"stimulus":"Stimuli_Rocks480/M_Amphibolite_03.png","response":null,"trial_type":"image-keyboard-response","trial_index":20,"plugin_version":"2.1.0","time_elapsed":47347,"subject_id":"89029","group":"Group1","date":"2025-09-30T18:37:06.868Z"},{"rt":null,"stimulus":"<p style=\"font-size: 50px; margin: 0; text-align: center;\">+</p>","response":null,"trial_type":"html-keyboard-response","trial_index":21,"plugin_version":"2.1.0","time_elapsed":48348,"subject_id":"89029","group":"Group1","date":"2025-09-30T18:37:06.868Z"},{"task":"memory_phase","broad_category":"M","image_png":"M_Anthracite_15.png","image_id":191,"category_name":"Anthracite","category":12,"distinct_rating":4.62,"rt":null,"stimulus":"Stimuli_Rocks480/M_Anthracite_15.png","response":null,"trial_type":"image-keyboard-response","trial_index":22,"plugin_version":"2.1.0","time_elapsed":50854,"subject_id":"89029","group":"Group1","date":"2025-09-30T18:37:06.868Z"},{"rt":null,"stimulus":"<p style=\"font-size: 50px; margin: 0; text-align: center;\">+</p>","response":null,"trial_type":"html-keyboard-response","trial_index":23,"plugin_version":"2.1.0","time_elapsed":51855,"subject_id":"89029","group":"Group1","date":"2025-09-30T18:37:06.868Z"},{"task":"memory_phase","broad_category":"M","image_png":"M_Schist_12.png","image_id":300,"category_name":"Schist","category":19,"distinct_rating":4.27,"rt":null,"stimulus":"Stimuli_Rocks480/M_Schist_12.png","response":null,"trial_type":"image-keyboard-response","trial_index":24,"plugin_version":"2.1.0","time_elapsed":54362,"subject_id":"89029","group":"Group1","date":"2025-09-30T18:37:06.868Z"},{"rt":null,"stimulus":"<p style=\"font-size: 50px; margin: 0; text-align: center;\">+</p>","response":null,"trial_type":"html-keyboard-response","trial_index":25,"plugin_version":"2.1.0","time_elapsed":55363,"subject_id":"89029","group":"Group1","date":"2025-09-30T18:37:06.868Z"},{"task":"memory_phase","broad_category":"S","image_png":"S_Conglomerate_10.png","image_id":378,"category_name":"Conglomerate","category":24,"distinct_rating":5.63,"rt":null,"stimulus":"Stimuli_Rocks480/S_Conglomerate_10.png","response":null,"trial_type":"image-keyboard-response","trial_index":26,"plugin_version":"2.1.0","time_elapsed":57869,"subject_id":"89029","group":"Group1","date":"2025-09-30T18:37:06.868Z"},{"rt":null,"stimulus":"<p style=\"font-size: 50px; margin: 0; text-align: center;\">+</p>","response":null,"trial_type":"html-keyboard-response","trial_index":27,"plugin_version":"2.1.0","time_elapsed":58870,"subject_id":"89029","group":"Group1","date":"2025-09-30T18:37:06.868Z"},{"task":"memory_phase","broad_category":"M","image_png":"M_Anthracite_12.png","image_id":188,"category_name":"Anthracite","category":12,"distinct_rating":5.69,"rt":null,"stimulus":"Stimuli_Rocks480/M_Anthracite_12.png","response":null,"trial_type":"image-keyboard-response","trial_index":28,"plugin_version":"2.1.0","time_elapsed":61375,"subject_id":"89029","group":"Group1","date":"2025-09-30T18:37:06.868Z"},{"rt":null,"stimulus":"<p style=\"font-size: 50px; margin: 0; text-align: center;\">+</p>","response":null,"trial_type":"html-keyboard-response","trial_index":29,"plugin_version":"2.1.0","time_elapsed":62376,"subject_id":"89029","group":"Group1","date":"2025-09-30T18:37:06.868Z"},{"task":"memory_phase","broad_category":"I","image_png":"I_Pegmatite_09.png","image_id":105,"category_name":"Pegmatite","category":7,"distinct_rating":6.37,"rt":null,"stimulus":"Stimuli_Rocks480/I_Pegmatite_09.png","response":null,"trial_type":"image-keyboard-response","trial_index":30,"plugin_version":"2.1.0","time_elapsed":64881,"subject_id":"89029","group":"Group1","date":"2025-09-30T18:37:06.868Z"},{"rt":null,"stimulus":"<p style=\"font-size: 50px; margin: 0; text-align: center;\">+</p>","response":null,"trial_type":"html-keyboard-response","trial_index":31,"plugin_version":"2.1.0","time_elapsed":65882,"subject_id":"89029","group":"Group1","date":"2025-09-30T18:37:06.868Z"},{"task":"memory_phase","broad_category":"S","image_png":"S_Chert_12.png","image_id":364,"category_name":"Chert","category":23,"distinct_rating":4.06,"rt":null,"stimulus":"Stimuli_Rocks480/S_Chert_12.png","response":null,"trial_type":"image-keyboard-response","trial_index":32,"plugin_version":"2.1.0","time_elapsed":68389,"subject_id":"89029","group":"Group1","date":"2025-09-30T18:37:06.868Z"},{"rt":null,"stimulus":"<p style=\"font-size: 50px; margin: 0; text-align: center;\">+</p>","response":null,"trial_type":"html-keyboard-response","trial_index":33,"plugin_version":"2.1.0","time_elapsed":69390,"subject_id":"89029","group":"Group1","date":"2025-09-30T18:37:06.868Z"},{"task":"memory_phase","broad_category":"I","image_png":"I_Basalt_01.png","image_id":17,"category_name":"Basalt","category":2,"distinct_rating":1.92,"rt":null,"stimulus":"Stimuli_Rocks480/I_Basalt_01.png","response":null,"trial_type":"image-keyboard-response","trial_index":34,"plugin_version":"2.1.0","time_elapsed":71898,"subject_id":"89029","group":"Group1","date":"2025-09-30T18:37:06.868Z"},{"rt":null,"stimulus":"<p style=\"font-size: 50px; margin: 0; text-align: center;\">+</p>","response":null,"trial_type":"html-keyboard-response","trial_index":35,"plugin_version":"2.1.0","time_elapsed":72898,"subject_id":"89029","group":"Group1","date":"2025-09-30T18:37:06.868Z"},{"task":"memory_phase","broad_category":"M","image_png":"M_Marble_15.png","image_id":239,"category_name":"Marble","category":15,"distinct_rating":6.35,"rt":null,"stimulus":"Stimuli_Rocks480/M_Marble_15.png","response":null,"trial_type":"image-keyboard-response","trial_index":36,"plugin_version":"2.1.0","time_elapsed":75406,"subject_id":"89029","group":"Group1","date":"2025-09-30T18:37:06.868Z"},{"rt":null,"stimulus":"<p style=\"font-size: 50px; margin: 0; text-align: center;\">+</p>","response":null,"trial_type":"html-keyboard-response","trial_index":37,"plugin_version":"2.1.0","time_elapsed":76407,"subject_id":"89029","group":"Group1","date":"2025-09-30T18:37:06.868Z"},{"task":"memory_phase","broad_category":"I","image_png":"I_Obsidian_02.png","image_id":82,"category_name":"Obsidian","category":6,"distinct_rating":6.06,"rt":null,"stimulus":"Stimuli_Rocks480/I_Obsidian_02.png","response":null,"trial_type":"image-keyboard-response","trial_index":38,"plugin_version":"2.1.0","time_elapsed":78914,"subject_id":"89029","group":"Group1","date":"2025-09-30T18:37:06.868Z"},{"rt":null,"stimulus":"<p style=\"font-size: 50px; margin: 0; text-align: center;\">+</p>","response":null,"trial_type":"html-keyboard-response","trial_index":39,"plugin_version":"2.1.0","time_elapsed":79916,"subject_id":"89029","group":"Group1","date":"2025-09-30T18:37:06.868Z"},{"task":"memory_phase","broad_category":"M","image_png":"M_Marble_02.png","image_id":226,"category_name":"Marble","category":15,"distinct_rating":3.2,"rt":null,"stimulus":"Stimuli_Rocks480/M_Marble_02.png","response":null,"trial_type":"image-keyboard-response","trial_index":40,"plugin_version":"2.1.0","time_elapsed":82421,"subject_id":"89029","group":"Group1","date":"2025-09-30T18:37:06.868Z"},{"rt":null,"stimulus":"<p style=\"font-size: 50px; margin: 0; text-align: center;\">+</p>","response":null,"trial_type":"html-keyboard-response","trial_index":41,"plugin_version":"2.1.0","time_elapsed":83423,"subject_id":"89029","group":"Group1","date":"2025-09-30T18:37:06.868Z"},{"task":"memory_phase","broad_category":"S","image_png":"S_Chert_09.png","image_id":361,"category_name":"Chert","category":23,"distinct_rating":4.92,"rt":null,"stimulus":"Stimuli_Rocks480/S_Chert_09.png","response":null,"trial_type":"image-keyboard-response","trial_index":42,"plugin_version":"2.1.0","time_elapsed":85930,"subject_id":"89029","group":"Group1","date":"2025-09-30T18:37:06.868Z"},{"rt":null,"stimulus":"<p style=\"font-size: 50px; margin: 0; text-align: center;\">+</p>","response":null,"trial_type":"html-keyboard-response","trial_index":43,"plugin_version":"2.1.0","time_elapsed":86931,"subject_id":"89029","group":"Group1","date":"2025-09-30T18:37:06.868Z"},{"task":"memory_phase","broad_category":"S","image_png":"S_Breccia_07.png","image_id":343,"category_name":"Breccia","category":22,"distinct_rating":6.19,"rt":null,"stimulus":"Stimuli_Rocks480/S_Breccia_07.png","response":null,"trial_type":"image-keyboard-response","trial_index":44,"plugin_version":"2.1.0","time_elapsed":89439,"subject_id":"89029","group":"Group1","date":"2025-09-30T18:37:06.868Z"},{"rt":null,"stimulus":"<p style=\"font-size: 50px; margin: 0; text-align: center;\">+</p>","response":null,"trial_type":"html-keyboard-response","trial_index":45,"plugin_version":"2.1.0","time_elapsed":90441,"subject_id":"89029","group":"Group1","date":"2025-09-30T18:37:06.868Z"},{"task":"memory_phase","broad_category":"S","image_png":"S_Dolomite_09.png","image_id":393,"category_name":"Dolomite","category":25,"distinct_rating":2.11,"rt":null,"stimulus":"Stimuli_Rocks480/S_Dolomite_09.png","response":null,"trial_type":"image-keyboard-response","trial_index":46,"plugin_version":"2.1.0","time_elapsed":92947,"subject_id":"89029","group":"Group1","date":"2025-09-30T18:37:06.868Z"},{"rt":null,"stimulus":"<p style=\"font-size: 50px; margin: 0; text-align: center;\">+</p>","response":null,"trial_type":"html-keyboard-response","trial_index":47,"plugin_version":"2.1.0","time_elapsed":93948,"subject_id":"89029","group":"Group1","date":"2025-09-30T18:37:06.868Z"},{"task":"memory_phase","broad_category":"S","image_png":"S_Dolomite_07.png","image_id":391,"category_name":"Dolomite","category":25,"distinct_rating":1.73,"rt":null,"stimulus":"Stimuli_Rocks480/S_Dolomite_07.png","response":null,"trial_type":"image-keyboard-response","trial_index":48,"plugin_version":"2.1.0","time_elapsed":96454,"subject_id":"89029","group":"Group1","date":"2025-09-30T18:37:06.868Z"},{"rt":null,"stimulus":"<p style=\"font-size: 50px; margin: 0; text-align: center;\">+</p>","response":null,"trial_type":"html-keyboard-response","trial_index":49,"plugin_version":"2.1.0","time_elapsed":97455,"subject_id":"89029","group":"Group1","date":"2025-09-30T18:37:06.868Z"},{"task":"memory_phase","broad_category":"I","image_png":"I_Rhyolite_13.png","image_id":157,"category_name":"Rhyolite","category":10,"distinct_rating":4.83,"rt":null,"stimulus":"Stimuli_Rocks480/I_Rhyolite_13.png","response":null,"trial_type":"image-keyboard-response","trial_index":50,"plugin_version":"2.1.0","time_elapsed":99963,"subject_id":"89029","group":"Group1","date":"2025-09-30T18:37:06.868Z"},{"rt":null,"stimulus":"<p style=\"font-size: 50px; margin: 0; text-align: center;\">+</p>","response":null,"trial_type":"html-keyboard-response","trial_index":51,"plugin_version":"2.1.0","time_elapsed":100964,"subject_id":"89029","group":"Group1","date":"2025-09-30T18:37:06.868Z"},{"task":"memory_phase","broad_category":"M","image_png":"M_Slate_06.png","image_id":310,"category_name":"Slate","category":20,"distinct_rating":2.86,"rt":null,"stimulus":"Stimuli_Rocks480/M_Slate_06.png","response":null,"trial_type":"image-keyboard-response","trial_index":52,"plugin_version":"2.1.0","time_elapsed":103470,"subject_id":"89029","group":"Group1","date":"2025-09-30T18:37:06.868Z"},{"rt":null,"stimulus":"<p style=\"font-size: 50px; margin: 0; text-align: center;\">+</p>","response":null,"trial_type":"html-keyboard-response","trial_index":53,"plugin_version":"2.1.0","time_elapsed":104471,"subject_id":"89029","group":"Group1","date":"2025-09-30T18:37:06.868Z"},{"task":"memory_phase","broad_category":"I","image_png":"I_Peridotite_10.png","image_id":122,"category_name":"Peridotite","category":8,"distinct_rating":4.64,"rt":null,"stimulus":"Stimuli_Rocks480/I_Peridotite_10.png","response":null,"trial_type":"image-keyboard-response","trial_index":54,"plugin_version":"2.1.0","time_elapsed":106977,"subject_id":"89029","group":"Group1","date":"2025-09-30T18:37:06.868Z"},{"rt":null,"stimulus":"<p style=\"font-size: 50px; margin: 0; text-align: center;\">+</p>","response":null,"trial_type":"html-keyboard-response","trial_index":55,"plugin_version":"2.1.0","time_elapsed":107978,"subject_id":"89029","group":"Group1","date":"2025-09-30T18:37:06.868Z"},{"task":"memory_phase","broad_category":"S","image_png":"S_Breccia_08.png","image_id":344,"category_name":"Breccia","category":22,"distinct_rating":7.14,"rt":null,"stimulus":"Stimuli_Rocks480/S_Breccia_08.png","response":null,"trial_type":"image-keyboard-response","trial_index":56,"plugin_version":"2.1.0","time_elapsed":110485,"subject_id":"89029","group":"Group1","date":"2025-09-30T18:37:06.868Z"},{"rt":null,"stimulus":"<p style=\"font-size: 50px; margin: 0; text-align: center;\">+</p>","response":null,"trial_type":"html-keyboard-response","trial_index":57,"plugin_version":"2.1.0","time_elapsed":111487,"subject_id":"89029","group":"Group1","date":"2025-09-30T18:37:06.868Z"},{"task":"memory_phase","broad_category":"S","image_png":"S_Micrite_15.png","image_id":415,"category_name":"Micrite","category":26,"distinct_rating":2.28,"rt":null,"stimulus":"Stimuli_Rocks480/S_Micrite_15.png","response":null,"trial_type":"image-keyboard-response","trial_index":58,"plugin_version":"2.1.0","time_elapsed":113991,"subject_id":"89029","group":"Group1","date":"2025-09-30T18:37:06.868Z"},{"rt":null,"stimulus":"<p style=\"font-size: 50px; margin: 0; text-align: center;\">+</p>","response":null,"trial_type":"html-keyboard-response","trial_index":59,"plugin_version":"2.1.0","time_elapsed":114992,"subject_id":"89029","group":"Group1","date":"2025-09-30T18:37:06.868Z"},{"task":"memory_phase","broad_category":"I","image_png":"I_Pegmatite_10.png","image_id":106,"category_name":"Pegmatite","category":7,"distinct_rating":7.66,"rt":null,"stimulus":"Stimuli_Rocks480/I_Pegmatite_10.png","response":null,"trial_type":"image-keyboard-response","trial_index":60,"plugin_version":"2.1.0","time_elapsed":117498,"subject_id":"89029","group":"Group1","date":"2025-09-30T18:37:06.868Z"},{"rt":null,"stimulus":"<p style=\"font-size: 50px; margin: 0; text-align: center;\">+</p>","response":null,"trial_type":"html-keyboard-response","trial_index":61,"plugin_version":"2.1.0","time_elapsed":118500,"subject_id":"89029","group":"Group1","date":"2025-09-30T18:37:06.868Z"},{"task":"memory_phase","broad_category":"M","image_png":"M_Hornfels_10.png","image_id":218,"category_name":"Hornfels","category":14,"distinct_rating":2.88,"rt":null,"stimulus":"Stimuli_Rocks480/M_Hornfels_10.png","response":null,"trial_type":"image-keyboard-response","trial_index":62,"plugin_version":"2.1.0","time_elapsed":121008,"subject_id":"89029","group":"Group1","date":"2025-09-30T18:37:06.868Z"},{"rt":null,"stimulus":"<p style=\"font-size: 50px; margin: 0; text-align: center;\">+</p>","response":null,"trial_type":"html-keyboard-response","trial_index":63,"plugin_version":"2.1.0","time_elapsed":122010,"subject_id":"89029","group":"Group1","date":"2025-09-30T18:37:06.868Z"},{"task":"memory_phase","broad_category":"S","image_png":"S_Conglomerate_03.png","image_id":371,"category_name":"Conglomerate","category":24,"distinct_rating":4.73,"rt":null,"stimulus":"Stimuli_Rocks480/S_Conglomerate_03.png","response":null,"trial_type":"image-keyboard-response","trial_index":64,"plugin_version":"2.1.0","time_elapsed":124516,"subject_id":"89029","group":"Group1","date":"2025-09-30T18:37:06.868Z"},{"rt":null,"stimulus":"<p style=\"font-size: 50px; margin: 0; text-align: center;\">+</p>","response":null,"trial_type":"html-keyboard-response","trial_index":65,"plugin_version":"2.1.0","time_elapsed":125517,"subject_id":"89029","group":"Group1","date":"2025-09-30T18:37:06.868Z"},{"task":"memory_phase","broad_category":"I","image_png":"I_Andesite_02.png","image_id":2,"category_name":"Andesite","category":1,"distinct_rating":3.93,"rt":null,"stimulus":"Stimuli_Rocks480/I_Andesite_02.png","response":null,"trial_type":"image-keyboard-response","trial_index":66,"plugin_version":"2.1.0","time_elapsed":128027,"subject_id":"89029","group":"Group1","date":"2025-09-30T18:37:06.868Z"},{"rt":null,"stimulus":"<p style=\"font-size: 50px; margin: 0; text-align: center;\">+</p>","response":null,"trial_type":"html-keyboard-response","trial_index":67,"plugin_version":"2.1.0","time_elapsed":129028,"subject_id":"89029","group":"Group1","date":"2025-09-30T18:37:06.868Z"},{"task":"memory_phase","broad_category":"M","image_png":"M_Slate_16.png","image_id":320,"category_name":"Slate","category":20,"distinct_rating":2.55,"rt":null,"stimulus":"Stimuli_Rocks480/M_Slate_16.png","response":null,"trial_type":"image-keyboard-response","trial_index":68,"plugin_version":"2.1.0","time_elapsed":131534,"subject_id":"89029","group":"Group1","date":"2025-09-30T18:37:06.868Z"},{"rt":null,"stimulus":"<p style=\"font-size: 50px; margin: 0; text-align: center;\">+</p>","response":null,"trial_type":"html-keyboard-response","trial_index":69,"plugin_version":"2.1.0","time_elapsed":132535,"subject_id":"89029","group":"Group1","date":"2025-09-30T18:37:06.868Z"},{"task":"memory_phase","broad_category":"S","image_png":"S_Micrite_01.png","image_id":401,"category_name":"Micrite","category":26,"distinct_rating":2.94,"rt":null,"stimulus":"Stimuli_Rocks480/S_Micrite_01.png","response":null,"trial_type":"image-keyboard-response","trial_index":70,"plugin_version":"2.1.0","time_elapsed":135039,"subject_id":"89029","group":"Group1","date":"2025-09-30T18:37:06.868Z"},{"rt":null,"stimulus":"<p style=\"font-size: 50px; margin: 0; text-align: center;\">+</p>","response":null,"trial_type":"html-keyboard-response","trial_index":71,"plugin_version":"2.1.0","time_elapsed":136041,"subject_id":"89029","group":"Group1","date":"2025-09-30T18:37:06.868Z"},{"task":"memory_phase","broad_category":"I","image_png":"I_Basalt_15.png","image_id":31,"category_name":"Basalt","category":2,"distinct_rating":4.03,"rt":null,"stimulus":"Stimuli_Rocks480/I_Basalt_15.png","response":null,"trial_type":"image-keyboard-response","trial_index":72,"plugin_version":"2.1.0","time_elapsed":138547,"subject_id":"89029","group":"Group1","date":"2025-09-30T18:37:06.868Z"},{"rt":null,"stimulus":"<p style=\"font-size: 50px; margin: 0; text-align: center;\">+</p>","response":null,"trial_type":"html-keyboard-response","trial_index":73,"plugin_version":"2.1.0","time_elapsed":139548,"subject_id":"89029","group":"Group1","date":"2025-09-30T18:37:06.868Z"},{"task":"memory_phase","broad_category":"M","image_png":"M_Phyllite_12.png","image_id":268,"category_name":"Phyllite","category":17,"distinct_rating":3.83,"rt":null,"stimulus":"Stimuli_Rocks480/M_Phyllite_12.png","response":null,"trial_type":"image-keyboard-response","trial_index":74,"plugin_version":"2.1.0","time_elapsed":142056,"subject_id":"89029","group":"Group1","date":"2025-09-30T18:37:06.868Z"},{"rt":null,"stimulus":"<p style=\"font-size: 50px; margin: 0; text-align: center;\">+</p>","response":null,"trial_type":"html-keyboard-response","trial_index":75,"plugin_version":"2.1.0","time_elapsed":143057,"subject_id":"89029","group":"Group1","date":"2025-09-30T18:37:06.868Z"},{"task":"memory_phase","broad_category":"S","image_png":"S_Dolomite_10.png","image_id":394,"category_name":"Dolomite","category":25,"distinct_rating":3.57,"rt":null,"stimulus":"Stimuli_Rocks480/S_Dolomite_10.png","response":null,"trial_type":"image-keyboard-response","trial_index":76,"plugin_version":"2.1.0","time_elapsed":145564,"subject_id":"89029","group":"Group1","date":"2025-09-30T18:37:06.868Z"},{"rt":null,"stimulus":"<p style=\"font-size: 50px; margin: 0; text-align: center;\">+</p>","response":null,"trial_type":"html-keyboard-response","trial_index":77,"plugin_version":"2.1.0","time_elapsed":146564,"subject_id":"89029","group":"Group1","date":"2025-09-30T18:37:06.868Z"},{"task":"memory_phase","broad_category":"M","image_png":"M_Gneiss_15.png","image_id":207,"category_name":"Gneiss","category":13,"distinct_rating":3.11,"rt":null,"stimulus":"Stimuli_Rocks480/M_Gneiss_15.png","response":null,"trial_type":"image-keyboard-response","trial_index":78,"plugin_version":"2.1.0","time_elapsed":149069,"subject_id":"89029","group":"Group1","date":"2025-09-30T18:37:06.868Z"},{"rt":null,"stimulus":"<p style=\"font-size: 50px; margin: 0; text-align: center;\">+</p>","response":null,"trial_type":"html-keyboard-response","trial_index":79,"plugin_version":"2.1.0","time_elapsed":150069,"subject_id":"89029","group":"Group1","date":"2025-09-30T18:37:06.868Z"},{"task":"memory_phase","broad_category":"M","image_png":"M_Marble_13.png","image_id":237,"category_name":"Marble","category":15,"distinct_rating":3.8,"rt":null,"stimulus":"Stimuli_Rocks480/M_Marble_13.png","response":null,"trial_type":"image-keyboard-response","trial_index":80,"plugin_version":"2.1.0","time_elapsed":152577,"subject_id":"89029","group":"Group1","date":"2025-09-30T18:37:06.868Z"},{"rt":null,"stimulus":"<p style=\"font-size: 50px; margin: 0; text-align: center;\">+</p>","response":null,"trial_type":"html-keyboard-response","trial_index":81,"plugin_version":"2.1.0","time_elapsed":153578,"subject_id":"89029","group":"Group1","date":"2025-09-30T18:37:06.868Z"},{"task":"memory_phase","broad_category":"S","image_png":"S_Rock Gypsum_13.png","image_id":429,"category_name":"Rock Gypsum","category":27,"distinct_rating":4.94,"rt":null,"stimulus":"Stimuli_Rocks480/S_Rock Gypsum_13.png","response":null,"trial_type":"image-keyboard-response","trial_index":82,"plugin_version":"2.1.0","time_elapsed":156083,"subject_id":"89029","group":"Group1","date":"2025-09-30T18:37:06.868Z"},{"rt":null,"stimulus":"<p style=\"font-size: 50px; margin: 0; text-align: center;\">+</p>","response":null,"trial_type":"html-keyboard-response","trial_index":83,"plugin_version":"2.1.0","time_elapsed":157085,"subject_id":"89029","group":"Group1","date":"2025-09-30T18:37:06.868Z"},{"task":"memory_phase","broad_category":"S","image_png":"S_Rock Gypsum_01.png","image_id":417,"category_name":"Rock Gypsum","category":27,"distinct_rating":3.97,"rt":null,"stimulus":"Stimuli_Rocks480/S_Rock Gypsum_01.png","response":null,"trial_type":"image-keyboard-response","trial_index":84,"plugin_version":"2.1.0","time_elapsed":159590,"subject_id":"89029","group":"Group1","date":"2025-09-30T18:37:06.868Z"},{"rt":null,"stimulus":"<p style=\"font-size: 50px; margin: 0; text-align: center;\">+</p>","response":null,"trial_type":"html-keyboard-response","trial_index":85,"plugin_version":"2.1.0","time_elapsed":160591,"subject_id":"89029","group":"Group1","date":"2025-09-30T18:37:06.868Z"},{"task":"memory_phase","broad_category":"S","image_png":"S_Rock Gypsum_04.png","image_id":420,"category_name":"Rock Gypsum","category":27,"distinct_rating":7.61,"rt":null,"stimulus":"Stimuli_Rocks480/S_Rock Gypsum_04.png","response":null,"trial_type":"image-keyboard-response","trial_index":86,"plugin_version":"2.1.0","time_elapsed":163097,"subject_id":"89029","group":"Group1","date":"2025-09-30T18:37:06.868Z"},{"rt":null,"stimulus":"<p style=\"font-size: 50px; margin: 0; text-align: center;\">+</p>","response":null,"trial_type":"html-keyboard-response","trial_index":87,"plugin_version":"2.1.0","time_elapsed":164099,"subject_id":"89029","group":"Group1","date":"2025-09-30T18:37:06.868Z"},{"task":"memory_phase","broad_category":"S","image_png":"S_Conglomerate_16.png","image_id":384,"category_name":"Conglomerate","category":24,"distinct_rating":6.38,"rt":null,"stimulus":"Stimuli_Rocks480/S_Conglomerate_16.png","response":null,"trial_type":"image-keyboard-response","trial_index":88,"plugin_version":"2.1.0","time_elapsed":166605,"subject_id":"89029","group":"Group1","date":"2025-09-30T18:37:06.868Z"},{"rt":null,"stimulus":"<p style=\"font-size: 50px; margin: 0; text-align: center;\">+</p>","response":null,"trial_type":"html-keyboard-response","trial_index":89,"plugin_version":"2.1.0","time_elapsed":167606,"subject_id":"89029","group":"Group1","date":"2025-09-30T18:37:06.868Z"},{"task":"memory_phase","broad_category":"I","image_png":"I_Peridotite_09.png","image_id":121,"category_name":"Peridotite","category":8,"distinct_rating":5.71,"rt":null,"stimulus":"Stimuli_Rocks480/I_Peridotite_09.png","response":null,"trial_type":"image-keyboard-response","trial_index":90,"plugin_version":"2.1.0","time_elapsed":170112,"subject_id":"89029","group":"Group1","date":"2025-09-30T18:37:06.868Z"},{"rt":null,"stimulus":"<p style=\"font-size: 50px; margin: 0; text-align: center;\">+</p>","response":null,"trial_type":"html-keyboard-response","trial_index":91,"plugin_version":"2.1.0","time_elapsed":171114,"subject_id":"89029","group":"Group1","date":"2025-09-30T18:37:06.868Z"},{"task":"memory_phase","broad_category":"M","image_png":"M_Schist_05.png","image_id":293,"category_name":"Schist","category":19,"distinct_rating":3.66,"rt":null,"stimulus":"Stimuli_Rocks480/M_Schist_05.png","response":null,"trial_type":"image-keyboard-response","trial_index":92,"plugin_version":"2.1.0","time_elapsed":173621,"subject_id":"89029","group":"Group1","date":"2025-09-30T18:37:06.868Z"},{"rt":null,"stimulus":"<p style=\"font-size: 50px; margin: 0; text-align: center;\">+</p>","response":null,"trial_type":"html-keyboard-response","trial_index":93,"plugin_version":"2.1.0","time_elapsed":174622,"subject_id":"89029","group":"Group1","date":"2025-09-30T18:37:06.868Z"},{"task":"memory_phase","broad_category":"S","image_png":"S_Sandstone_09.png","image_id":457,"category_name":"Sandstone","category":29,"distinct_rating":3.66,"rt":null,"stimulus":"Stimuli_Rocks480/S_Sandstone_09.png","response":null,"trial_type":"image-keyboard-response","trial_index":94,"plugin_version":"2.1.0","time_elapsed":177130,"subject_id":"89029","group":"Group1","date":"2025-09-30T18:37:06.868Z"},{"rt":null,"stimulus":"<p style=\"font-size: 50px; margin: 0; text-align: center;\">+</p>","response":null,"trial_type":"html-keyboard-response","trial_index":95,"plugin_version":"2.1.0","time_elapsed":178131,"subject_id":"89029","group":"Group1","date":"2025-09-30T18:37:06.868Z"},{"task":"memory_phase","broad_category":"M","image_png":"M_Schist_08.png","image_id":296,"category_name":"Schist","category":19,"distinct_rating":6.46,"rt":null,"stimulus":"Stimuli_Rocks480/M_Schist_08.png","response":null,"trial_type":"image-keyboard-response","trial_index":96,"plugin_version":"2.1.0","time_elapsed":180637,"subject_id":"89029","group":"Group1","date":"2025-09-30T18:37:06.868Z"},{"rt":null,"stimulus":"<p style=\"font-size: 50px; margin: 0; text-align: center;\">+</p>","response":null,"trial_type":"html-keyboard-response","trial_index":97,"plugin_version":"2.1.0","time_elapsed":181638,"subject_id":"89029","group":"Group1","date":"2025-09-30T18:37:06.868Z"},{"task":"memory_phase","broad_category":"I","image_png":"I_Diorite_12.png","image_id":44,"category_name":"Diorite","category":3,"distinct_rating":3.55,"rt":null,"stimulus":"Stimuli_Rocks480/I_Diorite_12.png","response":null,"trial_type":"image-keyboard-response","trial_index":98,"plugin_version":"2.1.0","time_elapsed":184143,"subject_id":"89029","group":"Group1","date":"2025-09-30T18:37:06.868Z"},{"rt":null,"stimulus":"<p style=\"font-size: 50px; margin: 0; text-align: center;\">+</p>","response":null,"trial_type":"html-keyboard-response","trial_index":99,"plugin_version":"2.1.0","time_elapsed":185144,"subject_id":"89029","group":"Group1","date":"2025-09-30T18:37:06.868Z"},{"task":"memory_phase","broad_category":"M","image_png":"M_Hornfels_12.png","image_id":220,"category_name":"Hornfels","category":14,"distinct_rating":2.62,"rt":null,"stimulus":"Stimuli_Rocks480/M_Hornfels_12.png","response":null,"trial_type":"image-keyboard-response","trial_index":100,"plugin_version":"2.1.0","time_elapsed":187650,"subject_id":"89029","group":"Group1","date":"2025-09-30T18:37:06.868Z"},{"rt":20117,"stimulus":"<p style=\"font-size: 35px;\">Press SPACE to continue study phase</p>","response":" ","trial_type":"html-keyboard-response","trial_index":101,"plugin_version":"2.1.0","time_elapsed":207767,"subject_id":"89029","group":"Group1","date":"2025-09-30T18:37:06.868Z"},{"rt":null,"stimulus":"<p style=\"font-size: 50px; margin: 0; text-align: center;\">+</p>","response":null,"trial_type":"html-keyboard-response","trial_index":102,"plugin_version":"2.1.0","time_elapsed":208768,"subject_id":"89029","group":"Group1","date":"2025-09-30T18:37:06.868Z"},{"task":"memory_phase","broad_category":"S","image_png":"S_Bituminous Coal_14.png","image_id":334,"category_name":"Bituminous Coal","category":21,"distinct_rating":4.51,"rt":null,"stimulus":"Stimuli_Rocks480/S_Bituminous Coal_14.png","response":null,"trial_type":"image-keyboard-response","trial_index":103,"plugin_version":"2.1.0","time_elapsed":211274,"subject_id":"89029","group":"Group1","date":"2025-09-30T18:37:06.868Z"},{"rt":null,"stimulus":"<p style=\"font-size: 50px; margin: 0; text-align: center;\">+</p>","response":null,"trial_type":"html-keyboard-response","trial_index":104,"plugin_version":"2.1.0","time_elapsed":212275,"subject_id":"89029","group":"Group1","date":"2025-09-30T18:37:06.868Z"},{"task":"memory_phase","broad_category":"I","image_png":"I_Peridotite_11.png","image_id":123,"category_name":"Peridotite","category":8,"distinct_rating":3.59,"rt":null,"stimulus":"Stimuli_Rocks480/I_Peridotite_11.png","response":null,"trial_type":"image-keyboard-response","trial_index":105,"plugin_version":"2.1.0","time_elapsed":214782,"subject_id":"89029","group":"Group1","date":"2025-09-30T18:37:06.868Z"},{"rt":null,"stimulus":"<p style=\"font-size: 50px; margin: 0; text-align: center;\">+</p>","response":null,"trial_type":"html-keyboard-response","trial_index":106,"plugin_version":"2.1.0","time_elapsed":215784,"subject_id":"89029","group":"Group1","date":"2025-09-30T18:37:06.868Z"},{"task":"memory_phase","broad_category":"M","image_png":"M_Gneiss_01.png","image_id":193,"category_name":"Gneiss","category":13,"distinct_rating":4.54,"rt":null,"stimulus":"Stimuli_Rocks480/M_Gneiss_01.png","response":null,"trial_type":"image-keyboard-response","trial_index":107,"plugin_version":"2.1.0","time_elapsed":218290,"subject_id":"89029","group":"Group1","date":"2025-09-30T18:37:06.868Z"},{"rt":null,"stimulus":"<p style=\"font-size: 50px; margin: 0; text-align: center;\">+</p>","response":null,"trial_type":"html-keyboard-response","trial_index":108,"plugin_version":"2.1.0","time_elapsed":219292,"subject_id":"89029","group":"Group1","date":"2025-09-30T18:37:06.868Z"},{"task":"memory_phase","broad_category":"I","image_png":"I_Basalt_04.png","image_id":20,"category_name":"Basalt","category":2,"distinct_rating":2.47,"rt":null,"stimulus":"Stimuli_Rocks480/I_Basalt_04.png","response":null,"trial_type":"image-keyboard-response","trial_index":109,"plugin_version":"2.1.0","time_elapsed":221800,"subject_id":"89029","group":"Group1","date":"2025-09-30T18:37:06.868Z"},{"rt":null,"stimulus":"<p style=\"font-size: 50px; margin: 0; text-align: center;\">+</p>","response":null,"trial_type":"html-keyboard-response","trial_index":110,"plugin_version":"2.1.0","time_elapsed":222801,"subject_id":"89029","group":"Group1","date":"2025-09-30T18:37:06.868Z"},{"task":"memory_phase","broad_category":"I","image_png":"I_Gabbro_04.png","image_id":52,"category_name":"Gabbro","category":4,"distinct_rating":4.1,"rt":null,"stimulus":"Stimuli_Rocks480/I_Gabbro_04.png","response":null,"trial_type":"image-keyboard-response","trial_index":111,"plugin_version":"2.1.0","time_elapsed":225307,"subject_id":"89029","group":"Group1","date":"2025-09-30T18:37:06.868Z"},{"rt":null,"stimulus":"<p style=\"font-size: 50px; margin: 0; text-align: center;\">+</p>","response":null,"trial_type":"html-keyboard-response","trial_index":112,"plugin_version":"2.1.0","time_elapsed":226309,"subject_id":"89029","group":"Group1","date":"2025-09-30T18:37:06.868Z"},{"task":"memory_phase","broad_category":"S","image_png":"S_Chert_16.png","image_id":368,"category_name":"Chert","category":23,"distinct_rating":5.43,"rt":null,"stimulus":"Stimuli_Rocks480/S_Chert_16.png","response":null,"trial_type":"image-keyboard-response","trial_index":113,"plugin_version":"2.1.0","time_elapsed":228818,"subject_id":"89029","group":"Group1","date":"2025-09-30T18:37:06.868Z"},{"rt":null,"stimulus":"<p style=\"font-size: 50px; margin: 0; text-align: center;\">+</p>","response":null,"trial_type":"html-keyboard-response","trial_index":114,"plugin_version":"2.1.0","time_elapsed":229819,"subject_id":"89029","group":"Group1","date":"2025-09-30T18:37:06.868Z"},{"task":"memory_phase","broad_category":"S","image_png":"S_Rock Salt_09.png","image_id":441,"category_name":"Rock Salt","category":28,"distinct_rating":7.08,"rt":null,"stimulus":"Stimuli_Rocks480/S_Rock Salt_09.png","response":null,"trial_type":"image-keyboard-response","trial_index":115,"plugin_version":"2.1.0","time_elapsed":232327,"subject_id":"89029","group":"Group1","date":"2025-09-30T18:37:06.868Z"},{"rt":null,"stimulus":"<p style=\"font-size: 50px; margin: 0; text-align: center;\">+</p>","response":null,"trial_type":"html-keyboard-response","trial_index":116,"plugin_version":"2.1.0","time_elapsed":233329,"subject_id":"89029","group":"Group1","date":"2025-09-30T18:37:06.868Z"},{"task":"memory_phase","broad_category":"S","image_png":"S_Dolomite_11.png","image_id":395,"category_name":"Dolomite","category":25,"distinct_rating":5.56,"rt":null,"stimulus":"Stimuli_Rocks480/S_Dolomite_11.png","response":null,"trial_type":"image-keyboard-response","trial_index":117,"plugin_version":"2.1.0","time_elapsed":235834,"subject_id":"89029","group":"Group1","date":"2025-09-30T18:37:06.868Z"},{"rt":null,"stimulus":"<p style=\"font-size: 50px; margin: 0; text-align: center;\">+</p>","response":null,"trial_type":"html-keyboard-response","trial_index":118,"plugin_version":"2.1.0","time_elapsed":236836,"subject_id":"89029","group":"Group1","date":"2025-09-30T18:37:06.868Z"},{"task":"memory_phase","broad_category":"M","image_png":"M_Migmatite_12.png","image_id":252,"category_name":"Migmatite","category":16,"distinct_rating":4.03,"rt":null,"stimulus":"Stimuli_Rocks480/M_Migmatite_12.png","response":null,"trial_type":"image-keyboard-response","trial_index":119,"plugin_version":"2.1.0","time_elapsed":239343,"subject_id":"89029","group":"Group1","date":"2025-09-30T18:37:06.868Z"},{"rt":null,"stimulus":"<p style=\"font-size: 50px; margin: 0; text-align: center;\">+</p>","response":null,"trial_type":"html-keyboard-response","trial_index":120,"plugin_version":"2.1.0","time_elapsed":240344,"subject_id":"89029","group":"Group1","date":"2025-09-30T18:37:06.868Z"},{"task":"memory_phase","broad_category":"M","image_png":"M_Gneiss_02.png","image_id":194,"category_name":"Gneiss","category":13,"distinct_rating":3.75,"rt":null,"stimulus":"Stimuli_Rocks480/M_Gneiss_02.png","response":null,"trial_type":"image-keyboard-response","trial_index":121,"plugin_version":"2.1.0","time_elapsed":242851,"subject_id":"89029","group":"Group1","date":"2025-09-30T18:37:06.868Z"},{"rt":null,"stimulus":"<p style=\"font-size: 50px; margin: 0; text-align: center;\">+</p>","response":null,"trial_type":"html-keyboard-response","trial_index":122,"plugin_version":"2.1.0","time_elapsed":243852,"subject_id":"89029","group":"Group1","date":"2025-09-30T18:37:06.868Z"},{"task":"memory_phase","broad_category":"I","image_png":"I_Obsidian_05.png","image_id":85,"category_name":"Obsidian","category":6,"distinct_rating":7.32,"rt":null,"stimulus":"Stimuli_Rocks480/I_Obsidian_05.png","response":null,"trial_type":"image-keyboard-response","trial_index":123,"plugin_version":"2.1.0","time_elapsed":246359,"subject_id":"89029","group":"Group1","date":"2025-09-30T18:37:06.868Z"},{"rt":null,"stimulus":"<p style=\"font-size: 50px; margin: 0; text-align: center;\">+</p>","response":null,"trial_type":"html-keyboard-response","trial_index":124,"plugin_version":"2.1.0","time_elapsed":247359,"subject_id":"89029","group":"Group1","date":"2025-09-30T18:37:06.868Z"},{"task":"memory_phase","broad_category":"S","image_png":"S_Shale_11.png","image_id":475,"category_name":"Shale","category":30,"distinct_rating":4.05,"rt":null,"stimulus":"Stimuli_Rocks480/S_Shale_11.png","response":null,"trial_type":"image-keyboard-response","trial_index":125,"plugin_version":"2.1.0","time_elapsed":249866,"subject_id":"89029","group":"Group1","date":"2025-09-30T18:37:06.868Z"},{"rt":null,"stimulus":"<p style=\"font-size: 50px; margin: 0; text-align: center;\">+</p>","response":null,"trial_type":"html-keyboard-response","trial_index":126,"plugin_version":"2.1.0","time_elapsed":250868,"subject_id":"89029","group":"Group1","date":"2025-09-30T18:37:06.868Z"},{"task":"memory_phase","broad_category":"M","image_png":"M_Amphibolite_14.png","image_id":174,"category_name":"Amphibolite","category":11,"distinct_rating":3.65,"rt":null,"stimulus":"Stimuli_Rocks480/M_Amphibolite_14.png","response":null,"trial_type":"image-keyboard-response","trial_index":127,"plugin_version":"2.1.0","time_elapsed":253375,"subject_id":"89029","group":"Group1","date":"2025-09-30T18:37:06.868Z"},{"rt":null,"stimulus":"<p style=\"font-size: 50px; margin: 0; text-align: center;\">+</p>","response":null,"trial_type":"html-keyboard-response","trial_index":128,"plugin_version":"2.1.0","time_elapsed":254376,"subject_id":"89029","group":"Group1","date":"2025-09-30T18:37:06.868Z"},{"task":"memory_phase","broad_category":"M","image_png":"M_Gneiss_03.png","image_id":195,"category_name":"Gneiss","category":13,"distinct_rating":3.63,"rt":null,"stimulus":"Stimuli_Rocks480/M_Gneiss_03.png","response":null,"trial_type":"image-keyboard-response","trial_index":129,"plugin_version":"2.1.0","time_elapsed":256882,"subject_id":"89029","group":"Group1","date":"2025-09-30T18:37:06.868Z"},{"rt":null,"stimulus":"<p style=\"font-size: 50px; margin: 0; text-align: center;\">+</p>","response":null,"trial_type":"html-keyboard-response","trial_index":130,"plugin_version":"2.1.0","time_elapsed":257883,"subject_id":"89029","group":"Group1","date":"2025-09-30T18:37:06.868Z"},{"task":"memory_phase","broad_category":"I","image_png":"I_Diorite_13.png","image_id":45,"category_name":"Diorite","category":3,"distinct_rating":4.58,"rt":null,"stimulus":"Stimuli_Rocks480/I_Diorite_13.png","response":null,"trial_type":"image-keyboard-response","trial_index":131,"plugin_version":"2.1.0","time_elapsed":260389,"subject_id":"89029","group":"Group1","date":"2025-09-30T18:37:06.868Z"},{"rt":null,"stimulus":"<p style=\"font-size: 50px; margin: 0; text-align: center;\">+</p>","response":null,"trial_type":"html-keyboard-response","trial_index":132,"plugin_version":"2.1.0","time_elapsed":261390,"subject_id":"89029","group":"Group1","date":"2025-09-30T18:37:06.868Z"},{"task":"memory_phase","broad_category":"I","image_png":"I_Andesite_06.png","image_id":6,"category_name":"Andesite","category":1,"distinct_rating":3.17,"rt":null,"stimulus":"Stimuli_Rocks480/I_Andesite_06.png","response":null,"trial_type":"image-keyboard-response","trial_index":133,"plugin_version":"2.1.0","time_elapsed":263897,"subject_id":"89029","group":"Group1","date":"2025-09-30T18:37:06.868Z"},{"rt":null,"stimulus":"<p style=\"font-size: 50px; margin: 0; text-align: center;\">+</p>","response":null,"trial_type":"html-keyboard-response","trial_index":134,"plugin_version":"2.1.0","time_elapsed":264898,"subject_id":"89029","group":"Group1","date":"2025-09-30T18:37:06.868Z"},{"task":"memory_phase","broad_category":"S","image_png":"S_Sandstone_02.png","image_id":450,"category_name":"Sandstone","category":29,"distinct_rating":2.09,"rt":null,"stimulus":"Stimuli_Rocks480/S_Sandstone_02.png","response":null,"trial_type":"image-keyboard-response","trial_index":135,"plugin_version":"2.1.0","time_elapsed":267403,"subject_id":"89029","group":"Group1","date":"2025-09-30T18:37:06.868Z"},{"rt":null,"stimulus":"<p style=\"font-size: 50px; margin: 0; text-align: center;\">+</p>","response":null,"trial_type":"html-keyboard-response","trial_index":136,"plugin_version":"2.1.0","time_elapsed":268404,"subject_id":"89029","group":"Group1","date":"2025-09-30T18:37:06.868Z"},{"task":"memory_phase","broad_category":"S","image_png":"S_Shale_01.png","image_id":465,"category_name":"Shale","category":30,"distinct_rating":2.7,"rt":null,"stimulus":"Stimuli_Rocks480/S_Shale_01.png","response":null,"trial_type":"image-keyboard-response","trial_index":137,"plugin_version":"2.1.0","time_elapsed":270910,"subject_id":"89029","group":"Group1","date":"2025-09-30T18:37:06.868Z"},{"rt":null,"stimulus":"<p style=\"font-size: 50px; margin: 0; text-align: center;\">+</p>","response":null,"trial_type":"html-keyboard-response","trial_index":138,"plugin_version":"2.1.0","time_elapsed":271912,"subject_id":"89029","group":"Group1","date":"2025-09-30T18:37:06.868Z"},{"task":"memory_phase","broad_category":"M","image_png":"M_Anthracite_07.png","image_id":183,"category_name":"Anthracite","category":12,"distinct_rating":4.27,"rt":null,"stimulus":"Stimuli_Rocks480/M_Anthracite_07.png","response":null,"trial_type":"image-keyboard-response","trial_index":139,"plugin_version":"2.1.0","time_elapsed":274417,"subject_id":"89029","group":"Group1","date":"2025-09-30T18:37:06.868Z"},{"rt":null,"stimulus":"<p style=\"font-size: 50px; margin: 0; text-align: center;\">+</p>","response":null,"trial_type":"html-keyboard-response","trial_index":140,"plugin_version":"2.1.0","time_elapsed":275418,"subject_id":"89029","group":"Group1","date":"2025-09-30T18:37:06.868Z"},{"task":"memory_phase","broad_category":"I","image_png":"I_Pegmatite_16.png","image_id":112,"category_name":"Pegmatite","category":7,"distinct_rating":7.03,"rt":null,"stimulus":"Stimuli_Rocks480/I_Pegmatite_16.png","response":null,"trial_type":"image-keyboard-response","trial_index":141,"plugin_version":"2.1.0","time_elapsed":277924,"subject_id":"89029","group":"Group1","date":"2025-09-30T18:37:06.868Z"},{"rt":null,"stimulus":"<p style=\"font-size: 50px; margin: 0; text-align: center;\">+</p>","response":null,"trial_type":"html-keyboard-response","trial_index":142,"plugin_version":"2.1.0","time_elapsed":278925,"subject_id":"89029","group":"Group1","date":"2025-09-30T18:37:06.868Z"},{"task":"memory_phase","broad_category":"S","image_png":"S_Chert_10.png","image_id":362,"category_name":"Chert","category":23,"distinct_rating":7.17,"rt":null,"stimulus":"Stimuli_Rocks480/S_Chert_10.png","response":null,"trial_type":"image-keyboard-response","trial_index":143,"plugin_version":"2.1.0","time_elapsed":281432,"subject_id":"89029","group":"Group1","date":"2025-09-30T18:37:06.868Z"},{"rt":null,"stimulus":"<p style=\"font-size: 50px; margin: 0; text-align: center;\">+</p>","response":null,"trial_type":"html-keyboard-response","trial_index":144,"plugin_version":"2.1.0","time_elapsed":282434,"subject_id":"89029","group":"Group1","date":"2025-09-30T18:37:06.868Z"},{"task":"memory_phase","broad_category":"S","image_png":"S_Bituminous Coal_13.png","image_id":333,"category_name":"Bituminous Coal","category":21,"distinct_rating":5.06,"rt":null,"stimulus":"Stimuli_Rocks480/S_Bituminous Coal_13.png","response":null,"trial_type":"image-keyboard-response","trial_index":145,"plugin_version":"2.1.0","time_elapsed":284941,"subject_id":"89029","group":"Group1","date":"2025-09-30T18:37:06.868Z"},{"rt":null,"stimulus":"<p style=\"font-size: 50px; margin: 0; text-align: center;\">+</p>","response":null,"trial_type":"html-keyboard-response","trial_index":146,"plugin_version":"2.1.0","time_elapsed":285942,"subject_id":"89029","group":"Group1","date":"2025-09-30T18:37:06.868Z"},{"task":"memory_phase","broad_category":"M","image_png":"M_Migmatite_14.png","image_id":254,"category_name":"Migmatite","category":16,"distinct_rating":4.62,"rt":null,"stimulus":"Stimuli_Rocks480/M_Migmatite_14.png","response":null,"trial_type":"image-keyboard-response","trial_index":147,"plugin_version":"2.1.0","time_elapsed":288448,"subject_id":"89029","group":"Group1","date":"2025-09-30T18:37:06.868Z"},{"rt":null,"stimulus":"<p style=\"font-size: 50px; margin: 0; text-align: center;\">+</p>","response":null,"trial_type":"html-keyboard-response","trial_index":148,"plugin_version":"2.1.0","time_elapsed":289449,"subject_id":"89029","group":"Group1","date":"2025-09-30T18:37:06.868Z"},{"task":"memory_phase","broad_category":"S","image_png":"S_Micrite_03.png","image_id":403,"category_name":"Micrite","category":26,"distinct_rating":4,"rt":null,"stimulus":"Stimuli_Rocks480/S_Micrite_03.png","response":null,"trial_type":"image-keyboard-response","trial_index":149,"plugin_version":"2.1.0","time_elapsed":291957,"subject_id":"89029","group":"Group1","date":"2025-09-30T18:37:06.868Z"},{"rt":null,"stimulus":"<p style=\"font-size: 50px; margin: 0; text-align: center;\">+</p>","response":null,"trial_type":"html-keyboard-response","trial_index":150,"plugin_version":"2.1.0","time_elapsed":292958,"subject_id":"89029","group":"Group1","date":"2025-09-30T18:37:06.868Z"},{"task":"memory_phase","broad_category":"M","image_png":"M_Slate_10.png","image_id":314,"category_name":"Slate","category":20,"distinct_rating":1.94,"rt":null,"stimulus":"Stimuli_Rocks480/M_Slate_10.png","response":null,"trial_type":"image-keyboard-response","trial_index":151,"plugin_version":"2.1.0","time_elapsed":295463,"subject_id":"89029","group":"Group1","date":"2025-09-30T18:37:06.868Z"},{"rt":null,"stimulus":"<p style=\"font-size: 50px; margin: 0; text-align: center;\">+</p>","response":null,"trial_type":"html-keyboard-response","trial_index":152,"plugin_version":"2.1.0","time_elapsed":296464,"subject_id":"89029","group":"Group1","date":"2025-09-30T18:37:06.868Z"},{"task":"memory_phase","broad_category":"M","image_png":"M_Migmatite_04.png","image_id":244,"category_name":"Migmatite","category":16,"distinct_rating":5.07,"rt":null,"stimulus":"Stimuli_Rocks480/M_Migmatite_04.png","response":null,"trial_type":"image-keyboard-response","trial_index":153,"plugin_version":"2.1.0","time_elapsed":298971,"subject_id":"89029","group":"Group1","date":"2025-09-30T18:37:06.868Z"},{"rt":null,"stimulus":"<p style=\"font-size: 50px; margin: 0; text-align: center;\">+</p>","response":null,"trial_type":"html-keyboard-response","trial_index":154,"plugin_version":"2.1.0","time_elapsed":299972,"subject_id":"89029","group":"Group1","date":"2025-09-30T18:37:06.868Z"},{"task":"memory_phase","broad_category":"I","image_png":"I_Peridotite_04.png","image_id":116,"category_name":"Peridotite","category":8,"distinct_rating":6.39,"rt":null,"stimulus":"Stimuli_Rocks480/I_Peridotite_04.png","response":null,"trial_type":"image-keyboard-response","trial_index":155,"plugin_version":"2.1.0","time_elapsed":302479,"subject_id":"89029","group":"Group1","date":"2025-09-30T18:37:06.868Z"},{"rt":null,"stimulus":"<p style=\"font-size: 50px; margin: 0; text-align: center;\">+</p>","response":null,"trial_type":"html-keyboard-response","trial_index":156,"plugin_version":"2.1.0","time_elapsed":303480,"subject_id":"89029","group":"Group1","date":"2025-09-30T18:37:06.868Z"},{"task":"memory_phase","broad_category":"I","image_png":"I_Pumice_15.png","image_id":143,"category_name":"Pumice","category":9,"distinct_rating":4.18,"rt":null,"stimulus":"Stimuli_Rocks480/I_Pumice_15.png","response":null,"trial_type":"image-keyboard-response","trial_index":157,"plugin_version":"2.1.0","time_elapsed":305987,"subject_id":"89029","group":"Group1","date":"2025-09-30T18:37:06.868Z"},{"rt":null,"stimulus":"<p style=\"font-size: 50px; margin: 0; text-align: center;\">+</p>","response":null,"trial_type":"html-keyboard-response","trial_index":158,"plugin_version":"2.1.0","time_elapsed":306988,"subject_id":"89029","group":"Group1","date":"2025-09-30T18:37:06.868Z"},{"task":"memory_phase","broad_category":"M","image_png":"M_Amphibolite_08.png","image_id":168,"category_name":"Amphibolite","category":11,"distinct_rating":4.89,"rt":null,"stimulus":"Stimuli_Rocks480/M_Amphibolite_08.png","response":null,"trial_type":"image-keyboard-response","trial_index":159,"plugin_version":"2.1.0","time_elapsed":309493,"subject_id":"89029","group":"Group1","date":"2025-09-30T18:37:06.868Z"},{"rt":null,"stimulus":"<p style=\"font-size: 50px; margin: 0; text-align: center;\">+</p>","response":null,"trial_type":"html-keyboard-response","trial_index":160,"plugin_version":"2.1.0","time_elapsed":310495,"subject_id":"89029","group":"Group1","date":"2025-09-30T18:37:06.868Z"},{"task":"memory_phase","broad_category":"M","image_png":"M_Quartzite_04.png","image_id":276,"category_name":"Quartzite","category":18,"distinct_rating":3.06,"rt":null,"stimulus":"Stimuli_Rocks480/M_Quartzite_04.png","response":null,"trial_type":"image-keyboard-response","trial_index":161,"plugin_version":"2.1.0","time_elapsed":313002,"subject_id":"89029","group":"Group1","date":"2025-09-30T18:37:06.868Z"},{"rt":null,"stimulus":"<p style=\"font-size: 50px; margin: 0; text-align: center;\">+</p>","response":null,"trial_type":"html-keyboard-response","trial_index":162,"plugin_version":"2.1.0","time_elapsed":314003,"subject_id":"89029","group":"Group1","date":"2025-09-30T18:37:06.868Z"},{"task":"memory_phase","broad_category":"M","image_png":"M_Quartzite_08.png","image_id":280,"category_name":"Quartzite","category":18,"distinct_rating":2.15,"rt":null,"stimulus":"Stimuli_Rocks480/M_Quartzite_08.png","response":null,"trial_type":"image-keyboard-response","trial_index":163,"plugin_version":"2.1.0","time_elapsed":316509,"subject_id":"89029","group":"Group1","date":"2025-09-30T18:37:06.868Z"},{"rt":null,"stimulus":"<p style=\"font-size: 50px; margin: 0; text-align: center;\">+</p>","response":null,"trial_type":"html-keyboard-response","trial_index":164,"plugin_version":"2.1.0","time_elapsed":317511,"subject_id":"89029","group":"Group1","date":"2025-09-30T18:37:06.868Z"},{"task":"memory_phase","broad_category":"M","image_png":"M_Phyllite_10.png","image_id":266,"category_name":"Phyllite","category":17,"distinct_rating":2.6,"rt":null,"stimulus":"Stimuli_Rocks480/M_Phyllite_10.png","response":null,"trial_type":"image-keyboard-response","trial_index":165,"plugin_version":"2.1.0","time_elapsed":320016,"subject_id":"89029","group":"Group1","date":"2025-09-30T18:37:06.868Z"},{"rt":null,"stimulus":"<p style=\"font-size: 50px; margin: 0; text-align: center;\">+</p>","response":null,"trial_type":"html-keyboard-response","trial_index":166,"plugin_version":"2.1.0","time_elapsed":321017,"subject_id":"89029","group":"Group1","date":"2025-09-30T18:37:06.868Z"},{"task":"memory_phase","broad_category":"I","image_png":"I_Gabbro_10.png","image_id":58,"category_name":"Gabbro","category":4,"distinct_rating":3.11,"rt":null,"stimulus":"Stimuli_Rocks480/I_Gabbro_10.png","response":null,"trial_type":"image-keyboard-response","trial_index":167,"plugin_version":"2.1.0","time_elapsed":323523,"subject_id":"89029","group":"Group1","date":"2025-09-30T18:37:06.868Z"},{"rt":null,"stimulus":"<p style=\"font-size: 50px; margin: 0; text-align: center;\">+</p>","response":null,"trial_type":"html-keyboard-response","trial_index":168,"plugin_version":"2.1.0","time_elapsed":324525,"subject_id":"89029","group":"Group1","date":"2025-09-30T18:37:06.868Z"},{"task":"memory_phase","broad_category":"I","image_png":"I_Andesite_11.png","image_id":11,"category_name":"Andesite","category":1,"distinct_rating":3.35,"rt":null,"stimulus":"Stimuli_Rocks480/I_Andesite_11.png","response":null,"trial_type":"image-keyboard-response","trial_index":169,"plugin_version":"2.1.0","time_elapsed":327030,"subject_id":"89029","group":"Group1","date":"2025-09-30T18:37:06.868Z"},{"rt":null,"stimulus":"<p style=\"font-size: 50px; margin: 0; text-align: center;\">+</p>","response":null,"trial_type":"html-keyboard-response","trial_index":170,"plugin_version":"2.1.0","time_elapsed":328031,"subject_id":"89029","group":"Group1","date":"2025-09-30T18:37:06.868Z"},{"task":"memory_phase","broad_category":"I","image_png":"I_Gabbro_09.png","image_id":57,"category_name":"Gabbro","category":4,"distinct_rating":3.48,"rt":null,"stimulus":"Stimuli_Rocks480/I_Gabbro_09.png","response":null,"trial_type":"image-keyboard-response","trial_index":171,"plugin_version":"2.1.0","time_elapsed":330538,"subject_id":"89029","group":"Group1","date":"2025-09-30T18:37:06.868Z"},{"rt":null,"stimulus":"<p style=\"font-size: 50px; margin: 0; text-align: center;\">+</p>","response":null,"trial_type":"html-keyboard-response","trial_index":172,"plugin_version":"2.1.0","time_elapsed":331540,"subject_id":"89029","group":"Group1","date":"2025-09-30T18:37:06.868Z"},{"task":"memory_phase","broad_category":"S","image_png":"S_Conglomerate_07.png","image_id":375,"category_name":"Conglomerate","category":24,"distinct_rating":6.97,"rt":null,"stimulus":"Stimuli_Rocks480/S_Conglomerate_07.png","response":null,"trial_type":"image-keyboard-response","trial_index":173,"plugin_version":"2.1.0","time_elapsed":334047,"subject_id":"89029","group":"Group1","date":"2025-09-30T18:37:06.868Z"},{"rt":null,"stimulus":"<p style=\"font-size: 50px; margin: 0; text-align: center;\">+</p>","response":null,"trial_type":"html-keyboard-response","trial_index":174,"plugin_version":"2.1.0","time_elapsed":335048,"subject_id":"89029","group":"Group1","date":"2025-09-30T18:37:06.868Z"},{"task":"memory_phase","broad_category":"M","image_png":"M_Quartzite_01.png","image_id":273,"category_name":"Quartzite","category":18,"distinct_rating":2.3,"rt":null,"stimulus":"Stimuli_Rocks480/M_Quartzite_01.png","response":null,"trial_type":"image-keyboard-response","trial_index":175,"plugin_version":"2.1.0","time_elapsed":337554,"subject_id":"89029","group":"Group1","date":"2025-09-30T18:37:06.868Z"},{"rt":null,"stimulus":"<p style=\"font-size: 50px; margin: 0; text-align: center;\">+</p>","response":null,"trial_type":"html-keyboard-response","trial_index":176,"plugin_version":"2.1.0","time_elapsed":338555,"subject_id":"89029","group":"Group1","date":"2025-09-30T18:37:06.868Z"},{"task":"memory_phase","broad_category":"S","image_png":"S_Rock Salt_12.png","image_id":444,"category_name":"Rock Salt","category":28,"distinct_rating":5.86,"rt":null,"stimulus":"Stimuli_Rocks480/S_Rock Salt_12.png","response":null,"trial_type":"image-keyboard-response","trial_index":177,"plugin_version":"2.1.0","time_elapsed":341063,"subject_id":"89029","group":"Group1","date":"2025-09-30T18:37:06.868Z"},{"rt":null,"stimulus":"<p style=\"font-size: 50px; margin: 0; text-align: center;\">+</p>","response":null,"trial_type":"html-keyboard-response","trial_index":178,"plugin_version":"2.1.0","time_elapsed":342064,"subject_id":"89029","group":"Group1","date":"2025-09-30T18:37:06.868Z"},{"task":"memory_phase","broad_category":"I","image_png":"I_Diorite_15.png","image_id":47,"category_name":"Diorite","category":3,"distinct_rating":3.05,"rt":null,"stimulus":"Stimuli_Rocks480/I_Diorite_15.png","response":null,"trial_type":"image-keyboard-response","trial_index":179,"plugin_version":"2.1.0","time_elapsed":344571,"subject_id":"89029","group":"Group1","date":"2025-09-30T18:37:06.868Z"},{"rt":null,"stimulus":"<p style=\"font-size: 50px; margin: 0; text-align: center;\">+</p>","response":null,"trial_type":"html-keyboard-response","trial_index":180,"plugin_version":"2.1.0","time_elapsed":345908,"subject_id":"89029","group":"Group1","date":"2025-09-30T18:37:06.868Z"},{"task":"memory_phase","broad_category":"I","image_png":"I_Diorite_08.png","image_id":40,"category_name":"Diorite","category":3,"distinct_rating":4.94,"rt":null,"stimulus":"Stimuli_Rocks480/I_Diorite_08.png","response":null,"trial_type":"image-keyboard-response","trial_index":181,"plugin_version":"2.1.0","time_elapsed":348420,"subject_id":"89029","group":"Group1","date":"2025-09-30T18:37:06.868Z"},{"rt":null,"stimulus":"<p style=\"font-size: 50px; margin: 0; text-align: center;\">+</p>","response":null,"trial_type":"html-keyboard-response","trial_index":182,"plugin_version":"2.1.0","time_elapsed":349422,"subject_id":"89029","group":"Group1","date":"2025-09-30T18:37:06.868Z"},{"task":"memory_phase","broad_category":"I","image_png":"I_Rhyolite_05.png","image_id":149,"category_name":"Rhyolite","category":10,"distinct_rating":3.02,"rt":null,"stimulus":"Stimuli_Rocks480/I_Rhyolite_05.png","response":null,"trial_type":"image-keyboard-response","trial_index":183,"plugin_version":"2.1.0","time_elapsed":351930,"subject_id":"89029","group":"Group1","date":"2025-09-30T18:37:06.868Z"},{"rt":null,"stimulus":"<p style=\"font-size: 50px; margin: 0; text-align: center;\">+</p>","response":null,"trial_type":"html-keyboard-response","trial_index":184,"plugin_version":"2.1.0","time_elapsed":352931,"subject_id":"89029","group":"Group1","date":"2025-09-30T18:37:06.868Z"},{"task":"memory_phase","broad_category":"I","image_png":"I_Pumice_09.png","image_id":137,"category_name":"Pumice","category":9,"distinct_rating":5.5,"rt":null,"stimulus":"Stimuli_Rocks480/I_Pumice_09.png","response":null,"trial_type":"image-keyboard-response","trial_index":185,"plugin_version":"2.1.0","time_elapsed":355435,"subject_id":"89029","group":"Group1","date":"2025-09-30T18:37:06.868Z"},{"rt":null,"stimulus":"<p style=\"font-size: 50px; margin: 0; text-align: center;\">+</p>","response":null,"trial_type":"html-keyboard-response","trial_index":186,"plugin_version":"2.1.0","time_elapsed":356437,"subject_id":"89029","group":"Group1","date":"2025-09-30T18:37:06.868Z"},{"task":"memory_phase","broad_category":"I","image_png":"I_Obsidian_13.png","image_id":93,"category_name":"Obsidian","category":6,"distinct_rating":4.85,"rt":null,"stimulus":"Stimuli_Rocks480/I_Obsidian_13.png","response":null,"trial_type":"image-keyboard-response","trial_index":187,"plugin_version":"2.1.0","time_elapsed":358942,"subject_id":"89029","group":"Group1","date":"2025-09-30T18:37:06.868Z"},{"rt":null,"stimulus":"<p style=\"font-size: 50px; margin: 0; text-align: center;\">+</p>","response":null,"trial_type":"html-keyboard-response","trial_index":188,"plugin_version":"2.1.0","time_elapsed":359943,"subject_id":"89029","group":"Group1","date":"2025-09-30T18:37:06.868Z"},{"task":"memory_phase","broad_category":"S","image_png":"S_Bituminous Coal_10.png","image_id":330,"category_name":"Bituminous Coal","category":21,"distinct_rating":3.47,"rt":null,"stimulus":"Stimuli_Rocks480/S_Bituminous Coal_10.png","response":null,"trial_type":"image-keyboard-response","trial_index":189,"plugin_version":"2.1.0","time_elapsed":362449,"subject_id":"89029","group":"Group1","date":"2025-09-30T18:37:06.868Z"},{"rt":null,"stimulus":"<p style=\"font-size: 50px; margin: 0; text-align: center;\">+</p>","response":null,"trial_type":"html-keyboard-response","trial_index":190,"plugin_version":"2.1.0","time_elapsed":363450,"subject_id":"89029","group":"Group1","date":"2025-09-30T18:37:06.868Z"},{"task":"memory_phase","broad_category":"I","image_png":"I_Granite_06.png","image_id":70,"category_name":"Granite","category":5,"distinct_rating":3.73,"rt":null,"stimulus":"Stimuli_Rocks480/I_Granite_06.png","response":null,"trial_type":"image-keyboard-response","trial_index":191,"plugin_version":"2.1.0","time_elapsed":365957,"subject_id":"89029","group":"Group1","date":"2025-09-30T18:37:06.868Z"},{"rt":null,"stimulus":"<p style=\"font-size: 50px; margin: 0; text-align: center;\">+</p>","response":null,"trial_type":"html-keyboard-response","trial_index":192,"plugin_version":"2.1.0","time_elapsed":366958,"subject_id":"89029","group":"Group1","date":"2025-09-30T18:37:06.868Z"},{"task":"memory_phase","broad_category":"S","image_png":"S_Rock Salt_11.png","image_id":443,"category_name":"Rock Salt","category":28,"distinct_rating":4.9,"rt":null,"stimulus":"Stimuli_Rocks480/S_Rock Salt_11.png","response":null,"trial_type":"image-keyboard-response","trial_index":193,"plugin_version":"2.1.0","time_elapsed":369464,"subject_id":"89029","group":"Group1","date":"2025-09-30T18:37:06.868Z"},{"rt":null,"stimulus":"<p style=\"font-size: 50px; margin: 0; text-align: center;\">+</p>","response":null,"trial_type":"html-keyboard-response","trial_index":194,"plugin_version":"2.1.0","time_elapsed":370465,"subject_id":"89029","group":"Group1","date":"2025-09-30T18:37:06.868Z"},{"task":"memory_phase","broad_category":"I","image_png":"I_Pumice_13.png","image_id":141,"category_name":"Pumice","category":9,"distinct_rating":3.12,"rt":null,"stimulus":"Stimuli_Rocks480/I_Pumice_13.png","response":null,"trial_type":"image-keyboard-response","trial_index":195,"plugin_version":"2.1.0","time_elapsed":372972,"subject_id":"89029","group":"Group1","date":"2025-09-30T18:37:06.868Z"},{"rt":null,"stimulus":"<p style=\"font-size: 50px; margin: 0; text-align: center;\">+</p>","response":null,"trial_type":"html-keyboard-response","trial_index":196,"plugin_version":"2.1.0","time_elapsed":373973,"subject_id":"89029","group":"Group1","date":"2025-09-30T18:37:06.868Z"},{"task":"memory_phase","broad_category":"S","image_png":"S_Rock Gypsum_09.png","image_id":425,"category_name":"Rock Gypsum","category":27,"distinct_rating":6.03,"rt":null,"stimulus":"Stimuli_Rocks480/S_Rock Gypsum_09.png","response":null,"trial_type":"image-keyboard-response","trial_index":197,"plugin_version":"2.1.0","time_elapsed":376479,"subject_id":"89029","group":"Group1","date":"2025-09-30T18:37:06.868Z"},{"rt":8120,"stimulus":"<p style=\"font-size: 35px;\">Press SPACE to continue study phase</p>","response":" ","trial_type":"html-keyboard-response","trial_index":198,"plugin_version":"2.1.0","time_elapsed":384600,"subject_id":"89029","group":"Group1","date":"2025-09-30T18:37:06.868Z"},{"rt":null,"stimulus":"<p style=\"font-size: 50px; margin: 0; text-align: center;\">+</p>","response":null,"trial_type":"html-keyboard-response","trial_index":199,"plugin_version":"2.1.0","time_elapsed":385601,"subject_id":"89029","group":"Group1","date":"2025-09-30T18:37:06.868Z"},{"task":"memory_phase","broad_category":"M","image_png":"M_Phyllite_01.png","image_id":257,"category_name":"Phyllite","category":17,"distinct_rating":5.54,"rt":null,"stimulus":"Stimuli_Rocks480/M_Phyllite_01.png","response":null,"trial_type":"image-keyboard-response","trial_index":200,"plugin_version":"2.1.0","time_elapsed":388108,"subject_id":"89029","group":"Group1","date":"2025-09-30T18:37:06.868Z"},{"rt":null,"stimulus":"<p style=\"font-size: 50px; margin: 0; text-align: center;\">+</p>","response":null,"trial_type":"html-keyboard-response","trial_index":201,"plugin_version":"2.1.0","time_elapsed":389109,"subject_id":"89029","group":"Group1","date":"2025-09-30T18:37:06.868Z"},{"task":"memory_phase","broad_category":"S","image_png":"S_Shale_10.png","image_id":474,"category_name":"Shale","category":30,"distinct_rating":1.91,"rt":null,"stimulus":"Stimuli_Rocks480/S_Shale_10.png","response":null,"trial_type":"image-keyboard-response","trial_index":202,"plugin_version":"2.1.0","time_elapsed":391615,"subject_id":"89029","group":"Group1","date":"2025-09-30T18:37:06.868Z"},{"rt":null,"stimulus":"<p style=\"font-size: 50px; margin: 0; text-align: center;\">+</p>","response":null,"trial_type":"html-keyboard-response","trial_index":203,"plugin_version":"2.1.0","time_elapsed":392616,"subject_id":"89029","group":"Group1","date":"2025-09-30T18:37:06.868Z"},{"task":"memory_phase","broad_category":"S","image_png":"S_Breccia_12.png","image_id":348,"category_name":"Breccia","category":22,"distinct_rating":5.03,"rt":null,"stimulus":"Stimuli_Rocks480/S_Breccia_12.png","response":null,"trial_type":"image-keyboard-response","trial_index":204,"plugin_version":"2.1.0","time_elapsed":395124,"subject_id":"89029","group":"Group1","date":"2025-09-30T18:37:06.868Z"},{"rt":null,"stimulus":"<p style=\"font-size: 50px; margin: 0; text-align: center;\">+</p>","response":null,"trial_type":"html-keyboard-response","trial_index":205,"plugin_version":"2.1.0","time_elapsed":396125,"subject_id":"89029","group":"Group1","date":"2025-09-30T18:37:06.868Z"},{"task":"memory_phase","broad_category":"I","image_png":"I_Granite_10.png","image_id":74,"category_name":"Granite","category":5,"distinct_rating":4.34,"rt":null,"stimulus":"Stimuli_Rocks480/I_Granite_10.png","response":null,"trial_type":"image-keyboard-response","trial_index":206,"plugin_version":"2.1.0","time_elapsed":398633,"subject_id":"89029","group":"Group1","date":"2025-09-30T18:37:06.868Z"},{"rt":null,"stimulus":"<p style=\"font-size: 50px; margin: 0; text-align: center;\">+</p>","response":null,"trial_type":"html-keyboard-response","trial_index":207,"plugin_version":"2.1.0","time_elapsed":399634,"subject_id":"89029","group":"Group1","date":"2025-09-30T18:37:06.868Z"},{"task":"memory_phase","broad_category":"I","image_png":"I_Pegmatite_12.png","image_id":108,"category_name":"Pegmatite","category":7,"distinct_rating":5.15,"rt":null,"stimulus":"Stimuli_Rocks480/I_Pegmatite_12.png","response":null,"trial_type":"image-keyboard-response","trial_index":208,"plugin_version":"2.1.0","time_elapsed":402140,"subject_id":"89029","group":"Group1","date":"2025-09-30T18:37:06.868Z"},{"rt":null,"stimulus":"<p style=\"font-size: 50px; margin: 0; text-align: center;\">+</p>","response":null,"trial_type":"html-keyboard-response","trial_index":209,"plugin_version":"2.1.0","time_elapsed":403141,"subject_id":"89029","group":"Group1","date":"2025-09-30T18:37:06.868Z"},{"task":"memory_phase","broad_category":"S","image_png":"S_Sandstone_03.png","image_id":451,"category_name":"Sandstone","category":29,"distinct_rating":1.86,"rt":null,"stimulus":"Stimuli_Rocks480/S_Sandstone_03.png","response":null,"trial_type":"image-keyboard-response","trial_index":210,"plugin_version":"2.1.0","time_elapsed":405648,"subject_id":"89029","group":"Group1","date":"2025-09-30T18:37:06.868Z"},{"rt":null,"stimulus":"<p style=\"font-size: 50px; margin: 0; text-align: center;\">+</p>","response":null,"trial_type":"html-keyboard-response","trial_index":211,"plugin_version":"2.1.0","time_elapsed":406649,"subject_id":"89029","group":"Group1","date":"2025-09-30T18:37:06.868Z"},{"task":"memory_phase","broad_category":"M","image_png":"M_Migmatite_03.png","image_id":243,"category_name":"Migmatite","category":16,"distinct_rating":3.7,"rt":null,"stimulus":"Stimuli_Rocks480/M_Migmatite_03.png","response":null,"trial_type":"image-keyboard-response","trial_index":212,"plugin_version":"2.1.0","time_elapsed":409156,"subject_id":"89029","group":"Group1","date":"2025-09-30T18:37:06.868Z"},{"rt":null,"stimulus":"<p style=\"font-size: 50px; margin: 0; text-align: center;\">+</p>","response":null,"trial_type":"html-keyboard-response","trial_index":213,"plugin_version":"2.1.0","time_elapsed":410157,"subject_id":"89029","group":"Group1","date":"2025-09-30T18:37:06.868Z"},{"task":"memory_phase","broad_category":"M","image_png":"M_Amphibolite_04.png","image_id":164,"category_name":"Amphibolite","category":11,"distinct_rating":2.89,"rt":null,"stimulus":"Stimuli_Rocks480/M_Amphibolite_04.png","response":null,"trial_type":"image-keyboard-response","trial_index":214,"plugin_version":"2.1.0","time_elapsed":412664,"subject_id":"89029","group":"Group1","date":"2025-09-30T18:37:06.868Z"},{"rt":null,"stimulus":"<p style=\"font-size: 50px; margin: 0; text-align: center;\">+</p>","response":null,"trial_type":"html-keyboard-response","trial_index":215,"plugin_version":"2.1.0","time_elapsed":413665,"subject_id":"89029","group":"Group1","date":"2025-09-30T18:37:06.868Z"},{"task":"memory_phase","broad_category":"S","image_png":"S_Shale_12.png","image_id":476,"category_name":"Shale","category":30,"distinct_rating":2.48,"rt":null,"stimulus":"Stimuli_Rocks480/S_Shale_12.png","response":null,"trial_type":"image-keyboard-response","trial_index":216,"plugin_version":"2.1.0","time_elapsed":416172,"subject_id":"89029","group":"Group1","date":"2025-09-30T18:37:06.868Z"},{"rt":null,"stimulus":"<p style=\"font-size: 50px; margin: 0; text-align: center;\">+</p>","response":null,"trial_type":"html-keyboard-response","trial_index":217,"plugin_version":"2.1.0","time_elapsed":417173,"subject_id":"89029","group":"Group1","date":"2025-09-30T18:37:06.868Z"},{"task":"memory_phase","broad_category":"I","image_png":"I_Andesite_07.png","image_id":7,"category_name":"Andesite","category":1,"distinct_rating":4.81,"rt":null,"stimulus":"Stimuli_Rocks480/I_Andesite_07.png","response":null,"trial_type":"image-keyboard-response","trial_index":218,"plugin_version":"2.1.0","time_elapsed":419680,"subject_id":"89029","group":"Group1","date":"2025-09-30T18:37:06.868Z"},{"rt":null,"stimulus":"<p style=\"font-size: 50px; margin: 0; text-align: center;\">+</p>","response":null,"trial_type":"html-keyboard-response","trial_index":219,"plugin_version":"2.1.0","time_elapsed":420682,"subject_id":"89029","group":"Group1","date":"2025-09-30T18:37:06.868Z"},{"task":"memory_phase","broad_category":"M","image_png":"M_Hornfels_05.png","image_id":213,"category_name":"Hornfels","category":14,"distinct_rating":3.12,"rt":null,"stimulus":"Stimuli_Rocks480/M_Hornfels_05.png","response":null,"trial_type":"image-keyboard-response","trial_index":220,"plugin_version":"2.1.0","time_elapsed":423187,"subject_id":"89029","group":"Group1","date":"2025-09-30T18:37:06.868Z"},{"rt":null,"stimulus":"<p style=\"font-size: 50px; margin: 0; text-align: center;\">+</p>","response":null,"trial_type":"html-keyboard-response","trial_index":221,"plugin_version":"2.1.0","time_elapsed":424188,"subject_id":"89029","group":"Group1","date":"2025-09-30T18:37:06.868Z"},{"task":"memory_phase","broad_category":"M","image_png":"M_Quartzite_06.png","image_id":278,"category_name":"Quartzite","category":18,"distinct_rating":3.63,"rt":null,"stimulus":"Stimuli_Rocks480/M_Quartzite_06.png","response":null,"trial_type":"image-keyboard-response","trial_index":222,"plugin_version":"2.1.0","time_elapsed":426695,"subject_id":"89029","group":"Group1","date":"2025-09-30T18:37:06.868Z"},{"rt":null,"stimulus":"<p style=\"font-size: 50px; margin: 0; text-align: center;\">+</p>","response":null,"trial_type":"html-keyboard-response","trial_index":223,"plugin_version":"2.1.0","time_elapsed":427695,"subject_id":"89029","group":"Group1","date":"2025-09-30T18:37:06.868Z"},{"task":"memory_phase","broad_category":"I","image_png":"I_Granite_11.png","image_id":75,"category_name":"Granite","category":5,"distinct_rating":4.03,"rt":null,"stimulus":"Stimuli_Rocks480/I_Granite_11.png","response":null,"trial_type":"image-keyboard-response","trial_index":224,"plugin_version":"2.1.0","time_elapsed":430202,"subject_id":"89029","group":"Group1","date":"2025-09-30T18:37:06.868Z"},{"rt":null,"stimulus":"<p style=\"font-size: 50px; margin: 0; text-align: center;\">+</p>","response":null,"trial_type":"html-keyboard-response","trial_index":225,"plugin_version":"2.1.0","time_elapsed":431203,"subject_id":"89029","group":"Group1","date":"2025-09-30T18:37:06.868Z"},{"task":"memory_phase","broad_category":"M","image_png":"M_Schist_13.png","image_id":301,"category_name":"Schist","category":19,"distinct_rating":3.37,"rt":null,"stimulus":"Stimuli_Rocks480/M_Schist_13.png","response":null,"trial_type":"image-keyboard-response","trial_index":226,"plugin_version":"2.1.0","time_elapsed":433709,"subject_id":"89029","group":"Group1","date":"2025-09-30T18:37:06.868Z"},{"rt":null,"stimulus":"<p style=\"font-size: 50px; margin: 0; text-align: center;\">+</p>","response":null,"trial_type":"html-keyboard-response","trial_index":227,"plugin_version":"2.1.0","time_elapsed":434710,"subject_id":"89029","group":"Group1","date":"2025-09-30T18:37:06.868Z"},{"task":"memory_phase","broad_category":"S","image_png":"S_Micrite_07.png","image_id":407,"category_name":"Micrite","category":26,"distinct_rating":1.85,"rt":null,"stimulus":"Stimuli_Rocks480/S_Micrite_07.png","response":null,"trial_type":"image-keyboard-response","trial_index":228,"plugin_version":"2.1.0","time_elapsed":437217,"subject_id":"89029","group":"Group1","date":"2025-09-30T18:37:06.868Z"},{"rt":null,"stimulus":"<p style=\"font-size: 50px; margin: 0; text-align: center;\">+</p>","response":null,"trial_type":"html-keyboard-response","trial_index":229,"plugin_version":"2.1.0","time_elapsed":438218,"subject_id":"89029","group":"Group1","date":"2025-09-30T18:37:06.868Z"},{"task":"memory_phase","broad_category":"I","image_png":"I_Obsidian_04.png","image_id":84,"category_name":"Obsidian","category":6,"distinct_rating":5.67,"rt":null,"stimulus":"Stimuli_Rocks480/I_Obsidian_04.png","response":null,"trial_type":"image-keyboard-response","trial_index":230,"plugin_version":"2.1.0","time_elapsed":440725,"subject_id":"89029","group":"Group1","date":"2025-09-30T18:37:06.868Z"},{"rt":null,"stimulus":"<p style=\"font-size: 50px; margin: 0; text-align: center;\">+</p>","response":null,"trial_type":"html-keyboard-response","trial_index":231,"plugin_version":"2.1.0","time_elapsed":441727,"subject_id":"89029","group":"Group1","date":"2025-09-30T18:37:06.868Z"},{"task":"memory_phase","broad_category":"S","image_png":"S_Rock Salt_15.png","image_id":447,"category_name":"Rock Salt","category":28,"distinct_rating":7.79,"rt":null,"stimulus":"Stimuli_Rocks480/S_Rock Salt_15.png","response":null,"trial_type":"image-keyboard-response","trial_index":232,"plugin_version":"2.1.0","time_elapsed":444232,"subject_id":"89029","group":"Group1","date":"2025-09-30T18:37:06.868Z"},{"rt":null,"stimulus":"<p style=\"font-size: 50px; margin: 0; text-align: center;\">+</p>","response":null,"trial_type":"html-keyboard-response","trial_index":233,"plugin_version":"2.1.0","time_elapsed":445233,"subject_id":"89029","group":"Group1","date":"2025-09-30T18:37:06.868Z"},{"task":"memory_phase","broad_category":"M","image_png":"M_Hornfels_04.png","image_id":212,"category_name":"Hornfels","category":14,"distinct_rating":2.22,"rt":null,"stimulus":"Stimuli_Rocks480/M_Hornfels_04.png","response":null,"trial_type":"image-keyboard-response","trial_index":234,"plugin_version":"2.1.0","time_elapsed":447740,"subject_id":"89029","group":"Group1","date":"2025-09-30T18:37:06.868Z"},{"rt":null,"stimulus":"<p style=\"font-size: 50px; margin: 0; text-align: center;\">+</p>","response":null,"trial_type":"html-keyboard-response","trial_index":235,"plugin_version":"2.1.0","time_elapsed":448741,"subject_id":"89029","group":"Group1","date":"2025-09-30T18:37:06.868Z"},{"task":"memory_phase","broad_category":"I","image_png":"I_Granite_09.png","image_id":73,"category_name":"Granite","category":5,"distinct_rating":5.38,"rt":null,"stimulus":"Stimuli_Rocks480/I_Granite_09.png","response":null,"trial_type":"image-keyboard-response","trial_index":236,"plugin_version":"2.1.0","time_elapsed":451249,"subject_id":"89029","group":"Group1","date":"2025-09-30T18:37:06.868Z"},{"rt":null,"stimulus":"<p style=\"font-size: 50px; margin: 0; text-align: center;\">+</p>","response":null,"trial_type":"html-keyboard-response","trial_index":237,"plugin_version":"2.1.0","time_elapsed":452249,"subject_id":"89029","group":"Group1","date":"2025-09-30T18:37:06.868Z"},{"task":"memory_phase","broad_category":"S","image_png":"S_Sandstone_05.png","image_id":453,"category_name":"Sandstone","category":29,"distinct_rating":5.42,"rt":null,"stimulus":"Stimuli_Rocks480/S_Sandstone_05.png","response":null,"trial_type":"image-keyboard-response","trial_index":238,"plugin_version":"2.1.0","time_elapsed":454756,"subject_id":"89029","group":"Group1","date":"2025-09-30T18:37:06.868Z"},{"rt":null,"stimulus":"<p style=\"font-size: 50px; margin: 0; text-align: center;\">+</p>","response":null,"trial_type":"html-keyboard-response","trial_index":239,"plugin_version":"2.1.0","time_elapsed":455757,"subject_id":"89029","group":"Group1","date":"2025-09-30T18:37:06.868Z"},{"task":"memory_phase","broad_category":"I","image_png":"I_Gabbro_12.png","image_id":60,"category_name":"Gabbro","category":4,"distinct_rating":2.6,"rt":null,"stimulus":"Stimuli_Rocks480/I_Gabbro_12.png","response":null,"trial_type":"image-keyboard-response","trial_index":240,"plugin_version":"2.1.0","time_elapsed":458265,"subject_id":"89029","group":"Group1","date":"2025-09-30T18:37:06.868Z"},{"rt":null,"stimulus":"<p style=\"font-size: 50px; margin: 0; text-align: center;\">+</p>","response":null,"trial_type":"html-keyboard-response","trial_index":241,"plugin_version":"2.1.0","time_elapsed":459266,"subject_id":"89029","group":"Group1","date":"2025-09-30T18:37:06.868Z"},{"task":"memory_phase","broad_category":"M","image_png":"M_Phyllite_06.png","image_id":262,"category_name":"Phyllite","category":17,"distinct_rating":3.03,"rt":null,"stimulus":"Stimuli_Rocks480/M_Phyllite_06.png","response":null,"trial_type":"image-keyboard-response","trial_index":242,"plugin_version":"2.1.0","time_elapsed":461772,"subject_id":"89029","group":"Group1","date":"2025-09-30T18:37:06.868Z"},{"rt":null,"stimulus":"<p style=\"font-size: 50px; margin: 0; text-align: center;\">+</p>","response":null,"trial_type":"html-keyboard-response","trial_index":243,"plugin_version":"2.1.0","time_elapsed":462774,"subject_id":"89029","group":"Group1","date":"2025-09-30T18:37:06.868Z"},{"task":"memory_phase","broad_category":"S","image_png":"S_Breccia_15.png","image_id":351,"category_name":"Breccia","category":22,"distinct_rating":5.43,"rt":null,"stimulus":"Stimuli_Rocks480/S_Breccia_15.png","response":null,"trial_type":"image-keyboard-response","trial_index":244,"plugin_version":"2.1.0","time_elapsed":465279,"subject_id":"89029","group":"Group1","date":"2025-09-30T18:37:06.868Z"},{"rt":null,"stimulus":"<p style=\"font-size: 50px; margin: 0; text-align: center;\">+</p>","response":null,"trial_type":"html-keyboard-response","trial_index":245,"plugin_version":"2.1.0","time_elapsed":466280,"subject_id":"89029","group":"Group1","date":"2025-09-30T18:37:06.868Z"},{"task":"memory_phase","broad_category":"M","image_png":"M_Anthracite_13.png","image_id":189,"category_name":"Anthracite","category":12,"distinct_rating":4.81,"rt":null,"stimulus":"Stimuli_Rocks480/M_Anthracite_13.png","response":null,"trial_type":"image-keyboard-response","trial_index":246,"plugin_version":"2.1.0","time_elapsed":468785,"subject_id":"89029","group":"Group1","date":"2025-09-30T18:37:06.868Z"},{"rt":5436,"stimulus":"<div style=\"max-width: 760px; margin: auto; font-size: 20px; line-height: 1.5;\">\n      <h1 style=\"text-align:center; font-size: 30px;\">Instructions for the Test Phase</h1>\n      <p>\n        The study phase is now complete.\n      </p>\n      <p>\n        In the test phase, you will again see a series of rock images. \n        Some will be ones you saw before - during the study phase, while others will be new.  \n        <b>Your task</b> is to decide whether you have seen each image before by pressing the corresponding key on your keyboard:<br><br>\n          <b>A</b> - NO (you did not see this image before)<br>\n          <b>L</b> - YES (you saw this image before)<br><br>\n        The test will proceed at your own pace. You will receive feedback after each response.  \n        Please try to respond <b>as accurately as possible</b>.\n      </p>\n      <p>\n        <b>Reminder:</b> If your computer has multiple language settings (e.g., English and another language),\n        please ensure it is set to English during the test phase.\n      </p>\n      <p>\n        You can track your progress using the <b>completion bar</b> at the top of the screen.  \n        Note that it has been refreshed to reflect your progress during this final phase.\n      </p>\n      <p>\n        Press the button below when you are ready to continue.\n      </p>\n    </div>","response":0,"trial_type":"html-button-response","trial_index":247,"plugin_version":"2.1.0","time_elapsed":474222,"subject_id":"89029","group":"Group1","date":"2025-09-30T18:37:06.868Z"},{"correct_response":"l","task":"test_phase","broad_category":"S","image_png":"S_Rock Salt_11.png","image_id":443,"category_name":"Rock Salt","category":28,"distinct_rating":4.9,"item_type":"Target","rt":2164,"stimulus":"Stimuli_Rocks480/S_Rock Salt_11.png","response":"a","trial_type":"image-keyboard-response","trial_index":248,"plugin_version":"2.1.0","time_elapsed":476391,"subject_id":"89029","group":"Group1","date":"2025-09-30T18:37:06.868Z","cor_ans":false},{"trial_type":"html-keyboard-response","rt":null,"stimulus":"<p style=\"color: red; font-size: 50px; font-weight: bold;\">Incorrect</p>","response":null,"trial_index":249,"plugin_version":"2.1.0","time_elapsed":476892,"subject_id":"89029","group":"Group1","date":"2025-09-30T18:37:06.868Z"},{"correct_response":"a","task":"test_phase","broad_category":"S","image_png":"S_Rock Salt_04.png","image_id":436,"category_name":"Rock Salt","category":28,"distinct_rating":7.89,"item_type":"Foil","rt":3782,"stimulus":"Stimuli_Rocks480/S_Rock Salt_04.png","response":"l","trial_type":"image-keyboard-response","trial_index":250,"plugin_version":"2.1.0","time_elapsed":480680,"subject_id":"89029","group":"Group1","date":"2025-09-30T18:37:06.868Z","cor_ans":false},{"trial_type":"html-keyboard-response","rt":null,"stimulus":"<p style=\"color: red; font-size: 50px; font-weight: bold;\">Incorrect</p>","response":null,"trial_index":251,"plugin_version":"2.1.0","time_elapsed":481181,"subject_id":"89029","group":"Group1","date":"2025-09-30T18:37:06.868Z"},{"correct_response":"l","task":"test_phase","broad_category":"I","image_png":"I_Basalt_04.png","image_id":20,"category_name":"Basalt","category":2,"distinct_rating":2.47,"item_type":"Target","rt":1776,"stimulus":"Stimuli_Rocks480/I_Basalt_04.png","response":"l","trial_type":"image-keyboard-response","trial_index":252,"plugin_version":"2.1.0","time_elapsed":482964,"subject_id":"89029","group":"Group1","date":"2025-09-30T18:37:06.868Z","cor_ans":true},{"trial_type":"html-keyboard-response","rt":null,"stimulus":"<p style=\"color: green; font-size: 50px; font-weight: bold;\">Correct</p>","response":null,"trial_index":253,"plugin_version":"2.1.0","time_elapsed":483465,"subject_id":"89029","group":"Group1","date":"2025-09-30T18:37:06.868Z"},{"correct_response":"a","task":"test_phase","broad_category":"I","image_png":"I_Rhyolite_02.png","image_id":146,"category_name":"Rhyolite","category":10,"distinct_rating":3.26,"item_type":"Foil","rt":1245,"stimulus":"Stimuli_Rocks480/I_Rhyolite_02.png","response":"l","trial_type":"image-keyboard-response","trial_index":254,"plugin_version":"2.1.0","time_elapsed":484716,"subject_id":"89029","group":"Group1","date":"2025-09-30T18:37:06.868Z","cor_ans":false},{"trial_type":"html-keyboard-response","rt":null,"stimulus":"<p style=\"color: red; font-size: 50px; font-weight: bold;\">Incorrect</p>","response":null,"trial_index":255,"plugin_version":"2.1.0","time_elapsed":485217,"subject_id":"89029","group":"Group1","date":"2025-09-30T18:37:06.868Z"},{"correct_response":"l","task":"test_phase","broad_category":"I","image_png":"I_Rhyolite_16.png","image_id":160,"category_name":"Rhyolite","category":10,"distinct_rating":2.19,"item_type":"Target","rt":1023,"stimulus":"Stimuli_Rocks480/I_Rhyolite_16.png","response":"l","trial_type":"image-keyboard-response","trial_index":256,"plugin_version":"2.1.0","time_elapsed":486245,"subject_id":"89029","group":"Group1","date":"2025-09-30T18:37:06.868Z","cor_ans":true},{"trial_type":"html-keyboard-response","rt":null,"stimulus":"<p style=\"color: green; font-size: 50px; font-weight: bold;\">Correct</p>","response":null,"trial_index":257,"plugin_version":"2.1.0","time_elapsed":486746,"subject_id":"89029","group":"Group1","date":"2025-09-30T18:37:06.868Z"},{"correct_response":"l","task":"test_phase","broad_category":"M","image_png":"M_Gneiss_01.png","image_id":193,"category_name":"Gneiss","category":13,"distinct_rating":4.54,"item_type":"Target","rt":862,"stimulus":"Stimuli_Rocks480/M_Gneiss_01.png","response":"a","trial_type":"image-keyboard-response","trial_index":258,"plugin_version":"2.1.0","time_elapsed":487615,"subject_id":"89029","group":"Group1","date":"2025-09-30T18:37:06.868Z","cor_ans":false},{"trial_type":"html-keyboard-response","rt":null,"stimulus":"<p style=\"color: red; font-size: 50px; font-weight: bold;\">Incorrect</p>","response":null,"trial_index":259,"plugin_version":"2.1.0","time_elapsed":488117,"subject_id":"89029","group":"Group1","date":"2025-09-30T18:37:06.868Z"},{"correct_response":"l","task":"test_phase","broad_category":"I","image_png":"I_Rhyolite_13.png","image_id":157,"category_name":"Rhyolite","category":10,"distinct_rating":4.83,"item_type":"Target","rt":1319,"stimulus":"Stimuli_Rocks480/I_Rhyolite_13.png","response":"a","trial_type":"image-keyboard-response","trial_index":260,"plugin_version":"2.1.0","time_elapsed":489442,"subject_id":"89029","group":"Group1","date":"2025-09-30T18:37:06.868Z","cor_ans":false},{"trial_type":"html-keyboard-response","rt":null,"stimulus":"<p style=\"color: red; font-size: 50px; font-weight: bold;\">Incorrect</p>","response":null,"trial_index":261,"plugin_version":"2.1.0","time_elapsed":489944,"subject_id":"89029","group":"Group1","date":"2025-09-30T18:37:06.868Z"},{"correct_response":"a","task":"test_phase","broad_category":"M","image_png":"M_Hornfels_06.png","image_id":214,"category_name":"Hornfels","category":14,"distinct_rating":2.66,"item_type":"Foil","rt":1683,"stimulus":"Stimuli_Rocks480/M_Hornfels_06.png","response":"a","trial_type":"image-keyboard-response","trial_index":262,"plugin_version":"2.1.0","time_elapsed":491632,"subject_id":"89029","group":"Group1","date":"2025-09-30T18:37:06.868Z","cor_ans":true},{"trial_type":"html-keyboard-response","rt":null,"stimulus":"<p style=\"color: green; font-size: 50px; font-weight: bold;\">Correct</p>","response":null,"trial_index":263,"plugin_version":"2.1.0","time_elapsed":492134,"subject_id":"89029","group":"Group1","date":"2025-09-30T18:37:06.868Z"},{"correct_response":"a","task":"test_phase","broad_category":"I","image_png":"I_Basalt_06.png","image_id":22,"category_name":"Basalt","category":2,"distinct_rating":2.08,"item_type":"Foil","rt":632,"stimulus":"Stimuli_Rocks480/I_Basalt_06.png","response":"l","trial_type":"image-keyboard-response","trial_index":264,"plugin_version":"2.1.0","time_elapsed":492771,"subject_id":"89029","group":"Group1","date":"2025-09-30T18:37:06.868Z","cor_ans":false},{"trial_type":"html-keyboard-response","rt":null,"stimulus":"<p style=\"color: red; font-size: 50px; font-weight: bold;\">Incorrect</p>","response":null,"trial_index":265,"plugin_version":"2.1.0","time_elapsed":493272,"subject_id":"89029","group":"Group1","date":"2025-09-30T18:37:06.868Z"},{"correct_response":"a","task":"test_phase","broad_category":"M","image_png":"M_Marble_08.png","image_id":232,"category_name":"Marble","category":15,"distinct_rating":4.35,"item_type":"Foil","rt":1581,"stimulus":"Stimuli_Rocks480/M_Marble_08.png","response":"a","trial_type":"image-keyboard-response","trial_index":266,"plugin_version":"2.1.0","time_elapsed":494859,"subject_id":"89029","group":"Group1","date":"2025-09-30T18:37:06.868Z","cor_ans":true},{"trial_type":"html-keyboard-response","rt":null,"stimulus":"<p style=\"color: green; font-size: 50px; font-weight: bold;\">Correct</p>","response":null,"trial_index":267,"plugin_version":"2.1.0","time_elapsed":495360,"subject_id":"89029","group":"Group1","date":"2025-09-30T18:37:06.868Z"},{"correct_response":"a","task":"test_phase","broad_category":"I","image_png":"I_Rhyolite_06.png","image_id":150,"category_name":"Rhyolite","category":10,"distinct_rating":5,"item_type":"Foil","rt":2027,"stimulus":"Stimuli_Rocks480/I_Rhyolite_06.png","response":"l","trial_type":"image-keyboard-response","trial_index":268,"plugin_version":"2.1.0","time_elapsed":497392,"subject_id":"89029","group":"Group1","date":"2025-09-30T18:37:06.868Z","cor_ans":false},{"trial_type":"html-keyboard-response","rt":null,"stimulus":"<p style=\"color: red; font-size: 50px; font-weight: bold;\">Incorrect</p>","response":null,"trial_index":269,"plugin_version":"2.1.0","time_elapsed":497893,"subject_id":"89029","group":"Group1","date":"2025-09-30T18:37:06.868Z"},{"correct_response":"l","task":"test_phase","broad_category":"I","image_png":"I_Gabbro_12.png","image_id":60,"category_name":"Gabbro","category":4,"distinct_rating":2.6,"item_type":"Target","rt":1086,"stimulus":"Stimuli_Rocks480/I_Gabbro_12.png","response":"a","trial_type":"image-keyboard-response","trial_index":270,"plugin_version":"2.1.0","time_elapsed":498986,"subject_id":"89029","group":"Group1","date":"2025-09-30T18:37:06.868Z","cor_ans":false},{"trial_type":"html-keyboard-response","rt":null,"stimulus":"<p style=\"color: red; font-size: 50px; font-weight: bold;\">Incorrect</p>","response":null,"trial_index":271,"plugin_version":"2.1.0","time_elapsed":499487,"subject_id":"89029","group":"Group1","date":"2025-09-30T18:37:06.868Z"},{"correct_response":"a","task":"test_phase","broad_category":"M","image_png":"M_Anthracite_04.png","image_id":180,"category_name":"Anthracite","category":12,"distinct_rating":6.25,"item_type":"Foil","rt":786,"stimulus":"Stimuli_Rocks480/M_Anthracite_04.png","response":"a","trial_type":"image-keyboard-response","trial_index":272,"plugin_version":"2.1.0","time_elapsed":500279,"subject_id":"89029","group":"Group1","date":"2025-09-30T18:37:06.868Z","cor_ans":true},{"trial_type":"html-keyboard-response","rt":null,"stimulus":"<p style=\"color: green; font-size: 50px; font-weight: bold;\">Correct</p>","response":null,"trial_index":273,"plugin_version":"2.1.0","time_elapsed":500780,"subject_id":"89029","group":"Group1","date":"2025-09-30T18:37:06.868Z"},{"correct_response":"l","task":"test_phase","broad_category":"M","image_png":"M_Quartzite_08.png","image_id":280,"category_name":"Quartzite","category":18,"distinct_rating":2.15,"item_type":"Target","rt":1753,"stimulus":"Stimuli_Rocks480/M_Quartzite_08.png","response":"l","trial_type":"image-keyboard-response","trial_index":274,"plugin_version":"2.1.0","time_elapsed":502539,"subject_id":"89029","group":"Group1","date":"2025-09-30T18:37:06.868Z","cor_ans":true},{"trial_type":"html-keyboard-response","rt":null,"stimulus":"<p style=\"color: green; font-size: 50px; font-weight: bold;\">Correct</p>","response":null,"trial_index":275,"plugin_version":"2.1.0","time_elapsed":503040,"subject_id":"89029","group":"Group1","date":"2025-09-30T18:37:06.868Z"},{"correct_response":"a","task":"test_phase","broad_category":"I","image_png":"I_Granite_01.png","image_id":65,"category_name":"Granite","category":5,"distinct_rating":5.23,"item_type":"Foil","rt":982,"stimulus":"Stimuli_Rocks480/I_Granite_01.png","response":"a","trial_type":"image-keyboard-response","trial_index":276,"plugin_version":"2.1.0","time_elapsed":504029,"subject_id":"89029","group":"Group1","date":"2025-09-30T18:37:06.868Z","cor_ans":true},{"trial_type":"html-keyboard-response","rt":null,"stimulus":"<p style=\"color: green; font-size: 50px; font-weight: bold;\">Correct</p>","response":null,"trial_index":277,"plugin_version":"2.1.0","time_elapsed":504530,"subject_id":"89029","group":"Group1","date":"2025-09-30T18:37:06.868Z"},{"correct_response":"a","task":"test_phase","broad_category":"S","image_png":"S_Breccia_03.png","image_id":339,"category_name":"Breccia","category":22,"distinct_rating":5.07,"item_type":"Foil","rt":754,"stimulus":"Stimuli_Rocks480/S_Breccia_03.png","response":"a","trial_type":"image-keyboard-response","trial_index":278,"plugin_version":"2.1.0","time_elapsed":505293,"subject_id":"89029","group":"Group1","date":"2025-09-30T18:37:06.868Z","cor_ans":true},{"trial_type":"html-keyboard-response","rt":null,"stimulus":"<p style=\"color: green; font-size: 50px; font-weight: bold;\">Correct</p>","response":null,"trial_index":279,"plugin_version":"2.1.0","time_elapsed":505795,"subject_id":"89029","group":"Group1","date":"2025-09-30T18:37:06.868Z"},{"correct_response":"l","task":"test_phase","broad_category":"S","image_png":"S_Dolomite_11.png","image_id":395,"category_name":"Dolomite","category":25,"distinct_rating":5.56,"item_type":"Target","rt":926,"stimulus":"Stimuli_Rocks480/S_Dolomite_11.png","response":"a","trial_type":"image-keyboard-response","trial_index":280,"plugin_version":"2.1.0","time_elapsed":506725,"subject_id":"89029","group":"Group1","date":"2025-09-30T18:37:06.868Z","cor_ans":false},{"trial_type":"html-keyboard-response","rt":null,"stimulus":"<p style=\"color: red; font-size: 50px; font-weight: bold;\">Incorrect</p>","response":null,"trial_index":281,"plugin_version":"2.1.0","time_elapsed":507226,"subject_id":"89029","group":"Group1","date":"2025-09-30T18:37:06.868Z"},{"correct_response":"l","task":"t