[{"width":1358,"height":642,"webaudio":true,"browser":"edge-chromium","browser_version":"142.0.0","mobile":false,"os":"Windows 10","fullscreen":true,"vsync_rate":59.99,"webcam":true,"microphone":true,"trial_type":"browser-check","trial_index":0,"plugin_version":"2.1.0","time_elapsed":1015,"subject_id":"86832","group":"Group2","full_date":"2025-12-03T00:44:33.778Z","date":"2025-12-03","time":"00:44:33"},{"success":true,"timeout":false,"failed_images":[],"failed_audio":[],"failed_video":[],"trial_type":"preload","trial_index":1,"plugin_version":"2.1.0","time_elapsed":104010,"subject_id":"86832","group":"Group2","full_date":"2025-12-03T00:44:33.778Z","date":"2025-12-03","time":"00:44:33"},{"rt":88640,"url":"SONA_consent_memorability.html","trial_type":"external-html","trial_index":2,"plugin_version":"2.1.0","time_elapsed":192677,"subject_id":"86832","group":"Group2","full_date":"2025-12-03T00:44:33.778Z","date":"2025-12-03","time":"00:44:33"},{"success":true,"rt":1691,"trial_type":"fullscreen","trial_index":3,"plugin_version":"2.1.0","time_elapsed":195383,"subject_id":"86832","group":"Group2","full_date":"2025-12-03T00:44:33.778Z","date":"2025-12-03","time":"00:44:33"},{"rt":116751,"stimulus":"<div style=\"max-width: 760px; margin: auto; font-size: 20px; line-height: 1.5;\">\n      <h1 style=\"text-align:center; font-size: 30px;\">Instructions</h1>\n      <p>\n        Welcome to the study on <b>visual memory</b>. This experiment consists of <b>two phases</b>: \n        a <b>study phase</b> and a <b>test phase</b>.\n      </p>\n      <p>\n        In the study phase, you will see a series of rock images along with their category labels.\n        The images will appear one at a time.\n        <b>Your task</b> is to learn the categories to which the rock images belong \n        and to remember each image as accurately as possible.\n      </p> \n      <p>\n        Note that we will repeat the study phase <b>3 times</b>, \n        so you will have multiple opportunities to see and remember each image.\n      </p>\n      <p>\n        After the study phase, <b>your memory will be tested</b>. \n        Additional instructions for the test phase will be provided at that time.\n      </p>\n      <p>\n        If your computer has multiple <b>language settings</b> (e.g., English and another language),\n        please make sure it is set to English before starting.\n      </p>\n      <p>\n        You can track your progress using the <b>completion bar</b> at the top of the screen. \n        Please note that the bar will refresh when the test phase begins \n        to give you an accurate sense of your progress in both phases.\n      </p> \n      <p>\n        Press the button below when you are ready to begin.\n      </p>\n    </div>","response":0,"trial_type":"html-button-response","trial_index":4,"plugin_version":"2.1.0","time_elapsed":312136,"subject_id":"86832","group":"Group2","full_date":"2025-12-03T00:44:33.778Z","date":"2025-12-03","time":"00:44:33"},{"rt":null,"stimulus":"<p style=\"font-size: 50px; margin: 0; text-align: center;\">+</p>","response":null,"trial_type":"html-keyboard-response","trial_index":5,"plugin_version":"2.1.0","time_elapsed":313140,"subject_id":"86832","group":"Group2","full_date":"2025-12-03T00:44:33.778Z","date":"2025-12-03","time":"00:44:33"},{"task":"memory_phase","broad_category":"S","image_png":"S_Shale_03.png","image_id":467,"category_name":"Shale","category":30,"distinct_rating":1.95,"distinct_type":"Bottom","rt":null,"stimulus":"Stimuli_Rocks480/S_Shale_03.png","response":null,"trial_type":"image-keyboard-response","trial_index":6,"plugin_version":"2.1.0","time_elapsed":315651,"subject_id":"86832","group":"Group2","full_date":"2025-12-03T00:44:33.778Z","date":"2025-12-03","time":"00:44:33"},{"rt":null,"stimulus":"<p style=\"font-size: 50px; margin: 0; text-align: center;\">+</p>","response":null,"trial_type":"html-keyboard-response","trial_index":7,"plugin_version":"2.1.0","time_elapsed":316660,"subject_id":"86832","group":"Group2","full_date":"2025-12-03T00:44:33.778Z","date":"2025-12-03","time":"00:44:33"},{"task":"memory_phase","broad_category":"S","image_png":"S_Dolomite_07.png","image_id":391,"category_name":"Dolomite","category":25,"distinct_rating":1.73,"distinct_type":"Bottom","rt":null,"stimulus":"Stimuli_Rocks480/S_Dolomite_07.png","response":null,"trial_type":"image-keyboard-response","trial_index":8,"plugin_version":"2.1.0","time_elapsed":319176,"subject_id":"86832","group":"Group2","full_date":"2025-12-03T00:44:33.778Z","date":"2025-12-03","time":"00:44:33"},{"rt":null,"stimulus":"<p style=\"font-size: 50px; margin: 0; text-align: center;\">+</p>","response":null,"trial_type":"html-keyboard-response","trial_index":9,"plugin_version":"2.1.0","time_elapsed":320194,"subject_id":"86832","group":"Group2","full_date":"2025-12-03T00:44:33.778Z","date":"2025-12-03","time":"00:44:33"},{"task":"memory_phase","broad_category":"S","image_png":"S_Shale_07.png","image_id":471,"category_name":"Shale","category":30,"distinct_rating":2.73,"distinct_type":"Bottom","rt":null,"stimulus":"Stimuli_Rocks480/S_Shale_07.png","response":null,"trial_type":"image-keyboard-response","trial_index":10,"plugin_version":"2.1.0","time_elapsed":322700,"subject_id":"86832","group":"Group2","full_date":"2025-12-03T00:44:33.778Z","date":"2025-12-03","time":"00:44:33"},{"rt":null,"stimulus":"<p style=\"font-size: 50px; margin: 0; text-align: center;\">+</p>","response":null,"trial_type":"html-keyboard-response","trial_index":11,"plugin_version":"2.1.0","time_elapsed":323707,"subject_id":"86832","group":"Group2","full_date":"2025-12-03T00:44:33.778Z","date":"2025-12-03","time":"00:44:33"},{"task":"memory_phase","broad_category":"I","image_png":"I_Pumice_13.png","image_id":141,"category_name":"Pumice","category":9,"distinct_rating":3.12,"distinct_type":"Bottom","rt":null,"stimulus":"Stimuli_Rocks480/I_Pumice_13.png","response":null,"trial_type":"image-keyboard-response","trial_index":12,"plugin_version":"2.1.0","time_elapsed":326223,"subject_id":"86832","group":"Group2","full_date":"2025-12-03T00:44:33.778Z","date":"2025-12-03","time":"00:44:33"},{"rt":null,"stimulus":"<p style=\"font-size: 50px; margin: 0; text-align: center;\">+</p>","response":null,"trial_type":"html-keyboard-response","trial_index":13,"plugin_version":"2.1.0","time_elapsed":327234,"subject_id":"86832","group":"Group2","full_date":"2025-12-03T00:44:33.778Z","date":"2025-12-03","time":"00:44:33"},{"task":"memory_phase","broad_category":"M","image_png":"M_Quartzite_15.png","image_id":287,"category_name":"Quartzite","category":18,"distinct_rating":2.19,"distinct_type":"Bottom","rt":null,"stimulus":"Stimuli_Rocks480/M_Quartzite_15.png","response":null,"trial_type":"image-keyboard-response","trial_index":14,"plugin_version":"2.1.0","time_elapsed":329746,"subject_id":"86832","group":"Group2","full_date":"2025-12-03T00:44:33.778Z","date":"2025-12-03","time":"00:44:33"},{"rt":null,"stimulus":"<p style=\"font-size: 50px; margin: 0; text-align: center;\">+</p>","response":null,"trial_type":"html-keyboard-response","trial_index":15,"plugin_version":"2.1.0","time_elapsed":330752,"subject_id":"86832","group":"Group2","full_date":"2025-12-03T00:44:33.778Z","date":"2025-12-03","time":"00:44:33"},{"task":"memory_phase","broad_category":"S","image_png":"S_Dolomite_01.png","image_id":385,"category_name":"Dolomite","category":25,"distinct_rating":1.43,"distinct_type":"Bottom","rt":null,"stimulus":"Stimuli_Rocks480/S_Dolomite_01.png","response":null,"trial_type":"image-keyboard-response","trial_index":16,"plugin_version":"2.1.0","time_elapsed":333262,"subject_id":"86832","group":"Group2","full_date":"2025-12-03T00:44:33.778Z","date":"2025-12-03","time":"00:44:33"},{"rt":null,"stimulus":"<p style=\"font-size: 50px; margin: 0; text-align: center;\">+</p>","response":null,"trial_type":"html-keyboard-response","trial_index":17,"plugin_version":"2.1.0","time_elapsed":334266,"subject_id":"86832","group":"Group2","full_date":"2025-12-03T00:44:33.778Z","date":"2025-12-03","time":"00:44:33"},{"task":"memory_phase","broad_category":"S","image_png":"S_Shale_02.png","image_id":466,"category_name":"Shale","category":30,"distinct_rating":2.9,"distinct_type":"Bottom","rt":null,"stimulus":"Stimuli_Rocks480/S_Shale_02.png","response":null,"trial_type":"image-keyboard-response","trial_index":18,"plugin_version":"2.1.0","time_elapsed":336780,"subject_id":"86832","group":"Group2","full_date":"2025-12-03T00:44:33.778Z","date":"2025-12-03","time":"00:44:33"},{"rt":null,"stimulus":"<p style=\"font-size: 50px; margin: 0; text-align: center;\">+</p>","response":null,"trial_type":"html-keyboard-response","trial_index":19,"plugin_version":"2.1.0","time_elapsed":337793,"subject_id":"86832","group":"Group2","full_date":"2025-12-03T00:44:33.778Z","date":"2025-12-03","time":"00:44:33"},{"task":"memory_phase","broad_category":"M","image_png":"M_Quartzite_12.png","image_id":284,"category_name":"Quartzite","category":18,"distinct_rating":1.92,"distinct_type":"Bottom","rt":null,"stimulus":"Stimuli_Rocks480/M_Quartzite_12.png","response":null,"trial_type":"image-keyboard-response","trial_index":20,"plugin_version":"2.1.0","time_elapsed":340305,"subject_id":"86832","group":"Group2","full_date":"2025-12-03T00:44:33.778Z","date":"2025-12-03","time":"00:44:33"},{"rt":null,"stimulus":"<p style=\"font-size: 50px; margin: 0; text-align: center;\">+</p>","response":null,"trial_type":"html-keyboard-response","trial_index":21,"plugin_version":"2.1.0","time_elapsed":341321,"subject_id":"86832","group":"Group2","full_date":"2025-12-03T00:44:33.778Z","date":"2025-12-03","time":"00:44:33"},{"task":"memory_phase","broad_category":"M","image_png":"M_Slate_14.png","image_id":318,"category_name":"Slate","category":20,"distinct_rating":2.58,"distinct_type":"Bottom","rt":null,"stimulus":"Stimuli_Rocks480/M_Slate_14.png","response":null,"trial_type":"image-keyboard-response","trial_index":22,"plugin_version":"2.1.0","time_elapsed":343830,"subject_id":"86832","group":"Group2","full_date":"2025-12-03T00:44:33.778Z","date":"2025-12-03","time":"00:44:33"},{"rt":null,"stimulus":"<p style=\"font-size: 50px; margin: 0; text-align: center;\">+</p>","response":null,"trial_type":"html-keyboard-response","trial_index":23,"plugin_version":"2.1.0","time_elapsed":344837,"subject_id":"86832","group":"Group2","full_date":"2025-12-03T00:44:33.778Z","date":"2025-12-03","time":"00:44:33"},{"task":"memory_phase","broad_category":"M","image_png":"M_Marble_03.png","image_id":227,"category_name":"Marble","category":15,"distinct_rating":2.67,"distinct_type":"Bottom","rt":null,"stimulus":"Stimuli_Rocks480/M_Marble_03.png","response":null,"trial_type":"image-keyboard-response","trial_index":24,"plugin_version":"2.1.0","time_elapsed":347342,"subject_id":"86832","group":"Group2","full_date":"2025-12-03T00:44:33.778Z","date":"2025-12-03","time":"00:44:33"},{"rt":null,"stimulus":"<p style=\"font-size: 50px; margin: 0; text-align: center;\">+</p>","response":null,"trial_type":"html-keyboard-response","trial_index":25,"plugin_version":"2.1.0","time_elapsed":348347,"subject_id":"86832","group":"Group2","full_date":"2025-12-03T00:44:33.778Z","date":"2025-12-03","time":"00:44:33"},{"task":"memory_phase","broad_category":"S","image_png":"S_Rock Salt_13.png","image_id":445,"category_name":"Rock Salt","category":28,"distinct_rating":7.58,"distinct_type":"Top","rt":null,"stimulus":"Stimuli_Rocks480/S_Rock Salt_13.png","response":null,"trial_type":"image-keyboard-response","trial_index":26,"plugin_version":"2.1.0","time_elapsed":350865,"subject_id":"86832","group":"Group2","full_date":"2025-12-03T00:44:33.778Z","date":"2025-12-03","time":"00:44:33"},{"rt":null,"stimulus":"<p style=\"font-size: 50px; margin: 0; text-align: center;\">+</p>","response":null,"trial_type":"html-keyboard-response","trial_index":27,"plugin_version":"2.1.0","time_elapsed":351882,"subject_id":"86832","group":"Group2","full_date":"2025-12-03T00:44:33.778Z","date":"2025-12-03","time":"00:44:33"},{"task":"memory_phase","broad_category":"I","image_png":"I_Basalt_13.png","image_id":29,"category_name":"Basalt","category":2,"distinct_rating":2.68,"distinct_type":"Bottom","rt":null,"stimulus":"Stimuli_Rocks480/I_Basalt_13.png","response":null,"trial_type":"image-keyboard-response","trial_index":28,"plugin_version":"2.1.0","time_elapsed":354390,"subject_id":"86832","group":"Group2","full_date":"2025-12-03T00:44:33.778Z","date":"2025-12-03","time":"00:44:33"},{"rt":null,"stimulus":"<p style=\"font-size: 50px; margin: 0; text-align: center;\">+</p>","response":null,"trial_type":"html-keyboard-response","trial_index":29,"plugin_version":"2.1.0","time_elapsed":355396,"subject_id":"86832","group":"Group2","full_date":"2025-12-03T00:44:33.778Z","date":"2025-12-03","time":"00:44:33"},{"task":"memory_phase","broad_category":"I","image_png":"I_Rhyolite_08.png","image_id":152,"category_name":"Rhyolite","category":10,"distinct_rating":1.38,"distinct_type":"Bottom","rt":null,"stimulus":"Stimuli_Rocks480/I_Rhyolite_08.png","response":null,"trial_type":"image-keyboard-response","trial_index":30,"plugin_version":"2.1.0","time_elapsed":357907,"subject_id":"86832","group":"Group2","full_date":"2025-12-03T00:44:33.778Z","date":"2025-12-03","time":"00:44:33"},{"rt":null,"stimulus":"<p style=\"font-size: 50px; margin: 0; text-align: center;\">+</p>","response":null,"trial_type":"html-keyboard-response","trial_index":31,"plugin_version":"2.1.0","time_elapsed":358919,"subject_id":"86832","group":"Group2","full_date":"2025-12-03T00:44:33.778Z","date":"2025-12-03","time":"00:44:33"},{"task":"memory_phase","broad_category":"I","image_png":"I_Andesite_04.png","image_id":4,"category_name":"Andesite","category":1,"distinct_rating":3.18,"distinct_type":"Bottom","rt":null,"stimulus":"Stimuli_Rocks480/I_Andesite_04.png","response":null,"trial_type":"image-keyboard-response","trial_index":32,"plugin_version":"2.1.0","time_elapsed":361428,"subject_id":"86832","group":"Group2","full_date":"2025-12-03T00:44:33.778Z","date":"2025-12-03","time":"00:44:33"},{"rt":null,"stimulus":"<p style=\"font-size: 50px; margin: 0; text-align: center;\">+</p>","response":null,"trial_type":"html-keyboard-response","trial_index":33,"plugin_version":"2.1.0","time_elapsed":362435,"subject_id":"86832","group":"Group2","full_date":"2025-12-03T00:44:33.778Z","date":"2025-12-03","time":"00:44:33"},{"task":"memory_phase","broad_category":"M","image_png":"M_Marble_14.png","image_id":238,"category_name":"Marble","category":15,"distinct_rating":3.31,"distinct_type":"Bottom","rt":null,"stimulus":"Stimuli_Rocks480/M_Marble_14.png","response":null,"trial_type":"image-keyboard-response","trial_index":34,"plugin_version":"2.1.0","time_elapsed":364950,"subject_id":"86832","group":"Group2","full_date":"2025-12-03T00:44:33.778Z","date":"2025-12-03","time":"00:44:33"},{"rt":null,"stimulus":"<p style=\"font-size: 50px; margin: 0; text-align: center;\">+</p>","response":null,"trial_type":"html-keyboard-response","trial_index":35,"plugin_version":"2.1.0","time_elapsed":365962,"subject_id":"86832","group":"Group2","full_date":"2025-12-03T00:44:33.778Z","date":"2025-12-03","time":"00:44:33"},{"task":"memory_phase","broad_category":"I","image_png":"I_Diorite_15.png","image_id":47,"category_name":"Diorite","category":3,"distinct_rating":3.05,"distinct_type":"Bottom","rt":null,"stimulus":"Stimuli_Rocks480/I_Diorite_15.png","response":null,"trial_type":"image-keyboard-response","trial_index":36,"plugin_version":"2.1.0","time_elapsed":368474,"subject_id":"86832","group":"Group2","full_date":"2025-12-03T00:44:33.778Z","date":"2025-12-03","time":"00:44:33"},{"rt":null,"stimulus":"<p style=\"font-size: 50px; margin: 0; text-align: center;\">+</p>","response":null,"trial_type":"html-keyboard-response","trial_index":37,"plugin_version":"2.1.0","time_elapsed":369477,"subject_id":"86832","group":"Group2","full_date":"2025-12-03T00:44:33.778Z","date":"2025-12-03","time":"00:44:33"},{"task":"memory_phase","broad_category":"M","image_png":"M_Gneiss_14.png","image_id":206,"category_name":"Gneiss","category":13,"distinct_rating":3.41,"distinct_type":"Bottom","rt":null,"stimulus":"Stimuli_Rocks480/M_Gneiss_14.png","response":null,"trial_type":"image-keyboard-response","trial_index":38,"plugin_version":"2.1.0","time_elapsed":371984,"subject_id":"86832","group":"Group2","full_date":"2025-12-03T00:44:33.778Z","date":"2025-12-03","time":"00:44:33"},{"rt":null,"stimulus":"<p style=\"font-size: 50px; margin: 0; text-align: center;\">+</p>","response":null,"trial_type":"html-keyboard-response","trial_index":39,"plugin_version":"2.1.0","time_elapsed":372989,"subject_id":"86832","group":"Group2","full_date":"2025-12-03T00:44:33.778Z","date":"2025-12-03","time":"00:44:33"},{"task":"memory_phase","broad_category":"I","image_png":"I_Andesite_09.png","image_id":9,"category_name":"Andesite","category":1,"distinct_rating":2.49,"distinct_type":"Bottom","rt":null,"stimulus":"Stimuli_Rocks480/I_Andesite_09.png","response":null,"trial_type":"image-keyboard-response","trial_index":40,"plugin_version":"2.1.0","time_elapsed":375496,"subject_id":"86832","group":"Group2","full_date":"2025-12-03T00:44:33.778Z","date":"2025-12-03","time":"00:44:33"},{"rt":null,"stimulus":"<p style=\"font-size: 50px; margin: 0; text-align: center;\">+</p>","response":null,"trial_type":"html-keyboard-response","trial_index":41,"plugin_version":"2.1.0","time_elapsed":376505,"subject_id":"86832","group":"Group2","full_date":"2025-12-03T00:44:33.778Z","date":"2025-12-03","time":"00:44:33"},{"task":"memory_phase","broad_category":"I","image_png":"I_Peridotite_13.png","image_id":125,"category_name":"Peridotite","category":8,"distinct_rating":7.28,"distinct_type":"Top","rt":null,"stimulus":"Stimuli_Rocks480/I_Peridotite_13.png","response":null,"trial_type":"image-keyboard-response","trial_index":42,"plugin_version":"2.1.0","time_elapsed":379010,"subject_id":"86832","group":"Group2","full_date":"2025-12-03T00:44:33.778Z","date":"2025-12-03","time":"00:44:33"},{"rt":null,"stimulus":"<p style=\"font-size: 50px; margin: 0; text-align: center;\">+</p>","response":null,"trial_type":"html-keyboard-response","trial_index":43,"plugin_version":"2.1.0","time_elapsed":380019,"subject_id":"86832","group":"Group2","full_date":"2025-12-03T00:44:33.778Z","date":"2025-12-03","time":"00:44:33"},{"task":"memory_phase","broad_category":"I","image_png":"I_Rhyolite_05.png","image_id":149,"category_name":"Rhyolite","category":10,"distinct_rating":3.02,"distinct_type":"Bottom","rt":null,"stimulus":"Stimuli_Rocks480/I_Rhyolite_05.png","response":null,"trial_type":"image-keyboard-response","trial_index":44,"plugin_version":"2.1.0","time_elapsed":382525,"subject_id":"86832","group":"Group2","full_date":"2025-12-03T00:44:33.778Z","date":"2025-12-03","time":"00:44:33"},{"rt":null,"stimulus":"<p style=\"font-size: 50px; margin: 0; text-align: center;\">+</p>","response":null,"trial_type":"html-keyboard-response","trial_index":45,"plugin_version":"2.1.0","time_elapsed":383531,"subject_id":"86832","group":"Group2","full_date":"2025-12-03T00:44:33.778Z","date":"2025-12-03","time":"00:44:33"},{"task":"memory_phase","broad_category":"S","image_png":"S_Sandstone_11.png","image_id":459,"category_name":"Sandstone","category":29,"distinct_rating":1.82,"distinct_type":"Bottom","rt":null,"stimulus":"Stimuli_Rocks480/S_Sandstone_11.png","response":null,"trial_type":"image-keyboard-response","trial_index":46,"plugin_version":"2.1.0","time_elapsed":386041,"subject_id":"86832","group":"Group2","full_date":"2025-12-03T00:44:33.778Z","date":"2025-12-03","time":"00:44:33"},{"rt":null,"stimulus":"<p style=\"font-size: 50px; margin: 0; text-align: center;\">+</p>","response":null,"trial_type":"html-keyboard-response","trial_index":47,"plugin_version":"2.1.0","time_elapsed":387044,"subject_id":"86832","group":"Group2","full_date":"2025-12-03T00:44:33.778Z","date":"2025-12-03","time":"00:44:33"},{"task":"memory_phase","broad_category":"I","image_png":"I_Pumice_01.png","image_id":129,"category_name":"Pumice","category":9,"distinct_rating":3.25,"distinct_type":"Bottom","rt":null,"stimulus":"Stimuli_Rocks480/I_Pumice_01.png","response":null,"trial_type":"image-keyboard-response","trial_index":48,"plugin_version":"2.1.0","time_elapsed":389552,"subject_id":"86832","group":"Group2","full_date":"2025-12-03T00:44:33.778Z","date":"2025-12-03","time":"00:44:33"},{"rt":null,"stimulus":"<p style=\"font-size: 50px; margin: 0; text-align: center;\">+</p>","response":null,"trial_type":"html-keyboard-response","trial_index":49,"plugin_version":"2.1.0","time_elapsed":390557,"subject_id":"86832","group":"Group2","full_date":"2025-12-03T00:44:33.778Z","date":"2025-12-03","time":"00:44:33"},{"task":"memory_phase","broad_category":"M","image_png":"M_Gneiss_15.png","image_id":207,"category_name":"Gneiss","category":13,"distinct_rating":3.11,"distinct_type":"Bottom","rt":null,"stimulus":"Stimuli_Rocks480/M_Gneiss_15.png","response":null,"trial_type":"image-keyboard-response","trial_index":50,"plugin_version":"2.1.0","time_elapsed":393061,"subject_id":"86832","group":"Group2","full_date":"2025-12-03T00:44:33.778Z","date":"2025-12-03","time":"00:44:33"},{"rt":null,"stimulus":"<p style=\"font-size: 50px; margin: 0; text-align: center;\">+</p>","response":null,"trial_type":"html-keyboard-response","trial_index":51,"plugin_version":"2.1.0","time_elapsed":394064,"subject_id":"86832","group":"Group2","full_date":"2025-12-03T00:44:33.778Z","date":"2025-12-03","time":"00:44:33"},{"task":"memory_phase","broad_category":"I","image_png":"I_Gabbro_12.png","image_id":60,"category_name":"Gabbro","category":4,"distinct_rating":2.6,"distinct_type":"Bottom","rt":null,"stimulus":"Stimuli_Rocks480/I_Gabbro_12.png","response":null,"trial_type":"image-keyboard-response","trial_index":52,"plugin_version":"2.1.0","time_elapsed":396568,"subject_id":"86832","group":"Group2","full_date":"2025-12-03T00:44:33.778Z","date":"2025-12-03","time":"00:44:33"},{"rt":null,"stimulus":"<p style=\"font-size: 50px; margin: 0; text-align: center;\">+</p>","response":null,"trial_type":"html-keyboard-response","trial_index":53,"plugin_version":"2.1.0","time_elapsed":397582,"subject_id":"86832","group":"Group2","full_date":"2025-12-03T00:44:33.778Z","date":"2025-12-03","time":"00:44:33"},{"task":"memory_phase","broad_category":"S","image_png":"S_Rock Salt_15.png","image_id":447,"category_name":"Rock Salt","category":28,"distinct_rating":7.79,"distinct_type":"Top","rt":null,"stimulus":"Stimuli_Rocks480/S_Rock Salt_15.png","response":null,"trial_type":"image-keyboard-response","trial_index":54,"plugin_version":"2.1.0","time_elapsed":400088,"subject_id":"86832","group":"Group2","full_date":"2025-12-03T00:44:33.778Z","date":"2025-12-03","time":"00:44:33"},{"rt":1499,"stimulus":"<p style=\"max-width: 760px; margin: auto; font-size: 35px; line-height: 1.5;\">Press SPACE to continue study phase</p>","response":" ","trial_type":"html-keyboard-response","trial_index":55,"plugin_version":"2.1.0","time_elapsed":401589,"subject_id":"86832","group":"Group2","full_date":"2025-12-03T00:44:33.778Z","date":"2025-12-03","time":"00:44:33"},{"rt":null,"stimulus":"<p style=\"font-size: 50px; margin: 0; text-align: center;\">+</p>","response":null,"trial_type":"html-keyboard-response","trial_index":56,"plugin_version":"2.1.0","time_elapsed":402593,"subject_id":"86832","group":"Group2","full_date":"2025-12-03T00:44:33.778Z","date":"2025-12-03","time":"00:44:33"},{"task":"memory_phase","broad_category":"S","image_png":"S_Conglomerate_14.png","image_id":382,"category_name":"Conglomerate","category":24,"distinct_rating":6.86,"distinct_type":"Top","rt":null,"stimulus":"Stimuli_Rocks480/S_Conglomerate_14.png","response":null,"trial_type":"image-keyboard-response","trial_index":57,"plugin_version":"2.1.0","time_elapsed":405106,"subject_id":"86832","group":"Group2","full_date":"2025-12-03T00:44:33.778Z","date":"2025-12-03","time":"00:44:33"},{"rt":null,"stimulus":"<p style=\"font-size: 50px; margin: 0; text-align: center;\">+</p>","response":null,"trial_type":"html-keyboard-response","trial_index":58,"plugin_version":"2.1.0","time_elapsed":406113,"subject_id":"86832","group":"Group2","full_date":"2025-12-03T00:44:33.778Z","date":"2025-12-03","time":"00:44:33"},{"task":"memory_phase","broad_category":"S","image_png":"S_Dolomite_16.png","image_id":400,"category_name":"Dolomite","category":25,"distinct_rating":1.71,"distinct_type":"Bottom","rt":null,"stimulus":"Stimuli_Rocks480/S_Dolomite_16.png","response":null,"trial_type":"image-keyboard-response","trial_index":59,"plugin_version":"2.1.0","time_elapsed":408631,"subject_id":"86832","group":"Group2","full_date":"2025-12-03T00:44:33.778Z","date":"2025-12-03","time":"00:44:33"},{"rt":null,"stimulus":"<p style=\"font-size: 50px; margin: 0; text-align: center;\">+</p>","response":null,"trial_type":"html-keyboard-response","trial_index":60,"plugin_version":"2.1.0","time_elapsed":409640,"subject_id":"86832","group":"Group2","full_date":"2025-12-03T00:44:33.778Z","date":"2025-12-03","time":"00:44:33"},{"task":"memory_phase","broad_category":"I","image_png":"I_Diorite_01.png","image_id":33,"category_name":"Diorite","category":3,"distinct_rating":2.97,"distinct_type":"Bottom","rt":null,"stimulus":"Stimuli_Rocks480/I_Diorite_01.png","response":null,"trial_type":"image-keyboard-response","trial_index":61,"plugin_version":"2.1.0","time_elapsed":412146,"subject_id":"86832","group":"Group2","full_date":"2025-12-03T00:44:33.778Z","date":"2025-12-03","time":"00:44:33"},{"rt":null,"stimulus":"<p style=\"font-size: 50px; margin: 0; text-align: center;\">+</p>","response":null,"trial_type":"html-keyboard-response","trial_index":62,"plugin_version":"2.1.0","time_elapsed":413154,"subject_id":"86832","group":"Group2","full_date":"2025-12-03T00:44:33.778Z","date":"2025-12-03","time":"00:44:33"},{"task":"memory_phase","broad_category":"M","image_png":"M_Phyllite_05.png","image_id":261,"category_name":"Phyllite","category":17,"distinct_rating":2.14,"distinct_type":"Bottom","rt":null,"stimulus":"Stimuli_Rocks480/M_Phyllite_05.png","response":null,"trial_type":"image-keyboard-response","trial_index":63,"plugin_version":"2.1.0","time_elapsed":415656,"subject_id":"86832","group":"Group2","full_date":"2025-12-03T00:44:33.778Z","date":"2025-12-03","time":"00:44:33"},{"rt":null,"stimulus":"<p style=\"font-size: 50px; margin: 0; text-align: center;\">+</p>","response":null,"trial_type":"html-keyboard-response","trial_index":64,"plugin_version":"2.1.0","time_elapsed":416665,"subject_id":"86832","group":"Group2","full_date":"2025-12-03T00:44:33.778Z","date":"2025-12-03","time":"00:44:33"},{"task":"memory_phase","broad_category":"I","image_png":"I_Rhyolite_10.png","image_id":154,"category_name":"Rhyolite","category":10,"distinct_rating":2.88,"distinct_type":"Bottom","rt":null,"stimulus":"Stimuli_Rocks480/I_Rhyolite_10.png","response":null,"trial_type":"image-keyboard-response","trial_index":65,"plugin_version":"2.1.0","time_elapsed":419172,"subject_id":"86832","group":"Group2","full_date":"2025-12-03T00:44:33.778Z","date":"2025-12-03","time":"00:44:33"},{"rt":null,"stimulus":"<p style=\"font-size: 50px; margin: 0; text-align: center;\">+</p>","response":null,"trial_type":"html-keyboard-response","trial_index":66,"plugin_version":"2.1.0","time_elapsed":420174,"subject_id":"86832","group":"Group2","full_date":"2025-12-03T00:44:33.778Z","date":"2025-12-03","time":"00:44:33"},{"task":"memory_phase","broad_category":"I","image_png":"I_Basalt_08.png","image_id":24,"category_name":"Basalt","category":2,"distinct_rating":2.31,"distinct_type":"Bottom","rt":null,"stimulus":"Stimuli_Rocks480/I_Basalt_08.png","response":null,"trial_type":"image-keyboard-response","trial_index":67,"plugin_version":"2.1.0","time_elapsed":422682,"subject_id":"86832","group":"Group2","full_date":"2025-12-03T00:44:33.778Z","date":"2025-12-03","time":"00:44:33"},{"rt":null,"stimulus":"<p style=\"font-size: 50px; margin: 0; text-align: center;\">+</p>","response":null,"trial_type":"html-keyboard-response","trial_index":68,"plugin_version":"2.1.0","time_elapsed":423694,"subject_id":"86832","group":"Group2","full_date":"2025-12-03T00:44:33.778Z","date":"2025-12-03","time":"00:44:33"},{"task":"memory_phase","broad_category":"M","image_png":"M_Gneiss_10.png","image_id":202,"category_name":"Gneiss","category":13,"distinct_rating":3.09,"distinct_type":"Bottom","rt":null,"stimulus":"Stimuli_Rocks480/M_Gneiss_10.png","response":null,"trial_type":"image-keyboard-response","trial_index":69,"plugin_version":"2.1.0","time_elapsed":426199,"subject_id":"86832","group":"Group2","full_date":"2025-12-03T00:44:33.778Z","date":"2025-12-03","time":"00:44:33"},{"rt":null,"stimulus":"<p style=\"font-size: 50px; margin: 0; text-align: center;\">+</p>","response":null,"trial_type":"html-keyboard-response","trial_index":70,"plugin_version":"2.1.0","time_elapsed":427203,"subject_id":"86832","group":"Group2","full_date":"2025-12-03T00:44:33.778Z","date":"2025-12-03","time":"00:44:33"},{"task":"memory_phase","broad_category":"M","image_png":"M_Slate_04.png","image_id":308,"category_name":"Slate","category":20,"distinct_rating":2.2,"distinct_type":"Bottom","rt":null,"stimulus":"Stimuli_Rocks480/M_Slate_04.png","response":null,"trial_type":"image-keyboard-response","trial_index":71,"plugin_version":"2.1.0","time_elapsed":429712,"subject_id":"86832","group":"Group2","full_date":"2025-12-03T00:44:33.778Z","date":"2025-12-03","time":"00:44:33"},{"rt":null,"stimulus":"<p style=\"font-size: 50px; margin: 0; text-align: center;\">+</p>","response":null,"trial_type":"html-keyboard-response","trial_index":72,"plugin_version":"2.1.0","time_elapsed":430719,"subject_id":"86832","group":"Group2","full_date":"2025-12-03T00:44:33.778Z","date":"2025-12-03","time":"00:44:33"},{"task":"memory_phase","broad_category":"I","image_png":"I_Diorite_10.png","image_id":42,"category_name":"Diorite","category":3,"distinct_rating":2.84,"distinct_type":"Bottom","rt":null,"stimulus":"Stimuli_Rocks480/I_Diorite_10.png","response":null,"trial_type":"image-keyboard-response","trial_index":73,"plugin_version":"2.1.0","time_elapsed":433233,"subject_id":"86832","group":"Group2","full_date":"2025-12-03T00:44:33.778Z","date":"2025-12-03","time":"00:44:33"},{"rt":null,"stimulus":"<p style=\"font-size: 50px; margin: 0; text-align: center;\">+</p>","response":null,"trial_type":"html-keyboard-response","trial_index":74,"plugin_version":"2.1.0","time_elapsed":434247,"subject_id":"86832","group":"Group2","full_date":"2025-12-03T00:44:33.778Z","date":"2025-12-03","time":"00:44:33"},{"task":"memory_phase","broad_category":"M","image_png":"M_Marble_02.png","image_id":226,"category_name":"Marble","category":15,"distinct_rating":3.2,"distinct_type":"Bottom","rt":null,"stimulus":"Stimuli_Rocks480/M_Marble_02.png","response":null,"trial_type":"image-keyboard-response","trial_index":75,"plugin_version":"2.1.0","time_elapsed":436750,"subject_id":"86832","group":"Group2","full_date":"2025-12-03T00:44:33.778Z","date":"2025-12-03","time":"00:44:33"},{"rt":null,"stimulus":"<p style=\"font-size: 50px; margin: 0; text-align: center;\">+</p>","response":null,"trial_type":"html-keyboard-response","trial_index":76,"plugin_version":"2.1.0","time_elapsed":437762,"subject_id":"86832","group":"Group2","full_date":"2025-12-03T00:44:33.778Z","date":"2025-12-03","time":"00:44:33"},{"task":"memory_phase","broad_category":"M","image_png":"M_Phyllite_13.png","image_id":269,"category_name":"Phyllite","category":17,"distinct_rating":2.8,"distinct_type":"Bottom","rt":null,"stimulus":"Stimuli_Rocks480/M_Phyllite_13.png","response":null,"trial_type":"image-keyboard-response","trial_index":77,"plugin_version":"2.1.0","time_elapsed":440275,"subject_id":"86832","group":"Group2","full_date":"2025-12-03T00:44:33.778Z","date":"2025-12-03","time":"00:44:33"},{"rt":null,"stimulus":"<p style=\"font-size: 50px; margin: 0; text-align: center;\">+</p>","response":null,"trial_type":"html-keyboard-response","trial_index":78,"plugin_version":"2.1.0","time_elapsed":441288,"subject_id":"86832","group":"Group2","full_date":"2025-12-03T00:44:33.778Z","date":"2025-12-03","time":"00:44:33"},{"task":"memory_phase","broad_category":"M","image_png":"M_Phyllite_02.png","image_id":258,"category_name":"Phyllite","category":17,"distinct_rating":2.89,"distinct_type":"Bottom","rt":null,"stimulus":"Stimuli_Rocks480/M_Phyllite_02.png","response":null,"trial_type":"image-keyboard-response","trial_index":79,"plugin_version":"2.1.0","time_elapsed":443805,"subject_id":"86832","group":"Group2","full_date":"2025-12-03T00:44:33.778Z","date":"2025-12-03","time":"00:44:33"},{"rt":null,"stimulus":"<p style=\"font-size: 50px; margin: 0; text-align: center;\">+</p>","response":null,"trial_type":"html-keyboard-response","trial_index":80,"plugin_version":"2.1.0","time_elapsed":444810,"subject_id":"86832","group":"Group2","full_date":"2025-12-03T00:44:33.778Z","date":"2025-12-03","time":"00:44:33"},{"task":"memory_phase","broad_category":"M","image_png":"M_Slate_10.png","image_id":314,"category_name":"Slate","category":20,"distinct_rating":1.94,"distinct_type":"Bottom","rt":null,"stimulus":"Stimuli_Rocks480/M_Slate_10.png","response":null,"trial_type":"image-keyboard-response","trial_index":81,"plugin_version":"2.1.0","time_elapsed":447319,"subject_id":"86832","group":"Group2","full_date":"2025-12-03T00:44:33.778Z","date":"2025-12-03","time":"00:44:33"},{"rt":null,"stimulus":"<p style=\"font-size: 50px; margin: 0; text-align: center;\">+</p>","response":null,"trial_type":"html-keyboard-response","trial_index":82,"plugin_version":"2.1.0","time_elapsed":448321,"subject_id":"86832","group":"Group2","full_date":"2025-12-03T00:44:33.778Z","date":"2025-12-03","time":"00:44:33"},{"task":"memory_phase","broad_category":"S","image_png":"S_Sandstone_04.png","image_id":452,"category_name":"Sandstone","category":29,"distinct_rating":1.8,"distinct_type":"Bottom","rt":null,"stimulus":"Stimuli_Rocks480/S_Sandstone_04.png","response":null,"trial_type":"image-keyboard-response","trial_index":83,"plugin_version":"2.1.0","time_elapsed":450829,"subject_id":"86832","group":"Group2","full_date":"2025-12-03T00:44:33.778Z","date":"2025-12-03","time":"00:44:33"},{"rt":null,"stimulus":"<p style=\"font-size: 50px; margin: 0; text-align: center;\">+</p>","response":null,"trial_type":"html-keyboard-response","trial_index":84,"plugin_version":"2.1.0","time_elapsed":451838,"subject_id":"86832","group":"Group2","full_date":"2025-12-03T00:44:33.778Z","date":"2025-12-03","time":"00:44:33"},{"task":"memory_phase","broad_category":"I","image_png":"I_Obsidian_06.png","image_id":86,"category_name":"Obsidian","category":6,"distinct_rating":8.01,"distinct_type":"Top","rt":null,"stimulus":"Stimuli_Rocks480/I_Obsidian_06.png","response":null,"trial_type":"image-keyboard-response","trial_index":85,"plugin_version":"2.1.0","time_elapsed":454355,"subject_id":"86832","group":"Group2","full_date":"2025-12-03T00:44:33.778Z","date":"2025-12-03","time":"00:44:33"},{"rt":null,"stimulus":"<p style=\"font-size: 50px; margin: 0; text-align: center;\">+</p>","response":null,"trial_type":"html-keyboard-response","trial_index":86,"plugin_version":"2.1.0","time_elapsed":455360,"subject_id":"86832","group":"Group2","full_date":"2025-12-03T00:44:33.778Z","date":"2025-12-03","time":"00:44:33"},{"task":"memory_phase","broad_category":"M","image_png":"M_Quartzite_07.png","image_id":279,"category_name":"Quartzite","category":18,"distinct_rating":1.97,"distinct_type":"Bottom","rt":null,"stimulus":"Stimuli_Rocks480/M_Quartzite_07.png","response":null,"trial_type":"image-keyboard-response","trial_index":87,"plugin_version":"2.1.0","time_elapsed":457869,"subject_id":"86832","group":"Group2","full_date":"2025-12-03T00:44:33.778Z","date":"2025-12-03","time":"00:44:33"},{"rt":null,"stimulus":"<p style=\"font-size: 50px; margin: 0; text-align: center;\">+</p>","response":null,"trial_type":"html-keyboard-response","trial_index":88,"plugin_version":"2.1.0","time_elapsed":458874,"subject_id":"86832","group":"Group2","full_date":"2025-12-03T00:44:33.778Z","date":"2025-12-03","time":"00:44:33"},{"task":"memory_phase","broad_category":"S","image_png":"S_Chert_13.png","image_id":365,"category_name":"Chert","category":23,"distinct_rating":6.57,"distinct_type":"Top","rt":null,"stimulus":"Stimuli_Rocks480/S_Chert_13.png","response":null,"trial_type":"image-keyboard-response","trial_index":89,"plugin_version":"2.1.0","time_elapsed":461380,"subject_id":"86832","group":"Group2","full_date":"2025-12-03T00:44:33.778Z","date":"2025-12-03","time":"00:44:33"},{"rt":null,"stimulus":"<p style=\"font-size: 50px; margin: 0; text-align: center;\">+</p>","response":null,"trial_type":"html-keyboard-response","trial_index":90,"plugin_version":"2.1.0","time_elapsed":462384,"subject_id":"86832","group":"Group2","full_date":"2025-12-03T00:44:33.778Z","date":"2025-12-03","time":"00:44:33"},{"task":"memory_phase","broad_category":"I","image_png":"I_Gabbro_14.png","image_id":62,"category_name":"Gabbro","category":4,"distinct_rating":2.95,"distinct_type":"Bottom","rt":null,"stimulus":"Stimuli_Rocks480/I_Gabbro_14.png","response":null,"trial_type":"image-keyboard-response","trial_index":91,"plugin_version":"2.1.0","time_elapsed":464896,"subject_id":"86832","group":"Group2","full_date":"2025-12-03T00:44:33.778Z","date":"2025-12-03","time":"00:44:33"},{"rt":null,"stimulus":"<p style=\"font-size: 50px; margin: 0; text-align: center;\">+</p>","response":null,"trial_type":"html-keyboard-response","trial_index":92,"plugin_version":"2.1.0","time_elapsed":465902,"subject_id":"86832","group":"Group2","full_date":"2025-12-03T00:44:33.778Z","date":"2025-12-03","time":"00:44:33"},{"task":"memory_phase","broad_category":"I","image_png":"I_Pegmatite_03.png","image_id":99,"category_name":"Pegmatite","category":7,"distinct_rating":7.24,"distinct_type":"Top","rt":null,"stimulus":"Stimuli_Rocks480/I_Pegmatite_03.png","response":null,"trial_type":"image-keyboard-response","trial_index":93,"plugin_version":"2.1.0","time_elapsed":468414,"subject_id":"86832","group":"Group2","full_date":"2025-12-03T00:44:33.778Z","date":"2025-12-03","time":"00:44:33"},{"rt":null,"stimulus":"<p style=\"font-size: 50px; margin: 0; text-align: center;\">+</p>","response":null,"trial_type":"html-keyboard-response","trial_index":94,"plugin_version":"2.1.0","time_elapsed":469417,"subject_id":"86832","group":"Group2","full_date":"2025-12-03T00:44:33.778Z","date":"2025-12-03","time":"00:44:33"},{"task":"memory_phase","broad_category":"S","image_png":"S_Sandstone_08.png","image_id":456,"category_name":"Sandstone","category":29,"distinct_rating":1.5,"distinct_type":"Bottom","rt":null,"stimulus":"Stimuli_Rocks480/S_Sandstone_08.png","response":null,"trial_type":"image-keyboard-response","trial_index":95,"plugin_version":"2.1.0","time_elapsed":471927,"subject_id":"86832","group":"Group2","full_date":"2025-12-03T00:44:33.778Z","date":"2025-12-03","time":"00:44:33"},{"rt":null,"stimulus":"<p style=\"font-size: 50px; margin: 0; text-align: center;\">+</p>","response":null,"trial_type":"html-keyboard-response","trial_index":96,"plugin_version":"2.1.0","time_elapsed":472929,"subject_id":"86832","group":"Group2","full_date":"2025-12-03T00:44:33.778Z","date":"2025-12-03","time":"00:44:33"},{"task":"memory_phase","broad_category":"I","image_png":"I_Andesite_03.png","image_id":3,"category_name":"Andesite","category":1,"distinct_rating":3.17,"distinct_type":"Bottom","rt":null,"stimulus":"Stimuli_Rocks480/I_Andesite_03.png","response":null,"trial_type":"image-keyboard-response","trial_index":97,"plugin_version":"2.1.0","time_elapsed":475432,"subject_id":"86832","group":"Group2","full_date":"2025-12-03T00:44:33.778Z","date":"2025-12-03","time":"00:44:33"},{"rt":null,"stimulus":"<p style=\"font-size: 50px; margin: 0; text-align: center;\">+</p>","response":null,"trial_type":"html-keyboard-response","trial_index":98,"plugin_version":"2.1.0","time_elapsed":476435,"subject_id":"86832","group":"Group2","full_date":"2025-12-03T00:44:33.778Z","date":"2025-12-03","time":"00:44:33"},{"task":"memory_phase","broad_category":"I","image_png":"I_Basalt_10.png","image_id":26,"category_name":"Basalt","category":2,"distinct_rating":2.76,"distinct_type":"Bottom","rt":null,"stimulus":"Stimuli_Rocks480/I_Basalt_10.png","response":null,"trial_type":"image-keyboard-response","trial_index":99,"plugin_version":"2.1.0","time_elapsed":478943,"subject_id":"86832","group":"Group2","full_date":"2025-12-03T00:44:33.778Z","date":"2025-12-03","time":"00:44:33"},{"rt":null,"stimulus":"<p style=\"font-size: 50px; margin: 0; text-align: center;\">+</p>","response":null,"trial_type":"html-keyboard-response","trial_index":100,"plugin_version":"2.1.0","time_elapsed":479957,"subject_id":"86832","group":"Group2","full_date":"2025-12-03T00:44:33.778Z","date":"2025-12-03","time":"00:44:33"},{"task":"memory_phase","broad_category":"I","image_png":"I_Pegmatite_11.png","image_id":107,"category_name":"Pegmatite","category":7,"distinct_rating":7.11,"distinct_type":"Top","rt":null,"stimulus":"Stimuli_Rocks480/I_Pegmatite_11.png","response":null,"trial_type":"image-keyboard-response","trial_index":101,"plugin_version":"2.1.0","time_elapsed":482460,"subject_id":"86832","group":"Group2","full_date":"2025-12-03T00:44:33.778Z","date":"2025-12-03","time":"00:44:33"},{"rt":null,"stimulus":"<p style=\"font-size: 50px; margin: 0; text-align: center;\">+</p>","response":null,"trial_type":"html-keyboard-response","trial_index":102,"plugin_version":"2.1.0","time_elapsed":483469,"subject_id":"86832","group":"Group2","full_date":"2025-12-03T00:44:33.778Z","date":"2025-12-03","time":"00:44:33"},{"task":"memory_phase","broad_category":"I","image_png":"I_Gabbro_02.png","image_id":50,"category_name":"Gabbro","category":4,"distinct_rating":2.73,"distinct_type":"Bottom","rt":null,"stimulus":"Stimuli_Rocks480/I_Gabbro_02.png","response":null,"trial_type":"image-keyboard-response","trial_index":103,"plugin_version":"2.1.0","time_elapsed":485976,"subject_id":"86832","group":"Group2","full_date":"2025-12-03T00:44:33.778Z","date":"2025-12-03","time":"00:44:33"},{"rt":null,"stimulus":"<p style=\"font-size: 50px; margin: 0; text-align: center;\">+</p>","response":null,"trial_type":"html-keyboard-response","trial_index":104,"plugin_version":"2.1.0","time_elapsed":486983,"subject_id":"86832","group":"Group2","full_date":"2025-12-03T00:44:33.778Z","date":"2025-12-03","time":"00:44:33"},{"task":"memory_phase","broad_category":"I","image_png":"I_Pumice_14.png","image_id":142,"category_name":"Pumice","category":9,"distinct_rating":3.22,"distinct_type":"Bottom","rt":null,"stimulus":"Stimuli_Rocks480/I_Pumice_14.png","response":null,"trial_type":"image-keyboard-response","trial_index":105,"plugin_version":"2.1.0","time_elapsed":489487,"subject_id":"86832","group":"Group2","full_date":"2025-12-03T00:44:33.778Z","date":"2025-12-03","time":"00:44:33"},{"rt":4071,"stimulus":"<p style=\"max-width: 760px; margin: auto; font-size: 35px; line-height: 1.5;\">You have completed 1 study phase. Now, we'll show you all the images again 2 more times.<br><br>Press SPACE to continue</p>","response":" ","trial_type":"html-keyboard-response","trial_index":106,"plugin_version":"2.1.0","time_elapsed":493559,"subject_id":"86832","group":"Group2","full_date":"2025-12-03T00:44:33.778Z","date":"2025-12-03","time":"00:44:33"},{"rt":null,"stimulus":"<p style=\"font-size: 50px; margin: 0; text-align: center;\">+</p>","response":null,"trial_type":"html-keyboard-response","trial_index":107,"plugin_version":"2.1.0","time_elapsed":494573,"subject_id":"86832","group":"Group2","full_date":"2025-12-03T00:44:33.778Z","date":"2025-12-03","time":"00:44:33"},{"task":"memory_phase","broad_category":"I","image_png":"I_Diorite_10.png","image_id":42,"category_name":"Diorite","category":3,"distinct_rating":2.84,"distinct_type":"Bottom","rt":null,"stimulus":"Stimuli_Rocks480/I_Diorite_10.png","response":null,"trial_type":"image-keyboard-response","trial_index":108,"plugin_version":"2.1.0","time_elapsed":497080,"subject_id":"86832","group":"Group2","full_date":"2025-12-03T00:44:33.778Z","date":"2025-12-03","time":"00:44:33"},{"rt":null,"stimulus":"<p style=\"font-size: 50px; margin: 0; text-align: center;\">+</p>","response":null,"trial_type":"html-keyboard-response","trial_index":109,"plugin_version":"2.1.0","time_elapsed":498086,"subject_id":"86832","group":"Group2","full_date":"2025-12-03T00:44:33.778Z","date":"2025-12-03","time":"00:44:33"},{"task":"memory_phase","broad_category":"I","image_png":"I_Obsidian_06.png","image_id":86,"category_name":"Obsidian","category":6,"distinct_rating":8.01,"distinct_type":"Top","rt":null,"stimulus":"Stimuli_Rocks480/I_Obsidian_06.png","response":null,"trial_type":"image-keyboard-response","trial_index":110,"plugin_version":"2.1.0","time_elapsed":500592,"subject_id":"86832","group":"Group2","full_date":"2025-12-03T00:44:33.778Z","date":"2025-12-03","time":"00:44:33"},{"rt":null,"stimulus":"<p style=\"font-size: 50px; margin: 0; text-align: center;\">+</p>","response":null,"trial_type":"html-keyboard-response","trial_index":111,"plugin_version":"2.1.0","time_elapsed":501598,"subject_id":"86832","group":"Group2","full_date":"2025-12-03T00:44:33.778Z","date":"2025-12-03","time":"00:44:33"},{"task":"memory_phase","broad_category":"S","image_png":"S_Sandstone_11.png","image_id":459,"category_name":"Sandstone","category":29,"distinct_rating":1.82,"distinct_type":"Bottom","rt":null,"stimulus":"Stimuli_Rocks480/S_Sandstone_11.png","response":null,"trial_type":"image-keyboard-response","trial_index":112,"plugin_version":"2.1.0","time_elapsed":504104,"subject_id":"86832","group":"Group2","full_date":"2025-12-03T00:44:33.778Z","date":"2025-12-03","time":"00:44:33"},{"rt":null,"stimulus":"<p style=\"font-size: 50px; margin: 0; text-align: center;\">+</p>","response":null,"trial_type":"html-keyboard-response","trial_index":113,"plugin_version":"2.1.0","time_elapsed":505116,"subject_id":"86832","group":"Group2","full_date":"2025-12-03T00:44:33.778Z","date":"2025-12-03","time":"00:44:33"},{"task":"memory_phase","broad_category":"M","image_png":"M_Marble_03.png","image_id":227,"category_name":"Marble","category":15,"distinct_rating":2.67,"distinct_type":"Bottom","rt":null,"stimulus":"Stimuli_Rocks480/M_Marble_03.png","response":null,"trial_type":"image-keyboard-response","trial_index":114,"plugin_version":"2.1.0","time_elapsed":507633,"subject_id":"86832","group":"Group2","full_date":"2025-12-03T00:44:33.778Z","date":"2025-12-03","time":"00:44:33"},{"rt":null,"stimulus":"<p style=\"font-size: 50px; margin: 0; text-align: center;\">+</p>","response":null,"trial_type":"html-keyboard-response","trial_index":115,"plugin_version":"2.1.0","time_elapsed":508638,"subject_id":"86832","group":"Group2","full_date":"2025-12-03T00:44:33.778Z","date":"2025-12-03","time":"00:44:33"},{"task":"memory_phase","broad_category":"S","image_png":"S_Dolomite_07.png","image_id":391,"category_name":"Dolomite","category":25,"distinct_rating":1.73,"distinct_type":"Bottom","rt":null,"stimulus":"Stimuli_Rocks480/S_Dolomite_07.png","response":null,"trial_type":"image-keyboard-response","trial_index":116,"plugin_version":"2.1.0","time_elapsed":511151,"subject_id":"86832","group":"Group2","full_date":"2025-12-03T00:44:33.778Z","date":"2025-12-03","time":"00:44:33"},{"rt":null,"stimulus":"<p style=\"font-size: 50px; margin: 0; text-align: center;\">+</p>","response":null,"trial_type":"html-keyboard-response","trial_index":117,"plugin_version":"2.1.0","time_elapsed":512165,"subject_id":"86832","group":"Group2","full_date":"2025-12-03T00:44:33.778Z","date":"2025-12-03","time":"00:44:33"},{"task":"memory_phase","broad_category":"I","image_png":"I_Pegmatite_11.png","image_id":107,"category_name":"Pegmatite","category":7,"distinct_rating":7.11,"distinct_type":"Top","rt":null,"stimulus":"Stimuli_Rocks480/I_Pegmatite_11.png","response":null,"trial_type":"image-keyboard-response","trial_index":118,"plugin_version":"2.1.0","time_elapsed":514678,"subject_id":"86832","group":"Group2","full_date":"2025-12-03T00:44:33.778Z","date":"2025-12-03","time":"00:44:33"},{"rt":null,"stimulus":"<p style=\"font-size: 50px; margin: 0; text-align: center;\">+</p>","response":null,"trial_type":"html-keyboard-response","trial_index":119,"plugin_version":"2.1.0","time_elapsed":515683,"subject_id":"86832","group":"Group2","full_date":"2025-12-03T00:44:33.778Z","date":"2025-12-03","time":"00:44:33"},{"task":"memory_phase","broad_category":"M","image_png":"M_Phyllite_05.png","image_id":261,"category_name":"Phyllite","category":17,"distinct_rating":2.14,"distinct_type":"Bottom","rt":null,"stimulus":"Stimuli_Rocks480/M_Phyllite_05.png","response":null,"trial_type":"image-keyboard-response","trial_index":120,"plugin_version":"2.1.0","time_elapsed":518185,"subject_id":"86832","group":"Group2","full_date":"2025-12-03T00:44:33.778Z","date":"2025-12-03","time":"00:44:33"},{"rt":null,"stimulus":"<p style=\"font-size: 50px; margin: 0; text-align: center;\">+</p>","response":null,"trial_type":"html-keyboard-response","trial_index":121,"plugin_version":"2.1.0","time_elapsed":519197,"subject_id":"86832","group":"Group2","full_date":"2025-12-03T00:44:33.778Z","date":"2025-12-03","time":"00:44:33"},{"task":"memory_phase","broad_category":"M","image_png":"M_Slate_04.png","image_id":308,"category_name":"Slate","category":20,"distinct_rating":2.2,"distinct_type":"Bottom","rt":null,"stimulus":"Stimuli_Rocks480/M_Slate_04.png","response":null,"trial_type":"image-keyboard-response","trial_index":122,"plugin_version":"2.1.0","time_elapsed":521707,"subject_id":"86832","group":"Group2","full_date":"2025-12-03T00:44:33.778Z","date":"2025-12-03","time":"00:44:33"},{"rt":null,"stimulus":"<p style=\"font-size: 50px; margin: 0; text-align: center;\">+</p>","response":null,"trial_type":"html-keyboard-response","trial_index":123,"plugin_version":"2.1.0","time_elapsed":522712,"subject_id":"86832","group":"Group2","full_date":"2025-12-03T00:44:33.778Z","date":"2025-12-03","time":"00:44:33"},{"task":"memory_phase","broad_category":"S","image_png":"S_Rock Salt_13.png","image_id":445,"category_name":"Rock Salt","category":28,"distinct_rating":7.58,"distinct_type":"Top","rt":null,"stimulus":"Stimuli_Rocks480/S_Rock Salt_13.png","response":null,"trial_type":"image-keyboard-response","trial_index":124,"plugin_version":"2.1.0","time_elapsed":525227,"subject_id":"86832","group":"Group2","full_date":"2025-12-03T00:44:33.778Z","date":"2025-12-03","time":"00:44:33"},{"rt":null,"stimulus":"<p style=\"font-size: 50px; margin: 0; text-align: center;\">+</p>","response":null,"trial_type":"html-keyboard-response","trial_index":125,"plugin_version":"2.1.0","time_elapsed":526241,"subject_id":"86832","group":"Group2","full_date":"2025-12-03T00:44:33.778Z","date":"2025-12-03","time":"00:44:33"},{"task":"memory_phase","broad_category":"S","image_png":"S_Dolomite_01.png","image_id":385,"category_name":"Dolomite","category":25,"distinct_rating":1.43,"distinct_type":"Bottom","rt":null,"stimulus":"Stimuli_Rocks480/S_Dolomite_01.png","response":null,"trial_type":"image-keyboard-response","trial_index":126,"plugin_version":"2.1.0","time_elapsed":528749,"subject_id":"86832","group":"Group2","full_date":"2025-12-03T00:44:33.778Z","date":"2025-12-03","time":"00:44:33"},{"rt":null,"stimulus":"<p style=\"font-size: 50px; margin: 0; text-align: center;\">+</p>","response":null,"trial_type":"html-keyboard-response","trial_index":127,"plugin_version":"2.1.0","time_elapsed":529752,"subject_id":"86832","group":"Group2","full_date":"2025-12-03T00:44:33.778Z","date":"2025-12-03","time":"00:44:33"},{"task":"memory_phase","broad_category":"S","image_png":"S_Rock Salt_15.png","image_id":447,"category_name":"Rock Salt","category":28,"distinct_rating":7.79,"distinct_type":"Top","rt":null,"stimulus":"Stimuli_Rocks480/S_Rock Salt_15.png","response":null,"trial_type":"image-keyboard-response","trial_index":128,"plugin_version":"2.1.0","time_elapsed":532269,"subject_id":"86832","group":"Group2","full_date":"2025-12-03T00:44:33.778Z","date":"2025-12-03","time":"00:44:33"},{"rt":null,"stimulus":"<p style=\"font-size: 50px; margin: 0; text-align: center;\">+</p>","response":null,"trial_type":"html-keyboard-response","trial_index":129,"plugin_version":"2.1.0","time_elapsed":533272,"subject_id":"86832","group":"Group2","full_date":"2025-12-03T00:44:33.778Z","date":"2025-12-03","time":"00:44:33"},{"task":"memory_phase","broad_category":"I","image_png":"I_Rhyolite_10.png","image_id":154,"category_name":"Rhyolite","category":10,"distinct_rating":2.88,"distinct_type":"Bottom","rt":null,"stimulus":"Stimuli_Rocks480/I_Rhyolite_10.png","response":null,"trial_type":"image-keyboard-response","trial_index":130,"plugin_version":"2.1.0","time_elapsed":535777,"subject_id":"86832","group":"Group2","full_date":"2025-12-03T00:44:33.778Z","date":"2025-12-03","time":"00:44:33"},{"rt":null,"stimulus":"<p style=\"font-size: 50px; margin: 0; text-align: center;\">+</p>","response":null,"trial_type":"html-keyboard-response","trial_index":131,"plugin_version":"2.1.0","time_elapsed":536780,"subject_id":"86832","group":"Group2","full_date":"2025-12-03T00:44:33.778Z","date":"2025-12-03","time":"00:44:33"},{"task":"memory_phase","broad_category":"S","image_png":"S_Shale_02.png","image_id":466,"category_name":"Shale","category":30,"distinct_rating":2.9,"distinct_type":"Bottom","rt":null,"stimulus":"Stimuli_Rocks480/S_Shale_02.png","response":null,"trial_type":"image-keyboard-response","trial_index":132,"plugin_version":"2.1.0","time_elapsed":539283,"subject_id":"86832","group":"Group2","full_date":"2025-12-03T00:44:33.778Z","date":"2025-12-03","time":"00:44:33"},{"rt":null,"stimulus":"<p style=\"font-size: 50px; margin: 0; text-align: center;\">+</p>","response":null,"trial_type":"html-keyboard-response","trial_index":133,"plugin_version":"2.1.0","time_elapsed":540294,"subject_id":"86832","group":"Group2","full_date":"2025-12-03T00:44:33.778Z","date":"2025-12-03","time":"00:44:33"},{"task":"memory_phase","broad_category":"S","image_png":"S_Shale_07.png","image_id":471,"category_name":"Shale","category":30,"distinct_rating":2.73,"distinct_type":"Bottom","rt":null,"stimulus":"Stimuli_Rocks480/S_Shale_07.png","response":null,"trial_type":"image-keyboard-response","trial_index":134,"plugin_version":"2.1.0","time_elapsed":542811,"subject_id":"86832","group":"Group2","full_date":"2025-12-03T00:44:33.778Z","date":"2025-12-03","time":"00:44:33"},{"rt":null,"stimulus":"<p style=\"font-size: 50px; margin: 0; text-align: center;\">+</p>","response":null,"trial_type":"html-keyboard-response","trial_index":135,"plugin_version":"2.1.0","time_elapsed":543815,"subject_id":"86832","group":"Group2","full_date":"2025-12-03T00:44:33.778Z","date":"2025-12-03","time":"00:44:33"},{"task":"memory_phase","broad_category":"I","image_png":"I_Gabbro_12.png","image_id":60,"category_name":"Gabbro","category":4,"distinct_rating":2.6,"distinct_type":"Bottom","rt":null,"stimulus":"Stimuli_Rocks480/I_Gabbro_12.png","response":null,"trial_type":"image-keyboard-response","trial_index":136,"plugin_version":"2.1.0","time_elapsed":546322,"subject_id":"86832","group":"Group2","full_date":"2025-12-03T00:44:33.778Z","date":"2025-12-03","time":"00:44:33"},{"rt":null,"stimulus":"<p style=\"font-size: 50px; margin: 0; text-align: center;\">+</p>","response":null,"trial_type":"html-keyboard-response","trial_index":137,"plugin_version":"2.1.0","time_elapsed":547338,"subject_id":"86832","group":"Group2","full_date":"2025-12-03T00:44:33.778Z","date":"2025-12-03","time":"00:44:33"},{"task":"memory_phase","broad_category":"I","image_png":"I_Pegmatite_03.png","image_id":99,"category_name":"Pegmatite","category":7,"distinct_rating":7.24,"distinct_type":"Top","rt":null,"stimulus":"Stimuli_Rocks480/I_Pegmatite_03.png","response":null,"trial_type":"image-keyboard-response","trial_index":138,"plugin_version":"2.1.0","time_elapsed":549846,"subject_id":"86832","group":"Group2","full_date":"2025-12-03T00:44:33.778Z","date":"2025-12-03","time":"00:44:33"},{"rt":null,"stimulus":"<p style=\"font-size: 50px; margin: 0; text-align: center;\">+</p>","response":null,"trial_type":"html-keyboard-response","trial_index":139,"plugin_version":"2.1.0","time_elapsed":550849,"subject_id":"86832","group":"Group2","full_date":"2025-12-03T00:44:33.778Z","date":"2025-12-03","time":"00:44:33"},{"task":"memory_phase","broad_category":"M","image_png":"M_Slate_10.png","image_id":314,"category_name":"Slate","category":20,"distinct_rating":1.94,"distinct_type":"Bottom","rt":null,"stimulus":"Stimuli_Rocks480/M_Slate_10.png","response":null,"trial_type":"image-keyboard-response","trial_index":140,"plugin_version":"2.1.0","time_elapsed":553352,"subject_id":"86832","group":"Group2","full_date":"2025-12-03T00:44:33.778Z","date":"2025-12-03","time":"00:44:33"},{"rt":null,"stimulus":"<p style=\"font-size: 50px; margin: 0; text-align: center;\">+</p>","response":null,"trial_type":"html-keyboard-response","trial_index":141,"plugin_version":"2.1.0","time_elapsed":554364,"subject_id":"86832","group":"Group2","full_date":"2025-12-03T00:44:33.778Z","date":"2025-12-03","time":"00:44:33"},{"task":"memory_phase","broad_category":"I","image_png":"I_Basalt_10.png","image_id":26,"category_name":"Basalt","category":2,"distinct_rating":2.76,"distinct_type":"Bottom","rt":null,"stimulus":"Stimuli_Rocks480/I_Basalt_10.png","response":null,"trial_type":"image-keyboard-response","trial_index":142,"plugin_version":"2.1.0","time_elapsed":556872,"subject_id":"86832","group":"Group2","full_date":"2025-12-03T00:44:33.778Z","date":"2025-12-03","time":"00:44:33"},{"rt":null,"stimulus":"<p style=\"font-size: 50px; margin: 0; text-align: center;\">+</p>","response":null,"trial_type":"html-keyboard-response","trial_index":143,"plugin_version":"2.1.0","time_elapsed":557879,"subject_id":"86832","group":"Group2","full_date":"2025-12-03T00:44:33.778Z","date":"2025-12-03","time":"00:44:33"},{"task":"memory_phase","broad_category":"M","image_png":"M_Marble_14.png","image_id":238,"category_name":"Marble","category":15,"distinct_rating":3.31,"distinct_type":"Bottom","rt":null,"stimulus":"Stimuli_Rocks480/M_Marble_14.png","response":null,"trial_type":"image-keyboard-response","trial_index":144,"plugin_version":"2.1.0","time_elapsed":560388,"subject_id":"86832","group":"Group2","full_date":"2025-12-03T00:44:33.778Z","date":"2025-12-03","time":"00:44:33"},{"rt":null,"stimulus":"<p style=\"font-size: 50px; margin: 0; text-align: center;\">+</p>","response":null,"trial_type":"html-keyboard-response","trial_index":145,"plugin_version":"2.1.0","time_elapsed":561402,"subject_id":"86832","group":"Group2","full_date":"2025-12-03T00:44:33.778Z","date":"2025-12-03","time":"00:44:33"},{"task":"memory_phase","broad_category":"S","image_png":"S_Conglomerate_14.png","image_id":382,"category_name":"Conglomerate","category":24,"distinct_rating":6.86,"distinct_type":"Top","rt":null,"stimulus":"Stimuli_Rocks480/S_Conglomerate_14.png","response":null,"trial_type":"image-keyboard-response","trial_index":146,"plugin_version":"2.1.0","time_elapsed":563917,"subject_id":"86832","group":"Group2","full_date":"2025-12-03T00:44:33.778Z","date":"2025-12-03","time":"00:44:33"},{"rt":null,"stimulus":"<p style=\"font-size: 50px; margin: 0; text-align: center;\">+</p>","response":null,"trial_type":"html-keyboard-response","trial_index":147,"plugin_version":"2.1.0","time_elapsed":564922,"subject_id":"86832","group":"Group2","full_date":"2025-12-03T00:44:33.778Z","date":"2025-12-03","time":"00:44:33"},{"task":"memory_phase","broad_category":"M","image_png":"M_Marble_02.png","image_id":226,"category_name":"Marble","category":15,"distinct_rating":3.2,"distinct_type":"Bottom","rt":null,"stimulus":"Stimuli_Rocks480/M_Marble_02.png","response":null,"trial_type":"image-keyboard-response","trial_index":148,"plugin_version":"2.1.0","time_elapsed":567429,"subject_id":"86832","group":"Group2","full_date":"2025-12-03T00:44:33.778Z","date":"2025-12-03","time":"00:44:33"},{"rt":null,"stimulus":"<p style=\"font-size: 50px; margin: 0; text-align: center;\">+</p>","response":null,"trial_type":"html-keyboard-response","trial_index":149,"plugin_version":"2.1.0","time_elapsed":568434,"subject_id":"86832","group":"Group2","full_date":"2025-12-03T00:44:33.778Z","date":"2025-12-03","time":"00:44:33"},{"task":"memory_phase","broad_category":"I","image_png":"I_Peridotite_13.png","image_id":125,"category_name":"Peridotite","category":8,"distinct_rating":7.28,"distinct_type":"Top","rt":null,"stimulus":"Stimuli_Rocks480/I_Peridotite_13.png","response":null,"trial_type":"image-keyboard-response","trial_index":150,"plugin_version":"2.1.0","time_elapsed":570943,"subject_id":"86832","group":"Group2","full_date":"2025-12-03T00:44:33.778Z","date":"2025-12-03","time":"00:44:33"},{"rt":null,"stimulus":"<p style=\"font-size: 50px; margin: 0; text-align: center;\">+</p>","response":null,"trial_type":"html-keyboard-response","trial_index":151,"plugin_version":"2.1.0","time_elapsed":571957,"subject_id":"86832","group":"Group2","full_date":"2025-12-03T00:44:33.778Z","date":"2025-12-03","time":"00:44:33"},{"task":"memory_phase","broad_category":"I","image_png":"I_Pumice_01.png","image_id":129,"category_name":"Pumice","category":9,"distinct_rating":3.25,"distinct_type":"Bottom","rt":null,"stimulus":"Stimuli_Rocks480/I_Pumice_01.png","response":null,"trial_type":"image-keyboard-response","trial_index":152,"plugin_version":"2.1.0","time_elapsed":574471,"subject_id":"86832","group":"Group2","full_date":"2025-12-03T00:44:33.778Z","date":"2025-12-03","time":"00:44:33"},{"rt":null,"stimulus":"<p style=\"font-size: 50px; margin: 0; text-align: center;\">+</p>","response":null,"trial_type":"html-keyboard-response","trial_index":153,"plugin_version":"2.1.0","time_elapsed":575480,"subject_id":"86832","group":"Group2","full_date":"2025-12-03T00:44:33.778Z","date":"2025-12-03","time":"00:44:33"},{"task":"memory_phase","broad_category":"M","image_png":"M_Phyllite_02.png","image_id":258,"category_name":"Phyllite","category":17,"distinct_rating":2.89,"distinct_type":"Bottom","rt":null,"stimulus":"Stimuli_Rocks480/M_Phyllite_02.png","response":null,"trial_type":"image-keyboard-response","trial_index":154,"plugin_version":"2.1.0","time_elapsed":577994,"subject_id":"86832","group":"Group2","full_date":"2025-12-03T00:44:33.778Z","date":"2025-12-03","time":"00:44:33"},{"rt":null,"stimulus":"<p style=\"font-size: 50px; margin: 0; text-align: center;\">+</p>","response":null,"trial_type":"html-keyboard-response","trial_index":155,"plugin_version":"2.1.0","time_elapsed":579005,"subject_id":"86832","group":"Group2","full_date":"2025-12-03T00:44:33.778Z","date":"2025-12-03","time":"00:44:33"},{"task":"memory_phase","broad_category":"I","image_png":"I_Diorite_01.png","image_id":33,"category_name":"Diorite","category":3,"distinct_rating":2.97,"distinct_type":"Bottom","rt":null,"stimulus":"Stimuli_Rocks480/I_Diorite_01.png","response":null,"trial_type":"image-keyboard-response","trial_index":156,"plugin_version":"2.1.0","time_elapsed":581513,"subject_id":"86832","group":"Group2","full_date":"2025-12-03T00:44:33.778Z","date":"2025-12-03","time":"00:44:33"},{"rt":1667,"stimulus":"<p style=\"max-width: 760px; margin: auto; font-size: 35px; line-height: 1.5;\">Press SPACE to continue study phase</p>","response":" ","trial_type":"html-keyboard-response","trial_index":157,"plugin_version":"2.1.0","time_elapsed":583181,"subject_id":"86832","group":"Group2","full_date":"2025-12-03T00:44:33.778Z","date":"2025-12-03","time":"00:44:33"},{"rt":null,"stimulus":"<p style=\"font-size: 50px; margin: 0; text-align: center;\">+</p>","response":null,"trial_type":"html-keyboard-response","trial_index":158,"plugin_version":"2.1.0","time_elapsed":584186,"subject_id":"86832","group":"Group2","full_date":"2025-12-03T00:44:33.778Z","date":"2025-12-03","time":"00:44:33"},{"task":"memory_phase","broad_category":"M","image_png":"M_Quartzite_15.png","image_id":287,"category_name":"Quartzite","category":18,"distinct_rating":2.19,"distinct_type":"Bottom","rt":null,"stimulus":"Stimuli_Rocks480/M_Quartzite_15.png","response":null,"trial_type":"image-keyboard-response","trial_index":159,"plugin_version":"2.1.0","time_elapsed":586693,"subject_id":"86832","group":"Group2","full_date":"2025-12-03T00:44:33.778Z","date":"2025-12-03","time":"00:44:33"},{"rt":null,"stimulus":"<p style=\"font-size: 50px; margin: 0; text-align: center;\">+</p>","response":null,"trial_type":"html-keyboard-response","trial_index":160,"plugin_version":"2.1.0","time_elapsed":587703,"subject_id":"86832","group":"Group2","full_date":"2025-12-03T00:44:33.778Z","date":"2025-12-03","time":"00:44:33"},{"task":"memory_phase","broad_category":"M","image_png":"M_Quartzite_12.png","image_id":284,"category_name":"Quartzite","category":18,"distinct_rating":1.92,"distinct_type":"Bottom","rt":null,"stimulus":"Stimuli_Rocks480/M_Quartzite_12.png","response":null,"trial_type":"image-keyboard-response","trial_index":161,"plugin_version":"2.1.0","time_elapsed":590207,"subject_id":"86832","group":"Group2","full_date":"2025-12-03T00:44:33.778Z","date":"2025-12-03","time":"00:44:33"},{"rt":null,"stimulus":"<p style=\"font-size: 50px; margin: 0; text-align: center;\">+</p>","response":null,"trial_type":"html-keyboard-response","trial_index":162,"plugin_version":"2.1.0","time_elapsed":591213,"subject_id":"86832","group":"Group2","full_date":"2025-12-03T00:44:33.778Z","date":"2025-12-03","time":"00:44:33"},{"task":"memory_phase","broad_category":"M","image_png":"M_Gneiss_14.png","image_id":206,"category_name":"Gneiss","category":13,"distinct_rating":3.41,"distinct_type":"Bottom","rt":null,"stimulus":"Stimuli_Rocks480/M_Gneiss_14.png","response":null,"trial_type":"image-keyboard-response","trial_index":163,"plugin_version":"2.1.0","time_elapsed":593722,"subject_id":"86832","group":"Group2","full_date":"2025-12-03T00:44:33.778Z","date":"2025-12-03","time":"00:44:33"},{"rt":null,"stimulus":"<p style=\"font-size: 50px; margin: 0; text-align: center;\">+</p>","response":null,"trial_type":"html-keyboard-response","trial_index":164,"plugin_version":"2.1.0","time_elapsed":594725,"subject_id":"86832","group":"Group2","full_date":"2025-12-03T00:44:33.778Z","date":"2025-12-03","time":"00:44:33"},{"task":"memory_phase","broad_category":"I","image_png":"I_Pumice_13.png","image_id":141,"category_name":"Pumice","category":9,"distinct_rating":3.12,"distinct_type":"Bottom","rt":null,"stimulus":"Stimuli_Rocks480/I_Pumice_13.png","response":null,"trial_type":"image-keyboard-response","trial_index":165,"plugin_version":"2.1.0","time_elapsed":597229,"subject_id":"86832","group":"Group2","full_date":"2025-12-03T00:44:33.778Z","date":"2025-12-03","time":"00:44:33"},{"rt":null,"stimulus":"<p style=\"font-size: 50px; margin: 0; text-align: center;\">+</p>","response":null,"trial_type":"html-keyboard-response","trial_index":166,"plugin_version":"2.1.0","time_elapsed":598239,"subject_id":"86832","group":"Group2","full_date":"2025-12-03T00:44:33.778Z","date":"2025-12-03","time":"00:44:33"},{"task":"memory_phase","broad_category":"M","image_png":"M_Quartzite_07.png","image_id":279,"category_name":"Quartzite","category":18,"distinct_rating":1.97,"distinct_type":"Bottom","rt":null,"stimulus":"Stimuli_Rocks480/M_Quartzite_07.png","response":null,"trial_type":"image-keyboard-response","trial_index":167,"plugin_version":"2.1.0","time_elapsed":600746,"subject_id":"86832","group":"Group2","full_date":"2025-12-03T00:44:33.778Z","date":"2025-12-03","time":"00:44:33"},{"rt":null,"stimulus":"<p style=\"font-size: 50px; margin: 0; text-align: center;\">+</p>","response":null,"trial_type":"html-keyboard-response","trial_index":168,"plugin_version":"2.1.0","time_elapsed":601752,"subject_id":"86832","group":"Group2","full_date":"2025-12-03T00:44:33.778Z","date":"2025-12-03","time":"00:44:33"},{"task":"memory_phase","broad_category":"I","image_png":"I_Gabbro_14.png","image_id":62,"category_name":"Gabbro","category":4,"distinct_rating":2.95,"distinct_type":"Bottom","rt":null,"stimulus":"Stimuli_Rocks480/I_Gabbro_14.png","response":null,"trial_type":"image-keyboard-response","trial_index":169,"plugin_version":"2.1.0","time_elapsed":604262,"subject_id":"86832","group":"Group2","full_date":"2025-12-03T00:44:33.778Z","date":"2025-12-03","time":"00:44:33"},{"rt":null,"stimulus":"<p style=\"font-size: 50px; margin: 0; text-align: center;\">+</p>","response":null,"trial_type":"html-keyboard-response","trial_index":170,"plugin_version":"2.1.0","time_elapsed":605277,"subject_id":"86832","group":"Group2","full_date":"2025-12-03T00:44:33.778Z","date":"2025-12-03","time":"00:44:33"},{"task":"memory_phase","broad_category":"I","image_png":"I_Andesite_03.png","image_id":3,"category_name":"Andesite","category":1,"distinct_rating":3.17,"distinct_type":"Bottom","rt":null,"stimulus":"Stimuli_Rocks480/I_Andesite_03.png","response":null,"trial_type":"image-keyboard-response","trial_index":171,"plugin_version":"2.1.0","time_elapsed":607789,"subject_id":"86832","group":"Group2","full_date":"2025-12-03T00:44:33.778Z","date":"2025-12-03","time":"00:44:33"},{"rt":null,"stimulus":"<p style=\"font-size: 50px; margin: 0; text-align: center;\">+</p>","response":null,"trial_type":"html-keyboard-response","trial_index":172,"plugin_version":"2.1.0","time_elapsed":608799,"subject_id":"86832","group":"Group2","full_date":"2025-12-03T00:44:33.778Z","date":"2025-12-03","time":"00:44:33"},{"task":"memory_phase","broad_category":"I","image_png":"I_Gabbro_02.png","image_id":50,"category_name":"Gabbro","category":4,"distinct_rating":2.73,"distinct_type":"Bottom","rt":null,"stimulus":"Stimuli_Rocks480/I_Gabbro_02.png","response":null,"trial_type":"image-keyboard-response","trial_index":173,"plugin_version":"2.1.0","time_elapsed":611306,"subject_id":"86832","group":"Group2","full_date":"2025-12-03T00:44:33.778Z","date":"2025-12-03","time":"00:44:33"},{"rt":null,"stimulus":"<p style=\"font-size: 50px; margin: 0; text-align: center;\">+</p>","response":null,"trial_type":"html-keyboard-response","trial_index":174,"plugin_version":"2.1.0","time_elapsed":612309,"subject_id":"86832","group":"Group2","full_date":"2025-12-03T00:44:33.778Z","date":"2025-12-03","time":"00:44:33"},{"task":"memory_phase","broad_category":"I","image_png":"I_Rhyolite_05.png","image_id":149,"category_name":"Rhyolite","category":10,"distinct_rating":3.02,"distinct_type":"Bottom","rt":null,"stimulus":"Stimuli_Rocks480/I_Rhyolite_05.png","response":null,"trial_type":"image-keyboard-response","trial_index":175,"plugin_version":"2.1.0","time_elapsed":614814,"subject_id":"86832","group":"Group2","full_date":"2025-12-03T00:44:33.778Z","date":"2025-12-03","time":"00:44:33"},{"rt":null,"stimulus":"<p style=\"font-size: 50px; margin: 0; text-align: center;\">+</p>","response":null,"trial_type":"html-keyboard-response","trial_index":176,"plugin_version":"2.1.0","time_elapsed":615817,"subject_id":"86832","group":"Group2","full_date":"2025-12-03T00:44:33.778Z","date":"2025-12-03","time":"00:44:33"},{"task":"memory_phase","broad_category":"S","image_png":"S_Chert_13.png","image_id":365,"category_name":"Chert","category":23,"distinct_rating":6.57,"distinct_type":"Top","rt":null,"stimulus":"Stimuli_Rocks480/S_Chert_13.png","response":null,"trial_type":"image-keyboard-response","trial_index":177,"plugin_version":"2.1.0","time_elapsed":618330,"subject_id":"86832","group":"Group2","full_date":"2025-12-03T00:44:33.778Z","date":"2025-12-03","time":"00:44:33"},{"rt":null,"stimulus":"<p style=\"font-size: 50px; margin: 0; text-align: center;\">+</p>","response":null,"trial_type":"html-keyboard-response","trial_index":178,"plugin_version":"2.1.0","time_elapsed":619334,"subject_id":"86832","group":"Group2","full_date":"2025-12-03T00:44:33.778Z","date":"2025-12-03","time":"00:44:33"},{"task":"memory_phase","broad_category":"S","image_png":"S_Sandstone_08.png","image_id":456,"category_name":"Sandstone","category":29,"distinct_rating":1.5,"distinct_type":"Bottom","rt":null,"stimulus":"Stimuli_Rocks480/S_Sandstone_08.png","response":null,"trial_type":"image-keyboard-response","trial_index":179,"plugin_version":"2.1.0","time_elapsed":621843,"subject_id":"86832","group":"Group2","full_date":"2025-12-03T00:44:33.778Z","date":"2025-12-03","time":"00:44:33"},{"rt":null,"stimulus":"<p style=\"font-size: 50px; margin: 0; text-align: center;\">+</p>","response":null,"trial_type":"html-keyboard-response","trial_index":180,"plugin_version":"2.1.0","time_elapsed":622847,"subject_id":"86832","group":"Group2","full_date":"2025-12-03T00:44:33.778Z","date":"2025-12-03","time":"00:44:33"},{"task":"memory_phase","broad_category":"M","image_png":"M_Gneiss_10.png","image_id":202,"category_name":"Gneiss","category":13,"distinct_rating":3.09,"distinct_type":"Bottom","rt":null,"stimulus":"Stimuli_Rocks480/M_Gneiss_10.png","response":null,"trial_type":"image-keyboard-response","trial_index":181,"plugin_version":"2.1.0","time_elapsed":625361,"subject_id":"86832","group":"Group2","full_date":"2025-12-03T00:44:33.778Z","date":"2025-12-03","time":"00:44:33"},{"rt":null,"stimulus":"<p style=\"font-size: 50px; margin: 0; text-align: center;\">+</p>","response":null,"trial_type":"html-keyboard-response","trial_index":182,"plugin_version":"2.1.0","time_elapsed":626377,"subject_id":"86832","group":"Group2","full_date":"2025-12-03T00:44:33.778Z","date":"2025-12-03","time":"00:44:33"},{"task":"memory_phase","broad_category":"S","image_png":"S_Dolomite_16.png","image_id":400,"category_name":"Dolomite","category":25,"distinct_rating":1.71,"distinct_type":"Bottom","rt":null,"stimulus":"Stimuli_Rocks480/S_Dolomite_16.png","response":null,"trial_type":"image-keyboard-response","trial_index":183,"plugin_version":"2.1.0","time_elapsed":628883,"subject_id":"86832","group":"Group2","full_date":"2025-12-03T00:44:33.778Z","date":"2025-12-03","time":"00:44:33"},{"rt":null,"stimulus":"<p style=\"font-size: 50px; margin: 0; text-align: center;\">+</p>","response":null,"trial_type":"html-keyboard-response","trial_index":184,"plugin_version":"2.1.0","time_elapsed":629892,"subject_id":"86832","group":"Group2","full_date":"2025-12-03T00:44:33.778Z","date":"2025-12-03","time":"00:44:33"},{"task":"memory_phase","broad_category":"S","image_png":"S_Shale_03.png","image_id":467,"category_name":"Shale","category":30,"distinct_rating":1.95,"distinct_type":"Bottom","rt":null,"stimulus":"Stimuli_Rocks480/S_Shale_03.png","response":null,"trial_type":"image-keyboard-response","trial_index":185,"plugin_version":"2.1.0","time_elapsed":632405,"subject_id":"86832","group":"Group2","full_date":"2025-12-03T00:44:33.778Z","date":"2025-12-03","time":"00:44:33"},{"rt":null,"stimulus":"<p style=\"font-size: 50px; margin: 0; text-align: center;\">+</p>","response":null,"trial_type":"html-keyboard-response","trial_index":186,"plugin_version":"2.1.0","time_elapsed":633416,"subject_id":"86832","group":"Group2","full_date":"2025-12-03T00:44:33.778Z","date":"2025-12-03","time":"00:44:33"},{"task":"memory_phase","broad_category":"M","image_png":"M_Phyllite_13.png","image_id":269,"category_name":"Phyllite","category":17,"distinct_rating":2.8,"distinct_type":"Bottom","rt":null,"stimulus":"Stimuli_Rocks480/M_Phyllite_13.png","response":null,"trial_type":"image-keyboard-response","trial_index":187,"plugin_version":"2.1.0","time_elapsed":635928,"subject_id":"86832","group":"Group2","full_date":"2025-12-03T00:44:33.778Z","date":"2025-12-03","time":"00:44:33"},{"rt":null,"stimulus":"<p style=\"font-size: 50px; margin: 0; text-align: center;\">+</p>","response":null,"trial_type":"html-keyboard-response","trial_index":188,"plugin_version":"2.1.0","time_elapsed":636935,"subject_id":"86832","group":"Group2","full_date":"2025-12-03T00:44:33.778Z","date":"2025-12-03","time":"00:44:33"},{"task":"memory_phase","broad_category":"I","image_png":"I_Andesite_09.png","image_id":9,"category_name":"Andesite","category":1,"distinct_rating":2.49,"distinct_type":"Bottom","rt":null,"stimulus":"Stimuli_Rocks480/I_Andesite_09.png","response":null,"trial_type":"image-keyboard-response","trial_index":189,"plugin_version":"2.1.0","time_elapsed":639450,"subject_id":"86832","group":"Group2","full_date":"2025-12-03T00:44:33.778Z","date":"2025-12-03","time":"00:44:33"},{"rt":null,"stimulus":"<p style=\"font-size: 50px; margin: 0; text-align: center;\">+</p>","response":null,"trial_type":"html-keyboard-response","trial_index":190,"plugin_version":"2.1.0","time_elapsed":640462,"subject_id":"86832","group":"Group2","full_date":"2025-12-03T00:44:33.778Z","date":"2025-12-03","time":"00:44:33"},{"task":"memory_phase","broad_category":"I","image_png":"I_Andesite_04.png","image_id":4,"category_name":"Andesite","category":1,"distinct_rating":3.18,"distinct_type":"Bottom","rt":null,"stimulus":"Stimuli_Rocks480/I_Andesite_04.png","response":null,"trial_type":"image-keyboard-response","trial_index":191,"plugin_version":"2.1.0","time_elapsed":642969,"subject_id":"86832","group":"Group2","full_date":"2025-12-03T00:44:33.778Z","date":"2025-12-03","time":"00:44:33"},{"rt":null,"stimulus":"<p style=\"font-size: 50px; margin: 0; text-align: center;\">+</p>","response":null,"trial_type":"html-keyboard-response","trial_index":192,"plugin_version":"2.1.0","time_elapsed":643980,"subject_id":"86832","group":"Group2","full_date":"2025-12-03T00:44:33.778Z","date":"2025-12-03","time":"00:44:33"},{"task":"memory_phase","broad_category":"I","image_png":"I_Diorite_15.png","image_id":47,"category_name":"Diorite","category":3,"distinct_rating":3.05,"distinct_type":"Bottom","rt":null,"stimulus":"Stimuli_Rocks480/I_Diorite_15.png","response":null,"trial_type":"image-keyboard-response","trial_index":193,"plugin_version":"2.1.0","time_elapsed":646484,"subject_id":"86832","group":"Group2","full_date":"2025-12-03T00:44:33.778Z","date":"2025-12-03","time":"00:44:33"},{"rt":null,"stimulus":"<p style=\"font-size: 50px; margin: 0; text-align: center;\">+</p>","response":null,"trial_type":"html-keyboard-response","trial_index":194,"plugin_version":"2.1.0","time_elapsed":647490,"subject_id":"86832","group":"Group2","full_date":"2025-12-03T00:44:33.778Z","date":"2025-12-03","time":"00:44:33"},{"task":"memory_phase","broad_category":"I","image_png":"I_Pumice_14.png","image_id":142,"category_name":"Pumice","category":9,"distinct_rating":3.22,"distinct_type":"Bottom","rt":null,"stimulus":"Stimuli_Rocks480/I_Pumice_14.png","response":null,"trial_type":"image-keyboard-response","trial_index":195,"plugin_version":"2.1.0","time_elapsed":649994,"subject_id":"86832","group":"Group2","full_date":"2025-12-03T00:44:33.778Z","date":"2025-12-03","time":"00:44:33"},{"rt":null,"stimulus":"<p style=\"font-size: 50px; margin: 0; text-align: center;\">+</p>","response":null,"trial_type":"html-keyboard-response","trial_index":196,"plugin_version":"2.1.0","time_elapsed":651004,"subject_id":"86832","group":"Group2","full_date":"2025-12-03T00:44:33.778Z","date":"2025-12-03","time":"00:44:33"},{"task":"memory_phase","broad_category":"I","image_png":"I_Rhyolite_08.png","image_id":152,"category_name":"Rhyolite","category":10,"distinct_rating":1.38,"distinct_type":"Bottom","rt":null,"stimulus":"Stimuli_Rocks480/I_Rhyolite_08.png","response":null,"trial_type":"image-keyboard-response","trial_index":197,"plugin_version":"2.1.0","time_elapsed":653509,"subject_id":"86832","group":"Group2","full_date":"2025-12-03T00:44:33.778Z","date":"2025-12-03","time":"00:44:33"},{"rt":null,"stimulus":"<p style=\"font-size: 50px; margin: 0; text-align: center;\">+</p>","response":null,"trial_type":"html-keyboard-response","trial_index":198,"plugin_version":"2.1.0","time_elapsed":654517,"subject_id":"86832","group":"Group2","full_date":"2025-12-03T00:44:33.778Z","date":"2025-12-03","time":"00:44:33"},{"task":"memory_phase","broad_category":"I","image_png":"I_Basalt_08.png","image_id":24,"category_name":"Basalt","category":2,"distinct_rating":2.31,"distinct_type":"Bottom","rt":null,"stimulus":"Stimuli_Rocks480/I_Basalt_08.png","response":null,"trial_type":"image-keyboard-response","trial_index":199,"plugin_version":"2.1.0","time_elapsed":657031,"subject_id":"86832","group":"Group2","full_date":"2025-12-03T00:44:33.778Z","date":"2025-12-03","time":"00:44:33"},{"rt":null,"stimulus":"<p style=\"font-size: 50px; margin: 0; text-align: center;\">+</p>","response":null,"trial_type":"html-keyboard-response","trial_index":200,"plugin_version":"2.1.0","time_elapsed":658044,"subject_id":"86832","group":"Group2","full_date":"2025-12-03T00:44:33.778Z","date":"2025-12-03","time":"00:44:33"},{"task":"memory_phase","broad_category":"M","image_png":"M_Gneiss_15.png","image_id":207,"category_name":"Gneiss","category":13,"distinct_rating":3.11,"distinct_type":"Bottom","rt":null,"stimulus":"Stimuli_Rocks480/M_Gneiss_15.png","response":null,"trial_type":"image-keyboard-response","trial_index":201,"plugin_version":"2.1.0","time_elapsed":660553,"subject_id":"86832","group":"Group2","full_date":"2025-12-03T00:44:33.778Z","date":"2025-12-03","time":"00:44:33"},{"rt":null,"stimulus":"<p style=\"font-size: 50px; margin: 0; text-align: center;\">+</p>","response":null,"trial_type":"html-keyboard-response","trial_index":202,"plugin_version":"2.1.0","time_elapsed":661558,"subject_id":"86832","group":"Group2","full_date":"2025-12-03T00:44:33.778Z","date":"2025-12-03","time":"00:44:33"},{"task":"memory_phase","broad_category":"S","image_png":"S_Sandstone_04.png","image_id":452,"category_name":"Sandstone","category":29,"distinct_rating":1.8,"distinct_type":"Bottom","rt":null,"stimulus":"Stimuli_Rocks480/S_Sandstone_04.png","response":null,"trial_type":"image-keyboard-response","trial_index":203,"plugin_version":"2.1.0","time_elapsed":664072,"subject_id":"86832","group":"Group2","full_date":"2025-12-03T00:44:33.778Z","date":"2025-12-03","time":"00:44:33"},{"rt":null,"stimulus":"<p style=\"font-size: 50px; margin: 0; text-align: center;\">+</p>","response":null,"trial_type":"html-keyboard-response","trial_index":204,"plugin_version":"2.1.0","time_elapsed":665089,"subject_id":"86832","group":"Group2","full_date":"2025-12-03T00:44:33.778Z","date":"2025-12-03","time":"00:44:33"},{"task":"memory_phase","broad_category":"M","image_png":"M_Slate_14.png","image_id":318,"category_name":"Slate","category":20,"distinct_rating":2.58,"distinct_type":"Bottom","rt":null,"stimulus":"Stimuli_Rocks480/M_Slate_14.png","response":null,"trial_type":"image-keyboard-response","trial_index":205,"plugin_version":"2.1.0","time_elapsed":667607,"subject_id":"86832","group":"Group2","full_date":"2025-12-03T00:44:33.778Z","date":"2025-12-03","time":"00:44:33"},{"rt":null,"stimulus":"<p style=\"font-size: 50px; margin: 0; text-align: center;\">+</p>","response":null,"trial_type":"html-keyboard-response","trial_index":206,"plugin_version":"2.1.0","time_elapsed":668623,"subject_id":"86832","group":"Group2","full_date":"2025-12-03T00:44:33.778Z","date":"2025-12-03","time":"00:44:33"},{"task":"memory_phase","broad_category":"I","image_png":"I_Basalt_13.png","image_id":29,"category_name":"Basalt","category":2,"distinct_rating":2.68,"distinct_type":"Bottom","rt":null,"stimulus":"Stimuli_Rocks480/I_Basalt_13.png","response":null,"trial_type":"image-keyboard-response","trial_index":207,"plugin_version":"2.1.0","time_elapsed":671132,"subject_id":"86832","group":"Group2","full_date":"2025-12-03T00:44:33.778Z","date":"2025-12-03","time":"00:44:33"},{"rt":775,"stimulus":"<p style=\"max-width: 760px; margin: auto; font-size: 35px; line-height: 1.5;\">You have completed 2 study phases. Now, we'll show you all the images again 1 more time.<br><br>Press SPACE to continue</p>","response":" ","trial_type":"html-keyboard-response","trial_index":208,"plugin_version":"2.1.0","time_elapsed":671907,"subject_id":"86832","group":"Group2","full_date":"2025-12-03T00:44:33.778Z","date":"2025-12-03","time":"00:44:33"},{"rt":null,"stimulus":"<p style=\"font-size: 50px; margin: 0; text-align: center;\">+</p>","response":null,"trial_type":"html-keyboard-response","trial_index":209,"plugin_version":"2.1.0","time_elapsed":672914,"subject_id":"86832","group":"Group2","full_date":"2025-12-03T00:44:33.778Z","date":"2025-12-03","time":"00:44:33"},{"task":"memory_phase","broad_category":"I","image_png":"I_Pegmatite_11.png","image_id":107,"category_name":"Pegmatite","category":7,"distinct_rating":7.11,"distinct_type":"Top","rt":null,"stimulus":"Stimuli_Rocks480/I_Pegmatite_11.png","response":null,"trial_type":"image-keyboard-response","trial_index":210,"plugin_version":"2.1.0","time_elapsed":675420,"subject_id":"86832","group":"Group2","full_date":"2025-12-03T00:44:33.778Z","date":"2025-12-03","time":"00:44:33"},{"rt":null,"stimulus":"<p style=\"font-size: 50px; margin: 0; text-align: center;\">+</p>","response":null,"trial_type":"html-keyboard-response","trial_index":211,"plugin_version":"2.1.0","time_elapsed":676427,"subject_id":"86832","group":"Group2","full_date":"2025-12-03T00:44:33.778Z","date":"2025-12-03","time":"00:44:33"},{"task":"memory_phase","broad_category":"S","image_png":"S_Shale_03.png","image_id":467,"category_name":"Shale","category":30,"distinct_rating":1.95,"distinct_type":"Bottom","rt":null,"stimulus":"Stimuli_Rocks480/S_Shale_03.png","response":null,"trial_type":"image-keyboard-response","trial_index":212,"plugin_version":"2.1.0","time_elapsed":678952,"subject_id":"86832","group":"Group2","full_date":"2025-12-03T00:44:33.778Z","date":"2025-12-03","time":"00:44:33"},{"rt":null,"stimulus":"<p style=\"font-size: 50px; margin: 0; text-align: center;\">+</p>","response":null,"trial_type":"html-keyboard-response","trial_index":213,"plugin_version":"2.1.0","time_elapsed":679957,"subject_id":"86832","group":"Group2","full_date":"2025-12-03T00:44:33.778Z","date":"2025-12-03","time":"00:44:33"},{"task":"memory_phase","broad_category":"S","image_png":"S_Rock Salt_13.png","image_id":445,"category_name":"Rock Salt","category":28,"distinct_rating":7.58,"distinct_type":"Top","rt":null,"stimulus":"Stimuli_Rocks480/S_Rock Salt_13.png","response":null,"trial_type":"image-keyboard-response","trial_index":214,"plugin_version":"2.1.0","time_elapsed":682464,"subject_id":"86832","group":"Group2","full_date":"2025-12-03T00:44:33.778Z","date":"2025-12-03","time":"00:44:33"},{"rt":null,"stimulus":"<p style=\"font-size: 50px; margin: 0; text-align: center;\">+</p>","response":null,"trial_type":"html-keyboard-response","trial_index":215,"plugin_version":"2.1.0","time_elapsed":683471,"subject_id":"86832","group":"Group2","full_date":"2025-12-03T00:44:33.778Z","date":"2025-12-03","time":"00:44:33"},{"task":"memory_phase","broad_category":"S","image_png":"S_Sandstone_11.png","image_id":459,"category_name":"Sandstone","category":29,"distinct_rating":1.82,"distinct_type":"Bottom","rt":null,"stimulus":"Stimuli_Rocks480/S_Sandstone_11.png","response":null,"trial_type":"image-keyboard-response","trial_index":216,"plugin_version":"2.1.0","time_elapsed":685984,"subject_id":"86832","group":"Group2","full_date":"2025-12-03T00:44:33.778Z","date":"2025-12-03","time":"00:44:33"},{"rt":null,"stimulus":"<p style=\"font-size: 50px; margin: 0; text-align: center;\">+</p>","response":null,"trial_type":"html-keyboard-response","trial_index":217,"plugin_version":"2.1.0","time_elapsed":687000,"subject_id":"86832","group":"Group2","full_date":"2025-12-03T00:44:33.778Z","date":"2025-12-03","time":"00:44:33"},{"task":"memory_phase","broad_category":"S","image_png":"S_Shale_02.png","image_id":466,"category_name":"Shale","category":30,"distinct_rating":2.9,"distinct_type":"Bottom","rt":null,"stimulus":"Stimuli_Rocks480/S_Shale_02.png","response":null,"trial_type":"image-keyboard-response","trial_index":218,"plugin_version":"2.1.0","time_elapsed":689505,"subject_id":"86832","group":"Group2","full_date":"2025-12-03T00:44:33.778Z","date":"2025-12-03","time":"00:44:33"},{"rt":null,"stimulus":"<p style=\"font-size: 50px; margin: 0; text-align: center;\">+</p>","response":null,"trial_type":"html-keyboard-response","trial_index":219,"plugin_version":"2.1.0","time_elapsed":690512,"subject_id":"86832","group":"Group2","full_date":"2025-12-03T00:44:33.778Z","date":"2025-12-03","time":"00:44:33"},{"task":"memory_phase","broad_category":"M","image_png":"M_Slate_10.png","image_id":314,"category_name":"Slate","category":20,"distinct_rating":1.94,"distinct_type":"Bottom","rt":null,"stimulus":"Stimuli_Rocks480/M_Slate_10.png","response":null,"trial_type":"image-keyboard-response","trial_index":220,"plugin_version":"2.1.0","time_elapsed":693015,"subject_id":"86832","group":"Group2","full_date":"2025-12-03T00:44:33.778Z","date":"2025-12-03","time":"00:44:33"},{"rt":null,"stimulus":"<p style=\"font-size: 50px; margin: 0; text-align: center;\">+</p>","response":null,"trial_type":"html-keyboard-response","trial_index":221,"plugin_version":"2.1.0","time_elapsed":694027,"subject_id":"86832","group":"Group2","full_date":"2025-12-03T00:44:33.778Z","date":"2025-12-03","time":"00:44:33"},{"task":"memory_phase","broad_category":"S","image_png":"S_Dolomite_16.png","image_id":400,"category_name":"Dolomite","category":25,"distinct_rating":1.71,"distinct_type":"Bottom","rt":null,"stimulus":"Stimuli_Rocks480/S_Dolomite_16.png","response":null,"trial_type":"image-keyboard-response","trial_index":222,"plugin_version":"2.1.0","time_elapsed":696534,"subject_id":"86832","group":"Group2","full_date":"2025-12-03T00:44:33.778Z","date":"2025-12-03","time":"00:44:33"},{"rt":null,"stimulus":"<p style=\"font-size: 50px; margin: 0; text-align: center;\">+</p>","response":null,"trial_type":"html-keyboard-response","trial_index":223,"plugin_version":"2.1.0","time_elapsed":697549,"subject_id":"86832","group":"Group2","full_date":"2025-12-03T00:44:33.778Z","date":"2025-12-03","time":"00:44:33"},{"task":"memory_phase","broad_category":"I","image_png":"I_Pumice_13.png","image_id":141,"category_name":"Pumice","category":9,"distinct_rating":3.12,"distinct_type":"Bottom","rt":null,"stimulus":"Stimuli_Rocks480/I_Pumice_13.png","response":null,"trial_type":"image-keyboard-response","trial_index":224,"plugin_version":"2.1.0","time_elapsed":700056,"subject_id":"86832","group":"Group2","full_date":"2025-12-03T00:44:33.778Z","date":"2025-12-03","time":"00:44:33"},{"rt":null,"stimulus":"<p style=\"font-size: 50px; margin: 0; text-align: center;\">+</p>","response":null,"trial_type":"html-keyboard-response","trial_index":225,"plugin_version":"2.1.0","time_elapsed":701068,"subject_id":"86832","group":"Group2","full_date":"2025-12-03T00:44:33.778Z","date":"2025-12-03","time":"00:44:33"},{"task":"memory_phase","broad_category":"I","image_png":"I_Gabbro_12.png","image_id":60,"category_name":"Gabbro","category":4,"distinct_rating":2.6,"distinct_type":"Bottom","rt":null,"stimulus":"Stimuli_Rocks480/I_Gabbro_12.png","response":null,"trial_type":"image-keyboard-response","trial_index":226,"plugin_version":"2.1.0","time_elapsed":703582,"subject_id":"86832","group":"Group2","full_date":"2025-12-03T00:44:33.778Z","date":"2025-12-03","time":"00:44:33"},{"rt":null,"stimulus":"<p style=\"font-size: 50px; margin: 0; text-align: center;\">+</p>","response":null,"trial_type":"html-keyboard-response","trial_index":227,"plugin_version":"2.1.0","time_elapsed":704587,"subject_id":"86832","group":"Group2","full_date":"2025-12-03T00:44:33.778Z","date":"2025-12-03","time":"00:44:33"},{"task":"memory_phase","broad_category":"S","image_png":"S_Dolomite_07.png","image_id":391,"category_name":"Dolomite","category":25,"distinct_rating":1.73,"distinct_type":"Bottom","rt":null,"stimulus":"Stimuli_Rocks480/S_Dolomite_07.png","response":null,"trial_type":"image-keyboard-response","trial_index":228,"plugin_version":"2.1.0","time_elapsed":707103,"subject_id":"86832","group":"Group2","full_date":"2025-12-03T00:44:33.778Z","date":"2025-12-03","time":"00:44:33"},{"rt":null,"stimulus":"<p style=\"font-size: 50px; margin: 0; text-align: center;\">+</p>","response":null,"trial_type":"html-keyboard-response","trial_index":229,"plugin_version":"2.1.0","time_elapsed":708116,"subject_id":"86832","group":"Group2","full_date":"2025-12-03T00:44:33.778Z","date":"2025-12-03","time":"00:44:33"},{"task":"memory_phase","broad_category":"I","image_png":"I_Basalt_10.png","image_id":26,"category_name":"Basalt","category":2,"distinct_rating":2.76,"distinct_type":"Bottom","rt":null,"stimulus":"Stimuli_Rocks480/I_Basalt_10.png","response":null,"trial_type":"image-keyboard-response","trial_index":230,"plugin_version":"2.1.0","time_elapsed":710630,"subject_id":"86832","group":"Group2","full_date":"2025-12-03T00:44:33.778Z","date":"2025-12-03","time":"00:44:33"},{"rt":null,"stimulus":"<p style=\"font-size: 50px; margin: 0; text-align: center;\">+</p>","response":null,"trial_type":"html-keyboard-response","trial_index":231,"plugin_version":"2.1.0","time_elapsed":711641,"subject_id":"86832","group":"Group2","full_date":"2025-12-03T00:44:33.778Z","date":"2025-12-03","time":"00:44:33"},{"task":"memory_phase","broad_category":"S","image_png":"S_Chert_13.png","image_id":365,"category_name":"Chert","category":23,"distinct_rating":6.57,"distinct_type":"Top","rt":null,"stimulus":"Stimuli_Rocks480/S_Chert_13.png","response":null,"trial_type":"image-keyboard-response","trial_index":232,"plugin_version":"2.1.0","time_elapsed":714153,"subject_id":"86832","group":"Group2","full_date":"2025-12-03T00:44:33.778Z","date":"2025-12-03","time":"00:44:33"},{"rt":null,"stimulus":"<p style=\"font-size: 50px; margin: 0; text-align: center;\">+</p>","response":null,"trial_type":"html-keyboard-response","trial_index":233,"plugin_version":"2.1.0","time_elapsed":715158,"subject_id":"86832","group":"Group2","full_date":"2025-12-03T00:44:33.778Z","date":"2025-12-03","time":"00:44:33"},{"task":"memory_phase","broad_category":"I","image_png":"I_Basalt_08.png","image_id":24,"category_name":"Basalt","category":2,"distinct_rating":2.31,"distinct_type":"Bottom","rt":null,"stimulus":"Stimuli_Rocks480/I_Basalt_08.png","response":null,"trial_type":"image-keyboard-response","trial_index":234,"plugin_version":"2.1.0","time_elapsed":717670,"subject_id":"86832","group":"Group2","full_date":"2025-12-03T00:44:33.778Z","date":"2025-12-03","time":"00:44:33"},{"rt":null,"stimulus":"<p style=\"font-size: 50px; margin: 0; text-align: center;\">+</p>","response":null,"trial_type":"html-keyboard-response","trial_index":235,"plugin_version":"2.1.0","time_elapsed":718673,"subject_id":"86832","group":"Group2","full_date":"2025-12-03T00:44:33.778Z","date":"2025-12-03","time":"00:44:33"},{"task":"memory_phase","broad_category":"I","image_png":"I_Rhyolite_08.png","image_id":152,"category_name":"Rhyolite","category":10,"distinct_rating":1.38,"distinct_type":"Bottom","rt":null,"stimulus":"Stimuli_Rocks480/I_Rhyolite_08.png","response":null,"trial_type":"image-keyboard-response","trial_index":236,"plugin_version":"2.1.0","time_elapsed":721177,"subject_id":"86832","group":"Group2","full_date":"2025-12-03T00:44:33.778Z","date":"2025-12-03","time":"00:44:33"},{"rt":null,"stimulus":"<p style=\"font-size: 50px; margin: 0; text-align: center;\">+</p>","response":null,"trial_type":"html-keyboard-response","trial_index":237,"plugin_version":"2.1.0","time_elapsed":722181,"subject_id":"86832","group":"Group2","full_date":"2025-12-03T00:44:33.778Z","date":"2025-12-03","time":"00:44:33"},{"task":"memory_phase","broad_category":"I","image_png":"I_Diorite_01.png","image_id":33,"category_name":"Diorite","category":3,"distinct_rating":2.97,"distinct_type":"Bottom","rt":null,"stimulus":"Stimuli_Rocks480/I_Diorite_01.png","response":null,"trial_type":"image-keyboard-response","trial_index":238,"plugin_version":"2.1.0","time_elapsed":724683,"subject_id":"86832","group":"Group2","full_date":"2025-12-03T00:44:33.778Z","date":"2025-12-03","time":"00:44:33"},{"rt":null,"stimulus":"<p style=\"font-size: 50px; margin: 0; text-align: center;\">+</p>","response":null,"trial_type":"html-keyboard-response","trial_index":239,"plugin_version":"2.1.0","time_elapsed":725697,"subject_id":"86832","group":"Group2","full_date":"2025-12-03T00:44:33.778Z","date":"2025-12-03","time":"00:44:33"},{"task":"memory_phase","broad_category":"M","image_png":"M_Phyllite_02.png","image_id":258,"category_name":"Phyllite","category":17,"distinct_rating":2.89,"distinct_type":"Bottom","rt":null,"stimulus":"Stimuli_Rocks480/M_Phyllite_02.png","response":null,"trial_type":"image-keyboard-response","trial_index":240,"plugin_version":"2.1.0","time_elapsed":728209,"subject_id":"86832","group":"Group2","full_date":"2025-12-03T00:44:33.778Z","date":"2025-12-03","time":"00:44:33"},{"rt":null,"stimulus":"<p style=\"font-size: 50px; margin: 0; text-align: center;\">+</p>","response":null,"trial_type":"html-keyboard-response","trial_index":241,"plugin_version":"2.1.0","time_elapsed":729213,"subject_id":"86832","group":"Group2","full_date":"2025-12-03T00:44:33.778Z","date":"2025-12-03","time":"00:44:33"},{"task":"memory_phase","broad_category":"M","image_png":"M_Marble_03.png","image_id":227,"category_name":"Marble","category":15,"distinct_rating":2.67,"distinct_type":"Bottom","rt":null,"stimulus":"Stimuli_Rocks480/M_Marble_03.png","response":null,"trial_type":"image-keyboard-response","trial_index":242,"plugin_version":"2.1.0","time_elapsed":731717,"subject_id":"86832","group":"Group2","full_date":"2025-12-03T00:44:33.778Z","date":"2025-12-03","time":"00:44:33"},{"rt":null,"stimulus":"<p style=\"font-size: 50px; margin: 0; text-align: center;\">+</p>","response":null,"trial_type":"html-keyboard-response","trial_index":243,"plugin_version":"2.1.0","time_elapsed":732732,"subject_id":"86832","group":"Group2","full_date":"2025-12-03T00:44:33.778Z","date":"2025-12-03","time":"00:44:33"},{"task":"memory_phase","broad_category":"S","image_png":"S_Conglomerate_14.png","image_id":382,"category_name":"Conglomerate","category":24,"distinct_rating":6.86,"distinct_type":"Top","rt":null,"stimulus":"Stimuli_Rocks480/S_Conglomerate_14.png","response":null,"trial_type":"image-keyboard-response","trial_index":244,"plugin_version":"2.1.0","time_elapsed":735247,"subject_id":"86832","group":"Group2","full_date":"2025-12-03T00:44:33.778Z","date":"2025-12-03","time":"00:44:33"},{"rt":null,"stimulus":"<p style=\"font-size: 50px; margin: 0; text-align: center;\">+</p>","response":null,"trial_type":"html-keyboard-response","trial_index":245,"plugin_version":"2.1.0","time_elapsed":736255,"subject_id":"86832","group":"Group2","full_date":"2025-12-03T00:44:33.778Z","date":"2025-12-03","time":"00:44:33"},{"task":"memory_phase","broad_category":"M","image_png":"M_Quartzite_15.png","image_id":287,"category_name":"Quartzite","category":18,"distinct_rating":2.19,"distinct_type":"Bottom","rt":null,"stimulus":"Stimuli_Rocks480/M_Quartzite_15.png","response":null,"trial_type":"image-keyboard-response","trial_index":246,"plugin_version":"2.1.0","time_elapsed":738761,"subject_id":"86832","group":"Group2","full_date":"2025-12-03T00:44:33.778Z","date":"2025-12-03","time":"00:44:33"},{"rt":null,"stimulus":"<p style=\"font-size: 50px; margin: 0; text-align: center;\">+</p>","response":null,"trial_type":"html-keyboard-response","trial_index":247,"plugin_version":"2.1.0","time_elapsed":739766,"subject_id":"86832","group":"Group2","full_date":"2025-12-03T00:44:33.778Z","date":"2025-12-03","time":"00:44:33"},{"task":"memory_phase","broad_category":"I","image_png":"I_Rhyolite_05.png","image_id":149,"category_name":"Rhyolite","category":10,"distinct_rating":3.02,"distinct_type":"Bottom","rt":null,"stimulus":"Stimuli_Rocks480/I_Rhyolite_05.png","response":null,"trial_type":"image-keyboard-response","trial_index":248,"plugin_version":"2.