[{"width":1440,"height":780,"webaudio":true,"browser":"chrome","browser_version":"143.0.0","mobile":false,"os":"Mac OS","fullscreen":true,"vsync_rate":30.43,"webcam":true,"microphone":true,"trial_type":"browser-check","trial_index":0,"plugin_version":"2.1.0","time_elapsed":1987,"subject_id":"90582","group":"Group1","full_date":"2025-12-05T04:44:45.081Z","date":"2025-12-05","time":"04:44:45"},{"success":true,"timeout":false,"failed_images":[],"failed_audio":[],"failed_video":[],"trial_type":"preload","trial_index":1,"plugin_version":"2.1.0","time_elapsed":7455,"subject_id":"90582","group":"Group1","full_date":"2025-12-05T04:44:45.081Z","date":"2025-12-05","time":"04:44:45"},{"rt":56702,"url":"SONA_consent_memorability.html","trial_type":"external-html","trial_index":2,"plugin_version":"2.1.0","time_elapsed":64199,"subject_id":"90582","group":"Group1","full_date":"2025-12-05T04:44:45.081Z","date":"2025-12-05","time":"04:44:45"},{"success":true,"rt":1347,"trial_type":"fullscreen","trial_index":3,"plugin_version":"2.1.0","time_elapsed":66551,"subject_id":"90582","group":"Group1","full_date":"2025-12-05T04:44:45.081Z","date":"2025-12-05","time":"04:44:45"},{"rt":29463,"stimulus":"<div style=\"max-width: 760px; margin: auto; font-size: 20px; line-height: 1.5;\">\n      <h1 style=\"text-align:center; font-size: 30px;\">Instructions</h1>\n      <p>\n        Welcome to the study on <b>visual memory</b>. This experiment consists of <b>two phases</b>: \n        a <b>study phase</b> and a <b>test phase</b>.\n      </p>\n      <p>\n        In the study phase, you will see a series of rock images along with their category labels.\n        The images will appear one at a time.\n        <b>Your task</b> is to learn the categories to which the rock images belong \n        and to remember each image as accurately as possible.\n      </p> \n      <p>\n        Note that we will repeat the study phase <b>3 times</b>, \n        so you will have multiple opportunities to see and remember each image.\n      </p>\n      <p>\n        After the study phase, <b>your memory will be tested</b>. \n        Additional instructions for the test phase will be provided at that time.\n      </p>\n      <p>\n        If your computer has multiple <b>language settings</b> (e.g., English and another language),\n        please make sure it is set to English before starting.\n      </p>\n      <p>\n        You can track your progress using the <b>completion bar</b> at the top of the screen. \n        Please note that the bar will refresh when the test phase begins \n        to give you an accurate sense of your progress in both phases.\n      </p> \n      <p>\n        Press the button below when you are ready to begin.\n      </p>\n    </div>","response":0,"trial_type":"html-button-response","trial_index":4,"plugin_version":"2.1.0","time_elapsed":96016,"subject_id":"90582","group":"Group1","full_date":"2025-12-05T04:44:45.081Z","date":"2025-12-05","time":"04:44:45"},{"rt":null,"stimulus":"<p style=\"font-size: 50px; margin: 0; text-align: center;\">+</p>","response":null,"trial_type":"html-keyboard-response","trial_index":5,"plugin_version":"2.1.0","time_elapsed":97020,"subject_id":"90582","group":"Group1","full_date":"2025-12-05T04:44:45.081Z","date":"2025-12-05","time":"04:44:45"},{"task":"memory_phase","broad_category":"M","image_png":"M_Quartzite_05.png","image_id":277,"category_name":"Quartzite","category":18,"distinct_rating":2.23,"distinct_type":"Bottom","rt":null,"stimulus":"Stimuli_Rocks480/M_Quartzite_05.png","response":null,"trial_type":"image-keyboard-response","trial_index":6,"plugin_version":"2.1.0","time_elapsed":99526,"subject_id":"90582","group":"Group1","full_date":"2025-12-05T04:44:45.081Z","date":"2025-12-05","time":"04:44:45"},{"rt":null,"stimulus":"<p style=\"font-size: 50px; margin: 0; text-align: center;\">+</p>","response":null,"trial_type":"html-keyboard-response","trial_index":7,"plugin_version":"2.1.0","time_elapsed":100529,"subject_id":"90582","group":"Group1","full_date":"2025-12-05T04:44:45.081Z","date":"2025-12-05","time":"04:44:45"},{"task":"memory_phase","broad_category":"I","image_png":"I_Gabbro_11.png","image_id":59,"category_name":"Gabbro","category":4,"distinct_rating":1.99,"distinct_type":"Bottom","rt":null,"stimulus":"Stimuli_Rocks480/I_Gabbro_11.png","response":null,"trial_type":"image-keyboard-response","trial_index":8,"plugin_version":"2.1.0","time_elapsed":103032,"subject_id":"90582","group":"Group1","full_date":"2025-12-05T04:44:45.081Z","date":"2025-12-05","time":"04:44:45"},{"rt":null,"stimulus":"<p style=\"font-size: 50px; margin: 0; text-align: center;\">+</p>","response":null,"trial_type":"html-keyboard-response","trial_index":9,"plugin_version":"2.1.0","time_elapsed":104036,"subject_id":"90582","group":"Group1","full_date":"2025-12-05T04:44:45.081Z","date":"2025-12-05","time":"04:44:45"},{"task":"memory_phase","broad_category":"M","image_png":"M_Gneiss_05.png","image_id":197,"category_name":"Gneiss","category":13,"distinct_rating":2.97,"distinct_type":"Bottom","rt":null,"stimulus":"Stimuli_Rocks480/M_Gneiss_05.png","response":null,"trial_type":"image-keyboard-response","trial_index":10,"plugin_version":"2.1.0","time_elapsed":106539,"subject_id":"90582","group":"Group1","full_date":"2025-12-05T04:44:45.081Z","date":"2025-12-05","time":"04:44:45"},{"rt":null,"stimulus":"<p style=\"font-size: 50px; margin: 0; text-align: center;\">+</p>","response":null,"trial_type":"html-keyboard-response","trial_index":11,"plugin_version":"2.1.0","time_elapsed":107542,"subject_id":"90582","group":"Group1","full_date":"2025-12-05T04:44:45.081Z","date":"2025-12-05","time":"04:44:45"},{"task":"memory_phase","broad_category":"I","image_png":"I_Basalt_02.png","image_id":18,"category_name":"Basalt","category":2,"distinct_rating":1.84,"distinct_type":"Bottom","rt":null,"stimulus":"Stimuli_Rocks480/I_Basalt_02.png","response":null,"trial_type":"image-keyboard-response","trial_index":12,"plugin_version":"2.1.0","time_elapsed":110046,"subject_id":"90582","group":"Group1","full_date":"2025-12-05T04:44:45.081Z","date":"2025-12-05","time":"04:44:45"},{"rt":null,"stimulus":"<p style=\"font-size: 50px; margin: 0; text-align: center;\">+</p>","response":null,"trial_type":"html-keyboard-response","trial_index":13,"plugin_version":"2.1.0","time_elapsed":111049,"subject_id":"90582","group":"Group1","full_date":"2025-12-05T04:44:45.081Z","date":"2025-12-05","time":"04:44:45"},{"task":"memory_phase","broad_category":"M","image_png":"M_Slate_11.png","image_id":315,"category_name":"Slate","category":20,"distinct_rating":2.75,"distinct_type":"Bottom","rt":null,"stimulus":"Stimuli_Rocks480/M_Slate_11.png","response":null,"trial_type":"image-keyboard-response","trial_index":14,"plugin_version":"2.1.0","time_elapsed":113552,"subject_id":"90582","group":"Group1","full_date":"2025-12-05T04:44:45.081Z","date":"2025-12-05","time":"04:44:45"},{"rt":null,"stimulus":"<p style=\"font-size: 50px; margin: 0; text-align: center;\">+</p>","response":null,"trial_type":"html-keyboard-response","trial_index":15,"plugin_version":"2.1.0","time_elapsed":114555,"subject_id":"90582","group":"Group1","full_date":"2025-12-05T04:44:45.081Z","date":"2025-12-05","time":"04:44:45"},{"task":"memory_phase","broad_category":"S","image_png":"S_Shale_08.png","image_id":472,"category_name":"Shale","category":30,"distinct_rating":2.55,"distinct_type":"Bottom","rt":null,"stimulus":"Stimuli_Rocks480/S_Shale_08.png","response":null,"trial_type":"image-keyboard-response","trial_index":16,"plugin_version":"2.1.0","time_elapsed":117058,"subject_id":"90582","group":"Group1","full_date":"2025-12-05T04:44:45.081Z","date":"2025-12-05","time":"04:44:45"},{"rt":null,"stimulus":"<p style=\"font-size: 50px; margin: 0; text-align: center;\">+</p>","response":null,"trial_type":"html-keyboard-response","trial_index":17,"plugin_version":"2.1.0","time_elapsed":118060,"subject_id":"90582","group":"Group1","full_date":"2025-12-05T04:44:45.081Z","date":"2025-12-05","time":"04:44:45"},{"task":"memory_phase","broad_category":"S","image_png":"S_Dolomite_14.png","image_id":398,"category_name":"Dolomite","category":25,"distinct_rating":1.43,"distinct_type":"Bottom","rt":null,"stimulus":"Stimuli_Rocks480/S_Dolomite_14.png","response":null,"trial_type":"image-keyboard-response","trial_index":18,"plugin_version":"2.1.0","time_elapsed":120563,"subject_id":"90582","group":"Group1","full_date":"2025-12-05T04:44:45.081Z","date":"2025-12-05","time":"04:44:45"},{"rt":null,"stimulus":"<p style=\"font-size: 50px; margin: 0; text-align: center;\">+</p>","response":null,"trial_type":"html-keyboard-response","trial_index":19,"plugin_version":"2.1.0","time_elapsed":121566,"subject_id":"90582","group":"Group1","full_date":"2025-12-05T04:44:45.081Z","date":"2025-12-05","time":"04:44:45"},{"task":"memory_phase","broad_category":"S","image_png":"S_Breccia_11.png","image_id":347,"category_name":"Breccia","category":22,"distinct_rating":6.7,"distinct_type":"Top","rt":null,"stimulus":"Stimuli_Rocks480/S_Breccia_11.png","response":null,"trial_type":"image-keyboard-response","trial_index":20,"plugin_version":"2.1.0","time_elapsed":124069,"subject_id":"90582","group":"Group1","full_date":"2025-12-05T04:44:45.081Z","date":"2025-12-05","time":"04:44:45"},{"rt":null,"stimulus":"<p style=\"font-size: 50px; margin: 0; text-align: center;\">+</p>","response":null,"trial_type":"html-keyboard-response","trial_index":21,"plugin_version":"2.1.0","time_elapsed":125071,"subject_id":"90582","group":"Group1","full_date":"2025-12-05T04:44:45.081Z","date":"2025-12-05","time":"04:44:45"},{"task":"memory_phase","broad_category":"S","image_png":"S_Sandstone_15.png","image_id":463,"category_name":"Sandstone","category":29,"distinct_rating":2,"distinct_type":"Bottom","rt":null,"stimulus":"Stimuli_Rocks480/S_Sandstone_15.png","response":null,"trial_type":"image-keyboard-response","trial_index":22,"plugin_version":"2.1.0","time_elapsed":127574,"subject_id":"90582","group":"Group1","full_date":"2025-12-05T04:44:45.081Z","date":"2025-12-05","time":"04:44:45"},{"rt":null,"stimulus":"<p style=\"font-size: 50px; margin: 0; text-align: center;\">+</p>","response":null,"trial_type":"html-keyboard-response","trial_index":23,"plugin_version":"2.1.0","time_elapsed":128576,"subject_id":"90582","group":"Group1","full_date":"2025-12-05T04:44:45.081Z","date":"2025-12-05","time":"04:44:45"},{"task":"memory_phase","broad_category":"M","image_png":"M_Marble_06.png","image_id":230,"category_name":"Marble","category":15,"distinct_rating":3.4,"distinct_type":"Bottom","rt":null,"stimulus":"Stimuli_Rocks480/M_Marble_06.png","response":null,"trial_type":"image-keyboard-response","trial_index":24,"plugin_version":"2.1.0","time_elapsed":131079,"subject_id":"90582","group":"Group1","full_date":"2025-12-05T04:44:45.081Z","date":"2025-12-05","time":"04:44:45"},{"rt":null,"stimulus":"<p style=\"font-size: 50px; margin: 0; text-align: center;\">+</p>","response":null,"trial_type":"html-keyboard-response","trial_index":25,"plugin_version":"2.1.0","time_elapsed":132082,"subject_id":"90582","group":"Group1","full_date":"2025-12-05T04:44:45.081Z","date":"2025-12-05","time":"04:44:45"},{"task":"memory_phase","broad_category":"I","image_png":"I_Rhyolite_16.png","image_id":160,"category_name":"Rhyolite","category":10,"distinct_rating":2.19,"distinct_type":"Bottom","rt":null,"stimulus":"Stimuli_Rocks480/I_Rhyolite_16.png","response":null,"trial_type":"image-keyboard-response","trial_index":26,"plugin_version":"2.1.0","time_elapsed":134585,"subject_id":"90582","group":"Group1","full_date":"2025-12-05T04:44:45.081Z","date":"2025-12-05","time":"04:44:45"},{"rt":null,"stimulus":"<p style=\"font-size: 50px; margin: 0; text-align: center;\">+</p>","response":null,"trial_type":"html-keyboard-response","trial_index":27,"plugin_version":"2.1.0","time_elapsed":135587,"subject_id":"90582","group":"Group1","full_date":"2025-12-05T04:44:45.081Z","date":"2025-12-05","time":"04:44:45"},{"task":"memory_phase","broad_category":"S","image_png":"S_Sandstone_16.png","image_id":464,"category_name":"Sandstone","category":29,"distinct_rating":1.93,"distinct_type":"Bottom","rt":null,"stimulus":"Stimuli_Rocks480/S_Sandstone_16.png","response":null,"trial_type":"image-keyboard-response","trial_index":28,"plugin_version":"2.1.0","time_elapsed":138090,"subject_id":"90582","group":"Group1","full_date":"2025-12-05T04:44:45.081Z","date":"2025-12-05","time":"04:44:45"},{"rt":null,"stimulus":"<p style=\"font-size: 50px; margin: 0; text-align: center;\">+</p>","response":null,"trial_type":"html-keyboard-response","trial_index":29,"plugin_version":"2.1.0","time_elapsed":139093,"subject_id":"90582","group":"Group1","full_date":"2025-12-05T04:44:45.081Z","date":"2025-12-05","time":"04:44:45"},{"task":"memory_phase","broad_category":"S","image_png":"S_Rock Gypsum_04.png","image_id":420,"category_name":"Rock Gypsum","category":27,"distinct_rating":7.61,"distinct_type":"Top","rt":null,"stimulus":"Stimuli_Rocks480/S_Rock Gypsum_04.png","response":null,"trial_type":"image-keyboard-response","trial_index":30,"plugin_version":"2.1.0","time_elapsed":141598,"subject_id":"90582","group":"Group1","full_date":"2025-12-05T04:44:45.081Z","date":"2025-12-05","time":"04:44:45"},{"rt":null,"stimulus":"<p style=\"font-size: 50px; margin: 0; text-align: center;\">+</p>","response":null,"trial_type":"html-keyboard-response","trial_index":31,"plugin_version":"2.1.0","time_elapsed":142600,"subject_id":"90582","group":"Group1","full_date":"2025-12-05T04:44:45.081Z","date":"2025-12-05","time":"04:44:45"},{"task":"memory_phase","broad_category":"I","image_png":"I_Rhyolite_11.png","image_id":155,"category_name":"Rhyolite","category":10,"distinct_rating":1.73,"distinct_type":"Bottom","rt":null,"stimulus":"Stimuli_Rocks480/I_Rhyolite_11.png","response":null,"trial_type":"image-keyboard-response","trial_index":32,"plugin_version":"2.1.0","time_elapsed":145104,"subject_id":"90582","group":"Group1","full_date":"2025-12-05T04:44:45.081Z","date":"2025-12-05","time":"04:44:45"},{"rt":null,"stimulus":"<p style=\"font-size: 50px; margin: 0; text-align: center;\">+</p>","response":null,"trial_type":"html-keyboard-response","trial_index":33,"plugin_version":"2.1.0","time_elapsed":146106,"subject_id":"90582","group":"Group1","full_date":"2025-12-05T04:44:45.081Z","date":"2025-12-05","time":"04:44:45"},{"task":"memory_phase","broad_category":"S","image_png":"S_Rock Salt_01.png","image_id":433,"category_name":"Rock Salt","category":28,"distinct_rating":7.18,"distinct_type":"Top","rt":null,"stimulus":"Stimuli_Rocks480/S_Rock Salt_01.png","response":null,"trial_type":"image-keyboard-response","trial_index":34,"plugin_version":"2.1.0","time_elapsed":148610,"subject_id":"90582","group":"Group1","full_date":"2025-12-05T04:44:45.081Z","date":"2025-12-05","time":"04:44:45"},{"rt":null,"stimulus":"<p style=\"font-size: 50px; margin: 0; text-align: center;\">+</p>","response":null,"trial_type":"html-keyboard-response","trial_index":35,"plugin_version":"2.1.0","time_elapsed":149612,"subject_id":"90582","group":"Group1","full_date":"2025-12-05T04:44:45.081Z","date":"2025-12-05","time":"04:44:45"},{"task":"memory_phase","broad_category":"I","image_png":"I_Andesite_10.png","image_id":10,"category_name":"Andesite","category":1,"distinct_rating":3.15,"distinct_type":"Bottom","rt":null,"stimulus":"Stimuli_Rocks480/I_Andesite_10.png","response":null,"trial_type":"image-keyboard-response","trial_index":36,"plugin_version":"2.1.0","time_elapsed":152115,"subject_id":"90582","group":"Group1","full_date":"2025-12-05T04:44:45.081Z","date":"2025-12-05","time":"04:44:45"},{"rt":null,"stimulus":"<p style=\"font-size: 50px; margin: 0; text-align: center;\">+</p>","response":null,"trial_type":"html-keyboard-response","trial_index":37,"plugin_version":"2.1.0","time_elapsed":153118,"subject_id":"90582","group":"Group1","full_date":"2025-12-05T04:44:45.081Z","date":"2025-12-05","time":"04:44:45"},{"task":"memory_phase","broad_category":"I","image_png":"I_Basalt_09.png","image_id":25,"category_name":"Basalt","category":2,"distinct_rating":1.89,"distinct_type":"Bottom","rt":null,"stimulus":"Stimuli_Rocks480/I_Basalt_09.png","response":null,"trial_type":"image-keyboard-response","trial_index":38,"plugin_version":"2.1.0","time_elapsed":155621,"subject_id":"90582","group":"Group1","full_date":"2025-12-05T04:44:45.081Z","date":"2025-12-05","time":"04:44:45"},{"rt":null,"stimulus":"<p style=\"font-size: 50px; margin: 0; text-align: center;\">+</p>","response":null,"trial_type":"html-keyboard-response","trial_index":39,"plugin_version":"2.1.0","time_elapsed":156623,"subject_id":"90582","group":"Group1","full_date":"2025-12-05T04:44:45.081Z","date":"2025-12-05","time":"04:44:45"},{"task":"memory_phase","broad_category":"M","image_png":"M_Gneiss_13.png","image_id":205,"category_name":"Gneiss","category":13,"distinct_rating":3.26,"distinct_type":"Bottom","rt":null,"stimulus":"Stimuli_Rocks480/M_Gneiss_13.png","response":null,"trial_type":"image-keyboard-response","trial_index":40,"plugin_version":"2.1.0","time_elapsed":159127,"subject_id":"90582","group":"Group1","full_date":"2025-12-05T04:44:45.081Z","date":"2025-12-05","time":"04:44:45"},{"rt":null,"stimulus":"<p style=\"font-size: 50px; margin: 0; text-align: center;\">+</p>","response":null,"trial_type":"html-keyboard-response","trial_index":41,"plugin_version":"2.1.0","time_elapsed":160129,"subject_id":"90582","group":"Group1","full_date":"2025-12-05T04:44:45.081Z","date":"2025-12-05","time":"04:44:45"},{"task":"memory_phase","broad_category":"I","image_png":"I_Rhyolite_14.png","image_id":158,"category_name":"Rhyolite","category":10,"distinct_rating":2.59,"distinct_type":"Bottom","rt":null,"stimulus":"Stimuli_Rocks480/I_Rhyolite_14.png","response":null,"trial_type":"image-keyboard-response","trial_index":42,"plugin_version":"2.1.0","time_elapsed":162632,"subject_id":"90582","group":"Group1","full_date":"2025-12-05T04:44:45.081Z","date":"2025-12-05","time":"04:44:45"},{"rt":null,"stimulus":"<p style=\"font-size: 50px; margin: 0; text-align: center;\">+</p>","response":null,"trial_type":"html-keyboard-response","trial_index":43,"plugin_version":"2.1.0","time_elapsed":163635,"subject_id":"90582","group":"Group1","full_date":"2025-12-05T04:44:45.081Z","date":"2025-12-05","time":"04:44:45"},{"task":"memory_phase","broad_category":"I","image_png":"I_Pumice_08.png","image_id":136,"category_name":"Pumice","category":9,"distinct_rating":3.1,"distinct_type":"Bottom","rt":null,"stimulus":"Stimuli_Rocks480/I_Pumice_08.png","response":null,"trial_type":"image-keyboard-response","trial_index":44,"plugin_version":"2.1.0","time_elapsed":166138,"subject_id":"90582","group":"Group1","full_date":"2025-12-05T04:44:45.081Z","date":"2025-12-05","time":"04:44:45"},{"rt":null,"stimulus":"<p style=\"font-size: 50px; margin: 0; text-align: center;\">+</p>","response":null,"trial_type":"html-keyboard-response","trial_index":45,"plugin_version":"2.1.0","time_elapsed":167140,"subject_id":"90582","group":"Group1","full_date":"2025-12-05T04:44:45.081Z","date":"2025-12-05","time":"04:44:45"},{"task":"memory_phase","broad_category":"S","image_png":"S_Shale_01.png","image_id":465,"category_name":"Shale","category":30,"distinct_rating":2.7,"distinct_type":"Bottom","rt":null,"stimulus":"Stimuli_Rocks480/S_Shale_01.png","response":null,"trial_type":"image-keyboard-response","trial_index":46,"plugin_version":"2.1.0","time_elapsed":169644,"subject_id":"90582","group":"Group1","full_date":"2025-12-05T04:44:45.081Z","date":"2025-12-05","time":"04:44:45"},{"rt":null,"stimulus":"<p style=\"font-size: 50px; margin: 0; text-align: center;\">+</p>","response":null,"trial_type":"html-keyboard-response","trial_index":47,"plugin_version":"2.1.0","time_elapsed":170647,"subject_id":"90582","group":"Group1","full_date":"2025-12-05T04:44:45.081Z","date":"2025-12-05","time":"04:44:45"},{"task":"memory_phase","broad_category":"M","image_png":"M_Slate_15.png","image_id":319,"category_name":"Slate","category":20,"distinct_rating":2.13,"distinct_type":"Bottom","rt":null,"stimulus":"Stimuli_Rocks480/M_Slate_15.png","response":null,"trial_type":"image-keyboard-response","trial_index":48,"plugin_version":"2.1.0","time_elapsed":173150,"subject_id":"90582","group":"Group1","full_date":"2025-12-05T04:44:45.081Z","date":"2025-12-05","time":"04:44:45"},{"rt":null,"stimulus":"<p style=\"font-size: 50px; margin: 0; text-align: center;\">+</p>","response":null,"trial_type":"html-keyboard-response","trial_index":49,"plugin_version":"2.1.0","time_elapsed":174153,"subject_id":"90582","group":"Group1","full_date":"2025-12-05T04:44:45.081Z","date":"2025-12-05","time":"04:44:45"},{"task":"memory_phase","broad_category":"I","image_png":"I_Pegmatite_10.png","image_id":106,"category_name":"Pegmatite","category":7,"distinct_rating":7.66,"distinct_type":"Top","rt":null,"stimulus":"Stimuli_Rocks480/I_Pegmatite_10.png","response":null,"trial_type":"image-keyboard-response","trial_index":50,"plugin_version":"2.1.0","time_elapsed":176657,"subject_id":"90582","group":"Group1","full_date":"2025-12-05T04:44:45.081Z","date":"2025-12-05","time":"04:44:45"},{"rt":null,"stimulus":"<p style=\"font-size: 50px; margin: 0; text-align: center;\">+</p>","response":null,"trial_type":"html-keyboard-response","trial_index":51,"plugin_version":"2.1.0","time_elapsed":177659,"subject_id":"90582","group":"Group1","full_date":"2025-12-05T04:44:45.081Z","date":"2025-12-05","time":"04:44:45"},{"task":"memory_phase","broad_category":"I","image_png":"I_Pumice_11.png","image_id":139,"category_name":"Pumice","category":9,"distinct_rating":1.74,"distinct_type":"Bottom","rt":null,"stimulus":"Stimuli_Rocks480/I_Pumice_11.png","response":null,"trial_type":"image-keyboard-response","trial_index":52,"plugin_version":"2.1.0","time_elapsed":180162,"subject_id":"90582","group":"Group1","full_date":"2025-12-05T04:44:45.081Z","date":"2025-12-05","time":"04:44:45"},{"rt":null,"stimulus":"<p style=\"font-size: 50px; margin: 0; text-align: center;\">+</p>","response":null,"trial_type":"html-keyboard-response","trial_index":53,"plugin_version":"2.1.0","time_elapsed":181165,"subject_id":"90582","group":"Group1","full_date":"2025-12-05T04:44:45.081Z","date":"2025-12-05","time":"04:44:45"},{"task":"memory_phase","broad_category":"M","image_png":"M_Phyllite_07.png","image_id":263,"category_name":"Phyllite","category":17,"distinct_rating":2.59,"distinct_type":"Bottom","rt":null,"stimulus":"Stimuli_Rocks480/M_Phyllite_07.png","response":null,"trial_type":"image-keyboard-response","trial_index":54,"plugin_version":"2.1.0","time_elapsed":183668,"subject_id":"90582","group":"Group1","full_date":"2025-12-05T04:44:45.081Z","date":"2025-12-05","time":"04:44:45"},{"rt":40183,"stimulus":"<p style=\"max-width: 760px; margin: auto; font-size: 35px; line-height: 1.5;\">Press SPACE to continue study phase</p>","response":" ","trial_type":"html-keyboard-response","trial_index":55,"plugin_version":"2.1.0","time_elapsed":223851,"subject_id":"90582","group":"Group1","full_date":"2025-12-05T04:44:45.081Z","date":"2025-12-05","time":"04:44:45"},{"rt":null,"stimulus":"<p style=\"font-size: 50px; margin: 0; text-align: center;\">+</p>","response":null,"trial_type":"html-keyboard-response","trial_index":56,"plugin_version":"2.1.0","time_elapsed":224853,"subject_id":"90582","group":"Group1","full_date":"2025-12-05T04:44:45.081Z","date":"2025-12-05","time":"04:44:45"},{"task":"memory_phase","broad_category":"I","image_png":"I_Pegmatite_16.png","image_id":112,"category_name":"Pegmatite","category":7,"distinct_rating":7.03,"distinct_type":"Top","rt":null,"stimulus":"Stimuli_Rocks480/I_Pegmatite_16.png","response":null,"trial_type":"image-keyboard-response","trial_index":57,"plugin_version":"2.1.0","time_elapsed":227357,"subject_id":"90582","group":"Group1","full_date":"2025-12-05T04:44:45.081Z","date":"2025-12-05","time":"04:44:45"},{"rt":null,"stimulus":"<p style=\"font-size: 50px; margin: 0; text-align: center;\">+</p>","response":null,"trial_type":"html-keyboard-response","trial_index":58,"plugin_version":"2.1.0","time_elapsed":228360,"subject_id":"90582","group":"Group1","full_date":"2025-12-05T04:44:45.081Z","date":"2025-12-05","time":"04:44:45"},{"task":"memory_phase","broad_category":"M","image_png":"M_Gneiss_06.png","image_id":198,"category_name":"Gneiss","category":13,"distinct_rating":2.65,"distinct_type":"Bottom","rt":null,"stimulus":"Stimuli_Rocks480/M_Gneiss_06.png","response":null,"trial_type":"image-keyboard-response","trial_index":59,"plugin_version":"2.1.0","time_elapsed":230863,"subject_id":"90582","group":"Group1","full_date":"2025-12-05T04:44:45.081Z","date":"2025-12-05","time":"04:44:45"},{"rt":null,"stimulus":"<p style=\"font-size: 50px; margin: 0; text-align: center;\">+</p>","response":null,"trial_type":"html-keyboard-response","trial_index":60,"plugin_version":"2.1.0","time_elapsed":231865,"subject_id":"90582","group":"Group1","full_date":"2025-12-05T04:44:45.081Z","date":"2025-12-05","time":"04:44:45"},{"task":"memory_phase","broad_category":"I","image_png":"I_Diorite_03.png","image_id":35,"category_name":"Diorite","category":3,"distinct_rating":3.14,"distinct_type":"Bottom","rt":null,"stimulus":"Stimuli_Rocks480/I_Diorite_03.png","response":null,"trial_type":"image-keyboard-response","trial_index":61,"plugin_version":"2.1.0","time_elapsed":234369,"subject_id":"90582","group":"Group1","full_date":"2025-12-05T04:44:45.081Z","date":"2025-12-05","time":"04:44:45"},{"rt":null,"stimulus":"<p style=\"font-size: 50px; margin: 0; text-align: center;\">+</p>","response":null,"trial_type":"html-keyboard-response","trial_index":62,"plugin_version":"2.1.0","time_elapsed":235372,"subject_id":"90582","group":"Group1","full_date":"2025-12-05T04:44:45.081Z","date":"2025-12-05","time":"04:44:45"},{"task":"memory_phase","broad_category":"M","image_png":"M_Quartzite_08.png","image_id":280,"category_name":"Quartzite","category":18,"distinct_rating":2.15,"distinct_type":"Bottom","rt":null,"stimulus":"Stimuli_Rocks480/M_Quartzite_08.png","response":null,"trial_type":"image-keyboard-response","trial_index":63,"plugin_version":"2.1.0","time_elapsed":237874,"subject_id":"90582","group":"Group1","full_date":"2025-12-05T04:44:45.081Z","date":"2025-12-05","time":"04:44:45"},{"rt":null,"stimulus":"<p style=\"font-size: 50px; margin: 0; text-align: center;\">+</p>","response":null,"trial_type":"html-keyboard-response","trial_index":64,"plugin_version":"2.1.0","time_elapsed":238877,"subject_id":"90582","group":"Group1","full_date":"2025-12-05T04:44:45.081Z","date":"2025-12-05","time":"04:44:45"},{"task":"memory_phase","broad_category":"I","image_png":"I_Andesite_06.png","image_id":6,"category_name":"Andesite","category":1,"distinct_rating":3.17,"distinct_type":"Bottom","rt":null,"stimulus":"Stimuli_Rocks480/I_Andesite_06.png","response":null,"trial_type":"image-keyboard-response","trial_index":65,"plugin_version":"2.1.0","time_elapsed":241380,"subject_id":"90582","group":"Group1","full_date":"2025-12-05T04:44:45.081Z","date":"2025-12-05","time":"04:44:45"},{"rt":null,"stimulus":"<p style=\"font-size: 50px; margin: 0; text-align: center;\">+</p>","response":null,"trial_type":"html-keyboard-response","trial_index":66,"plugin_version":"2.1.0","time_elapsed":242383,"subject_id":"90582","group":"Group1","full_date":"2025-12-05T04:44:45.081Z","date":"2025-12-05","time":"04:44:45"},{"task":"memory_phase","broad_category":"S","image_png":"S_Chert_10.png","image_id":362,"category_name":"Chert","category":23,"distinct_rating":7.17,"distinct_type":"Top","rt":null,"stimulus":"Stimuli_Rocks480/S_Chert_10.png","response":null,"trial_type":"image-keyboard-response","trial_index":67,"plugin_version":"2.1.0","time_elapsed":244886,"subject_id":"90582","group":"Group1","full_date":"2025-12-05T04:44:45.081Z","date":"2025-12-05","time":"04:44:45"},{"rt":null,"stimulus":"<p style=\"font-size: 50px; margin: 0; text-align: center;\">+</p>","response":null,"trial_type":"html-keyboard-response","trial_index":68,"plugin_version":"2.1.0","time_elapsed":245889,"subject_id":"90582","group":"Group1","full_date":"2025-12-05T04:44:45.081Z","date":"2025-12-05","time":"04:44:45"},{"task":"memory_phase","broad_category":"S","image_png":"S_Shale_12.png","image_id":476,"category_name":"Shale","category":30,"distinct_rating":2.48,"distinct_type":"Bottom","rt":null,"stimulus":"Stimuli_Rocks480/S_Shale_12.png","response":null,"trial_type":"image-keyboard-response","trial_index":69,"plugin_version":"2.1.0","time_elapsed":248392,"subject_id":"90582","group":"Group1","full_date":"2025-12-05T04:44:45.081Z","date":"2025-12-05","time":"04:44:45"},{"rt":null,"stimulus":"<p style=\"font-size: 50px; margin: 0; text-align: center;\">+</p>","response":null,"trial_type":"html-keyboard-response","trial_index":70,"plugin_version":"2.1.0","time_elapsed":249395,"subject_id":"90582","group":"Group1","full_date":"2025-12-05T04:44:45.081Z","date":"2025-12-05","time":"04:44:45"},{"task":"memory_phase","broad_category":"I","image_png":"I_Andesite_08.png","image_id":8,"category_name":"Andesite","category":1,"distinct_rating":1.95,"distinct_type":"Bottom","rt":null,"stimulus":"Stimuli_Rocks480/I_Andesite_08.png","response":null,"trial_type":"image-keyboard-response","trial_index":71,"plugin_version":"2.1.0","time_elapsed":251899,"subject_id":"90582","group":"Group1","full_date":"2025-12-05T04:44:45.081Z","date":"2025-12-05","time":"04:44:45"},{"rt":null,"stimulus":"<p style=\"font-size: 50px; margin: 0; text-align: center;\">+</p>","response":null,"trial_type":"html-keyboard-response","trial_index":72,"plugin_version":"2.1.0","time_elapsed":252901,"subject_id":"90582","group":"Group1","full_date":"2025-12-05T04:44:45.081Z","date":"2025-12-05","time":"04:44:45"},{"task":"memory_phase","broad_category":"I","image_png":"I_Diorite_05.png","image_id":37,"category_name":"Diorite","category":3,"distinct_rating":3.08,"distinct_type":"Bottom","rt":null,"stimulus":"Stimuli_Rocks480/I_Diorite_05.png","response":null,"trial_type":"image-keyboard-response","trial_index":73,"plugin_version":"2.1.0","time_elapsed":255405,"subject_id":"90582","group":"Group1","full_date":"2025-12-05T04:44:45.081Z","date":"2025-12-05","time":"04:44:45"},{"rt":null,"stimulus":"<p style=\"font-size: 50px; margin: 0; text-align: center;\">+</p>","response":null,"trial_type":"html-keyboard-response","trial_index":74,"plugin_version":"2.1.0","time_elapsed":256408,"subject_id":"90582","group":"Group1","full_date":"2025-12-05T04:44:45.081Z","date":"2025-12-05","time":"04:44:45"},{"task":"memory_phase","broad_category":"M","image_png":"M_Phyllite_03.png","image_id":259,"category_name":"Phyllite","category":17,"distinct_rating":2.5,"distinct_type":"Bottom","rt":null,"stimulus":"Stimuli_Rocks480/M_Phyllite_03.png","response":null,"trial_type":"image-keyboard-response","trial_index":75,"plugin_version":"2.1.0","time_elapsed":258911,"subject_id":"90582","group":"Group1","full_date":"2025-12-05T04:44:45.081Z","date":"2025-12-05","time":"04:44:45"},{"rt":null,"stimulus":"<p style=\"font-size: 50px; margin: 0; text-align: center;\">+</p>","response":null,"trial_type":"html-keyboard-response","trial_index":76,"plugin_version":"2.1.0","time_elapsed":259914,"subject_id":"90582","group":"Group1","full_date":"2025-12-05T04:44:45.081Z","date":"2025-12-05","time":"04:44:45"},{"task":"memory_phase","broad_category":"M","image_png":"M_Phyllite_10.png","image_id":266,"category_name":"Phyllite","category":17,"distinct_rating":2.6,"distinct_type":"Bottom","rt":null,"stimulus":"Stimuli_Rocks480/M_Phyllite_10.png","response":null,"trial_type":"image-keyboard-response","trial_index":77,"plugin_version":"2.1.0","time_elapsed":262417,"subject_id":"90582","group":"Group1","full_date":"2025-12-05T04:44:45.081Z","date":"2025-12-05","time":"04:44:45"},{"rt":null,"stimulus":"<p style=\"font-size: 50px; margin: 0; text-align: center;\">+</p>","response":null,"trial_type":"html-keyboard-response","trial_index":78,"plugin_version":"2.1.0","time_elapsed":263420,"subject_id":"90582","group":"Group1","full_date":"2025-12-05T04:44:45.081Z","date":"2025-12-05","time":"04:44:45"},{"task":"memory_phase","broad_category":"M","image_png":"M_Marble_04.png","image_id":228,"category_name":"Marble","category":15,"distinct_rating":3.15,"distinct_type":"Bottom","rt":null,"stimulus":"Stimuli_Rocks480/M_Marble_04.png","response":null,"trial_type":"image-keyboard-response","trial_index":79,"plugin_version":"2.1.0","time_elapsed":265923,"subject_id":"90582","group":"Group1","full_date":"2025-12-05T04:44:45.081Z","date":"2025-12-05","time":"04:44:45"},{"rt":null,"stimulus":"<p style=\"font-size: 50px; margin: 0; text-align: center;\">+</p>","response":null,"trial_type":"html-keyboard-response","trial_index":80,"plugin_version":"2.1.0","time_elapsed":266926,"subject_id":"90582","group":"Group1","full_date":"2025-12-05T04:44:45.081Z","date":"2025-12-05","time":"04:44:45"},{"task":"memory_phase","broad_category":"M","image_png":"M_Marble_16.png","image_id":240,"category_name":"Marble","category":15,"distinct_rating":2.57,"distinct_type":"Bottom","rt":null,"stimulus":"Stimuli_Rocks480/M_Marble_16.png","response":null,"trial_type":"image-keyboard-response","trial_index":81,"plugin_version":"2.1.0","time_elapsed":269429,"subject_id":"90582","group":"Group1","full_date":"2025-12-05T04:44:45.081Z","date":"2025-12-05","time":"04:44:45"},{"rt":null,"stimulus":"<p style=\"font-size: 50px; margin: 0; text-align: center;\">+</p>","response":null,"trial_type":"html-keyboard-response","trial_index":82,"plugin_version":"2.1.0","time_elapsed":270432,"subject_id":"90582","group":"Group1","full_date":"2025-12-05T04:44:45.081Z","date":"2025-12-05","time":"04:44:45"},{"task":"memory_phase","broad_category":"I","image_png":"I_Gabbro_16.png","image_id":64,"category_name":"Gabbro","category":4,"distinct_rating":2.52,"distinct_type":"Bottom","rt":null,"stimulus":"Stimuli_Rocks480/I_Gabbro_16.png","response":null,"trial_type":"image-keyboard-response","trial_index":83,"plugin_version":"2.1.0","time_elapsed":272934,"subject_id":"90582","group":"Group1","full_date":"2025-12-05T04:44:45.081Z","date":"2025-12-05","time":"04:44:45"},{"rt":null,"stimulus":"<p style=\"font-size: 50px; margin: 0; text-align: center;\">+</p>","response":null,"trial_type":"html-keyboard-response","trial_index":84,"plugin_version":"2.1.0","time_elapsed":273937,"subject_id":"90582","group":"Group1","full_date":"2025-12-05T04:44:45.081Z","date":"2025-12-05","time":"04:44:45"},{"task":"memory_phase","broad_category":"S","image_png":"S_Dolomite_12.png","image_id":396,"category_name":"Dolomite","category":25,"distinct_rating":1.85,"distinct_type":"Bottom","rt":null,"stimulus":"Stimuli_Rocks480/S_Dolomite_12.png","response":null,"trial_type":"image-keyboard-response","trial_index":85,"plugin_version":"2.1.0","time_elapsed":276440,"subject_id":"90582","group":"Group1","full_date":"2025-12-05T04:44:45.081Z","date":"2025-12-05","time":"04:44:45"},{"rt":null,"stimulus":"<p style=\"font-size: 50px; margin: 0; text-align: center;\">+</p>","response":null,"trial_type":"html-keyboard-response","trial_index":86,"plugin_version":"2.1.0","time_elapsed":277443,"subject_id":"90582","group":"Group1","full_date":"2025-12-05T04:44:45.081Z","date":"2025-12-05","time":"04:44:45"},{"task":"memory_phase","broad_category":"I","image_png":"I_Pumice_12.png","image_id":140,"category_name":"Pumice","category":9,"distinct_rating":2.97,"distinct_type":"Bottom","rt":null,"stimulus":"Stimuli_Rocks480/I_Pumice_12.png","response":null,"trial_type":"image-keyboard-response","trial_index":87,"plugin_version":"2.1.0","time_elapsed":279946,"subject_id":"90582","group":"Group1","full_date":"2025-12-05T04:44:45.081Z","date":"2025-12-05","time":"04:44:45"},{"rt":null,"stimulus":"<p style=\"font-size: 50px; margin: 0; text-align: center;\">+</p>","response":null,"trial_type":"html-keyboard-response","trial_index":88,"plugin_version":"2.1.0","time_elapsed":280949,"subject_id":"90582","group":"Group1","full_date":"2025-12-05T04:44:45.081Z","date":"2025-12-05","time":"04:44:45"},{"task":"memory_phase","broad_category":"S","image_png":"S_Conglomerate_05.png","image_id":373,"category_name":"Conglomerate","category":24,"distinct_rating":7.32,"distinct_type":"Top","rt":null,"stimulus":"Stimuli_Rocks480/S_Conglomerate_05.png","response":null,"trial_type":"image-keyboard-response","trial_index":89,"plugin_version":"2.1.0","time_elapsed":283452,"subject_id":"90582","group":"Group1","full_date":"2025-12-05T04:44:45.081Z","date":"2025-12-05","time":"04:44:45"},{"rt":null,"stimulus":"<p style=\"font-size: 50px; margin: 0; text-align: center;\">+</p>","response":null,"trial_type":"html-keyboard-response","trial_index":90,"plugin_version":"2.1.0","time_elapsed":284456,"subject_id":"90582","group":"Group1","full_date":"2025-12-05T04:44:45.081Z","date":"2025-12-05","time":"04:44:45"},{"task":"memory_phase","broad_category":"I","image_png":"I_Obsidian_05.png","image_id":85,"category_name":"Obsidian","category":6,"distinct_rating":7.32,"distinct_type":"Top","rt":null,"stimulus":"Stimuli_Rocks480/I_Obsidian_05.png","response":null,"trial_type":"image-keyboard-response","trial_index":91,"plugin_version":"2.1.0","time_elapsed":286959,"subject_id":"90582","group":"Group1","full_date":"2025-12-05T04:44:45.081Z","date":"2025-12-05","time":"04:44:45"},{"rt":null,"stimulus":"<p style=\"font-size: 50px; margin: 0; text-align: center;\">+</p>","response":null,"trial_type":"html-keyboard-response","trial_index":92,"plugin_version":"2.1.0","time_elapsed":287962,"subject_id":"90582","group":"Group1","full_date":"2025-12-05T04:44:45.081Z","date":"2025-12-05","time":"04:44:45"},{"task":"memory_phase","broad_category":"I","image_png":"I_Gabbro_08.png","image_id":56,"category_name":"Gabbro","category":4,"distinct_rating":3.02,"distinct_type":"Bottom","rt":null,"stimulus":"Stimuli_Rocks480/I_Gabbro_08.png","response":null,"trial_type":"image-keyboard-response","trial_index":93,"plugin_version":"2.1.0","time_elapsed":290465,"subject_id":"90582","group":"Group1","full_date":"2025-12-05T04:44:45.081Z","date":"2025-12-05","time":"04:44:45"},{"rt":null,"stimulus":"<p style=\"font-size: 50px; margin: 0; text-align: center;\">+</p>","response":null,"trial_type":"html-keyboard-response","trial_index":94,"plugin_version":"2.1.0","time_elapsed":291467,"subject_id":"90582","group":"Group1","full_date":"2025-12-05T04:44:45.081Z","date":"2025-12-05","time":"04:44:45"},{"task":"memory_phase","broad_category":"I","image_png":"I_Diorite_04.png","image_id":36,"category_name":"Diorite","category":3,"distinct_rating":2.98,"distinct_type":"Bottom","rt":null,"stimulus":"Stimuli_Rocks480/I_Diorite_04.png","response":null,"trial_type":"image-keyboard-response","trial_index":95,"plugin_version":"2.1.0","time_elapsed":293970,"subject_id":"90582","group":"Group1","full_date":"2025-12-05T04:44:45.081Z","date":"2025-12-05","time":"04:44:45"},{"rt":null,"stimulus":"<p style=\"font-size: 50px; margin: 0; text-align: center;\">+</p>","response":null,"trial_type":"html-keyboard-response","trial_index":96,"plugin_version":"2.1.0","time_elapsed":294973,"subject_id":"90582","group":"Group1","full_date":"2025-12-05T04:44:45.081Z","date":"2025-12-05","time":"04:44:45"},{"task":"memory_phase","broad_category":"I","image_png":"I_Basalt_01.png","image_id":17,"category_name":"Basalt","category":2,"distinct_rating":1.92,"distinct_type":"Bottom","rt":null,"stimulus":"Stimuli_Rocks480/I_Basalt_01.png","response":null,"trial_type":"image-keyboard-response","trial_index":97,"plugin_version":"2.1.0","time_elapsed":297476,"subject_id":"90582","group":"Group1","full_date":"2025-12-05T04:44:45.081Z","date":"2025-12-05","time":"04:44:45"},{"rt":null,"stimulus":"<p style=\"font-size: 50px; margin: 0; text-align: center;\">+</p>","response":null,"trial_type":"html-keyboard-response","trial_index":98,"plugin_version":"2.1.0","time_elapsed":298479,"subject_id":"90582","group":"Group1","full_date":"2025-12-05T04:44:45.081Z","date":"2025-12-05","time":"04:44:45"},{"task":"memory_phase","broad_category":"M","image_png":"M_Quartzite_13.png","image_id":285,"category_name":"Quartzite","category":18,"distinct_rating":2.27,"distinct_type":"Bottom","rt":null,"stimulus":"Stimuli_Rocks480/M_Quartzite_13.png","response":null,"trial_type":"image-keyboard-response","trial_index":99,"plugin_version":"2.1.0","time_elapsed":300982,"subject_id":"90582","group":"Group1","full_date":"2025-12-05T04:44:45.081Z","date":"2025-12-05","time":"04:44:45"},{"rt":null,"stimulus":"<p style=\"font-size: 50px; margin: 0; text-align: center;\">+</p>","response":null,"trial_type":"html-keyboard-response","trial_index":100,"plugin_version":"2.1.0","time_elapsed":301985,"subject_id":"90582","group":"Group1","full_date":"2025-12-05T04:44:45.081Z","date":"2025-12-05","time":"04:44:45"},{"task":"memory_phase","broad_category":"M","image_png":"M_Slate_03.png","image_id":307,"category_name":"Slate","category":20,"distinct_rating":1.87,"distinct_type":"Bottom","rt":null,"stimulus":"Stimuli_Rocks480/M_Slate_03.png","response":null,"trial_type":"image-keyboard-response","trial_index":101,"plugin_version":"2.1.0","time_elapsed":304488,"subject_id":"90582","group":"Group1","full_date":"2025-12-05T04:44:45.081Z","date":"2025-12-05","time":"04:44:45"},{"rt":null,"stimulus":"<p style=\"font-size: 50px; margin: 0; text-align: center;\">+</p>","response":null,"trial_type":"html-keyboard-response","trial_index":102,"plugin_version":"2.1.0","time_elapsed":305491,"subject_id":"90582","group":"Group1","full_date":"2025-12-05T04:44:45.081Z","date":"2025-12-05","time":"04:44:45"},{"task":"memory_phase","broad_category":"S","image_png":"S_Dolomite_13.png","image_id":397,"category_name":"Dolomite","category":25,"distinct_rating":1.77,"distinct_type":"Bottom","rt":null,"stimulus":"Stimuli_Rocks480/S_Dolomite_13.png","response":null,"trial_type":"image-keyboard-response","trial_index":103,"plugin_version":"2.1.0","time_elapsed":307994,"subject_id":"90582","group":"Group1","full_date":"2025-12-05T04:44:45.081Z","date":"2025-12-05","time":"04:44:45"},{"rt":null,"stimulus":"<p style=\"font-size: 50px; margin: 0; text-align: center;\">+</p>","response":null,"trial_type":"html-keyboard-response","trial_index":104,"plugin_version":"2.1.0","time_elapsed":308997,"subject_id":"90582","group":"Group1","full_date":"2025-12-05T04:44:45.081Z","date":"2025-12-05","time":"04:44:45"},{"task":"memory_phase","broad_category":"S","image_png":"S_Sandstone_03.png","image_id":451,"category_name":"Sandstone","category":29,"distinct_rating":1.86,"distinct_type":"Bottom","rt":null,"stimulus":"Stimuli_Rocks480/S_Sandstone_03.png","response":null,"trial_type":"image-keyboard-response","trial_index":105,"plugin_version":"2.1.0","time_elapsed":311500,"subject_id":"90582","group":"Group1","full_date":"2025-12-05T04:44:45.081Z","date":"2025-12-05","time":"04:44:45"},{"rt":49370,"stimulus":"<p style=\"max-width: 760px; margin: auto; font-size: 35px; line-height: 1.5;\">You have completed 1 study phase. Now, we'll show you all the images again 2 more times.<br><br>Press SPACE to continue</p>","response":" ","trial_type":"html-keyboard-response","trial_index":106,"plugin_version":"2.1.0","time_elapsed":360868,"subject_id":"90582","group":"Group1","full_date":"2025-12-05T04:44:45.081Z","date":"2025-12-05","time":"04:44:45"},{"rt":null,"stimulus":"<p style=\"font-size: 50px; margin: 0; text-align: center;\">+</p>","response":null,"trial_type":"html-keyboard-response","trial_index":107,"plugin_version":"2.1.0","time_elapsed":361872,"subject_id":"90582","group":"Group1","full_date":"2025-12-05T04:44:45.081Z","date":"2025-12-05","time":"04:44:45"},{"task":"memory_phase","broad_category":"I","image_png":"I_Basalt_02.png","image_id":18,"category_name":"Basalt","category":2,"distinct_rating":1.84,"distinct_type":"Bottom","rt":null,"stimulus":"Stimuli_Rocks480/I_Basalt_02.png","response":null,"trial_type":"image-keyboard-response","trial_index":108,"plugin_version":"2.1.0","time_elapsed":364375,"subject_id":"90582","group":"Group1","full_date":"2025-12-05T04:44:45.081Z","date":"2025-12-05","time":"04:44:45"},{"rt":null,"stimulus":"<p style=\"font-size: 50px; margin: 0; text-align: center;\">+</p>","response":null,"trial_type":"html-keyboard-response","trial_index":109,"plugin_version":"2.1.0","time_elapsed":365377,"subject_id":"90582","group":"Group1","full_date":"2025-12-05T04:44:45.081Z","date":"2025-12-05","time":"04:44:45"},{"task":"memory_phase","broad_category":"I","image_png":"I_Rhyolite_16.png","image_id":160,"category_name":"Rhyolite","category":10,"distinct_rating":2.19,"distinct_type":"Bottom","rt":null,"stimulus":"Stimuli_Rocks480/I_Rhyolite_16.png","response":null,"trial_type":"image-keyboard-response","trial_index":110,"plugin_version":"2.1.0","time_elapsed":367880,"subject_id":"90582","group":"Group1","full_date":"2025-12-05T04:44:45.081Z","date":"2025-12-05","time":"04:44:45"},{"rt":null,"stimulus":"<p style=\"font-size: 50px; margin: 0; text-align: center;\">+</p>","response":null,"trial_type":"html-keyboard-response","trial_index":111,"plugin_version":"2.1.0","time_elapsed":368882,"subject_id":"90582","group":"Group1","full_date":"2025-12-05T04:44:45.081Z","date":"2025-12-05","time":"04:44:45"},{"task":"memory_phase","broad_category":"M","image_png":"M_Phyllite_07.png","image_id":263,"category_name":"Phyllite","category":17,"distinct_rating":2.59,"distinct_type":"Bottom","rt":null,"stimulus":"Stimuli_Rocks480/M_Phyllite_07.png","response":null,"trial_type":"image-keyboard-response","trial_index":112,"plugin_version":"2.1.0","time_elapsed":371385,"subject_id":"90582","group":"Group1","full_date":"2025-12-05T04:44:45.081Z","date":"2025-12-05","time":"04:44:45"},{"rt":null,"stimulus":"<p style=\"font-size: 50px; margin: 0; text-align: center;\">+</p>","response":null,"trial_type":"html-keyboard-response","trial_index":113,"plugin_version":"2.1.0","time_elapsed":372388,"subject_id":"90582","group":"Group1","full_date":"2025-12-05T04:44:45.081Z","date":"2025-12-05","time":"04:44:45"},{"task":"memory_phase","broad_category":"I","image_png":"I_Basalt_09.png","image_id":25,"category_name":"Basalt","category":2,"distinct_rating":1.89,"distinct_type":"Bottom","rt":null,"stimulus":"Stimuli_Rocks480/I_Basalt_09.png","response":null,"trial_type":"image-keyboard-response","trial_index":114,"plugin_version":"2.1.0","time_elapsed":374891,"subject_id":"90582","group":"Group1","full_date":"2025-12-05T04:44:45.081Z","date":"2025-12-05","time":"04:44:45"},{"rt":null,"stimulus":"<p style=\"font-size: 50px; margin: 0; text-align: center;\">+</p>","response":null,"trial_type":"html-keyboard-response","trial_index":115,"plugin_version":"2.1.0","time_elapsed":375894,"subject_id":"90582","group":"Group1","full_date":"2025-12-05T04:44:45.081Z","date":"2025-12-05","time":"04:44:45"},{"task":"memory_phase","broad_category":"S","image_png":"S_Sandstone_16.png","image_id":464,"category_name":"Sandstone","category":29,"distinct_rating":1.93,"distinct_type":"Bottom","rt":null,"stimulus":"Stimuli_Rocks480/S_Sandstone_16.png","response":null,"trial_type":"image-keyboard-response","trial_index":116,"plugin_version":"2.1.0","time_elapsed":378397,"subject_id":"90582","group":"Group1","full_date":"2025-12-05T04:44:45.081Z","date":"2025-12-05","time":"04:44:45"},{"rt":null,"stimulus":"<p style=\"font-size: 50px; margin: 0; text-align: center;\">+</p>","response":null,"trial_type":"html-keyboard-response","trial_index":117,"plugin_version":"2.1.0","time_elapsed":379399,"subject_id":"90582","group":"Group1","full_date":"2025-12-05T04:44:45.081Z","date":"2025-12-05","time":"04:44:45"},{"task":"memory_phase","broad_category":"I","image_png":"I_Diorite_05.png","image_id":37,"category_name":"Diorite","category":3,"distinct_rating":3.08,"distinct_type":"Bottom","rt":null,"stimulus":"Stimuli_Rocks480/I_Diorite_05.png","response":null,"trial_type":"image-keyboard-response","trial_index":118,"plugin_version":"2.1.0","time_elapsed":381903,"subject_id":"90582","group":"Group1","full_date":"2025-12-05T04:44:45.081Z","date":"2025-12-05","time":"04:44:45"},{"rt":null,"stimulus":"<p style=\"font-size: 50px; margin: 0; text-align: center;\">+</p>","response":null,"trial_type":"html-keyboard-response","trial_index":119,"plugin_version":"2.1.0","time_elapsed":382906,"subject_id":"90582","group":"Group1","full_date":"2025-12-05T04:44:45.081Z","date":"2025-12-05","time":"04:44:45"},{"task":"memory_phase","broad_category":"S","image_png":"S_Chert_10.png","image_id":362,"category_name":"Chert","category":23,"distinct_rating":7.17,"distinct_type":"Top","rt":null,"stimulus":"Stimuli_Rocks480/S_Chert_10.png","response":null,"trial_type":"image-keyboard-response","trial_index":120,"plugin_version":"2.1.0","time_elapsed":385409,"subject_id":"90582","group":"Group1","full_date":"2025-12-05T04:44:45.081Z","date":"2025-12-05","time":"04:44:45"},{"rt":null,"stimulus":"<p style=\"font-size: 50px; margin: 0; text-align: center;\">+</p>","response":null,"trial_type":"html-keyboard-response","trial_index":121,"plugin_version":"2.1.0","time_elapsed":386412,"subject_id":"90582","group":"Group1","full_date":"2025-12-05T04:44:45.081Z","date":"2025-12-05","time":"04:44:45"},{"task":"memory_phase","broad_category":"M","image_png":"M_Slate_03.png","image_id":307,"category_name":"Slate","category":20,"distinct_rating":1.87,"distinct_type":"Bottom","rt":null,"stimulus":"Stimuli_Rocks480/M_Slate_03.png","response":null,"trial_type":"image-keyboard-response","trial_index":122,"plugin_version":"2.1.0","time_elapsed":388915,"subject_id":"90582","group":"Group1","full_date":"2025-12-05T04:44:45.081Z","date":"2025-12-05","time":"04:44:45"},{"rt":null,"stimulus":"<p style=\"font-size: 50px; margin: 0; text-align: center;\">+</p>","response":null,"trial_type":"html-keyboard-response","trial_index":123,"plugin_version":"2.1.0","time_elapsed":389918,"subject_id":"90582","group":"Group1","full_date":"2025-12-05T04:44:45.081Z","date":"2025-12-05","time":"04:44:45"},{"task":"memory_phase","broad_category":"M","image_png":"M_Phyllite_10.png","image_id":266,"category_name":"Phyllite","category":17,"distinct_rating":2.6,"distinct_type":"Bottom","rt":null,"stimulus":"Stimuli_Rocks480/M_Phyllite_10.png","response":null,"trial_type":"image-keyboard-response","trial_index":124,"plugin_version":"2.1.0","time_elapsed":392420,"subject_id":"90582","group":"Group1","full_date":"2025-12-05T04:44:45.081Z","date":"2025-12-05","time":"04:44:45"},{"rt":null,"stimulus":"<p style=\"font-size: 50px; margin: 0; text-align: center;\">+</p>","response":null,"trial_type":"html-keyboard-response","trial_index":125,"plugin_version":"2.1.0","time_elapsed":393422,"subject_id":"90582","group":"Group1","full_date":"2025-12-05T04:44:45.081Z","date":"2025-12-05","time":"04:44:45"},{"task":"memory_phase","broad_category":"I","image_png":"I_Pumice_08.png","image_id":136,"category_name":"Pumice","category":9,"distinct_rating":3.1,"distinct_type":"Bottom","rt":null,"stimulus":"Stimuli_Rocks480/I_Pumice_08.png","response":null,"trial_type":"image-keyboard-response","trial_index":126,"plugin_version":"2.1.0","time_elapsed":395926,"subject_id":"90582","group":"Group1","full_date":"2025-12-05T04:44:45.081Z","date":"2025-12-05","time":"04:44:45"},{"rt":null,"stimulus":"<p style=\"font-size: 50px; margin: 0; text-align: center;\">+</p>","response":null,"trial_type":"html-keyboard-response","trial_index":127,"plugin_version":"2.1.0","time_elapsed":396929,"subject_id":"90582","group":"Group1","full_date":"2025-12-05T04:44:45.081Z","date":"2025-12-05","time":"04:44:45"},{"task":"memory_phase","broad_category":"I","image_png":"I_Diorite_03.png","image_id":35,"category_name":"Diorite","category":3,"distinct_rating":3.14,"distinct_type":"Bottom","rt":null,"stimulus":"Stimuli_Rocks480/I_Diorite_03.png","response":null,"trial_type":"image-keyboard-response","trial_index":128,"plugin_version":"2.1.0","time_elapsed":399432,"subject_id":"90582","group":"Group1","full_date":"2025-12-05T04:44:45.081Z","date":"2025-12-05","time":"04:44:45"},{"rt":null,"stimulus":"<p style=\"font-size: 50px; margin: 0; text-align: center;\">+</p>","response":null,"trial_type":"html-keyboard-response","trial_index":129,"plugin_version":"2.1.0","time_elapsed":400434,"subject_id":"90582","group":"Group1","full_date":"2025-12-05T04:44:45.081Z","date":"2025-12-05","time":"04:44:45"},{"task":"memory_phase","broad_category":"I","image_png":"I_Gabbro_16.png","image_id":64,"category_name":"Gabbro","category":4,"distinct_rating":2.52,"distinct_type":"Bottom","rt":null,"stimulus":"Stimuli_Rocks480/I_Gabbro_16.png","response":null,"trial_type":"image-keyboard-response","trial_index":130,"plugin_version":"2.1.0","time_elapsed":402937,"subject_id":"90582","group":"Group1","full_date":"2025-12-05T04:44:45.081Z","date":"2025-12-05","time":"04:44:45"},{"rt":null,"stimulus":"<p style=\"font-size: 50px; margin: 0; text-align: center;\">+</p>","response":null,"trial_type":"html-keyboard-response","trial_index":131,"plugin_version":"2.1.0","time_elapsed":403940,"subject_id":"90582","group":"Group1","full_date":"2025-12-05T04:44:45.081Z","date":"2025-12-05","time":"04:44:45"},{"task":"memory_phase","broad_category":"M","image_png":"M_Quartzite_05.png","image_id":277,"category_name":"Quartzite","category":18,"distinct_rating":2.23,"distinct_type":"Bottom","rt":null,"stimulus":"Stimuli_Rocks480/M_Quartzite_05.png","response":null,"trial_type":"image-keyboard-response","trial_index":132,"plugin_version":"2.1.0","time_elapsed":406457,"subject_id":"90582","group":"Group1","full_date":"2025-12-05T04:44:45.081Z","date":"2025-12-05","time":"04:44:45"},{"rt":null,"stimulus":"<p style=\"font-size: 50px; margin: 0; text-align: center;\">+</p>","response":null,"trial_type":"html-keyboard-response","trial_index":133,"plugin_version":"2.1.0","time_elapsed":407460,"subject_id":"90582","group":"Group1","full_date":"2025-12-05T04:44:45.081Z","date":"2025-12-05","time":"04:44:45"},{"task":"memory_phase","broad_category":"S","image_png":"S_Shale_12.png","image_id":476,"category_name":"Shale","category":30,"distinct_rating":2.48,"distinct_type":"Bottom","rt":null,"stimulus":"Stimuli_Rocks480/S_Shale_12.png","response":null,"trial_type":"image-keyboard-response","trial_index":134,"plugin_version":"2.1.0","time_elapsed":409963,"subject_id":"90582","group":"Group1","full_date":"2025-12-05T04:44:45.081Z","date":"2025-12-05","time":"04:44:45"},{"rt":null,"stimulus":"<p style=\"font-size: 50px; margin: 0; text-align: center;\">+</p>","response":null,"trial_type":"html-keyboard-response","trial_index":135,"plugin_version":"2.1.0","time_elapsed":410965,"subject_id":"90582","group":"Group1","full_date":"2025-12-05T04:44:45.081Z","date":"2025-12-05","time":"04:44:45"},{"task":"memory_phase","broad_category":"S","image_png":"S_Shale_01.png","image_id":465,"category_name":"Shale","category":30,"distinct_rating":2.7,"distinct_type":"Bottom","rt":null,"stimulus":"Stimuli_Rocks480/S_Shale_01.png","response":null,"trial_type":"image-keyboard-response","trial_index":136,"plugin_version":"2.1.0","time_elapsed":413469,"subject_id":"90582","group":"Group1","full_date":"2025-12-05T04:44:45.081Z","date":"2025-12-05","time":"04:44:45"},{"rt":null,"stimulus":"<p style=\"font-size: 50px; margin: 0; text-align: center;\">+</p>","response":null,"trial_type":"html-keyboard-response","trial_index":137,"plugin_version":"2.1.0","time_elapsed":414471,"subject_id":"90582","group":"Group1","full_date":"2025-12-05T04:44:45.081Z","date":"2025-12-05","time":"04:44:45"},{"task":"memory_phase","broad_category":"I","image_png":"I_Andesite_10.png","image_id":10,"category_name":"Andesite","category":1,"distinct_rating":3.15,"distinct_type":"Bottom","rt":null,"stimulus":"Stimuli_Rocks480/I_Andesite_10.png","response":null,"trial_type":"image-keyboard-response","trial_index":138,"plugin_version":"2.1.0","time_elapsed":416974,"subject_id":"90582","group":"Group1","full_date":"2025-12-05T04:44:45.081Z","date":"2025-12-05","time":"04:44:45"},{"rt":null,"stimulus":"<p style=\"font-size: 50px; margin: 0; text-align: center;\">+</p>","response":null,"trial_type":"html-keyboard-response","trial_index":139,"plugin_version":"2.1.0","time_elapsed":417977,"subject_id":"90582","group":"Group1","full_date":"2025-12-05T04:44:45.081Z","date":"2025-12-05","time":"04:44:45"},{"task":"memory_phase","broad_category":"I","image_png":"I_Basalt_01.png","image_id":17,"category_name":"Basalt","category":2,"distinct_rating":1.92,"distinct_type":"Bottom","rt":null,"stimulus":"Stimuli_Rocks480/I_Basalt_01.png","response":null,"trial_type":"image-keyboard-response","trial_index":140,"plugin_version":"2.1.0","time_elapsed":420480,"subject_id":"90582","group":"Group1","full_date":"2025-12-05T04:44:45.081Z","date":"2025-12-05","time":"04:44:45"},{"rt":null,"stimulus":"<p style=\"font-size: 50px; margin: 0; text-align: center;\">+</p>","response":null,"trial_type":"html-keyboard-response","trial_index":141,"plugin_version":"2.1.0","time_elapsed":421483,"subject_id":"90582","group":"Group1","full_date":"2025-12-05T04:44:45.081Z","date":"2025-12-05","time":"04:44:45"},{"task":"memory_phase","broad_category":"S","image_png":"S_Rock Gypsum_04.png","image_id":420,"category_name":"Rock Gypsum","category":27,"distinct_rating":7.61,"distinct_type":"Top","rt":null,"stimulus":"Stimuli_Rocks480/S_Rock Gypsum_04.png","response":null,"trial_type":"image-keyboard-response","trial_index":142,"plugin_version":"2.1.0","time_elapsed":423986,"subject_id":"90582","group":"Group1","full_date":"2025-12-05T04:44:45.081Z","date":"2025-12-05","time":"04:44:45"},{"rt":null,"stimulus":"<p style=\"font-size: 50px; margin: 0; text-align: center;\">+</p>","response":null,"trial_type":"html-keyboard-response","trial_index":143,"plugin_version":"2.1.0","time_elapsed":424989,"subject_id":"90582","group":"Group1","full_date":"2025-12-05T04:44:45.081Z","date":"2025-12-05","time":"04:44:45"},{"task":"memory_phase","broad_category":"S","image_png":"S_Conglomerate_05.png","image_id":373,"category_name":"Conglomerate","category":24,"distinct_rating":7.32,"distinct_type":"Top","rt":null,"stimulus":"Stimuli_Rocks480/S_Conglomerate_05.png","response":null,"trial_type":"image-keyboard-response","trial_index":144,"plugin_version":"2.1.0","time_elapsed":427492,"subject_id":"90582","group":"Group1","full_date":"2025-12-05T04:44:45.081Z","date":"2025-12-05","time":"04:44:45"},{"rt":null,"stimulus":"<p style=\"font-size: 50px; margin: 0; text-align: center;\">+</p>","response":null,"trial_type":"html-keyboard-response","trial_index":145,"plugin_version":"2.1.0","time_elapsed":428495,"subject_id":"90582","group":"Group1","full_date":"2025-12-05T04:44:45.081Z","date":"2025-12-05","time":"04:44:45"},{"task":"memory_phase","broad_category":"I","image_png":"I_Andesite_08.png","image_id":8,"category_name":"Andesite","category":1,"distinct_rating":1.95,"distinct_type":"Bottom","rt":null,"stimulus":"Stimuli_Rocks480/I_Andesite_08.png","response":null,"trial_type":"image-keyboard-response","trial_index":146,"plugin_version":"2.1.0","time_elapsed":430998,"subject_id":"90582","group":"Group1","full_date":"2025-12-05T04:44:45.081Z","date":"2025-12-05","time":"04:44:45"},{"rt":null,"stimulus":"<p style=\"font-size: 50px; margin: 0; text-align: center;\">+</p>","response":null,"trial_type":"html-keyboard-response","trial_index":147,"plugin_version":"2.1.0","time_elapsed":432001,"subject_id":"90582","group":"Group1","full_date":"2025-12-05T04:44:45.081Z","date":"2025-12-05","time":"04:44:45"},{"task":"memory_phase","broad_category":"S","image_png":"S_Dolomite_12.png","image_id":396,"category_name":"Dolomite","category":25,"distinct_rating":1.85,"distinct_type":"Bottom","rt":null,"stimulus":"Stimuli_Rocks480/S_Dolomite_12.png","response":null,"trial_type":"image-keyboard-response","trial_index":148,"plugin_version":"2.1.0","time_elapsed":434503,"subject_id":"90582","group":"Group1","full_date":"2025-12-05T04:44:45.081Z","date":"2025-12-05","time":"04:44:45"},{"rt":null,"stimulus":"<p style=\"font-size: 50px; margin: 0; text-align: center;\">+</p>","response":null,"trial_type":"html-keyboard-response","trial_index":149,"plugin_version":"2.1.0","time_elapsed":435506,"subject_id":"90582","group":"Group1","full_date":"2025-12-05T04:44:45.081Z","date":"2025-12-05","time":"04:44:45"},{"task":"memory_phase","broad_category":"I","image_png":"I_Pumice_12.png","image_id":140,"category_name":"Pumice","category":9,"distinct_rating":2.97,"distinct_type":"Bottom","rt":null,"stimulus":"Stimuli_Rocks480/I_Pumice_12.png","response":null,"trial_type":"image-keyboard-response","trial_index":150,"plugin_version":"2.1.0","time_elapsed":438010,"subject_id":"90582","group":"Group1","full_date":"2025-12-05T04:44:45.081Z","date":"2025-12-05","time":"04:44:45"},{"rt":null,"stimulus":"<p style=\"font-size: 50px; margin: 0; text-align: center;\">+</p>","response":null,"trial_type":"html-keyboard-response","trial_index":151,"plugin_version":"2.1.0","time_elapsed":439013,"subject_id":"90582","group":"Group1","full_date":"2025-12-05T04:44:45.081Z","date":"2025-12-05","time":"04:44:45"},{"task":"memory_phase","broad_category":"M","image_png":"M_Marble_04.png","image_id":228,"category_name":"Marble","category":15,"distinct_rating":3.15,"distinct_type":"Bottom","rt":null,"stimulus":"Stimuli_Rocks480/M_Marble_04.png","response":null,"trial_type":"image-keyboard-response","trial_index":152,"plugin_version":"2.1.0","time_elapsed":441516,"subject_id":"90582","group":"Group1","full_date":"2025-12-05T04:44:45.081Z","date":"2025-12-05","time":"04:44:45"},{"rt":null,"stimulus":"<p style=\"font-size: 50px; margin: 0; text-align: center;\">+</p>","response":null,"trial_type":"html-keyboard-response","trial_index":153,"plugin_version":"2.1.0","time_elapsed":442519,"subject_id":"90582","group":"Group1","full_date":"2025-12-05T04:44:45.081Z","date":"2025-12-05","time":"04:44:45"},{"task":"memory_phase","broad_category":"M","image_png":"M_Gneiss_13.png","image_id":205,"category_name":"Gneiss","category":13,"distinct_rating":3.26,"distinct_type":"Bottom","rt":null,"stimulus":"Stimuli_Rocks480/M_Gneiss_13.png","response":null,"trial_type":"image-keyboard-response","trial_index":154,"plugin_version":"2.1.0","time_elapsed":445023,"subject_id":"90582","group":"Group1","full_date":"2025-12-05T04:44:45.081Z","date":"2025-12-05","time":"04:44:45"},{"rt":null,"stimulus":"<p style=\"font-size: 50px; margin: 0; text-align: center;\">+</p>","response":null,"trial_type":"html-keyboard-response","trial_index":155,"plugin_version":"2.1.0","time_elapsed":446025,"subject_id":"90582","group":"Group1","full_date":"2025-12-05T04:44:45.081Z","date":"2025-12-05","time":"04:44:45"},{"task":"memory_phase","broad_category":"I","image_png":"I_Pegmatite_10.png","image_id":106,"category_name":"Pegmatite","category":7,"distinct_rating":7.66,"distinct_type":"Top","rt":null,"stimulus":"Stimuli_Rocks480/I_Pegmatite_10.png","response":null,"trial_type":"image-keyboard-response","trial_index":156,"plugin_version":"2.1.0","time_elapsed":448528,"subject_id":"90582","group":"Group1","full_date":"2025-12-05T04:44:45.081Z","date":"2025-12-05","time":"04:44:45"},{"rt":30072,"stimulus":"<p style=\"max-width: 760px; margin: auto; font-size: 35px; line-height: 1.5;\">Press SPACE to continue study phase</p>","response":" ","trial_type":"html-keyboard-response","trial_index":157,"plugin_version":"2.1.0","time_elapsed":478599,"subject_id":"90582","group":"Group1","full_date":"2025-12-05T04:44:45.081Z","date":"2025-12-05","time":"04:44:45"},{"rt":null,"stimulus":"<p style=\"font-size: 50px; margin: 0; text-align: center;\">+</p>","response":null,"trial_type":"html-keyboard-response","trial_index":158,"plugin_version":"2.1.0","time_elapsed":479602,"subject_id":"90582","group":"Group1","full_date":"2025-12-05T04:44:45.081Z","date":"2025-12-05","time":"04:44:45"},{"task":"memory_phase","broad_category":"S","image_png":"S_Sandstone_03.png","image_id":451,"category_name":"Sandstone","category":29,"distinct_rating":1.86,"distinct_type":"Bottom","rt":null,"stimulus":"Stimuli_Rocks480/S_Sandstone_03.png","response":null,"trial_type":"image-keyboard-response","trial_index":159,"plugin_version":"2.1.0","time_elapsed":482105,"subject_id":"90582","group":"Group1","full_date":"2025-12-05T04:44:45.081Z","date":"2025-12-05","time":"04:44:45"},{"rt":null,"stimulus":"<p style=\"font-size: 50px; margin: 0; text-align: center;\">+</p>","response":null,"trial_type":"html-keyboard-response","trial_index":160,"plugin_version":"2.1.0","time_elapsed":483108,"subject_id":"90582","group":"Group1","full_date":"2025-12-05T04:44:45.081Z","date":"2025-12-05","time":"04:44:45"},{"task":"memory_phase","broad_category":"I","image_png":"I_Gabbro_08.png","image_id":56,"category_name":"Gabbro","category":4,"distinct_rating":3.02,"distinct_type":"Bottom","rt":null,"stimulus":"Stimuli_Rocks480/I_Gabbro_08.png","response":null,"trial_type":"image-keyboard-response","trial_index":161,"plugin_version":"2.1.0","time_elapsed":485611,"subject_id":"90582","group":"Group1","full_date":"2025-12-05T04:44:45.081Z","date":"2025-12-05","time":"04:44:45"},{"rt":null,"stimulus":"<p style=\"font-size: 50px; margin: 0; text-align: center;\">+</p>","response":null,"trial_type":"html-keyboard-response","trial_index":162,"plugin_version":"2.1.0","time_elapsed":486614,"subject_id":"90582","group":"Group1","full_date":"2025-12-05T04:44:45.081Z","date":"2025-12-05","time":"04:44:45"},{"task":"memory_phase","broad_category":"M","image_png":"M_Gneiss_05.png","image_id":197,"category_name":"Gneiss","category":13,"distinct_rating":2.97,"distinct_type":"Bottom","rt":null,"stimulus":"Stimuli_Rocks480/M_Gneiss_05.png","response":null,"trial_type":"image-keyboard-response","trial_index":163,"plugin_version":"2.1.0","time_elapsed":489117,"subject_id":"90582","group":"Group1","full_date":"2025-12-05T04:44:45.081Z","date":"2025-12-05","time":"04:44:45"},{"rt":null,"stimulus":"<p style=\"font-size: 50px; margin: 0; text-align: center;\">+</p>","response":null,"trial_type":"html-keyboard-response","trial_index":164,"plugin_version":"2.1.0","time_elapsed":490120,"subject_id":"90582","group":"Group1","full_date":"2025-12-05T04:44:45.081Z","date":"2025-12-05","time":"04:44:45"},{"task":"memory_phase","broad_category":"I","image_png":"I_Diorite_04.png","image_id":36,"category_name":"Diorite","category":3,"distinct_rating":2.98,"distinct_type":"Bottom","rt":null,"stimulus":"Stimuli_Rocks480/I_Diorite_04.png","response":null,"trial_type":"image-keyboard-response","trial_index":165,"plugin_version":"2.1.0","time_elapsed":492623,"subject_id":"90582","group":"Group1","full_date":"2025-12-05T04:44:45.081Z","date":"2025-12-05","time":"04:44:45"},{"rt":null,"stimulus":"<p style=\"font-size: 50px; margin: 0; text-align: center;\">+</p>","response":null,"trial_type":"html-keyboard-response","trial_index":166,"plugin_version":"2.1.0","time_elapsed":493626,"subject_id":"90582","group":"Group1","full_date":"2025-12-05T04:44:45.081Z","date":"2025-12-05","time":"04:44:45"},{"task":"memory_phase","broad_category":"M","image_png":"M_Marble_16.png","image_id":240,"category_name":"Marble","category":15,"distinct_rating":2.57,"distinct_type":"Bottom","rt":null,"stimulus":"Stimuli_Rocks480/M_Marble_16.png","response":null,"trial_type":"image-keyboard-response","trial_index":167,"plugin_version":"2.1.0","time_elapsed":496128,"subject_id":"90582","group":"Group1","full_date":"2025-12-05T04:44:45.081Z","date":"2025-12-05","time":"04:44:45"},{"rt":null,"stimulus":"<p style=\"font-size: 50px; margin: 0; text-align: center;\">+</p>","response":null,"trial_type":"html-keyboard-response","trial_index":168,"plugin_version":"2.1.0","time_elapsed":497131,"subject_id":"90582","group":"Group1","full_date":"2025-12-05T04:44:45.081Z","date":"2025-12-05","time":"04:44:45"},{"task":"memory_phase","broad_category":"S","image_png":"S_Breccia_11.png","image_id":347,"category_name":"Breccia","category":22,"distinct_rating":6.7,"distinct_type":"Top","rt":null,"stimulus":"Stimuli_Rocks480/S_Breccia_11.png","response":null,"trial_type":"image-keyboard-response","trial_index":169,"plugin_version":"2.1.0","time_elapsed":499636,"subject_id":"90582","group":"Group1","full_date":"2025-12-05T04:44:45.081Z","date":"2025-12-05","time":"04:44:45"},{"rt":null,"stimulus":"<p style=\"font-size: 50px; margin: 0; text-align: center;\">+</p>","response":null,"trial_type":"html-keyboard-response","trial_index":170,"plugin_version":"2.1.0","time_elapsed":500638,"subject_id":"90582","group":"Group1","full_date":"2025-12-05T04:44:45.081Z","date":"2025-12-05","time":"04:44:45"},{"task":"memory_phase","broad_category":"M","image_png":"M_Quartzite_08.png","image_id":280,"category_name":"Quartzite","category":18,"distinct_rating":2.15,"distinct_type":"Bottom","rt":null,"stimulus":"Stimuli_Rocks480/M_Quartzite_08.png","response":null,"trial_type":"image-keyboard-response","trial_index":171,"plugin_version":"2.1.0","time_elapsed":503142,"subject_id":"90582","group":"Group1","full_date":"2025-12-05T04:44:45.081Z","date":"2025-12-05","time":"04:44:45"},{"rt":null,"stimulus":"<p style=\"font-size: 50px; margin: 0; text-align: center;\">+</p>","response":null,"trial_type":"html-keyboard-response","trial_index":172,"plugin_version":"2.1.0","time_elapsed":504144,"subject_id":"90582","group":"Group1","full_date":"2025-12-05T04:44:45.081Z","date":"2025-12-05","time":"04:44:45"},{"task":"memory_phase","broad_category":"S","image_png":"S_Shale_08.png","image_id":472,"category_name":"Shale","category":30,"distinct_rating":2.55,"distinct_type":"Bottom","rt":null,"stimulus":"Stimuli_Rocks480/S_Shale_08.png","response":null,"trial_type":"image-keyboard-response","trial_index":173,"plugin_version":"2.1.0","time_elapsed":506647,"subject_id":"90582","group":"Group1","full_date":"2025-12-05T04:44:45.081Z","date":"2025-12-05","time":"04:44:45"},{"rt":null,"stimulus":"<p style=\"font-size: 50px; margin: 0; text-align: center;\">+</p>","response":null,"trial_type":"html-keyboard-response","trial_index":174,"plugin_version":"2.1.0","time_elapsed":507650,"subject_id":"90582","group":"Group1","full_date":"2025-12-05T04:44:45.081Z","date":"2025-12-05","time":"04:44:45"},{"task":"memory_phase","broad_category":"S","image_png":"S_Rock Salt_01.png","image_id":433,"category_name":"Rock Salt","category":28,"distinct_rating":7.18,"distinct_type":"Top","rt":null,"stimulus":"Stimuli_Rocks480/S_Rock Salt_01.png","response":null,"trial_type":"image-keyboard-response","trial_index":175,"plugin_version":"2.1.0","time_elapsed":510153,"subject_id":"90582","group":"Group1","full_date":"2025-12-05T04:44:45.081Z","date":"2025-12-05","time":"04:44:45"},{"rt":null,"stimulus":"<p style=\"font-size: 50px; margin: 0; text-align: center;\">+</p>","response":null,"trial_type":"html-keyboard-response","trial_index":176,"plugin_version":"2.1.0","time_elapsed":511156,"subject_id":"90582","group":"Group1","full_date":"2025-12-05T04:44:45.081Z","date":"2025-12-05","time":"04:44:45"},{"task":"memory_phase","broad_category":"M","image_png":"M_Marble_06.png","image_id":230,"category_name":"Marble","category":15,"distinct_rating":3.4,"distinct_type":"Bottom","rt":null,"stimulus":"Stimuli_Rocks480/M_Marble_06.png","response":null,"trial_type":"image-keyboard-response","trial_index":177,"plugin_version":"2.1.0","time_elapsed":513659,"subject_id":"90582","group":"Group1","full_date":"2025-12-05T04:44:45.081Z","date":"2025-12-05","time":"04:44:45"},{"rt":null,"stimulus":"<p style=\"font-size: 50px; margin: 0; text-align: center;\">+</p>","response":null,"trial_type":"html-keyboard-response","trial_index":178,"plugin_version":"2.1.0","time_elapsed":514661,"subject_id":"90582","group":"Group1","full_date":"2025-12-05T04:44:45.081Z","date":"2025-12-05","time":"04:44:45"},{"task":"memory_phase","broad_category":"I","image_png":"I_Gabbro_11.png","image_id":59,"category_name":"Gabbro","category":4,"distinct_rating":1.99,"distinct_type":"Bottom","rt":null,"stimulus":"Stimuli_Rocks480/I_Gabbro_11.png","response":null,"trial_type":"image-keyboard-response","trial_index":179,"plugin_version":"2.1.0","time_elapsed":517164,"subject_id":"90582","group":"Group1","full_date":"2025-12-05T04:44:45.081Z","date":"2025-12-05","time":"04:44:45"},{"rt":null,"stimulus":"<p style=\"font-size: 50px; margin: 0; text-align: center;\">+</p>","response":null,"trial_type":"html-keyboard-response","trial_index":180,"plugin_version":"2.1.0","time_elapsed":518166,"subject_id":"90582","group":"Group1","full_date":"2025-12-05T04:44:45.081Z","date":"2025-12-05","time":"04:44:45"},{"task":"memory_phase","broad_category":"I","image_png":"I_Pegmatite_16.png","image_id":112,"category_name":"Pegmatite","category":7,"distinct_rating":7.03,"distinct_type":"Top","rt":null,"stimulus":"Stimuli_Rocks480/I_Pegmatite_16.png","response":null,"trial_type":"image-keyboard-response","trial_index":181,"plugin_version":"2.1.0","time_elapsed":520669,"subject_id":"90582","group":"Group1","full_date":"2025-12-05T04:44:45.081Z","date":"2025-12-05","time":"04:44:45"},{"rt":null,"stimulus":"<p style=\"font-size: 50px; margin: 0; text-align: center;\">+</p>","response":null,"trial_type":"html-keyboard-response","trial_index":182,"plugin_version":"2.1.0","time_elapsed":521672,"subject_id":"90582","group":"Group1","full_date":"2025-12-05T04:44:45.081Z","date":"2025-12-05","time":"04:44:45"},{"task":"memory_phase","broad_category":"I","image_png":"I_Obsidian_05.png","image_id":85,"category_name":"Obsidian","category":6,"distinct_rating":7.32,"distinct_type":"Top","rt":null,"stimulus":"Stimuli_Rocks480/I_Obsidian_05.png","response":null,"trial_type":"image-keyboard-response","trial_index":183,"plugin_version":"2.1.0","time_elapsed":524176,"subject_id":"90582","group":"Group1","full_date":"2025-12-05T04:44:45.081Z","date":"2025-12-05","time":"04:44:45"},{"rt":null,"stimulus":"<p style=\"font-size: 50px; margin: 0; text-align: center;\">+</p>","response":null,"trial_type":"html-keyboard-response","trial_index":184,"plugin_version":"2.1.0","time_elapsed":525178,"subject_id":"90582","group":"Group1","full_date":"2025-12-05T04:44:45.081Z","date":"2025-12-05","time":"04:44:45"},{"task":"memory_phase","broad_category":"I","image_png":"I_Rhyolite_14.png","image_id":158,"category_name":"Rhyolite","category":10,"distinct_rating":2.59,"distinct_type":"Bottom","rt":null,"stimulus":"Stimuli_Rocks480/I_Rhyolite_14.png","response":null,"trial_type":"image-keyboard-response","trial_index":185,"plugin_version":"2.1.0","time_elapsed":527681,"subject_id":"90582","group":"Group1","full_date":"2025-12-05T04:44:45.081Z","date":"2025-12-05","time":"04:44:45"},{"rt":null,"stimulus":"<p style=\"font-size: 50px; margin: 0; text-align: center;\">+</p>","response":null,"trial_type":"html-keyboard-response","trial_index":186,"plugin_version":"2.1.0","time_elapsed":528684,"subject_id":"90582","group":"Group1","full_date":"2025-12-05T04:44:45.081Z","date":"2025-12-05","time":"04:44:45"},{"task":"memory_phase","broad_category":"S","image_png":"S_Dolomite_13.png","image_id":397,"category_name":"Dolomite","category":25,"distinct_rating":1.77,"distinct_type":"Bottom","rt":null,"stimulus":"Stimuli_Rocks480/S_Dolomite_13.png","response":null,"trial_type":"image-keyboard-response","trial_index":187,"plugin_version":"2.1.0","time_elapsed":531187,"subject_id":"90582","group":"Group1","full_date":"2025-12-05T04:44:45.081Z","date":"2025-12-05","time":"04:44:45"},{"rt":null,"stimulus":"<p style=\"font-size: 50px; margin: 0; text-align: center;\">+</p>","response":null,"trial_type":"html-keyboard-response","trial_index":188,"plugin_version":"2.1.0","time_elapsed":532190,"subject_id":"90582","group":"Group1","full_date":"2025-12-05T04:44:45.081Z","date":"2025-12-05","time":"04:44:45"},{"task":"memory_phase","broad_category":"M","image_png":"M_Phyllite_03.png","image_id":259,"category_name":"Phyllite","category":17,"distinct_rating":2.5,"distinct_type":"Bottom","rt":null,"stimulus":"Stimuli_Rocks480/M_Phyllite_03.png","response":null,"trial_type":"image-keyboard-response","trial_index":189,"plugin_version":"2.1.0","time_elapsed":534693,"subject_id":"90582","group":"Group1","full_date":"2025-12-05T04:44:45.081Z","date":"2025-12-05","time":"04:44:45"},{"rt":null,"stimulus":"<p style=\"font-size: 50px; margin: 0; text-align: center;\">+</p>","response":null,"trial_type":"html-keyboard-response","trial_index":190,"plugin_version":"2.1.0","time_elapsed":535695,"subject_id":"90582","group":"Group1","full_date":"2025-12-05T04:44:45.081Z","date":"2025-12-05","time":"04:44:45"},{"task":"memory_phase","broad_category":"M","image_png":"M_Gneiss_06.png","image_id":198,"category_name":"Gneiss","category":13,"distinct_rating":2.65,"distinct_type":"Bottom","rt":null,"stimulus":"Stimuli_Rocks480/M_Gneiss_06.png","response":null,"trial_type":"image-keyboard-response","trial_index":191,"plugin_version":"2.1.0","time_elapsed":538198,"subject_id":"90582","group":"Group1","full_date":"2025-12-05T04:44:45.081Z","date":"2025-12-05","time":"04:44:45"},{"rt":null,"stimulus":"<p style=\"font-size: 50px; margin: 0; text-align: center;\">+</p>","response":null,"trial_type":"html-keyboard-response","trial_index":192,"plugin_version":"2.1.0","time_elapsed":539200,"subject_id":"90582","group":"Group1","full_date":"2025-12-05T04:44:45.081Z","date":"2025-12-05","time":"04:44:45"},{"task":"memory_phase","broad_category":"I","image_png":"I_Rhyolite_11.png","image_id":155,"category_name":"Rhyolite","category":10,"distinct_rating":1.73,"distinct_type":"Bottom","rt":null,"stimulus":"Stimuli_Rocks480/I_Rhyolite_11.png","response":null,"trial_type":"image-keyboard-response","trial_index":193,"plugin_version":"2.1.0","time_elapsed":541704,"subject_id":"90582","group":"Group1","full_date":"2025-12-05T04:44:45.081Z","date":"2025-12-05","time":"04:44:45"},{"rt":null,"stimulus":"<p style=\"font-size: 50px; margin: 0; text-align: center;\">+</p>","response":null,"trial_type":"html-keyboard-response","trial_index":194,"plugin_version":"2.1.0","time_elapsed":542706,"subject_id":"90582","group":"Group1","full_date":"2025-12-05T04:44:45.081Z","date":"2025-12-05","time":"04:44:45"},{"task":"memory_phase","broad_category":"M","image_png":"M_Slate_11.png","image_id":315,"category_name":"Slate","category":20,"distinct_rating":2.75,"distinct_type":"Bottom","rt":null,"stimulus":"Stimuli_Rocks480/M_Slate_11.png","response":null,"trial_type":"image-keyboard-response","trial_index":195,"plugin_version":"2.1.0","time_elapsed":545209,"subject_id":"90582","group":"Group1","full_date":"2025-12-05T04:44:45.081Z","date":"2025-12-05","time":"04:44:45"},{"rt":null,"stimulus":"<p style=\"font-size: 50px; margin: 0; text-align: center;\">+</p>","response":null,"trial_type":"html-keyboard-response","trial_index":196,"plugin_version":"2.1.0","time_elapsed":546212,"subject_id":"90582","group":"Group1","full_date":"2025-12-05T04:44:45.081Z","date":"2025-12-05","time":"04:44:45"},{"task":"memory_phase","broad_category":"S","image_png":"S_Dolomite_14.png","image_id":398,"category_name":"Dolomite","category":25,"distinct_rating":1.43,"distinct_type":"Bottom","rt":null,"stimulus":"Stimuli_Rocks480/S_Dolomite_14.png","response":null,"trial_type":"image-keyboard-response","trial_index":197,"plugin_version":"2.1.0","time_elapsed":548715,"subject_id":"90582","group":"Group1","full_date":"2025-12-05T04:44:45.081Z","date":"2025-12-05","time":"04:44:45"},{"rt":null,"stimulus":"<p style=\"font-size: 50px; margin: 0; text-align: center;\">+</p>","response":null,"trial_type":"html-keyboard-response","trial_index":198,"plugin_version":"2.1.0","time_elapsed":549718,"subject_id":"90582","group":"Group1","full_date":"2025-12-05T04:44:45.081Z","date":"2025-12-05","time":"04:44:45"},{"task":"memory_phase","broad_category":"M","image_png":"M_Slate_15.png","image_id":319,"category_name":"Slate","category":20,"distinct_rating":2.13,"distinct_type":"Bottom","rt":null,"stimulus":"Stimuli_Rocks480/M_Slate_15.png","response":null,"trial_type":"image-keyboard-response","trial_index":199,"plugin_version":"2.1.0","time_elapsed":552221,"subject_id":"90582","group":"Group1","full_date":"2025-12-05T04:44:45.081Z","date":"2025-12-05","time":"04:44:45"},{"rt":null,"stimulus":"<p style=\"font-size: 50px; margin: 0; text-align: center;\">+</p>","response":null,"trial_type":"html-keyboard-response","trial_index":200,"plugin_version":"2.1.0","time_elapsed":553224,"subject_id":"90582","group":"Group1","full_date":"2025-12-05T04:44:45.081Z","date":"2025-12-05","time":"04:44:45"},{"task":"memory_phase","broad_category":"S","image_png":"S_Sandstone_15.png","image_id":463,"category_name":"Sandstone","category":29,"distinct_rating":2,"distinct_type":"Bottom","rt":null,"stimulus":"Stimuli_Rocks480/S_Sandstone_15.png","response":null,"trial_type":"image-keyboard-response","trial_index":201,"plugin_version":"2.1.0","time_elapsed":555727,"subject_id":"90582","group":"Group1","full_date":"2025-12-05T04:44:45.081Z","date":"2025-12-05","time":"04:44:45"},{"rt":null,"stimulus":"<p style=\"font-size: 50px; margin: 0; text-align: center;\">+</p>","response":null,"trial_type":"html-keyboard-response","trial_index":202,"plugin_version":"2.1.0","time_elapsed":556730,"subject_id":"90582","group":"Group1","full_date":"2025-12-05T04:44:45.081Z","date":"2025-12-05","time":"04:44:45"},{"task":"memory_phase","broad_category":"M","image_png":"M_Quartzite_13.png","image_id":285,"category_name":"Quartzite","category":18,"distinct_rating":2.27,"distinct_type":"Bottom","rt":null,"stimulus":"Stimuli_Rocks480/M_Quartzite_13.png","response":null,"trial_type":"image-keyboard-response","trial_index":203,"plugin_version":"2.1.0","time_elapsed":559233,"subject_id":"90582","group":"Group1","full_date":"2025-12-05T04:44:45.081Z","date":"2025-12-05","time":"04:44:45"},{"rt":null,"stimulus":"<p style=\"font-size: 50px; margin: 0; text-align: center;\">+</p>","response":null,"trial_type":"html-keyboard-response","trial_index":204,"plugin_version":"2.1.0","time_elapsed":560235,"subject_id":"90582","group":"Group1","full_date":"2025-12-05T04:44:45.081Z","date":"2025-12-05","time":"04:44:45"},{"task":"memory_phase","broad_category":"I","image_png":"I_Pumice_11.png","image_id":139,"category_name":"Pumice","category":9,"distinct_rating":1.74,"distinct_type":"Bottom","rt":null,"stimulus":"Stimuli_Rocks480/I_Pumice_11.png","response":null,"trial_type":"image-keyboard-response","trial_index":205,"plugin_version":"2.1.0","time_elapsed":562737,"subject_id":"90582","group":"Group1","full_date":"2025-12-05T04:44:45.081Z","date":"2025-12-05","time":"04:44:45"},{"rt":null,"stimulus":"<p style=\"font-size: 50px; margin: 0; text-align: center;\">+</p>","response":null,"trial_type":"html-keyboard-response","trial_index":206,"plugin_version":"2.1.0","time_elapsed":563740,"subject_id":"90582","group":"Group1","full_date":"2025-12-05T04:44:45.081Z","date":"2025-12-05","time":"04:44:45"},{"task":"memory_phase","broad_category":"I","image_png":"I_Andesite_06.png","image_id":6,"category_name":"Andesite","category":1,"distinct_rating":3.17,"distinct_type":"Bottom","rt":null,"stimulus":"Stimuli_Rocks480/I_Andesite_06.png","response":null,"trial_type":"image-keyboard-response","trial_index":207,"plugin_version":"2.1.0","time_elapsed":566243,"subject_id":"90582","group":"Group1","full_date":"2025-12-05T04:44:45.081Z","date":"2025-12-05","time":"04:44:45"},{"rt":10199,"stimulus":"<p style=\"max-width: 760px; margin: auto; font-size: 35px; line-height: 1.5;\">You have completed 2 study phases. Now, we'll show you all the images again 1 more time.<br><br>Press SPACE to continue</p>","response":" ","trial_type":"html-keyboard-response","trial_index":208,"plugin_version":"2.1.0","time_elapsed":576443,"subject_id":"90582","group":"Group1","full_date":"2025-12-05T04:44:45.081Z","date":"2025-12-05","time":"04:44:45"},{"rt":null,"stimulus":"<p style=\"font-size: 50px; margin: 0; text-align: center;\">+</p>","response":null,"trial_type":"html-keyboard-response","trial_index":209,"plugin_version":"2.1.0","time_elapsed":577446,"subject_id":"90582","group":"Group1","full_date":"2025-12-05T04:44:45.081Z","date":"2025-12-05","time":"04:44:45"},{"task":"memory_phase","broad_category":"I","image_png":"I_Diorite_05.png","image_id":37,"category_name":"Diorite","category":3,"distinct_rating":3.08,"distinct_type":"Bottom","rt":null,"stimulus":"Stimuli_Rocks480/I_Diorite_05.png","response":null,"trial_type":"image-keyboard-response","trial_index":210,"plugin_version":"2.1.0","time_elapsed":579950,"subject_id":"90582","group":"Group1","full_date":"2025-12-05T04:44:45.081Z","date":"2025-12-05","time":"04:44:45"},{"rt":null,"stimulus":"<p style=\"font-size: 50px; margin: 0; text-align: center;\">+</p>","response":null,"trial_type":"html-keyboard-response","trial_index":211,"plugin_version":"2.1.0","time_elapsed":580953,"subject_id":"90582","group":"Group1","full_date":"2025-12-05T04:44:45.081Z","date":"2025-12-05","time":"04:44:45"},{"task":"memory_phase","broad_category":"S","image_png":"S_Dolomite_13.png","image_id":397,"category_name":"Dolomite","category":25,"distinct_rating":1.77,"distinct_type":"Bottom","rt":null,"stimulus":"Stimuli_Rocks480/S_Dolomite_13.png","response":null,"trial_type":"image-keyboard-response","trial_index":212,"plugin_version":"2.1.0","time_elapsed":583456,"subject_id":"90582","group":"Group1","full_date":"2025-12-05T04:44:45.081Z","date":"2025-12-05","time":"04:44:45"},{"rt":null,"stimulus":"<p style=\"font-size: 50px; margin: 0; text-align: center;\">+</p>","response":null,"trial_type":"html-keyboard-response","trial_index":213,"plugin_version":"2.1.0","time_elapsed":584458,"subject_id":"90582","group":"Group1","full_date":"2025-12-05T04:44:45.081Z","date":"2025-12-05","time":"04:44:45"},{"task":"memory_phase","broad_category":"I","image_png":"I_Andesite_08.png","image_id":8,"category_name":"Andesite","category":1,"distinct_rating":1.95,"distinct_type":"Bottom","rt":null,"stimulus":"Stimuli_Rocks480/I_Andesite_08.png","response":null,"trial_type":"image-keyboard-response","trial_index":214,"plugin_version":"2.1.0","time_elapsed":586961,"subject_id":"90582","group":"Group1","full_date":"2025-12-05T04:44:45.081Z","date":"2025-12-05","time":"04:44:45"},{"rt":null,"stimulus":"<p style=\"font-size: 50px; margin: 0; text-align: center;\">+</p>","response":null,"trial_type":"html-keyboard-response","trial_index":215,"plugin_version":"2.1.0","time_elapsed":587964,"subject_id":"90582","group":"Group1","full_date":"2025-12-05T04:44:45.081Z","date":"2025-12-05","time":"04:44:45"},{"task":"memory_phase","broad_category":"I","image_png":"I_Rhyolite_11.png","image_id":155,"category_name":"Rhyolite","category":10,"distinct_rating":1.73,"distinct_type":"Bottom","rt":null,"stimulus":"Stimuli_Rocks480/I_Rhyolite_11.png","response":null,"trial_type":"image-keyboard-response","trial_index":216,"plugin_version":"2.1.0","time_elapsed":590466,"subject_id":"90582","group":"Group1","full_date":"2025-12-05T04:44:45.081Z","date":"2025-12-05","time":"04:44:45"},{"rt":null,"stimulus":"<p style=\"font-size: 50px; margin: 0; text-align: center;\">+</p>","response":null,"trial_type":"html-keyboard-response","trial_index":217,"plugin_version":"2.1.0","time_elapsed":591469,"subject_id":"90582","group":"Group1","full_date":"2025-12-05T04:44:45.081Z","date":"2025-12-05","time":"04:44:45"},{"task":"memory_phase","broad_category":"I","image_png":"I_Gabbro_08.png","image_id":56,"category_name":"Gabbro","category":4,"distinct_rating":3.02,"distinct_type":"Bottom","rt":null,"stimulus":"Stimuli_Rocks480/I_Gabbro_08.png","response":null,"trial_type":"image-keyboard-response","trial_index":218,"plugin_version":"2.1.0","time_elapsed":593972,"subject_id":"90582","group":"Group1","full_date":"2025-12-05T04:44:45.081Z","date":"2025-12-05","time":"04:44:45"},{"rt":null,"stimulus":"<p style=\"font-size: 50px; margin: 0; text-align: center;\">+</p>","response":null,"trial_type":"html-keyboard-response","trial_index":219,"plugin_version":"2.1.0","time_elapsed":594975,"subject_id":"90582","group":"Group1","full_date":"2025-12-05T04:44:45.081Z","date":"2025-12-05","time":"04:44:45"},{"task":"memory_phase","broad_category":"S","image_png":"S_Sandstone_03.png","image_id":451,"category_name":"Sandstone","category":29,"distinct_rating":1.86,"distinct_type":"Bottom","rt":null,"stimulus":"Stimuli_Rocks480/S_Sandstone_03.png","response":null,"trial_type":"image-keyboard-response","trial_index":220,"plugin_version":"2.1.0","time_elapsed":597478,"subject_id":"90582","group":"Group1","full_date":"2025-12-05T04:44:45.081Z","date":"2025-12-05","time":"04:44:45"},{"rt":null,"stimulus":"<p style=\"font-size: 50px; margin: 0; text-align: center;\">+</p>","response":null,"trial_type":"html-keyboard-response","trial_index":221,"plugin_version":"2.1.0","time_elapsed":598480,"subject_id":"90582","group":"Group1","full_date":"2025-12-05T04:44:45.081Z","date":"2025-12-05","time":"04:44:45"},{"task":"memory_phase","broad_category":"I","image_png":"I_Pegmatite_16.png","image_id":112,"category_name":"Pegmatite","category":7,"distinct_rating":7.03,"distinct_type":"Top","rt":null,"stimulus":"Stimuli_Rocks480/I_Pegmatite_16.png","response":null,"trial_type":"image-keyboard-response","trial_index":222,"plugin_version":"2.1.0","time_elapsed":600984,"subject_id":"90582","group":"Group1","full_date":"2025-12-05T04:44:45.081Z","date":"2025-12-05","time":"04:44:45"},{"rt":null,"stimulus":"<p style=\"font-size: 50px; margin: 0; text-align: center;\">+</p>","response":null,"trial_type":"html-keyboard-response","trial_index":223,"plugin_version":"2.1.0","time_elapsed":601987,"subject_id":"90582","group":"Group1","full_date":"2025-12-05T04:44:45.081Z","date":"2025-12-05","time":"04:44:45"},{"task":"memory_phase","broad_category":"I","image_png":"I_Basalt_01.png","image_id":17,"category_name":"Basalt","category":2,"distinct_rating":1.92,"distinct_type":"Bottom","rt":null,"stimulus":"Stimuli_Rocks480/I_Basalt_01.png","response":null,"trial_type":"image-keyboard-response","trial_index":224,"plugin_version":"2.1.0","time_elapsed":604490,"subject_id":"90582","group":"Group1","full_date":"2025-12-05T04:44:45.081Z","date":"2025-12-05","time":"04:44:45"},{"rt":null,"stimulus":"<p style=\"font-size: 50px; margin: 0; text-align: center;\">+</p>","response":null,"trial_type":"html-keyboard-response","trial_index":225,"plugin_version":"2.1.0","time_elapsed":605493,"subject_id":"90582","group":"Group1","full_date":"2025-12-05T04:44:45.081Z","date":"2025-12-05","time":"04:44:45"},{"task":"memory_phase","broad_category":"I","image_png":"I_Gabbro_16.png","image_id":64,"category_name":"Gabbro","category":4,"distinct_rating":2.52,"distinct_type":"Bottom","rt":null,"stimulus":"Stimuli_Rocks480/I_Gabbro_16.png","response":null,"trial_type":"image-keyboard-response","trial_index":226,"plugin_version":"2.1.0","time_elapsed":607996,"subject_id":"90582","group":"Group1","full_date":"2025-12-05T04:44:45.081Z","date":"2025-12-05","time":"04:44:45"},{"rt":null,"stimulus":"<p style=\"font-size: 50px; margin: 0; text-align: center;\">+</p>","response":null,"trial_type":"html-keyboard-response","trial_index":227,"plugin_version":"2.1.0","time_elapsed":608999,"subject_id":"90582","group":"Group1","full_date":"2025-12-05T04:44:45.081Z","date":"2025-12-05","time":"04:44:45"},{"task":"memory_phase","broad_category":"S","image_png":"S_Sandstone_15.png","image_id":463,"category_name":"Sandstone","category":29,"distinct_rating":2,"distinct_type":"Bottom","rt":null,"stimulus":"Stimuli_Rocks480/S_Sandstone_15.png","response":null,"trial_type":"image-keyboard-response","trial_index":228,"plugin_version":"2.1.0","time_elapsed":611502,"subject_id":"90582","group":"Group1","full_date":"2025-12-05T04:44:45.081Z","date":"2025-12-05","time":"04:44:45"},{"rt":null,"stimulus":"<p style=\"font-size: 50px; margin: 0; text-align: center;\">+</p>","response":null,"trial_type":"html-keyboard-response","trial_index":229,"plugin_version":"2.1.0","time_elapsed":612505,"subject_id":"90582","group":"Group1","full_date":"2025-12-05T04:44:45.081Z","date":"2025-12-05","time":"04:44:45"},{"task":"memory_phase","broad_category":"S","image_png":"S_Sandstone_16.png","image_id":464,"category_name":"Sandstone","category":29,"distinct_rating":1.93,"distinct_type":"Bottom","rt":null,"stimulus":"Stimuli_Rocks480/S_Sandstone_16.png","response":null,"trial_type":"image-keyboard-response","trial_index":230,"plugin_version":"2.1.0","time_elapsed":615008,"subject_id":"90582","group":"Group1","full_date":"2025-12-05T04:44:45.081Z","date":"2025-12-05","time":"04:44:45"},{"rt":null,"stimulus":"<p style=\"font-size: 50px; margin: 0; text-align: center;\">+</p>","response":null,"trial_type":"html-keyboard-response","trial_index":231,"plugin_version":"2.1.0","time_elapsed":616011,"subject_id":"90582","group":"Group1","full_date":"2025-12-05T04:44:45.081Z","date":"2025-12-05","time":"04:44:45"},{"task":"memory_phase","broad_category":"I","image_png":"I_Gabbro_11.png","image_id":59,"category_name":"Gabbro","category":4,"distinct_rating":1.99,"distinct_type":"Bottom","rt":null,"stimulus":"Stimuli_Rocks480/I_Gabbro_11.png","response":null,"trial_type":"image-keyboard-response","trial_index":232,"plugin_version":"2.1.0","time_elapsed":618514,"subject_id":"90582","group":"Group1","full_date":"2025-12-05T04:44:45.081Z","date":"2025-12-05","time":"04:44:45"},{"rt":null,"stimulus":"<p style=\"font-size: 50px; margin: 0; text-align: center;\">+</p>","response":null,"trial_type":"html-keyboard-response","trial_index":233,"plugin_version":"2.1.0","time_elapsed":619517,"subject_id":"90582","group":"Group1","full_date":"2025-12-05T04:44:45.081Z","date":"2025-12-05","time":"04:44:45"},{"task":"memory_phase","broad_category":"S","image_png":"S_Shale_01.png","image_id":465,"category_name":"Shale","category":30,"distinct_rating":2.7,"distinct_type":"Bottom","rt":null,"stimulus":"Stimuli_Rocks480/S_Shale_01.png","response":null,"trial_type":"image-keyboard-response","trial_index":234,"plugin_version":"2.1.0","time_elapsed":622020,"subject_id":"90582","group":"Group1","full_date":"2025-12-05T04:44:45.081Z","date":"2025-12-05","time":"04:44:45"},{"rt":null,"stimulus":"<p style=\"font-size: 50px; margin: 0; text-align: center;\">+</p>","response":null,"trial_type":"html-keyboard-response","trial_index":235,"plugin_version":"2.1.0","time_elapsed":623022,"subject_id":"90582","group":"Group1","full_date":"2025-12-05T04:44:45.081Z","date":"2025-12-05","time":"04:44:45"},{"task":"memory_phase","broad_category":"M","image_png":"M_Gneiss_13.png","image_id":205,"category_name":"Gneiss","category":13,"distinct_rating":3.26,"distinct_type":"Bottom","rt":null,"stimulus":"Stimuli_Rocks480/M_Gneiss_13.png","response":null,"trial_type":"image-keyboard-response","trial_index":236,"plugin_version":"2.1.0","time_elapsed":625526,"subject_id":"90582","group":"Group1","full_date":"2025-12-05T04:44:45.081Z","date":"2025-12-05","time":"04:44:45"},{"rt":null,"stimulus":"<p style=\"font-size: 50px; margin: 0; text-align: center;\">+</p>","response":null,"trial_type":"html-keyboard-response","trial_index":237,"plugin_version":"2.1.0","time_elapsed":626529,"subject_id":"90582","group":"Group1","full_date":"2025-12-05T04:44:45.081Z","date":"2025-12-05","time":"04:44:45"},{"task":"memory_phase","broad_category":"S","image_png":"S_Shale_12.png","image_id":476,"category_name":"Shale","category":30,"distinct_rating":2.48,"distinct_type":"Bottom","rt":null,"stimulus":"Stimuli_Rocks480/S_Shale_12.png","response":null,"trial_type":"image-keyboard-response","trial_index":238,"plugin_version":"2.1.0","time_elapsed":629032,"subject_id":"90582","group":"Group1","full_date":"2025-12-05T04:44:45.081Z","date":"2025-12-05","time":"04:44:45"},{"rt":null,"stimulus":"<p style=\"font-size: 50px; margin: 0; text-align: center;\">+</p>","response":null,"trial_type":"html-keyboard-response","trial_index":239,"plugin_version":"2.1.0","time_elapsed":630034,"subject_id":"90582","group":"Group1","full_date":"2025-12-05T04:44:45.081Z","date":"2025-12-05","time":"04:44:45"},{"task":"memory_phase","broad_category":"S","image_png":"S_Conglomerate_05.png","image_id":373,"category_name":"Conglomerate","category":24,"distinct_rating":7.32,"distinct_type":"Top","rt":null,"stimulus":"Stimuli_Rocks480/S_Conglomerate_05.png","response":null,"trial_type":"image-keyboard-response","trial_index":240,"plugin_version":"2.1.0","time_elapsed":632537,"subject_id":"90582","group":"Group1","full_date":"2025-12-05T04:44:45.081Z","date":"2025-12-05","time":"04:44:45"},{"rt":null,"stimulus":"<p style=\"font-size: 50px; margin: 0; text-align: center;\">+</p>","response":null,"trial_type":"html-keyboard-response","trial_index":241,"plugin_version":"2.1.0","time_elapsed":633540,"subject_id":"90582","group":"Group1","full_date":"2025-12-05T04:44:45.081Z","date":"2025-12-05","time":"04:44:45"},{"task":"memory_phase","broad_category":"S","image_png":"S_Chert_10.png","image_id":362,"category_name":"Chert","category":23,"distinct_rating":7.17,"distinct_type":"Top","rt":null,"stimulus":"Stimuli_Rocks480/S_Chert_10.png","response":null,"trial_type":"image-keyboard-response","trial_index":242,"plugin_version":"2.1.0","time_elapsed":636043,"subject_id":"90582","group":"Group1","full_date":"2025-12-05T04:44:45.081Z","date":"2025-12-05","time":"04:44:45"},{"rt":null,"stimulus":"<p style=\"font-size: 50px; margin: 0; text-align: center;\">+</p>","response":null,"trial_type":"html-keyboard-response","trial_index":243,"plugin_version":"2.1.0","time_elapsed":637046,"subject_id":"90582","group":"Group1","full_date":"2025-12-05T04:44:45.081Z","date":"2025-12-05","time":"04:44:45"},{"task":"memory_phase","broad_category":"I","image_png":"I_Rhyolite_16.png","image_id":160,"category_name":"Rhyolite","category":10,"distinct_rating":2.19,"distinct_type":"Bottom","rt":null,"stimulus":"Stimuli_Rocks480/I_Rhyolite_16.png","response":null,"trial_type":"image-keyboard-response","trial_index":244,"plugin_version":"2.1.0","time_elapsed":639549,"subject_id":"90582","group":"Group1","full_date":"2025-12-05T04:44:45.081Z","date":"2025-12-05","time":"04:44:45"},{"rt":null,"stimulus":"<p style=\"font-size: 50px; margin: 0; text-align: center;\">+</p>","response":null,"trial_type":"html-keyboard-response","trial_index":245,"plugin_version":"2.1.0","time_elapsed":640551,"subject_id":"90582","group":"Group1","full_date":"2025-12-05T04:44:45.081Z","date":"2025-12-05","time":"04:44:45"},{"task":"memory_phase","broad_category":"I","image_png":"I_Basalt_02.png","image_id":18,"category_name":"Basalt","category":2,"distinct_rating":1.84,"distinct_type":"Bottom","rt":null,"stimulus":"Stimuli_Rocks480/I_Basalt_02.png","response":null,"trial_type":"image-keyboard-response","trial_index":246,"plugin_version":"2.1.0","time_elapsed":643055,"subject_id":"90582","group":"Group1","full_date":"2025-12-05T04:44:45.081Z","date":"2025-12-05","time":"04:44:45"},{"rt":null,"stimulus":"<p style=\"font-size: 50px; margin: 0; text-align: center;\">+</p>","response":null,"trial_type":"html-keyboard-response","trial_index":247,"plugin_version":"2.1.0","time_elapsed":644057,"subject_id":"90582","group":"Group1","full_date":"2025-12-05T04:44:45.081Z","date":"2025-12-05","time":"04:44:45"},{"task":"memory_phase","broad_category":"M","image_png":"M_Marble_16.png","image_id":240,"category_name":"Marble","category":15,"distinct_rating":2.57,"distinct_type":"Bottom","rt":null,"stimulus":"Stimuli_Rocks480/M_Marble_16.png","response":null,"trial_type":"image-keyboard-response","trial_index":248,"plugin_version":"2.1.0","time_elapsed":646561