[{"width":1272,"height":674,"webaudio":true,"browser":"edge-chromium","browser_version":"142.0.0","mobile":false,"os":"Windows 10","fullscreen":true,"vsync_rate":60.62,"webcam":true,"microphone":true,"trial_type":"browser-check","trial_index":0,"plugin_version":"2.1.0","time_elapsed":998,"subject_id":"86270","group":"Group1","full_date":"2025-12-05T19:02:44.757Z","date":"2025-12-05","time":"19:02:44"},{"success":true,"timeout":false,"failed_images":[],"failed_audio":[],"failed_video":[],"trial_type":"preload","trial_index":1,"plugin_version":"2.1.0","time_elapsed":4622,"subject_id":"86270","group":"Group1","full_date":"2025-12-05T19:02:44.757Z","date":"2025-12-05","time":"19:02:44"},{"rt":49131,"url":"SONA_consent_memorability.html","trial_type":"external-html","trial_index":2,"plugin_version":"2.1.0","time_elapsed":53782,"subject_id":"86270","group":"Group1","full_date":"2025-12-05T19:02:44.757Z","date":"2025-12-05","time":"19:02:44"},{"success":true,"rt":2209,"trial_type":"fullscreen","trial_index":3,"plugin_version":"2.1.0","time_elapsed":56998,"subject_id":"86270","group":"Group1","full_date":"2025-12-05T19:02:44.757Z","date":"2025-12-05","time":"19:02:44"},{"rt":33629,"stimulus":"<div style=\"max-width: 760px; margin: auto; font-size: 20px; line-height: 1.5;\">\n      <h1 style=\"text-align:center; font-size: 30px;\">Instructions</h1>\n      <p>\n        Welcome to the study on <b>visual memory</b>. This experiment consists of <b>two phases</b>: \n        a <b>study phase</b> and a <b>test phase</b>.\n      </p>\n      <p>\n        In the study phase, you will see a series of rock images along with their category labels.\n        The images will appear one at a time.\n        <b>Your task</b> is to learn the categories to which the rock images belong \n        and to remember each image as accurately as possible.\n      </p> \n      <p>\n        Note that we will repeat the study phase <b>3 times</b>, \n        so you will have multiple opportunities to see and remember each image.\n      </p>\n      <p>\n        After the study phase, <b>your memory will be tested</b>. \n        Additional instructions for the test phase will be provided at that time.\n      </p>\n      <p>\n        If your computer has multiple <b>language settings</b> (e.g., English and another language),\n        please make sure it is set to English before starting.\n      </p>\n      <p>\n        You can track your progress using the <b>completion bar</b> at the top of the screen. \n        Please note that the bar will refresh when the test phase begins \n        to give you an accurate sense of your progress in both phases.\n      </p> \n      <p>\n        Press the button below when you are ready to begin.\n      </p>\n    </div>","response":0,"trial_type":"html-button-response","trial_index":4,"plugin_version":"2.1.0","time_elapsed":90630,"subject_id":"86270","group":"Group1","full_date":"2025-12-05T19:02:44.757Z","date":"2025-12-05","time":"19:02:44"},{"rt":null,"stimulus":"<p style=\"font-size: 50px; margin: 0; text-align: center;\">+</p>","response":null,"trial_type":"html-keyboard-response","trial_index":5,"plugin_version":"2.1.0","time_elapsed":91645,"subject_id":"86270","group":"Group1","full_date":"2025-12-05T19:02:44.757Z","date":"2025-12-05","time":"19:02:44"},{"task":"memory_phase","broad_category":"I","image_png":"I_Gabbro_16.png","image_id":64,"category_name":"Gabbro","category":4,"distinct_rating":2.52,"distinct_type":"Bottom","rt":null,"stimulus":"Stimuli_Rocks480/I_Gabbro_16.png","response":null,"trial_type":"image-keyboard-response","trial_index":6,"plugin_version":"2.1.0","time_elapsed":94164,"subject_id":"86270","group":"Group1","full_date":"2025-12-05T19:02:44.757Z","date":"2025-12-05","time":"19:02:44"},{"rt":null,"stimulus":"<p style=\"font-size: 50px; margin: 0; text-align: center;\">+</p>","response":null,"trial_type":"html-keyboard-response","trial_index":7,"plugin_version":"2.1.0","time_elapsed":95169,"subject_id":"86270","group":"Group1","full_date":"2025-12-05T19:02:44.757Z","date":"2025-12-05","time":"19:02:44"},{"task":"memory_phase","broad_category":"S","image_png":"S_Chert_10.png","image_id":362,"category_name":"Chert","category":23,"distinct_rating":7.17,"distinct_type":"Top","rt":null,"stimulus":"Stimuli_Rocks480/S_Chert_10.png","response":null,"trial_type":"image-keyboard-response","trial_index":8,"plugin_version":"2.1.0","time_elapsed":97684,"subject_id":"86270","group":"Group1","full_date":"2025-12-05T19:02:44.757Z","date":"2025-12-05","time":"19:02:44"},{"rt":null,"stimulus":"<p style=\"font-size: 50px; margin: 0; text-align: center;\">+</p>","response":null,"trial_type":"html-keyboard-response","trial_index":9,"plugin_version":"2.1.0","time_elapsed":98698,"subject_id":"86270","group":"Group1","full_date":"2025-12-05T19:02:44.757Z","date":"2025-12-05","time":"19:02:44"},{"task":"memory_phase","broad_category":"S","image_png":"S_Shale_08.png","image_id":472,"category_name":"Shale","category":30,"distinct_rating":2.55,"distinct_type":"Bottom","rt":null,"stimulus":"Stimuli_Rocks480/S_Shale_08.png","response":null,"trial_type":"image-keyboard-response","trial_index":10,"plugin_version":"2.1.0","time_elapsed":101201,"subject_id":"86270","group":"Group1","full_date":"2025-12-05T19:02:44.757Z","date":"2025-12-05","time":"19:02:44"},{"rt":null,"stimulus":"<p style=\"font-size: 50px; margin: 0; text-align: center;\">+</p>","response":null,"trial_type":"html-keyboard-response","trial_index":11,"plugin_version":"2.1.0","time_elapsed":102218,"subject_id":"86270","group":"Group1","full_date":"2025-12-05T19:02:44.757Z","date":"2025-12-05","time":"19:02:44"},{"task":"memory_phase","broad_category":"M","image_png":"M_Quartzite_08.png","image_id":280,"category_name":"Quartzite","category":18,"distinct_rating":2.15,"distinct_type":"Bottom","rt":null,"stimulus":"Stimuli_Rocks480/M_Quartzite_08.png","response":null,"trial_type":"image-keyboard-response","trial_index":12,"plugin_version":"2.1.0","time_elapsed":104730,"subject_id":"86270","group":"Group1","full_date":"2025-12-05T19:02:44.757Z","date":"2025-12-05","time":"19:02:44"},{"rt":null,"stimulus":"<p style=\"font-size: 50px; margin: 0; text-align: center;\">+</p>","response":null,"trial_type":"html-keyboard-response","trial_index":13,"plugin_version":"2.1.0","time_elapsed":105738,"subject_id":"86270","group":"Group1","full_date":"2025-12-05T19:02:44.757Z","date":"2025-12-05","time":"19:02:44"},{"task":"memory_phase","broad_category":"M","image_png":"M_Gneiss_06.png","image_id":198,"category_name":"Gneiss","category":13,"distinct_rating":2.65,"distinct_type":"Bottom","rt":null,"stimulus":"Stimuli_Rocks480/M_Gneiss_06.png","response":null,"trial_type":"image-keyboard-response","trial_index":14,"plugin_version":"2.1.0","time_elapsed":108255,"subject_id":"86270","group":"Group1","full_date":"2025-12-05T19:02:44.757Z","date":"2025-12-05","time":"19:02:44"},{"rt":null,"stimulus":"<p style=\"font-size: 50px; margin: 0; text-align: center;\">+</p>","response":null,"trial_type":"html-keyboard-response","trial_index":15,"plugin_version":"2.1.0","time_elapsed":109267,"subject_id":"86270","group":"Group1","full_date":"2025-12-05T19:02:44.757Z","date":"2025-12-05","time":"19:02:44"},{"task":"memory_phase","broad_category":"S","image_png":"S_Breccia_11.png","image_id":347,"category_name":"Breccia","category":22,"distinct_rating":6.7,"distinct_type":"Top","rt":null,"stimulus":"Stimuli_Rocks480/S_Breccia_11.png","response":null,"trial_type":"image-keyboard-response","trial_index":16,"plugin_version":"2.1.0","time_elapsed":111773,"subject_id":"86270","group":"Group1","full_date":"2025-12-05T19:02:44.757Z","date":"2025-12-05","time":"19:02:44"},{"rt":null,"stimulus":"<p style=\"font-size: 50px; margin: 0; text-align: center;\">+</p>","response":null,"trial_type":"html-keyboard-response","trial_index":17,"plugin_version":"2.1.0","time_elapsed":112789,"subject_id":"86270","group":"Group1","full_date":"2025-12-05T19:02:44.757Z","date":"2025-12-05","time":"19:02:44"},{"task":"memory_phase","broad_category":"I","image_png":"I_Pegmatite_10.png","image_id":106,"category_name":"Pegmatite","category":7,"distinct_rating":7.66,"distinct_type":"Top","rt":null,"stimulus":"Stimuli_Rocks480/I_Pegmatite_10.png","response":null,"trial_type":"image-keyboard-response","trial_index":18,"plugin_version":"2.1.0","time_elapsed":115301,"subject_id":"86270","group":"Group1","full_date":"2025-12-05T19:02:44.757Z","date":"2025-12-05","time":"19:02:44"},{"rt":null,"stimulus":"<p style=\"font-size: 50px; margin: 0; text-align: center;\">+</p>","response":null,"trial_type":"html-keyboard-response","trial_index":19,"plugin_version":"2.1.0","time_elapsed":116307,"subject_id":"86270","group":"Group1","full_date":"2025-12-05T19:02:44.757Z","date":"2025-12-05","time":"19:02:44"},{"task":"memory_phase","broad_category":"I","image_png":"I_Rhyolite_14.png","image_id":158,"category_name":"Rhyolite","category":10,"distinct_rating":2.59,"distinct_type":"Bottom","rt":null,"stimulus":"Stimuli_Rocks480/I_Rhyolite_14.png","response":null,"trial_type":"image-keyboard-response","trial_index":20,"plugin_version":"2.1.0","time_elapsed":118813,"subject_id":"86270","group":"Group1","full_date":"2025-12-05T19:02:44.757Z","date":"2025-12-05","time":"19:02:44"},{"rt":null,"stimulus":"<p style=\"font-size: 50px; margin: 0; text-align: center;\">+</p>","response":null,"trial_type":"html-keyboard-response","trial_index":21,"plugin_version":"2.1.0","time_elapsed":119817,"subject_id":"86270","group":"Group1","full_date":"2025-12-05T19:02:44.757Z","date":"2025-12-05","time":"19:02:44"},{"task":"memory_phase","broad_category":"S","image_png":"S_Sandstone_15.png","image_id":463,"category_name":"Sandstone","category":29,"distinct_rating":2,"distinct_type":"Bottom","rt":null,"stimulus":"Stimuli_Rocks480/S_Sandstone_15.png","response":null,"trial_type":"image-keyboard-response","trial_index":22,"plugin_version":"2.1.0","time_elapsed":122332,"subject_id":"86270","group":"Group1","full_date":"2025-12-05T19:02:44.757Z","date":"2025-12-05","time":"19:02:44"},{"rt":null,"stimulus":"<p style=\"font-size: 50px; margin: 0; text-align: center;\">+</p>","response":null,"trial_type":"html-keyboard-response","trial_index":23,"plugin_version":"2.1.0","time_elapsed":123334,"subject_id":"86270","group":"Group1","full_date":"2025-12-05T19:02:44.757Z","date":"2025-12-05","time":"19:02:44"},{"task":"memory_phase","broad_category":"I","image_png":"I_Rhyolite_16.png","image_id":160,"category_name":"Rhyolite","category":10,"distinct_rating":2.19,"distinct_type":"Bottom","rt":null,"stimulus":"Stimuli_Rocks480/I_Rhyolite_16.png","response":null,"trial_type":"image-keyboard-response","trial_index":24,"plugin_version":"2.1.0","time_elapsed":125842,"subject_id":"86270","group":"Group1","full_date":"2025-12-05T19:02:44.757Z","date":"2025-12-05","time":"19:02:44"},{"rt":null,"stimulus":"<p style=\"font-size: 50px; margin: 0; text-align: center;\">+</p>","response":null,"trial_type":"html-keyboard-response","trial_index":25,"plugin_version":"2.1.0","time_elapsed":126850,"subject_id":"86270","group":"Group1","full_date":"2025-12-05T19:02:44.757Z","date":"2025-12-05","time":"19:02:44"},{"task":"memory_phase","broad_category":"I","image_png":"I_Diorite_03.png","image_id":35,"category_name":"Diorite","category":3,"distinct_rating":3.14,"distinct_type":"Bottom","rt":null,"stimulus":"Stimuli_Rocks480/I_Diorite_03.png","response":null,"trial_type":"image-keyboard-response","trial_index":26,"plugin_version":"2.1.0","time_elapsed":129362,"subject_id":"86270","group":"Group1","full_date":"2025-12-05T19:02:44.757Z","date":"2025-12-05","time":"19:02:44"},{"rt":null,"stimulus":"<p style=\"font-size: 50px; margin: 0; text-align: center;\">+</p>","response":null,"trial_type":"html-keyboard-response","trial_index":27,"plugin_version":"2.1.0","time_elapsed":130380,"subject_id":"86270","group":"Group1","full_date":"2025-12-05T19:02:44.757Z","date":"2025-12-05","time":"19:02:44"},{"task":"memory_phase","broad_category":"S","image_png":"S_Rock Salt_01.png","image_id":433,"category_name":"Rock Salt","category":28,"distinct_rating":7.18,"distinct_type":"Top","rt":null,"stimulus":"Stimuli_Rocks480/S_Rock Salt_01.png","response":null,"trial_type":"image-keyboard-response","trial_index":28,"plugin_version":"2.1.0","time_elapsed":132882,"subject_id":"86270","group":"Group1","full_date":"2025-12-05T19:02:44.757Z","date":"2025-12-05","time":"19:02:44"},{"rt":null,"stimulus":"<p style=\"font-size: 50px; margin: 0; text-align: center;\">+</p>","response":null,"trial_type":"html-keyboard-response","trial_index":29,"plugin_version":"2.1.0","time_elapsed":133893,"subject_id":"86270","group":"Group1","full_date":"2025-12-05T19:02:44.757Z","date":"2025-12-05","time":"19:02:44"},{"task":"memory_phase","broad_category":"S","image_png":"S_Dolomite_12.png","image_id":396,"category_name":"Dolomite","category":25,"distinct_rating":1.85,"distinct_type":"Bottom","rt":null,"stimulus":"Stimuli_Rocks480/S_Dolomite_12.png","response":null,"trial_type":"image-keyboard-response","trial_index":30,"plugin_version":"2.1.0","time_elapsed":136404,"subject_id":"86270","group":"Group1","full_date":"2025-12-05T19:02:44.757Z","date":"2025-12-05","time":"19:02:44"},{"rt":null,"stimulus":"<p style=\"font-size: 50px; margin: 0; text-align: center;\">+</p>","response":null,"trial_type":"html-keyboard-response","trial_index":31,"plugin_version":"2.1.0","time_elapsed":137412,"subject_id":"86270","group":"Group1","full_date":"2025-12-05T19:02:44.757Z","date":"2025-12-05","time":"19:02:44"},{"task":"memory_phase","broad_category":"M","image_png":"M_Slate_03.png","image_id":307,"category_name":"Slate","category":20,"distinct_rating":1.87,"distinct_type":"Bottom","rt":null,"stimulus":"Stimuli_Rocks480/M_Slate_03.png","response":null,"trial_type":"image-keyboard-response","trial_index":32,"plugin_version":"2.1.0","time_elapsed":139924,"subject_id":"86270","group":"Group1","full_date":"2025-12-05T19:02:44.757Z","date":"2025-12-05","time":"19:02:44"},{"rt":null,"stimulus":"<p style=\"font-size: 50px; margin: 0; text-align: center;\">+</p>","response":null,"trial_type":"html-keyboard-response","trial_index":33,"plugin_version":"2.1.0","time_elapsed":140942,"subject_id":"86270","group":"Group1","full_date":"2025-12-05T19:02:44.757Z","date":"2025-12-05","time":"19:02:44"},{"task":"memory_phase","broad_category":"I","image_png":"I_Gabbro_11.png","image_id":59,"category_name":"Gabbro","category":4,"distinct_rating":1.99,"distinct_type":"Bottom","rt":null,"stimulus":"Stimuli_Rocks480/I_Gabbro_11.png","response":null,"trial_type":"image-keyboard-response","trial_index":34,"plugin_version":"2.1.0","time_elapsed":143445,"subject_id":"86270","group":"Group1","full_date":"2025-12-05T19:02:44.757Z","date":"2025-12-05","time":"19:02:44"},{"rt":null,"stimulus":"<p style=\"font-size: 50px; margin: 0; text-align: center;\">+</p>","response":null,"trial_type":"html-keyboard-response","trial_index":35,"plugin_version":"2.1.0","time_elapsed":144447,"subject_id":"86270","group":"Group1","full_date":"2025-12-05T19:02:44.757Z","date":"2025-12-05","time":"19:02:44"},{"task":"memory_phase","broad_category":"I","image_png":"I_Obsidian_05.png","image_id":85,"category_name":"Obsidian","category":6,"distinct_rating":7.32,"distinct_type":"Top","rt":null,"stimulus":"Stimuli_Rocks480/I_Obsidian_05.png","response":null,"trial_type":"image-keyboard-response","trial_index":36,"plugin_version":"2.1.0","time_elapsed":146965,"subject_id":"86270","group":"Group1","full_date":"2025-12-05T19:02:44.757Z","date":"2025-12-05","time":"19:02:44"},{"rt":null,"stimulus":"<p style=\"font-size: 50px; margin: 0; text-align: center;\">+</p>","response":null,"trial_type":"html-keyboard-response","trial_index":37,"plugin_version":"2.1.0","time_elapsed":147981,"subject_id":"86270","group":"Group1","full_date":"2025-12-05T19:02:44.757Z","date":"2025-12-05","time":"19:02:44"},{"task":"memory_phase","broad_category":"M","image_png":"M_Marble_04.png","image_id":228,"category_name":"Marble","category":15,"distinct_rating":3.15,"distinct_type":"Bottom","rt":null,"stimulus":"Stimuli_Rocks480/M_Marble_04.png","response":null,"trial_type":"image-keyboard-response","trial_index":38,"plugin_version":"2.1.0","time_elapsed":150497,"subject_id":"86270","group":"Group1","full_date":"2025-12-05T19:02:44.757Z","date":"2025-12-05","time":"19:02:44"},{"rt":null,"stimulus":"<p style=\"font-size: 50px; margin: 0; text-align: center;\">+</p>","response":null,"trial_type":"html-keyboard-response","trial_index":39,"plugin_version":"2.1.0","time_elapsed":151513,"subject_id":"86270","group":"Group1","full_date":"2025-12-05T19:02:44.757Z","date":"2025-12-05","time":"19:02:44"},{"task":"memory_phase","broad_category":"M","image_png":"M_Slate_15.png","image_id":319,"category_name":"Slate","category":20,"distinct_rating":2.13,"distinct_type":"Bottom","rt":null,"stimulus":"Stimuli_Rocks480/M_Slate_15.png","response":null,"trial_type":"image-keyboard-response","trial_index":40,"plugin_version":"2.1.0","time_elapsed":154030,"subject_id":"86270","group":"Group1","full_date":"2025-12-05T19:02:44.757Z","date":"2025-12-05","time":"19:02:44"},{"rt":null,"stimulus":"<p style=\"font-size: 50px; margin: 0; text-align: center;\">+</p>","response":null,"trial_type":"html-keyboard-response","trial_index":41,"plugin_version":"2.1.0","time_elapsed":155039,"subject_id":"86270","group":"Group1","full_date":"2025-12-05T19:02:44.757Z","date":"2025-12-05","time":"19:02:44"},{"task":"memory_phase","broad_category":"M","image_png":"M_Quartzite_13.png","image_id":285,"category_name":"Quartzite","category":18,"distinct_rating":2.27,"distinct_type":"Bottom","rt":null,"stimulus":"Stimuli_Rocks480/M_Quartzite_13.png","response":null,"trial_type":"image-keyboard-response","trial_index":42,"plugin_version":"2.1.0","time_elapsed":157552,"subject_id":"86270","group":"Group1","full_date":"2025-12-05T19:02:44.757Z","date":"2025-12-05","time":"19:02:44"},{"rt":null,"stimulus":"<p style=\"font-size: 50px; margin: 0; text-align: center;\">+</p>","response":null,"trial_type":"html-keyboard-response","trial_index":43,"plugin_version":"2.1.0","time_elapsed":158555,"subject_id":"86270","group":"Group1","full_date":"2025-12-05T19:02:44.757Z","date":"2025-12-05","time":"19:02:44"},{"task":"memory_phase","broad_category":"I","image_png":"I_Pegmatite_16.png","image_id":112,"category_name":"Pegmatite","category":7,"distinct_rating":7.03,"distinct_type":"Top","rt":null,"stimulus":"Stimuli_Rocks480/I_Pegmatite_16.png","response":null,"trial_type":"image-keyboard-response","trial_index":44,"plugin_version":"2.1.0","time_elapsed":161061,"subject_id":"86270","group":"Group1","full_date":"2025-12-05T19:02:44.757Z","date":"2025-12-05","time":"19:02:44"},{"rt":null,"stimulus":"<p style=\"font-size: 50px; margin: 0; text-align: center;\">+</p>","response":null,"trial_type":"html-keyboard-response","trial_index":45,"plugin_version":"2.1.0","time_elapsed":162064,"subject_id":"86270","group":"Group1","full_date":"2025-12-05T19:02:44.757Z","date":"2025-12-05","time":"19:02:44"},{"task":"memory_phase","broad_category":"S","image_png":"S_Sandstone_16.png","image_id":464,"category_name":"Sandstone","category":29,"distinct_rating":1.93,"distinct_type":"Bottom","rt":null,"stimulus":"Stimuli_Rocks480/S_Sandstone_16.png","response":null,"trial_type":"image-keyboard-response","trial_index":46,"plugin_version":"2.1.0","time_elapsed":164578,"subject_id":"86270","group":"Group1","full_date":"2025-12-05T19:02:44.757Z","date":"2025-12-05","time":"19:02:44"},{"rt":null,"stimulus":"<p style=\"font-size: 50px; margin: 0; text-align: center;\">+</p>","response":null,"trial_type":"html-keyboard-response","trial_index":47,"plugin_version":"2.1.0","time_elapsed":165589,"subject_id":"86270","group":"Group1","full_date":"2025-12-05T19:02:44.757Z","date":"2025-12-05","time":"19:02:44"},{"task":"memory_phase","broad_category":"M","image_png":"M_Quartzite_05.png","image_id":277,"category_name":"Quartzite","category":18,"distinct_rating":2.23,"distinct_type":"Bottom","rt":null,"stimulus":"Stimuli_Rocks480/M_Quartzite_05.png","response":null,"trial_type":"image-keyboard-response","trial_index":48,"plugin_version":"2.1.0","time_elapsed":168096,"subject_id":"86270","group":"Group1","full_date":"2025-12-05T19:02:44.757Z","date":"2025-12-05","time":"19:02:44"},{"rt":null,"stimulus":"<p style=\"font-size: 50px; margin: 0; text-align: center;\">+</p>","response":null,"trial_type":"html-keyboard-response","trial_index":49,"plugin_version":"2.1.0","time_elapsed":169104,"subject_id":"86270","group":"Group1","full_date":"2025-12-05T19:02:44.757Z","date":"2025-12-05","time":"19:02:44"},{"task":"memory_phase","broad_category":"I","image_png":"I_Andesite_06.png","image_id":6,"category_name":"Andesite","category":1,"distinct_rating":3.17,"distinct_type":"Bottom","rt":null,"stimulus":"Stimuli_Rocks480/I_Andesite_06.png","response":null,"trial_type":"image-keyboard-response","trial_index":50,"plugin_version":"2.1.0","time_elapsed":171612,"subject_id":"86270","group":"Group1","full_date":"2025-12-05T19:02:44.757Z","date":"2025-12-05","time":"19:02:44"},{"rt":null,"stimulus":"<p style=\"font-size: 50px; margin: 0; text-align: center;\">+</p>","response":null,"trial_type":"html-keyboard-response","trial_index":51,"plugin_version":"2.1.0","time_elapsed":172615,"subject_id":"86270","group":"Group1","full_date":"2025-12-05T19:02:44.757Z","date":"2025-12-05","time":"19:02:44"},{"task":"memory_phase","broad_category":"I","image_png":"I_Rhyolite_11.png","image_id":155,"category_name":"Rhyolite","category":10,"distinct_rating":1.73,"distinct_type":"Bottom","rt":null,"stimulus":"Stimuli_Rocks480/I_Rhyolite_11.png","response":null,"trial_type":"image-keyboard-response","trial_index":52,"plugin_version":"2.1.0","time_elapsed":175127,"subject_id":"86270","group":"Group1","full_date":"2025-12-05T19:02:44.757Z","date":"2025-12-05","time":"19:02:44"},{"rt":null,"stimulus":"<p style=\"font-size: 50px; margin: 0; text-align: center;\">+</p>","response":null,"trial_type":"html-keyboard-response","trial_index":53,"plugin_version":"2.1.0","time_elapsed":176136,"subject_id":"86270","group":"Group1","full_date":"2025-12-05T19:02:44.757Z","date":"2025-12-05","time":"19:02:44"},{"task":"memory_phase","broad_category":"I","image_png":"I_Pumice_11.png","image_id":139,"category_name":"Pumice","category":9,"distinct_rating":1.74,"distinct_type":"Bottom","rt":null,"stimulus":"Stimuli_Rocks480/I_Pumice_11.png","response":null,"trial_type":"image-keyboard-response","trial_index":54,"plugin_version":"2.1.0","time_elapsed":178644,"subject_id":"86270","group":"Group1","full_date":"2025-12-05T19:02:44.757Z","date":"2025-12-05","time":"19:02:44"},{"rt":896073,"stimulus":"<p style=\"max-width: 760px; margin: auto; font-size: 35px; line-height: 1.5;\">Press SPACE to continue study phase</p>","response":" ","trial_type":"html-keyboard-response","trial_index":55,"plugin_version":"2.1.0","time_elapsed":1077051,"subject_id":"86270","group":"Group1","full_date":"2025-12-05T19:02:44.757Z","date":"2025-12-05","time":"19:02:44"},{"rt":null,"stimulus":"<p style=\"font-size: 50px; margin: 0; text-align: center;\">+</p>","response":null,"trial_type":"html-keyboard-response","trial_index":56,"plugin_version":"2.1.0","time_elapsed":1078063,"subject_id":"86270","group":"Group1","full_date":"2025-12-05T19:02:44.757Z","date":"2025-12-05","time":"19:02:44"},{"task":"memory_phase","broad_category":"S","image_png":"S_Shale_01.png","image_id":465,"category_name":"Shale","category":30,"distinct_rating":2.7,"distinct_type":"Bottom","rt":null,"stimulus":"Stimuli_Rocks480/S_Shale_01.png","response":null,"trial_type":"image-keyboard-response","trial_index":57,"plugin_version":"2.1.0","time_elapsed":1080571,"subject_id":"86270","group":"Group1","full_date":"2025-12-05T19:02:44.757Z","date":"2025-12-05","time":"19:02:44"},{"rt":null,"stimulus":"<p style=\"font-size: 50px; margin: 0; text-align: center;\">+</p>","response":null,"trial_type":"html-keyboard-response","trial_index":58,"plugin_version":"2.1.0","time_elapsed":1081580,"subject_id":"86270","group":"Group1","full_date":"2025-12-05T19:02:44.757Z","date":"2025-12-05","time":"19:02:44"},{"task":"memory_phase","broad_category":"M","image_png":"M_Marble_06.png","image_id":230,"category_name":"Marble","category":15,"distinct_rating":3.4,"distinct_type":"Bottom","rt":null,"stimulus":"Stimuli_Rocks480/M_Marble_06.png","response":null,"trial_type":"image-keyboard-response","trial_index":59,"plugin_version":"2.1.0","time_elapsed":1084093,"subject_id":"86270","group":"Group1","full_date":"2025-12-05T19:02:44.757Z","date":"2025-12-05","time":"19:02:44"},{"rt":null,"stimulus":"<p style=\"font-size: 50px; margin: 0; text-align: center;\">+</p>","response":null,"trial_type":"html-keyboard-response","trial_index":60,"plugin_version":"2.1.0","time_elapsed":1085109,"subject_id":"86270","group":"Group1","full_date":"2025-12-05T19:02:44.757Z","date":"2025-12-05","time":"19:02:44"},{"task":"memory_phase","broad_category":"I","image_png":"I_Diorite_04.png","image_id":36,"category_name":"Diorite","category":3,"distinct_rating":2.98,"distinct_type":"Bottom","rt":null,"stimulus":"Stimuli_Rocks480/I_Diorite_04.png","response":null,"trial_type":"image-keyboard-response","trial_index":61,"plugin_version":"2.1.0","time_elapsed":1087624,"subject_id":"86270","group":"Group1","full_date":"2025-12-05T19:02:44.757Z","date":"2025-12-05","time":"19:02:44"},{"rt":null,"stimulus":"<p style=\"font-size: 50px; margin: 0; text-align: center;\">+</p>","response":null,"trial_type":"html-keyboard-response","trial_index":62,"plugin_version":"2.1.0","time_elapsed":1088640,"subject_id":"86270","group":"Group1","full_date":"2025-12-05T19:02:44.757Z","date":"2025-12-05","time":"19:02:44"},{"task":"memory_phase","broad_category":"I","image_png":"I_Gabbro_08.png","image_id":56,"category_name":"Gabbro","category":4,"distinct_rating":3.02,"distinct_type":"Bottom","rt":null,"stimulus":"Stimuli_Rocks480/I_Gabbro_08.png","response":null,"trial_type":"image-keyboard-response","trial_index":63,"plugin_version":"2.1.0","time_elapsed":1091153,"subject_id":"86270","group":"Group1","full_date":"2025-12-05T19:02:44.757Z","date":"2025-12-05","time":"19:02:44"},{"rt":null,"stimulus":"<p style=\"font-size: 50px; margin: 0; text-align: center;\">+</p>","response":null,"trial_type":"html-keyboard-response","trial_index":64,"plugin_version":"2.1.0","time_elapsed":1092165,"subject_id":"86270","group":"Group1","full_date":"2025-12-05T19:02:44.757Z","date":"2025-12-05","time":"19:02:44"},{"task":"memory_phase","broad_category":"S","image_png":"S_Rock Gypsum_04.png","image_id":420,"category_name":"Rock Gypsum","category":27,"distinct_rating":7.61,"distinct_type":"Top","rt":null,"stimulus":"Stimuli_Rocks480/S_Rock Gypsum_04.png","response":null,"trial_type":"image-keyboard-response","trial_index":65,"plugin_version":"2.1.0","time_elapsed":1094674,"subject_id":"86270","group":"Group1","full_date":"2025-12-05T19:02:44.757Z","date":"2025-12-05","time":"19:02:44"},{"rt":null,"stimulus":"<p style=\"font-size: 50px; margin: 0; text-align: center;\">+</p>","response":null,"trial_type":"html-keyboard-response","trial_index":66,"plugin_version":"2.1.0","time_elapsed":1095690,"subject_id":"86270","group":"Group1","full_date":"2025-12-05T19:02:44.757Z","date":"2025-12-05","time":"19:02:44"},{"task":"memory_phase","broad_category":"S","image_png":"S_Dolomite_13.png","image_id":397,"category_name":"Dolomite","category":25,"distinct_rating":1.77,"distinct_type":"Bottom","rt":null,"stimulus":"Stimuli_Rocks480/S_Dolomite_13.png","response":null,"trial_type":"image-keyboard-response","trial_index":67,"plugin_version":"2.1.0","time_elapsed":1098199,"subject_id":"86270","group":"Group1","full_date":"2025-12-05T19:02:44.757Z","date":"2025-12-05","time":"19:02:44"},{"rt":null,"stimulus":"<p style=\"font-size: 50px; margin: 0; text-align: center;\">+</p>","response":null,"trial_type":"html-keyboard-response","trial_index":68,"plugin_version":"2.1.0","time_elapsed":1099211,"subject_id":"86270","group":"Group1","full_date":"2025-12-05T19:02:44.757Z","date":"2025-12-05","time":"19:02:44"},{"task":"memory_phase","broad_category":"I","image_png":"I_Basalt_02.png","image_id":18,"category_name":"Basalt","category":2,"distinct_rating":1.84,"distinct_type":"Bottom","rt":null,"stimulus":"Stimuli_Rocks480/I_Basalt_02.png","response":null,"trial_type":"image-keyboard-response","trial_index":69,"plugin_version":"2.1.0","time_elapsed":1101723,"subject_id":"86270","group":"Group1","full_date":"2025-12-05T19:02:44.757Z","date":"2025-12-05","time":"19:02:44"},{"rt":null,"stimulus":"<p style=\"font-size: 50px; margin: 0; text-align: center;\">+</p>","response":null,"trial_type":"html-keyboard-response","trial_index":70,"plugin_version":"2.1.0","time_elapsed":1102737,"subject_id":"86270","group":"Group1","full_date":"2025-12-05T19:02:44.757Z","date":"2025-12-05","time":"19:02:44"},{"task":"memory_phase","broad_category":"M","image_png":"M_Phyllite_07.png","image_id":263,"category_name":"Phyllite","category":17,"distinct_rating":2.59,"distinct_type":"Bottom","rt":null,"stimulus":"Stimuli_Rocks480/M_Phyllite_07.png","response":null,"trial_type":"image-keyboard-response","trial_index":71,"plugin_version":"2.1.0","time_elapsed":1105240,"subject_id":"86270","group":"Group1","full_date":"2025-12-05T19:02:44.757Z","date":"2025-12-05","time":"19:02:44"},{"rt":null,"stimulus":"<p style=\"font-size: 50px; margin: 0; text-align: center;\">+</p>","response":null,"trial_type":"html-keyboard-response","trial_index":72,"plugin_version":"2.1.0","time_elapsed":1106255,"subject_id":"86270","group":"Group1","full_date":"2025-12-05T19:02:44.757Z","date":"2025-12-05","time":"19:02:44"},{"task":"memory_phase","broad_category":"I","image_png":"I_Basalt_01.png","image_id":17,"category_name":"Basalt","category":2,"distinct_rating":1.92,"distinct_type":"Bottom","rt":null,"stimulus":"Stimuli_Rocks480/I_Basalt_01.png","response":null,"trial_type":"image-keyboard-response","trial_index":73,"plugin_version":"2.1.0","time_elapsed":1108758,"subject_id":"86270","group":"Group1","full_date":"2025-12-05T19:02:44.757Z","date":"2025-12-05","time":"19:02:44"},{"rt":null,"stimulus":"<p style=\"font-size: 50px; margin: 0; text-align: center;\">+</p>","response":null,"trial_type":"html-keyboard-response","trial_index":74,"plugin_version":"2.1.0","time_elapsed":1109768,"subject_id":"86270","group":"Group1","full_date":"2025-12-05T19:02:44.757Z","date":"2025-12-05","time":"19:02:44"},{"task":"memory_phase","broad_category":"S","image_png":"S_Dolomite_14.png","image_id":398,"category_name":"Dolomite","category":25,"distinct_rating":1.43,"distinct_type":"Bottom","rt":null,"stimulus":"Stimuli_Rocks480/S_Dolomite_14.png","response":null,"trial_type":"image-keyboard-response","trial_index":75,"plugin_version":"2.1.0","time_elapsed":1112278,"subject_id":"86270","group":"Group1","full_date":"2025-12-05T19:02:44.757Z","date":"2025-12-05","time":"19:02:44"},{"rt":null,"stimulus":"<p style=\"font-size: 50px; margin: 0; text-align: center;\">+</p>","response":null,"trial_type":"html-keyboard-response","trial_index":76,"plugin_version":"2.1.0","time_elapsed":1113294,"subject_id":"86270","group":"Group1","full_date":"2025-12-05T19:02:44.757Z","date":"2025-12-05","time":"19:02:44"},{"task":"memory_phase","broad_category":"S","image_png":"S_Shale_12.png","image_id":476,"category_name":"Shale","category":30,"distinct_rating":2.48,"distinct_type":"Bottom","rt":null,"stimulus":"Stimuli_Rocks480/S_Shale_12.png","response":null,"trial_type":"image-keyboard-response","trial_index":77,"plugin_version":"2.1.0","time_elapsed":1115806,"subject_id":"86270","group":"Group1","full_date":"2025-12-05T19:02:44.757Z","date":"2025-12-05","time":"19:02:44"},{"rt":null,"stimulus":"<p style=\"font-size: 50px; margin: 0; text-align: center;\">+</p>","response":null,"trial_type":"html-keyboard-response","trial_index":78,"plugin_version":"2.1.0","time_elapsed":1116823,"subject_id":"86270","group":"Group1","full_date":"2025-12-05T19:02:44.757Z","date":"2025-12-05","time":"19:02:44"},{"task":"memory_phase","broad_category":"M","image_png":"M_Slate_11.png","image_id":315,"category_name":"Slate","category":20,"distinct_rating":2.75,"distinct_type":"Bottom","rt":null,"stimulus":"Stimuli_Rocks480/M_Slate_11.png","response":null,"trial_type":"image-keyboard-response","trial_index":79,"plugin_version":"2.1.0","time_elapsed":1119327,"subject_id":"86270","group":"Group1","full_date":"2025-12-05T19:02:44.757Z","date":"2025-12-05","time":"19:02:44"},{"rt":null,"stimulus":"<p style=\"font-size: 50px; margin: 0; text-align: center;\">+</p>","response":null,"trial_type":"html-keyboard-response","trial_index":80,"plugin_version":"2.1.0","time_elapsed":1120335,"subject_id":"86270","group":"Group1","full_date":"2025-12-05T19:02:44.757Z","date":"2025-12-05","time":"19:02:44"},{"task":"memory_phase","broad_category":"I","image_png":"I_Andesite_08.png","image_id":8,"category_name":"Andesite","category":1,"distinct_rating":1.95,"distinct_type":"Bottom","rt":null,"stimulus":"Stimuli_Rocks480/I_Andesite_08.png","response":null,"trial_type":"image-keyboard-response","trial_index":81,"plugin_version":"2.1.0","time_elapsed":1122838,"subject_id":"86270","group":"Group1","full_date":"2025-12-05T19:02:44.757Z","date":"2025-12-05","time":"19:02:44"},{"rt":null,"stimulus":"<p style=\"font-size: 50px; margin: 0; text-align: center;\">+</p>","response":null,"trial_type":"html-keyboard-response","trial_index":82,"plugin_version":"2.1.0","time_elapsed":1123840,"subject_id":"86270","group":"Group1","full_date":"2025-12-05T19:02:44.757Z","date":"2025-12-05","time":"19:02:44"},{"task":"memory_phase","broad_category":"S","image_png":"S_Sandstone_03.png","image_id":451,"category_name":"Sandstone","category":29,"distinct_rating":1.86,"distinct_type":"Bottom","rt":null,"stimulus":"Stimuli_Rocks480/S_Sandstone_03.png","response":null,"trial_type":"image-keyboard-response","trial_index":83,"plugin_version":"2.1.0","time_elapsed":1126356,"subject_id":"86270","group":"Group1","full_date":"2025-12-05T19:02:44.757Z","date":"2025-12-05","time":"19:02:44"},{"rt":null,"stimulus":"<p style=\"font-size: 50px; margin: 0; text-align: center;\">+</p>","response":null,"trial_type":"html-keyboard-response","trial_index":84,"plugin_version":"2.1.0","time_elapsed":1127367,"subject_id":"86270","group":"Group1","full_date":"2025-12-05T19:02:44.757Z","date":"2025-12-05","time":"19:02:44"},{"task":"memory_phase","broad_category":"M","image_png":"M_Marble_16.png","image_id":240,"category_name":"Marble","category":15,"distinct_rating":2.57,"distinct_type":"Bottom","rt":null,"stimulus":"Stimuli_Rocks480/M_Marble_16.png","response":null,"trial_type":"image-keyboard-response","trial_index":85,"plugin_version":"2.1.0","time_elapsed":1129873,"subject_id":"86270","group":"Group1","full_date":"2025-12-05T19:02:44.757Z","date":"2025-12-05","time":"19:02:44"},{"rt":null,"stimulus":"<p style=\"font-size: 50px; margin: 0; text-align: center;\">+</p>","response":null,"trial_type":"html-keyboard-response","trial_index":86,"plugin_version":"2.1.0","time_elapsed":1130889,"subject_id":"86270","group":"Group1","full_date":"2025-12-05T19:02:44.757Z","date":"2025-12-05","time":"19:02:44"},{"task":"memory_phase","broad_category":"I","image_png":"I_Pumice_08.png","image_id":136,"category_name":"Pumice","category":9,"distinct_rating":3.1,"distinct_type":"Bottom","rt":null,"stimulus":"Stimuli_Rocks480/I_Pumice_08.png","response":null,"trial_type":"image-keyboard-response","trial_index":87,"plugin_version":"2.1.0","time_elapsed":1133406,"subject_id":"86270","group":"Group1","full_date":"2025-12-05T19:02:44.757Z","date":"2025-12-05","time":"19:02:44"},{"rt":null,"stimulus":"<p style=\"font-size: 50px; margin: 0; text-align: center;\">+</p>","response":null,"trial_type":"html-keyboard-response","trial_index":88,"plugin_version":"2.1.0","time_elapsed":1134422,"subject_id":"86270","group":"Group1","full_date":"2025-12-05T19:02:44.757Z","date":"2025-12-05","time":"19:02:44"},{"task":"memory_phase","broad_category":"I","image_png":"I_Andesite_10.png","image_id":10,"category_name":"Andesite","category":1,"distinct_rating":3.15,"distinct_type":"Bottom","rt":null,"stimulus":"Stimuli_Rocks480/I_Andesite_10.png","response":null,"trial_type":"image-keyboard-response","trial_index":89,"plugin_version":"2.1.0","time_elapsed":1136938,"subject_id":"86270","group":"Group1","full_date":"2025-12-05T19:02:44.757Z","date":"2025-12-05","time":"19:02:44"},{"rt":null,"stimulus":"<p style=\"font-size: 50px; margin: 0; text-align: center;\">+</p>","response":null,"trial_type":"html-keyboard-response","trial_index":90,"plugin_version":"2.1.0","time_elapsed":1137956,"subject_id":"86270","group":"Group1","full_date":"2025-12-05T19:02:44.757Z","date":"2025-12-05","time":"19:02:44"},{"task":"memory_phase","broad_category":"S","image_png":"S_Conglomerate_05.png","image_id":373,"category_name":"Conglomerate","category":24,"distinct_rating":7.32,"distinct_type":"Top","rt":null,"stimulus":"Stimuli_Rocks480/S_Conglomerate_05.png","response":null,"trial_type":"image-keyboard-response","trial_index":91,"plugin_version":"2.1.0","time_elapsed":1140468,"subject_id":"86270","group":"Group1","full_date":"2025-12-05T19:02:44.757Z","date":"2025-12-05","time":"19:02:44"},{"rt":null,"stimulus":"<p style=\"font-size: 50px; margin: 0; text-align: center;\">+</p>","response":null,"trial_type":"html-keyboard-response","trial_index":92,"plugin_version":"2.1.0","time_elapsed":1141471,"subject_id":"86270","group":"Group1","full_date":"2025-12-05T19:02:44.757Z","date":"2025-12-05","time":"19:02:44"},{"task":"memory_phase","broad_category":"M","image_png":"M_Phyllite_10.png","image_id":266,"category_name":"Phyllite","category":17,"distinct_rating":2.6,"distinct_type":"Bottom","rt":null,"stimulus":"Stimuli_Rocks480/M_Phyllite_10.png","response":null,"trial_type":"image-keyboard-response","trial_index":93,"plugin_version":"2.1.0","time_elapsed":1143989,"subject_id":"86270","group":"Group1","full_date":"2025-12-05T19:02:44.757Z","date":"2025-12-05","time":"19:02:44"},{"rt":null,"stimulus":"<p style=\"font-size: 50px; margin: 0; text-align: center;\">+</p>","response":null,"trial_type":"html-keyboard-response","trial_index":94,"plugin_version":"2.1.0","time_elapsed":1145005,"subject_id":"86270","group":"Group1","full_date":"2025-12-05T19:02:44.757Z","date":"2025-12-05","time":"19:02:44"},{"task":"memory_phase","broad_category":"M","image_png":"M_Gneiss_13.png","image_id":205,"category_name":"Gneiss","category":13,"distinct_rating":3.26,"distinct_type":"Bottom","rt":null,"stimulus":"Stimuli_Rocks480/M_Gneiss_13.png","response":null,"trial_type":"image-keyboard-response","trial_index":95,"plugin_version":"2.1.0","time_elapsed":1147522,"subject_id":"86270","group":"Group1","full_date":"2025-12-05T19:02:44.757Z","date":"2025-12-05","time":"19:02:44"},{"rt":null,"stimulus":"<p style=\"font-size: 50px; margin: 0; text-align: center;\">+</p>","response":null,"trial_type":"html-keyboard-response","trial_index":96,"plugin_version":"2.1.0","time_elapsed":1148538,"subject_id":"86270","group":"Group1","full_date":"2025-12-05T19:02:44.757Z","date":"2025-12-05","time":"19:02:44"},{"task":"memory_phase","broad_category":"I","image_png":"I_Basalt_09.png","image_id":25,"category_name":"Basalt","category":2,"distinct_rating":1.89,"distinct_type":"Bottom","rt":null,"stimulus":"Stimuli_Rocks480/I_Basalt_09.png","response":null,"trial_type":"image-keyboard-response","trial_index":97,"plugin_version":"2.1.0","time_elapsed":1151055,"subject_id":"86270","group":"Group1","full_date":"2025-12-05T19:02:44.757Z","date":"2025-12-05","time":"19:02:44"},{"rt":null,"stimulus":"<p style=\"font-size: 50px; margin: 0; text-align: center;\">+</p>","response":null,"trial_type":"html-keyboard-response","trial_index":98,"plugin_version":"2.1.0","time_elapsed":1152071,"subject_id":"86270","group":"Group1","full_date":"2025-12-05T19:02:44.757Z","date":"2025-12-05","time":"19:02:44"},{"task":"memory_phase","broad_category":"I","image_png":"I_Diorite_05.png","image_id":37,"category_name":"Diorite","category":3,"distinct_rating":3.08,"distinct_type":"Bottom","rt":null,"stimulus":"Stimuli_Rocks480/I_Diorite_05.png","response":null,"trial_type":"image-keyboard-response","trial_index":99,"plugin_version":"2.1.0","time_elapsed":1154574,"subject_id":"86270","group":"Group1","full_date":"2025-12-05T19:02:44.757Z","date":"2025-12-05","time":"19:02:44"},{"rt":null,"stimulus":"<p style=\"font-size: 50px; margin: 0; text-align: center;\">+</p>","response":null,"trial_type":"html-keyboard-response","trial_index":100,"plugin_version":"2.1.0","time_elapsed":1155588,"subject_id":"86270","group":"Group1","full_date":"2025-12-05T19:02:44.757Z","date":"2025-12-05","time":"19:02:44"},{"task":"memory_phase","broad_category":"I","image_png":"I_Pumice_12.png","image_id":140,"category_name":"Pumice","category":9,"distinct_rating":2.97,"distinct_type":"Bottom","rt":null,"stimulus":"Stimuli_Rocks480/I_Pumice_12.png","response":null,"trial_type":"image-keyboard-response","trial_index":101,"plugin_version":"2.1.0","time_elapsed":1158102,"subject_id":"86270","group":"Group1","full_date":"2025-12-05T19:02:44.757Z","date":"2025-12-05","time":"19:02:44"},{"rt":null,"stimulus":"<p style=\"font-size: 50px; margin: 0; text-align: center;\">+</p>","response":null,"trial_type":"html-keyboard-response","trial_index":102,"plugin_version":"2.1.0","time_elapsed":1159119,"subject_id":"86270","group":"Group1","full_date":"2025-12-05T19:02:44.757Z","date":"2025-12-05","time":"19:02:44"},{"task":"memory_phase","broad_category":"M","image_png":"M_Phyllite_03.png","image_id":259,"category_name":"Phyllite","category":17,"distinct_rating":2.5,"distinct_type":"Bottom","rt":null,"stimulus":"Stimuli_Rocks480/M_Phyllite_03.png","response":null,"trial_type":"image-keyboard-response","trial_index":103,"plugin_version":"2.1.0","time_elapsed":1161632,"subject_id":"86270","group":"Group1","full_date":"2025-12-05T19:02:44.757Z","date":"2025-12-05","time":"19:02:44"},{"rt":null,"stimulus":"<p style=\"font-size: 50px; margin: 0; text-align: center;\">+</p>","response":null,"trial_type":"html-keyboard-response","trial_index":104,"plugin_version":"2.1.0","time_elapsed":1162635,"subject_id":"86270","group":"Group1","full_date":"2025-12-05T19:02:44.757Z","date":"2025-12-05","time":"19:02:44"},{"task":"memory_phase","broad_category":"M","image_png":"M_Gneiss_05.png","image_id":197,"category_name":"Gneiss","category":13,"distinct_rating":2.97,"distinct_type":"Bottom","rt":null,"stimulus":"Stimuli_Rocks480/M_Gneiss_05.png","response":null,"trial_type":"image-keyboard-response","trial_index":105,"plugin_version":"2.1.0","time_elapsed":1165151,"subject_id":"86270","group":"Group1","full_date":"2025-12-05T19:02:44.757Z","date":"2025-12-05","time":"19:02:44"},{"rt":5162,"stimulus":"<p style=\"max-width: 760px; margin: auto; font-size: 35px; line-height: 1.5;\">You have completed 1 study phase. Now, we'll show you all the images again 2 more times.<br><br>Press SPACE to continue</p>","response":" ","trial_type":"html-keyboard-response","trial_index":106,"plugin_version":"2.1.0","time_elapsed":1170314,"subject_id":"86270","group":"Group1","full_date":"2025-12-05T19:02:44.757Z","date":"2025-12-05","time":"19:02:44"},{"rt":null,"stimulus":"<p style=\"font-size: 50px; margin: 0; text-align: center;\">+</p>","response":null,"trial_type":"html-keyboard-response","trial_index":107,"plugin_version":"2.1.0","time_elapsed":1171318,"subject_id":"86270","group":"Group1","full_date":"2025-12-05T19:02:44.757Z","date":"2025-12-05","time":"19:02:44"},{"task":"memory_phase","broad_category":"I","image_png":"I_Andesite_10.png","image_id":10,"category_name":"Andesite","category":1,"distinct_rating":3.15,"distinct_type":"Bottom","rt":null,"stimulus":"Stimuli_Rocks480/I_Andesite_10.png","response":null,"trial_type":"image-keyboard-response","trial_index":108,"plugin_version":"2.1.0","time_elapsed":1173836,"subject_id":"86270","group":"Group1","full_date":"2025-12-05T19:02:44.757Z","date":"2025-12-05","time":"19:02:44"},{"rt":null,"stimulus":"<p style=\"font-size: 50px; margin: 0; text-align: center;\">+</p>","response":null,"trial_type":"html-keyboard-response","trial_index":109,"plugin_version":"2.1.0","time_elapsed":1174852,"subject_id":"86270","group":"Group1","full_date":"2025-12-05T19:02:44.757Z","date":"2025-12-05","time":"19:02:44"},{"task":"memory_phase","broad_category":"S","image_png":"S_Dolomite_13.png","image_id":397,"category_name":"Dolomite","category":25,"distinct_rating":1.77,"distinct_type":"Bottom","rt":null,"stimulus":"Stimuli_Rocks480/S_Dolomite_13.png","response":null,"trial_type":"image-keyboard-response","trial_index":110,"plugin_version":"2.1.0","time_elapsed":1177365,"subject_id":"86270","group":"Group1","full_date":"2025-12-05T19:02:44.757Z","date":"2025-12-05","time":"19:02:44"},{"rt":null,"stimulus":"<p style=\"font-size: 50px; margin: 0; text-align: center;\">+</p>","response":null,"trial_type":"html-keyboard-response","trial_index":111,"plugin_version":"2.1.0","time_elapsed":1178367,"subject_id":"86270","group":"Group1","full_date":"2025-12-05T19:02:44.757Z","date":"2025-12-05","time":"19:02:44"},{"task":"memory_phase","broad_category":"I","image_png":"I_Diorite_04.png","image_id":36,"category_name":"Diorite","category":3,"distinct_rating":2.98,"distinct_type":"Bottom","rt":null,"stimulus":"Stimuli_Rocks480/I_Diorite_04.png","response":null,"trial_type":"image-keyboard-response","trial_index":112,"plugin_version":"2.1.0","time_elapsed":1180877,"subject_id":"86270","group":"Group1","full_date":"2025-12-05T19:02:44.757Z","date":"2025-12-05","time":"19:02:44"},{"rt":null,"stimulus":"<p style=\"font-size: 50px; margin: 0; text-align: center;\">+</p>","response":null,"trial_type":"html-keyboard-response","trial_index":113,"plugin_version":"2.1.0","time_elapsed":1181894,"subject_id":"86270","group":"Group1","full_date":"2025-12-05T19:02:44.757Z","date":"2025-12-05","time":"19:02:44"},{"task":"memory_phase","broad_category":"I","image_png":"I_Pumice_08.png","image_id":136,"category_name":"Pumice","category":9,"distinct_rating":3.1,"distinct_type":"Bottom","rt":null,"stimulus":"Stimuli_Rocks480/I_Pumice_08.png","response":null,"trial_type":"image-keyboard-response","trial_index":114,"plugin_version":"2.1.0","time_elapsed":1184402,"subject_id":"86270","group":"Group1","full_date":"2025-12-05T19:02:44.757Z","date":"2025-12-05","time":"19:02:44"},{"rt":null,"stimulus":"<p style=\"font-size: 50px; margin: 0; text-align: center;\">+</p>","response":null,"trial_type":"html-keyboard-response","trial_index":115,"plugin_version":"2.1.0","time_elapsed":1185418,"subject_id":"86270","group":"Group1","full_date":"2025-12-05T19:02:44.757Z","date":"2025-12-05","time":"19:02:44"},{"task":"memory_phase","broad_category":"I","image_png":"I_Diorite_05.png","image_id":37,"category_name":"Diorite","category":3,"distinct_rating":3.08,"distinct_type":"Bottom","rt":null,"stimulus":"Stimuli_Rocks480/I_Diorite_05.png","response":null,"trial_type":"image-keyboard-response","trial_index":116,"plugin_version":"2.1.0","time_elapsed":1187933,"subject_id":"86270","group":"Group1","full_date":"2025-12-05T19:02:44.757Z","date":"2025-12-05","time":"19:02:44"},{"rt":null,"stimulus":"<p style=\"font-size: 50px; margin: 0; text-align: center;\">+</p>","response":null,"trial_type":"html-keyboard-response","trial_index":117,"plugin_version":"2.1.0","time_elapsed":1188948,"subject_id":"86270","group":"Group1","full_date":"2025-12-05T19:02:44.757Z","date":"2025-12-05","time":"19:02:44"},{"task":"memory_phase","broad_category":"M","image_png":"M_Slate_15.png","image_id":319,"category_name":"Slate","category":20,"distinct_rating":2.13,"distinct_type":"Bottom","rt":null,"stimulus":"Stimuli_Rocks480/M_Slate_15.png","response":null,"trial_type":"image-keyboard-response","trial_index":118,"plugin_version":"2.1.0","time_elapsed":1191456,"subject_id":"86270","group":"Group1","full_date":"2025-12-05T19:02:44.757Z","date":"2025-12-05","time":"19:02:44"},{"rt":null,"stimulus":"<p style=\"font-size: 50px; margin: 0; text-align: center;\">+</p>","response":null,"trial_type":"html-keyboard-response","trial_index":119,"plugin_version":"2.1.0","time_elapsed":1192466,"subject_id":"86270","group":"Group1","full_date":"2025-12-05T19:02:44.757Z","date":"2025-12-05","time":"19:02:44"},{"task":"memory_phase","broad_category":"M","image_png":"M_Gneiss_13.png","image_id":205,"category_name":"Gneiss","category":13,"distinct_rating":3.26,"distinct_type":"Bottom","rt":null,"stimulus":"Stimuli_Rocks480/M_Gneiss_13.png","response":null,"trial_type":"image-keyboard-response","trial_index":120,"plugin_version":"2.1.0","time_elapsed":1194982,"subject_id":"86270","group":"Group1","full_date":"2025-12-05T19:02:44.757Z","date":"2025-12-05","time":"19:02:44"},{"rt":null,"stimulus":"<p style=\"font-size: 50px; margin: 0; text-align: center;\">+</p>","response":null,"trial_type":"html-keyboard-response","trial_index":121,"plugin_version":"2.1.0","time_elapsed":1195995,"subject_id":"86270","group":"Group1","full_date":"2025-12-05T19:02:44.757Z","date":"2025-12-05","time":"19:02:44"},{"task":"memory_phase","broad_category":"S","image_png":"S_Rock Gypsum_04.png","image_id":420,"category_name":"Rock Gypsum","category":27,"distinct_rating":7.61,"distinct_type":"Top","rt":null,"stimulus":"Stimuli_Rocks480/S_Rock Gypsum_04.png","response":null,"trial_type":"image-keyboard-response","trial_index":122,"plugin_version":"2.1.0","time_elapsed":1198501,"subject_id":"86270","group":"Group1","full_date":"2025-12-05T19:02:44.757Z","date":"2025-12-05","time":"19:02:44"},{"rt":null,"stimulus":"<p style=\"font-size: 50px; margin: 0; text-align: center;\">+</p>","response":null,"trial_type":"html-keyboard-response","trial_index":123,"plugin_version":"2.1.0","time_elapsed":1199517,"subject_id":"86270","group":"Group1","full_date":"2025-12-05T19:02:44.757Z","date":"2025-12-05","time":"19:02:44"},{"task":"memory_phase","broad_category":"I","image_png":"I_Rhyolite_14.png","image_id":158,"category_name":"Rhyolite","category":10,"distinct_rating":2.59,"distinct_type":"Bottom","rt":null,"stimulus":"Stimuli_Rocks480/I_Rhyolite_14.png","response":null,"trial_type":"image-keyboard-response","trial_index":124,"plugin_version":"2.1.0","time_elapsed":1202025,"subject_id":"86270","group":"Group1","full_date":"2025-12-05T19:02:44.757Z","date":"2025-12-05","time":"19:02:44"},{"rt":null,"stimulus":"<p style=\"font-size: 50px; margin: 0; text-align: center;\">+</p>","response":null,"trial_type":"html-keyboard-response","trial_index":125,"plugin_version":"2.1.0","time_elapsed":1203034,"subject_id":"86270","group":"Group1","full_date":"2025-12-05T19:02:44.757Z","date":"2025-12-05","time":"19:02:44"},{"task":"memory_phase","broad_category":"M","image_png":"M_Phyllite_03.png","image_id":259,"category_name":"Phyllite","category":17,"distinct_rating":2.5,"distinct_type":"Bottom","rt":null,"stimulus":"Stimuli_Rocks480/M_Phyllite_03.png","response":null,"trial_type":"image-keyboard-response","trial_index":126,"plugin_version":"2.1.0","time_elapsed":1205548,"subject_id":"86270","group":"Group1","full_date":"2025-12-05T19:02:44.757Z","date":"2025-12-05","time":"19:02:44"},{"rt":null,"stimulus":"<p style=\"font-size: 50px; margin: 0; text-align: center;\">+</p>","response":null,"trial_type":"html-keyboard-response","trial_index":127,"plugin_version":"2.1.0","time_elapsed":1206550,"subject_id":"86270","group":"Group1","full_date":"2025-12-05T19:02:44.757Z","date":"2025-12-05","time":"19:02:44"},{"task":"memory_phase","broad_category":"I","image_png":"I_Andesite_08.png","image_id":8,"category_name":"Andesite","category":1,"distinct_rating":1.95,"distinct_type":"Bottom","rt":null,"stimulus":"Stimuli_Rocks480/I_Andesite_08.png","response":null,"trial_type":"image-keyboard-response","trial_index":128,"plugin_version":"2.1.0","time_elapsed":1209053,"subject_id":"86270","group":"Group1","full_date":"2025-12-05T19:02:44.757Z","date":"2025-12-05","time":"19:02:44"},{"rt":null,"stimulus":"<p style=\"font-size: 50px; margin: 0; text-align: center;\">+</p>","response":null,"trial_type":"html-keyboard-response","trial_index":129,"plugin_version":"2.1.0","time_elapsed":1210066,"subject_id":"86270","group":"Group1","full_date":"2025-12-05T19:02:44.757Z","date":"2025-12-05","time":"19:02:44"},{"task":"memory_phase","broad_category":"M","image_png":"M_Gneiss_06.png","image_id":198,"category_name":"Gneiss","category":13,"distinct_rating":2.65,"distinct_type":"Bottom","rt":null,"stimulus":"Stimuli_Rocks480/M_Gneiss_06.png","response":null,"trial_type":"image-keyboard-response","trial_index":130,"plugin_version":"2.1.0","time_elapsed":1212584,"subject_id":"86270","group":"Group1","full_date":"2025-12-05T19:02:44.757Z","date":"2025-12-05","time":"19:02:44"},{"rt":null,"stimulus":"<p style=\"font-size: 50px; margin: 0; text-align: center;\">+</p>","response":null,"trial_type":"html-keyboard-response","trial_index":131,"plugin_version":"2.1.0","time_elapsed":1213600,"subject_id":"86270","group":"Group1","full_date":"2025-12-05T19:02:44.757Z","date":"2025-12-05","time":"19:02:44"},{"task":"memory_phase","broad_category":"S","image_png":"S_Shale_12.png","image_id":476,"category_name":"Shale","category":30,"distinct_rating":2.48,"distinct_type":"Bottom","rt":null,"stimulus":"Stimuli_Rocks480/S_Shale_12.png","response":null,"trial_type":"image-keyboard-response","trial_index":132,"plugin_version":"2.1.0","time_elapsed":1216116,"subject_id":"86270","group":"Group1","full_date":"2025-12-05T19:02:44.757Z","date":"2025-12-05","time":"19:02:44"},{"rt":null,"stimulus":"<p style=\"font-size: 50px; margin: 0; text-align: center;\">+</p>","response":null,"trial_type":"html-keyboard-response","trial_index":133,"plugin_version":"2.1.0","time_elapsed":1217120,"subject_id":"86270","group":"Group1","full_date":"2025-12-05T19:02:44.757Z","date":"2025-12-05","time":"19:02:44"},{"task":"memory_phase","broad_category":"S","image_png":"S_Shale_01.png","image_id":465,"category_name":"Shale","category":30,"distinct_rating":2.7,"distinct_type":"Bottom","rt":null,"stimulus":"Stimuli_Rocks480/S_Shale_01.png","response":null,"trial_type":"image-keyboard-response","trial_index":134,"plugin_version":"2.1.0","time_elapsed":1219624,"subject_id":"86270","group":"Group1","full_date":"2025-12-05T19:02:44.757Z","date":"2025-12-05","time":"19:02:44"},{"rt":null,"stimulus":"<p style=\"font-size: 50px; margin: 0; text-align: center;\">+</p>","response":null,"trial_type":"html-keyboard-response","trial_index":135,"plugin_version":"2.1.0","time_elapsed":1220636,"subject_id":"86270","group":"Group1","full_date":"2025-12-05T19:02:44.757Z","date":"2025-12-05","time":"19:02:44"},{"task":"memory_phase","broad_category":"S","image_png":"S_Dolomite_12.png","image_id":396,"category_name":"Dolomite","category":25,"distinct_rating":1.85,"distinct_type":"Bottom","rt":null,"stimulus":"Stimuli_Rocks480/S_Dolomite_12.png","response":null,"trial_type":"image-keyboard-response","trial_index":136,"plugin_version":"2.1.0","time_elapsed":1223148,"subject_id":"86270","group":"Group1","full_date":"2025-12-05T19:02:44.757Z","date":"2025-12-05","time":"19:02:44"},{"rt":null,"stimulus":"<p style=\"font-size: 50px; margin: 0; text-align: center;\">+</p>","response":null,"trial_type":"html-keyboard-response","trial_index":137,"plugin_version":"2.1.0","time_elapsed":1224162,"subject_id":"86270","group":"Group1","full_date":"2025-12-05T19:02:44.757Z","date":"2025-12-05","time":"19:02:44"},{"task":"memory_phase","broad_category":"I","image_png":"I_Obsidian_05.png","image_id":85,"category_name":"Obsidian","category":6,"distinct_rating":7.32,"distinct_type":"Top","rt":null,"stimulus":"Stimuli_Rocks480/I_Obsidian_05.png","response":null,"trial_type":"image-keyboard-response","trial_index":138,"plugin_version":"2.1.0","time_elapsed":1226666,"subject_id":"86270","group":"Group1","full_date":"2025-12-05T19:02:44.757Z","date":"2025-12-05","time":"19:02:44"},{"rt":null,"stimulus":"<p style=\"font-size: 50px; margin: 0; text-align: center;\">+</p>","response":null,"trial_type":"html-keyboard-response","trial_index":139,"plugin_version":"2.1.0","time_elapsed":1227681,"subject_id":"86270","group":"Group1","full_date":"2025-12-05T19:02:44.757Z","date":"2025-12-05","time":"19:02:44"},{"task":"memory_phase","broad_category":"M","image_png":"M_Phyllite_07.png","image_id":263,"category_name":"Phyllite","category":17,"distinct_rating":2.59,"distinct_type":"Bottom","rt":null,"stimulus":"Stimuli_Rocks480/M_Phyllite_07.png","response":null,"trial_type":"image-keyboard-response","trial_index":140,"plugin_version":"2.1.0","time_elapsed":1230185,"subject_id":"86270","group":"Group1","full_date":"2025-12-05T19:02:44.757Z","date":"2025-12-05","time":"19:02:44"},{"rt":null,"stimulus":"<p style=\"font-size: 50px; margin: 0; text-align: center;\">+</p>","response":null,"trial_type":"html-keyboard-response","trial_index":141,"plugin_version":"2.1.0","time_elapsed":1231194,"subject_id":"86270","group":"Group1","full_date":"2025-12-05T19:02:44.757Z","date":"2025-12-05","time":"19:02:44"},{"task":"memory_phase","broad_category":"M","image_png":"M_Quartzite_13.png","image_id":285,"category_name":"Quartzite","category":18,"distinct_rating":2.27,"distinct_type":"Bottom","rt":null,"stimulus":"Stimuli_Rocks480/M_Quartzite_13.png","response":null,"trial_type":"image-keyboard-response","trial_index":142,"plugin_version":"2.1.0","time_elapsed":1233698,"subject_id":"86270","group":"Group1","full_date":"2025-12-05T19:02:44.757Z","date":"2025-12-05","time":"19:02:44"},{"rt":null,"stimulus":"<p style=\"font-size: 50px; margin: 0; text-align: center;\">+</p>","response":null,"trial_type":"html-keyboard-response","trial_index":143,"plugin_version":"2.1.0","time_elapsed":1234704,"subject_id":"86270","group":"Group1","full_date":"2025-12-05T19:02:44.757Z","date":"2025-12-05","time":"19:02:44"},{"task":"memory_phase","broad_category":"S","image_png":"S_Sandstone_16.png","image_id":464,"category_name":"Sandstone","category":29,"distinct_rating":1.93,"distinct_type":"Bottom","rt":null,"stimulus":"Stimuli_Rocks480/S_Sandstone_16.png","response":null,"trial_type":"image-keyboard-response","trial_index":144,"plugin_version":"2.1.0","time_elapsed":1237214,"subject_id":"86270","group":"Group1","full_date":"2025-12-05T19:02:44.757Z","date":"2025-12-05","time":"19:02:44"},{"rt":null,"stimulus":"<p style=\"font-size: 50px; margin: 0; text-align: center;\">+</p>","response":null,"trial_type":"html-keyboard-response","trial_index":145,"plugin_version":"2.1.0","time_elapsed":1238229,"subject_id":"86270","group":"Group1","full_date":"2025-12-05T19:02:44.757Z","date":"2025-12-05","time":"19:02:44"},{"task":"memory_phase","broad_category":"M","image_png":"M_Slate_11.png","image_id":315,"category_name":"Slate","category":20,"distinct_rating":2.75,"distinct_type":"Bottom","rt":null,"stimulus":"Stimuli_Rocks480/M_Slate_11.png","response":null,"trial_type":"image-keyboard-response","trial_index":146,"plugin_version":"2.1.0","time_elapsed":1240732,"subject_id":"86270","group":"Group1","full_date":"2025-12-05T19:02:44.757Z","date":"2025-12-05","time":"19:02:44"},{"rt":null,"stimulus":"<p style=\"font-size: 50px; margin: 0; text-align: center;\">+</p>","response":null,"trial_type":"html-keyboard-response","trial_index":147,"plugin_version":"2.1.0","time_elapsed":1241743,"subject_id":"86270","group":"Group1","full_date":"2025-12-05T19:02:44.757Z","date":"2025-12-05","time":"19:02:44"},{"task":"memory_phase","broad_category":"I","image_png":"I_Diorite_03.png","image_id":35,"category_name":"Diorite","category":3,"distinct_rating":3.14,"distinct_type":"Bottom","rt":null,"stimulus":"Stimuli_Rocks480/I_Diorite_03.png","response":null,"trial_type":"image-keyboard-response","trial_index":148,"plugin_version":"2.1.0","time_elapsed":1244261,"subject_id":"86270","group":"Group1","full_date":"2025-12-05T19:02:44.757Z","date":"2025-12-05","time":"19:02:44"},{"rt":null,"stimulus":"<p style=\"font-size: 50px; margin: 0; text-align: center;\">+</p>","response":null,"trial_type":"html-keyboard-response","trial_index":149,"plugin_version":"2.1.0","time_elapsed":1245270,"subject_id":"86270","group":"Group1","full_date":"2025-12-05T19:02:44.757Z","date":"2025-12-05","time":"19:02:44"},{"task":"memory_phase","broad_category":"I","image_png":"I_Basalt_01.png","image_id":17,"category_name":"Basalt","category":2,"distinct_rating":1.92,"distinct_type":"Bottom","rt":null,"stimulus":"Stimuli_Rocks480/I_Basalt_01.png","response":null,"trial_type":"image-keyboard-response","trial_index":150,"plugin_version":"2.1.0","time_elapsed":1247787,"subject_id":"86270","group":"Group1","full_date":"2025-12-05T19:02:44.757Z","date":"2025-12-05","time":"19:02:44"},{"rt":null,"stimulus":"<p style=\"font-size: 50px; margin: 0; text-align: center;\">+</p>","response":null,"trial_type":"html-keyboard-response","trial_index":151,"plugin_version":"2.1.0","time_elapsed":1248792,"subject_id":"86270","group":"Group1","full_date":"2025-12-05T19:02:44.757Z","date":"2025-12-05","time":"19:02:44"},{"task":"memory_phase","broad_category":"M","image_png":"M_Gneiss_05.png","image_id":197,"category_name":"Gneiss","category":13,"distinct_rating":2.97,"distinct_type":"Bottom","rt":null,"stimulus":"Stimuli_Rocks480/M_Gneiss_05.png","response":null,"trial_type":"image-keyboard-response","trial_index":152,"plugin_version":"2.1.0","time_elapsed":1251308,"subject_id":"86270","group":"Group1","full_date":"2025-12-05T19:02:44.757Z","date":"2025-12-05","time":"19:02:44"},{"rt":null,"stimulus":"<p style=\"font-size: 50px; margin: 0; text-align: center;\">+</p>","response":null,"trial_type":"html-keyboard-response","trial_index":153,"plugin_version":"2.1.0","time_elapsed":1252325,"subject_id":"86270","group":"Group1","full_date":"2025-12-05T19:02:44.757Z","date":"2025-12-05","time":"19:02:44"},{"task":"memory_phase","broad_category":"I","image_png":"I_Andesite_06.png","image_id":6,"category_name":"Andesite","category":1,"distinct_rating":3.17,"distinct_type":"Bottom","rt":null,"stimulus":"Stimuli_Rocks480/I_Andesite_06.png","response":null,"trial_type":"image-keyboard-response","trial_index":154,"plugin_version":"2.1.0","time_elapsed":1254833,"subject_id":"86270","group":"Group1","full_date":"2025-12-05T19:02:44.757Z","date":"2025-12-05","time":"19:02:44"},{"rt":null,"stimulus":"<p style=\"font-size: 50px; margin: 0; text-align: center;\">+</p>","response":null,"trial_type":"html-keyboard-response","trial_index":155,"plugin_version":"2.1.0","time_elapsed":1255846,"subject_id":"86270","group":"Group1","full_date":"2025-12-05T19:02:44.757Z","date":"2025-12-05","time":"19:02:44"},{"task":"memory_phase","broad_category":"I","image_png":"I_Pegmatite_16.png","image_id":112,"category_name":"Pegmatite","category":7,"distinct_rating":7.03,"distinct_type":"Top","rt":null,"stimulus":"Stimuli_Rocks480/I_Pegmatite_16.png","response":null,"trial_type":"image-keyboard-response","trial_index":156,"plugin_version":"2.1.0","time_elapsed":1258350,"subject_id":"86270","group":"Group1","full_date":"2025-12-05T19:02:44.757Z","date":"2025-12-05","time":"19:02:44"},{"rt":166293,"stimulus":"<p style=\"max-width: 760px; margin: auto; font-size: 35px; line-height: 1.5;\">Press SPACE to continue study phase</p>","response":" ","trial_type":"html-keyboard-response","trial_index":157,"plugin_version":"2.1.0","time_elapsed":1424644,"subject_id":"86270","group":"Group1","full_date":"2025-12-05T19:02:44.757Z","date":"2025-12-05","time":"19:02:44"},{"rt":null,"stimulus":"<p style=\"font-size: 50px; margin: 0; text-align: center;\">+</p>","response":null,"trial_type":"html-keyboard-response","trial_index":158,"plugin_version":"2.1.0","time_elapsed":1425660,"subject_id":"86270","group":"Group1","full_date":"2025-12-05T19:02:44.757Z","date":"2025-12-05","time":"19:02:44"},{"task":"memory_phase","broad_category":"S","image_png":"S_Chert_10.png","image_id":362,"category_name":"Chert","category":23,"distinct_rating":7.17,"distinct_type":"Top","rt":null,"stimulus":"Stimuli_Rocks480/S_Chert_10.png","response":null,"trial_type":"image-keyboard-response","trial_index":159,"plugin_version":"2.1.0","time_elapsed":1428169,"subject_id":"86270","group":"Group1","full_date":"2025-12-05T19:02:44.757Z","date":"2025-12-05","time":"19:02:44"},{"rt":null,"stimulus":"<p style=\"font-size: 50px; margin: 0; text-align: center;\">+</p>","response":null,"trial_type":"html-keyboard-response","trial_index":160,"plugin_version":"2.1.0","time_elapsed":1429186,"subject_id":"86270","group":"Group1","full_date":"2025-12-05T19:02:44.757Z","date":"2025-12-05","time":"19:02:44"},{"task":"memory_phase","broad_category":"M","image_png":"M_Slate_03.png","image_id":307,"category_name":"Slate","category":20,"distinct_rating":1.87,"distinct_type":"Bottom","rt":null,"stimulus":"Stimuli_Rocks480/M_Slate_03.png","response":null,"trial_type":"image-keyboard-response","trial_index":161,"plugin_version":"2.1.0","time_elapsed":1431701,"subject_id":"86270","group":"Group1","full_date":"2025-12-05T19:02:44.757Z","date":"2025-12-05","time":"19:02:44"},{"rt":null,"stimulus":"<p style=\"font-size: 50px; margin: 0; text-align: center;\">+</p>","response":null,"trial_type":"html-keyboard-response","trial_index":162,"plugin_version":"2.1.0","time_elapsed":1432715,"subject_id":"86270","group":"Group1","full_date":"2025-12-05T19:02:44.757Z","date":"2025-12-05","time":"19:02:44"},{"task":"memory_phase","broad_category":"S","image_png":"S_Shale_08.png","image_id":472,"category_name":"Shale","category":30,"distinct_rating":2.55,"distinct_type":"Bottom","rt":null,"stimulus":"Stimuli_Rocks480/S_Shale_08.png","response":null,"trial_type":"image-keyboard-response","trial_index":163,"plugin_version":"2.1.0","time_elapsed":1435218,"subject_id":"86270","group":"Group1","full_date":"2025-12-05T19:02:44.757Z","date":"2025-12-05","time":"19:02:44"},{"rt":null,"stimulus":"<p style=\"font-size: 50px; margin: 0; text-align: center;\">+</p>","response":null,"trial_type":"html-keyboard-response","trial_index":164,"plugin_version":"2.1.0","time_elapsed":1436235,"subject_id":"86270","group":"Group1","full_date":"2025-12-05T19:02:44.757Z","date":"2025-12-05","time":"19:02:44"},{"task":"memory_phase","broad_category":"S","image_png":"S_Sandstone_03.png","image_id":451,"category_name":"Sandstone","category":29,"distinct_rating":1.86,"distinct_type":"Bottom","rt":null,"stimulus":"Stimuli_Rocks480/S_Sandstone_03.png","response":null,"trial_type":"image-keyboard-response","trial_index":165,"plugin_version":"2.1.0","time_elapsed":1438752,"subject_id":"86270","group":"Group1","full_date":"2025-12-05T19:02:44.757Z","date":"2025-12-05","time":"19:02:44"},{"rt":null,"stimulus":"<p style=\"font-size: 50px; margin: 0; text-align: center;\">+</p>","response":null,"trial_type":"html-keyboard-response","trial_index":166,"plugin_version":"2.1.0","time_elapsed":1439758,"subject_id":"86270","group":"Group1","full_date":"2025-12-05T19:02:44.757Z","date":"2025-12-05","time":"19:02:44"},{"task":"memory_phase","broad_category":"I","image_png":"I_Pumice_11.png","image_id":139,"category_name":"Pumice","category":9,"distinct_rating":1.74,"distinct_type":"Bottom","rt":null,"stimulus":"Stimuli_Rocks480/I_Pumice_11.png","response":null,"trial_type":"image-keyboard-response","trial_index":167,"plugin_version":"2.1.0","time_elapsed":1442268,"subject_id":"86270","group":"Group1","full_date":"2025-12-05T19:02:44.757Z","date":"2025-12-05","time":"19:02:44"},{"rt":null,"stimulus":"<p style=\"font-size: 50px; margin: 0; text-align: center;\">+</p>","response":null,"trial_type":"html-keyboard-response","trial_index":168,"plugin_version":"2.1.0","time_elapsed":1443285,"subject_id":"86270","group":"Group1","full_date":"2025-12-05T19:02:44.757Z","date":"2025-12-05","time":"19:02:44"},{"task":"memory_phase","broad_category":"M","image_png":"M_Quartzite_05.png","image_id":277,"category_name":"Quartzite","category":18,"distinct_rating":2.23,"distinct_type":"Bottom","rt":null,"stimulus":"Stimuli_Rocks480/M_Quartzite_05.png","response":null,"trial_type":"image-keyboard-response","trial_index":169,"plugin_version":"2.1.0","time_elapsed":1445798,"subject_id":"86270","group":"Group1","full_date":"2025-12-05T19:02:44.757Z","date":"2025-12-05","time":"19:02:44"},{"rt":null,"stimulus":"<p style=\"font-size: 50px; margin: 0; text-align: center;\">+</p>","response":null,"trial_type":"html-keyboard-response","trial_index":170,"plugin_version":"2.1.0","time_elapsed":1446801,"subject_id":"86270","group":"Group1","full_date":"2025-12-05T19:02:44.757Z","date":"2025-12-05","time":"19:02:44"},{"task":"memory_phase","broad_category":"S","image_png":"S_Breccia_11.png","image_id":347,"category_name":"Breccia","category":22,"distinct_rating":6.7,"distinct_type":"Top","rt":null,"stimulus":"Stimuli_Rocks480/S_Breccia_11.png","response":null,"trial_type":"image-keyboard-response","trial_index":171,"plugin_version":"2.1.0","time_elapsed":1449318,"subject_id":"86270","group":"Group1","full_date":"2025-12-05T19:02:44.757Z","date":"2025-12-05","time":"19:02:44"},{"rt":null,"stimulus":"<p style=\"font-size: 50px; margin: 0; text-align: center;\">+</p>","response":null,"trial_type":"html-keyboard-response","trial_index":172,"plugin_version":"2.1.0","time_elapsed":1450335,"subject_id":"86270","group":"Group1","full_date":"2025-12-05T19:02:44.757Z","date":"2025-12-05","time":"19:02:44"},{"task":"memory_phase","broad_category":"I","image_png":"I_Pegmatite_10.png","image_id":106,"category_name":"Pegmatite","category":7,"distinct_rating":7.66,"distinct_type":"Top","rt":null,"stimulus":"Stimuli_Rocks480/I_Pegmatite_10.png","response":null,"trial_type":"image-keyboard-response","trial_index":173,"plugin_version":"2.1.0","time_elapsed":1452851,"subject_id":"86270","group":"Group1","full_date":"2025-12-05T19:02:44.757Z","date":"2025-12-05","time":"19:02:44"},{"rt":null,"stimulus":"<p style=\"font-size: 50px; margin: 0; text-align: center;\">+</p>","response":null,"trial_type":"html-keyboard-response","trial_index":174,"plugin_version":"2.1.0","time_elapsed":1453866,"subject_id":"86270","group":"Group1","full_date":"2025-12-05T19:02:44.757Z","date":"2025-12-05","time":"19:02:44"},{"task":"memory_phase","broad_category":"S","image_png":"S_Dolomite_14.png","image_id":398,"category_name":"Dolomite","category":25,"distinct_rating":1.43,"distinct_type":"Bottom","rt":null,"stimulus":"Stimuli_Rocks480/S_Dolomite_14.png","response":null,"trial_type":"image-keyboard-response","trial_index":175,"plugin_version":"2.1.0","time_elapsed":1456382,"subject_id":"86270","group":"Group1","full_date":"2025-12-05T19:02:44.757Z","date":"2025-12-05","time":"19:02:44"},{"rt":null,"stimulus":"<p style=\"font-size: 50px; margin: 0; text-align: center;\">+</p>","response":null,"trial_type":"html-keyboard-response","trial_index":176,"plugin_version":"2.1.0","time_elapsed":1457400,"subject_id":"86270","group":"Group1","full_date":"2025-12-05T19:02:44.757Z","date":"2025-12-05","time":"19:02:44"},{"task":"memory_phase","broad_category":"I","image_png":"I_Basalt_09.png","image_id":25,"category_name":"Basalt","category":2,"distinct_rating":1.89,"distinct_type":"Bottom","rt":null,"stimulus":"Stimuli_Rocks480/I_Basalt_09.png","response":null,"trial_type":"image-keyboard-response","trial_index":177,"plugin_version":"2.1.0","time_elapsed":1459916,"subject_id":"86270","group":"Group1","full_date":"2025-12-05T19:02:44.757Z","date":"2025-12-05","time":"19:02:44"},{"rt":null,"stimulus":"<p style=\"font-size: 50px; margin: 0; text-align: center;\">+</p>","response":null,"trial_type":"html-keyboard-response","trial_index":178,"plugin_version":"2.1.0","time_elapsed":1460918,"subject_id":"86270","group":"Group1","full_date":"2025-12-05T19:02:44.757Z","date":"2025-12-05","time":"19:02:44"},{"task":"memory_phase","broad_category":"S","image_png":"S_Conglomerate_05.png","image_id":373,"category_name":"Conglomerate","category":24,"distinct_rating":7.32,"distinct_type":"Top","rt":null,"stimulus":"Stimuli_Rocks480/S_Conglomerate_05.png","response":null,"trial_type":"image-keyboard-response","trial_index":179,"plugin_version":"2.1.0","time_elapsed":1463433,"subject_id":"86270","group":"Group1","full_date":"2025-12-05T19:02:44.757Z","date":"2025-12-05","time":"19:02:44"},{"rt":null,"stimulus":"<p style=\"font-size: 50px; margin: 0; text-align: center;\">+</p>","response":null,"trial_type":"html-keyboard-response","trial_index":180,"plugin_version":"2.1.0","time_elapsed":1464448,"subject_id":"86270","group":"Group1","full_date":"2025-12-05T19:02:44.757Z","date":"2025-12-05","time":"19:02:44"},{"task":"memory_phase","broad_category":"M","image_png":"M_Marble_06.png","image_id":230,"category_name":"Marble","category":15,"distinct_rating":3.4,"distinct_type":"Bottom","rt":null,"stimulus":"Stimuli_Rocks480/M_Marble_06.png","response":null,"trial_type":"image-keyboard-response","trial_index":181,"plugin_version":"2.1.0","time_elapsed":1466951,"subject_id":"86270","group":"Group1","full_date":"2025-12-05T19:02:44.757Z","date":"2025-12-05","time":"19:02:44"},{"rt":null,"stimulus":"<p style=\"font-size: 50px; margin: 0; text-align: center;\">+</p>","response":null,"trial_type":"html-keyboard-response","trial_index":182,"plugin_version":"2.1.0","time_elapsed":1467964,"subject_id":"86270","group":"Group1","full_date":"2025-12-05T19:02:44.757Z","date":"2025-12-05","time":"19:02:44"},{"task":"memory_phase","broad_category":"M","image_png":"M_Quartzite_08.png","image_id":280,"category_name":"Quartzite","category":18,"distinct_rating":2.15,"distinct_type":"Bottom","rt":null,"stimulus":"Stimuli_Rocks480/M_Quartzite_08.png","response":null,"trial_type":"image-keyboard-response","trial_index":183,"plugin_version":"2.1.0","time_elapsed":1470471,"subject_id":"86270","group":"Group1","full_date":"2025-12-05T19:02:44.757Z","date":"2025-12-05","time":"19:02:44"},{"rt":null,"stimulus":"<p style=\"font-size: 50px; margin: 0; text-align: center;\">+</p>","response":null,"trial_type":"html-keyboard-response","trial_index":184,"plugin_version":"2.1.0","time_elapsed":1471473,"subject_id":"86270","group":"Group1","full_date":"2025-12-05T19:02:44.757Z","date":"2025-12-05","time":"19:02:44"},{"task":"memory_phase","broad_category":"S","image_png":"S_Sandstone_15.png","image_id":463,"category_name":"Sandstone","category":29,"distinct_rating":2,"distinct_type":"Bottom","rt":null,"stimulus":"Stimuli_Rocks480/S_Sandstone_15.png","response":null,"trial_type":"image-keyboard-response","trial_index":185,"plugin_version":"2.1.0","time_elapsed":1473980,"subject_id":"86270","group":"Group1","full_date":"2025-12-05T19:02:44.757Z","date":"2025-12-05","time":"19:02:44"},{"rt":null,"stimulus":"<p style=\"font-size: 50px; margin: 0; text-align: center;\">+</p>","response":null,"trial_type":"html-keyboard-response","trial_index":186,"plugin_version":"2.1.0","time_elapsed":1474986,"subject_id":"86270","group":"Group1","full_date":"2025-12-05T19:02:44.757Z","date":"2025-12-05","time":"19:02:44"},{"task":"memory_phase","broad_category":"M","image_png":"M_Phyllite_10.png","image_id":266,"category_name":"Phyllite","category":17,"distinct_rating":2.6,"distinct_type":"Bottom","rt":null,"stimulus":"Stimuli_Rocks480/M_Phyllite_10.png","response":null,"trial_type":"image-keyboard-response","trial_index":187,"plugin_version":"2.1.0","time_elapsed":1477499,"subject_id":"86270","group":"Group1","full_date":"2025-12-05T19:02:44.757Z","date":"2025-12-05","time":"19:02:44"},{"rt":null,"stimulus":"<p style=\"font-size: 50px; margin: 0; text-align: center;\">+</p>","response":null,"trial_type":"html-keyboard-response","trial_index":188,"plugin_version":"2.1.0","time_elapsed":1478515,"subject_id":"86270","group":"Group1","full_date":"2025-12-05T19:02:44.757Z","date":"2025-12-05","time":"19:02:44"},{"task":"memory_phase","broad_category":"I","image_png":"I_Rhyolite_16.png","image_id":160,"category_name":"Rhyolite","category":10,"distinct_rating":2.19,"distinct_type":"Bottom","rt":null,"stimulus":"Stimuli_Rocks480/I_Rhyolite_16.png","response":null,"trial_type":"image-keyboard-response","trial_index":189,"plugin_version":"2.1.0","time_elapsed":1481031,"subject_id":"86270","group":"Group1","full_date":"2025-12-05T19:02:44.757Z","date":"2025-12-05","time":"19:02:44"},{"rt":null,"stimulus":"<p style=\"font-size: 50px; margin: 0; text-align: center;\">+</p>","response":null,"trial_type":"html-keyboard-response","trial_index":190,"plugin_version":"2.1.0","time_elapsed":1482048,"subject_id":"86270","group":"Group1","full_date":"2025-12-05T19:02:44.757Z","date":"2025-12-05","time":"19:02:44"},{"task":"memory_phase","broad_category":"I","image_png":"I_Gabbro_16.png","image_id":64,"category_name":"Gabbro","category":4,"distinct_rating":2.52,"distinct_type":"Bottom","rt":null,"stimulus":"Stimuli_Rocks480/I_Gabbro_16.png","response":null,"trial_type":"image-keyboard-response","trial_index":191,"plugin_version":"2.1.0","time_elapsed":1484566,"subject_id":"86270","group":"Group1","full_date":"2025-12-05T19:02:44.757Z","date":"2025-12-05","time":"19:02:44"},{"rt":null,"stimulus":"<p style=\"font-size: 50px; margin: 0; text-align: center;\">+</p>","response":null,"trial_type":"html-keyboard-response","trial_index":192,"plugin_version":"2.1.0","time_elapsed":1485582,"subject_id":"86270","group":"Group1","full_date":"2025-12-05T19:02:44.757Z","date":"2025-12-05","time":"19:02:44"},{"task":"memory_phase","broad_category":"S","image_png":"S_Rock Salt_01.png","image_id":433,"category_name":"Rock Salt","category":28,"distinct_rating":7.18,"distinct_type":"Top","rt":null,"stimulus":"Stimuli_Rocks480/S_Rock Salt_01.png","response":null,"trial_type":"image-keyboard-response","trial_index":193,"plugin_version":"2.1.0","time_elapsed":1488098,"subject_id":"86270","group":"Group1","full_date":"2025-12-05T19:02:44.757Z","date":"2025-12-05","time":"19:02:44"},{"rt":null,"stimulus":"<p style=\"font-size: 50px; margin: 0; text-align: center;\">+</p>","response":null,"trial_type":"html-keyboard-response","trial_index":194,"plugin_version":"2.1.0","time_elapsed":1489114,"subject_id":"86270","group":"Group1","full_date":"2025-12-05T19:02:44.757Z","date":"2025-12-05","time":"19:02:44"},{"task":"memory_phase","broad_category":"I","image_png":"I_Gabbro_11.png","image_id":59,"category_name":"Gabbro","category":4,"distinct_rating":1.99,"distinct_type":"Bottom","rt":null,"stimulus":"Stimuli_Rocks480/I_Gabbro_11.png","response":null,"trial_type":"image-keyboard-response","trial_index":195,"plugin_version":"2.1.0","time_elapsed":1491617,"subject_id":"86270","group":"Group1","full_date":"2025-12-05T19:02:44.757Z","date":"2025-12-05","time":"19:02:44"},{"rt":null,"stimulus":"<p style=\"font-size: 50px; margin: 0; text-align: center;\">+</p>","response":null,"trial_type":"html-keyboard-response","trial_index":196,"plugin_version":"2.1.0","time_elapsed":1492631,"subject_id":"86270","group":"Group1","full_date":"2025-12-05T19:02:44.757Z","date":"2025-12-05","time":"19:02:44"},{"task":"memory_phase","broad_category":"I","image_png":"I_Rhyolite_11.png","image_id":155,"category_name":"Rhyolite","category":10,"distinct_rating":1.73,"distinct_type":"Bottom","rt":null,"stimulus":"Stimuli_Rocks480/I_Rhyolite_11.png","response":null,"trial_type":"image-keyboard-response","trial_index":197,"plugin_version":"2.1.0","time_elapsed":1495144,"subject_id":"86270","group":"Group1","full_date":"2025-12-05T19:02:44.757Z","date":"2025-12-05","time":"19:02:44"},{"rt":null,"stimulus":"<p style=\"font-size: 50px; margin: 0; text-align: center;\">+</p>","response":null,"trial_type":"html-keyboard-response","trial_index":198,"plugin_version":"2.1.0","time_elapsed":1496147,"subject_id":"86270","group":"Group1","full_date":"2025-12-05T19:02:44.757Z","date":"2025-12-05","time":"19:02:44"},{"task":"memory_phase","broad_category":"I","image_png":"I_Basalt_02.png","image_id":18,"category_name":"Basalt","category":2,"distinct_rating":1.84,"distinct_type":"Bottom","rt":null,"stimulus":"Stimuli_Rocks480/I_Basalt_02.png","response":null,"trial_type":"image-keyboard-response","trial_index":199,"plugin_version":"2.1.0","time_elapsed":1498663,"subject_id":"86270","group":"Group1","full_date":"2025-12-05T19:02:44.757Z","date":"2025-12-05","time":"19:02:44"},{"rt":null,"stimulus":"<p style=\"font-size: 50px; margin: 0; text-align: center;\">+</p>","response":null,"trial_type":"html-keyboard-response","trial_index":200,"plugin_version":"2.1.0","time_elapsed":1499678,"subject_id":"86270","group":"Group1","full_date":"2025-12-05T19:02:44.757Z","date":"2025-12-05","time":"19:02:44"},{"task":"memory_phase","broad_category":"I","image_png":"I_Pumice_12.png","image_id":140,"category_name":"Pumice","category":9,"distinct_rating":2.97,"distinct_type":"Bottom","rt":null,"stimulus":"Stimuli_Rocks480/I_Pumice_12.png","response":null,"trial_type":"image-keyboard-response","trial_index":201,"plugin_version":"2.1.0","time_elapsed":1502182,"subject_id":"86270","group":"Group1","full_date":"2025-12-05T19:02:44.757Z","date":"2025-12-05","time":"19:02:44"},{"rt":null,"stimulus":"<p style=\"font-size: 50px; margin: 0; text-align: center;\">+</p>","response":null,"trial_type":"html-keyboard-response","trial_index":202,"plugin_version":"2.1.0","time_elapsed":1503196,"subject_id":"86270","group":"Group1","full_date":"2025-12-05T19:02:44.757Z","date":"2025-12-05","time":"19:02:44"},{"task":"memory_phase","broad_category":"I","image_png":"I_Gabbro_08.png","image_id":56,"category_name":"Gabbro","category":4,"distinct_rating":3.02,"distinct_type":"Bottom","rt":null,"stimulus":"Stimuli_Rocks480/I_Gabbro_08.png","response":null,"trial_type":"image-keyboard-response","trial_index":203,"plugin_version":"2.1.0","time_elapsed":1505710,"subject_id":"86270","group":"Group1","full_date":"2025-12-05T19:02:44.757Z","date":"2025-12-05","time":"19:02:44"},{"rt":null,"stimulus":"<p style=\"font-size: 50px; margin: 0; text-align: center;\">+</p>","response":null,"trial_type":"html-keyboard-response","trial_index":204,"plugin_version":"2.1.0","time_elapsed":1506712,"subject_id":"86270","group":"Group1","full_date":"2025-12-05T19:02:44.757Z","date":"2025-12-05","time":"19:02:44"},{"task":"memory_phase","broad_category":"M","image_png":"M_Marble_16.png","image_id":240,"category_name":"Marble","category":15,"distinct_rating":2.57,"distinct_type":"Bottom","rt":null,"stimulus":"Stimuli_Rocks480/M_Marble_16.png","response":null,"trial_type":"image-keyboard-response","trial_index":205,"plugin_version":"2.1.0","time_elapsed":1509214,"subject_id":"86270","group":"Group1","full_date":"2025-12-05T19:02:44.757Z","date":"2025-12-05","time":"19:02:44"},{"rt":null,"stimulus":"<p style=\"font-size: 50px; margin: 0; text-align: center;\">+</p>","response":null,"trial_type":"html-keyboard-response","trial_index":206,"plugin_version":"2.1.0","time_elapsed":1510229,"subject_id":"86270","group":"Group1","full_date":"2025-12-05T19:02:44.757Z","date":"2025-12-05","time":"19:02:44"},{"task":"memory_phase","broad_category":"M","image_png":"M_Marble_04.png","image_id":228,"category_name":"Marble","category":15,"distinct_rating":3.15,"distinct_type":"Bottom","rt":null,"stimulus":"Stimuli_Rocks480/M_Marble_04.png","response":null,"trial_type":"image-keyboard-response","trial_index":207,"plugin_version":"2.1.0","time_elapsed":1512744,"subject_id":"86270","group":"Group1","full_date":"2025-12-05T19:02:44.757Z","date":"2025-12-05","time":"19:02:44"},{"rt":4001,"stimulus":"<p style=\"max-width: 760px; margin: auto; font-size: 35px; line-height: 1.5;\">You have completed 2 study phases. Now, we'll show you all the images again 1 more time.<br><br>Press SPACE to continue</p>","response":" ","trial_type":"html-keyboard-response","trial_index":208,"plugin_version":"2.1.0","time_elapsed":1516746,"subject_id":"86270","group":"Group1","full_date":"2025-12-05T19:02:44.757Z","date":"2025-12-05","time":"19:02:44"},{"rt":null,"stimulus":"<p style=\"font-size: 50px; margin: 0; text-align: center;\">+</p>","response":null,"trial_type":"html-keyboard-response","trial_index":209,"plugin_version":"2.1.0","time_elapsed":1517761,"subject_id":"86270","group":"Group1","full_date":"2025-12-05T19:02:44.757Z","date":"2025-12-05","time":"19:02:44"},{"task":"memory_phase","broad_category":"I","image_png":"I_Rhyolite_11.png","image_id":155,"category_name":"Rhyolite","category":10,"distinct_rating":1.73,"distinct_type":"Bottom","rt":null,"stimulus":"Stimuli_Rocks480/I_Rhyolite_11.png","response":null,"trial_type":"image-keyboard-response","trial_index":210,"plugin_version":"2.1.0","time_elapsed":1520265,"subject_id":"86270","group":"Group1","full_date":"2025-12-05T19:02:44.757Z","date":"2025-12-05","time":"19:02:44"},{"rt":null,"stimulus":"<p style=\"font-size: 50px; margin: 0; text-align: center;\">+</p>","response":null,"trial_type":"html-keyboard-response","trial_index":211,"plugin_version":"2.1.0","time_elapsed":1521275,"subject_id":"86270","group":"Group1","full_date":"2025-12-05T19:02:44.757Z","date":"2025-12-05","time":"19:02:44"},{"task":"memory_phase","broad_category":"I","image_png":"I_Gabbro_11.png","image_id":59,"category_name":"Gabbro","category":4,"distinct_rating":1.99,"distinct_type":"Bottom","rt":null,"stimulus":"Stimuli_Rocks480/I_Gabbro_11.png","response":null,"trial_type":"image-keyboard-response","trial_index":212,"plugin_version":"2.1.0","time_elapsed":1523778,"subject_id":"86270","group":"Group1","full_date":"2025-12-05T19:02:44.757Z","date":"2025-12-05","time":"19:02:44"},{"rt":null,"stimulus":"<p style=\"font-size: 50px; margin: 0; text-align: center;\">+</p>","response":null,"trial_type":"html-keyboard-response","trial_index":213,"plugin_version":"2.1.0","time_elapsed":1524794,"subject_id":"86270","group":"Group1","full_date":"2025-12-05T19:02:44.757Z","date":"2025-12-05","time":"19:02:44"},{"task":"memory_phase","broad_category":"I","image_png":"I_Basalt_09.png","image_id":25,"category_name":"Basalt","category":2,"distinct_rating":1.89,"distinct_type":"Bottom","rt":null,"stimulus":"Stimuli_Rocks480/I_Basalt_09.png","response":null,"trial_type":"image-keyboard-response","trial_index":214,"plugin_version":"2.1.0","time_elapsed":1527304,"subject_id":"86270","group":"Group1","full_date":"2025-12-05T19:02:44.757Z","date":"2025-12-05","time":"19:02:44"},{"rt":null,"stimulus":"<p style=\"font-size: 50px; margin: 0; text-align: center;\">+</p>","response":null,"trial_type":"html-keyboard-response","trial_index":215,"plugin_version":"2.1.0","time_elapsed":1528314,"subject_id":"86270","group":"Group1","full_date":"2025-12-05T19:02:44.757Z","date":"2025-12-05","time":"19:02:44"},{"task":"memory_phase","broad_category":"M","image_png":"M_Gneiss_05.png","image_id":197,"category_name":"Gneiss","category":13,"distinct_rating":2.97,"distinct_type":"Bottom","rt":null,"stimulus":"Stimuli_Rocks480/M_Gneiss_05.png","response":null,"trial_type":"image-keyboard-response","trial_index":216,"plugin_version":"2.1.0","time_elapsed":1530827,"subject_id":"86270","group":"Group1","full_date":"2025-12-05T19:02:44.757Z","date":"2025-12-05","time":"19:02:44"},{"rt":null,"stimulus":"<p style=\"font-size: 50px; margin: 0; text-align: center;\">+</p>","response":null,"trial_type":"html-keyboard-response","trial_index":217,"plugin_version":"2.1.0","time_elapsed":1531843,"subject_id":"86270","group":"Group1","full_date":"2025-12-05T19:02:44.757Z","date":"2025-12-05","time":"19:02:44"},{"task":"memory_phase","broad_category":"I","image_png":"I_Rhyolite_14.png","image_id":158,"category_name":"Rhyolite","category":10,"distinct_rating":2.59,"distinct_type":"Bottom","rt":null,"stimulus":"Stimuli_Rocks480/I_Rhyolite_14.png","response":null,"trial_type":"image-keyboard-response","trial_index":218,"plugin_version":"2.1.0","time_elapsed":1534346,"subject_id":"86270","group":"Group1","full_date":"2025-12-05T19:02:44.757Z","date":"2025-12-05","time":"19:02:44"},{"rt":null,"stimulus":"<p style=\"font-size: 50px; margin: 0; text-align: center;\">+</p>","response":null,"trial_type":"html-keyboard-response","trial_index":219,"plugin_version":"2.1.0","time_elapsed":1535357,"subject_id":"86270","group":"Group1","full_date":"2025-12-05T19:02:44.757Z","date":"2025-12-05","time":"19:02:44"},{"task":"memory_phase","broad_category":"M","image_png":"M_Marble_06.png","image_id":230,"category_name":"Marble","category":15,"distinct_rating":3.4,"distinct_type":"Bottom","rt":null,"stimulus":"Stimuli_Rocks480/M_Marble_06.png","response":null,"trial_type":"image-keyboard-response","trial_index":220,"plugin_version":"2.1.0","time_elapsed":1537861,"subject_id":"86270","group":"Group1","full_date":"2025-12-05T19:02:44.757Z","date":"2025-12-05","time":"19:02:44"},{"rt":null,"stimulus":"<p style=\"font-size: 50px; margin: 0; text-align: center;\">+</p>","response":null,"trial_type":"html-keyboard-response","trial_index":221,"plugin_version":"2.1.0","time_elapsed":1538878,"subject_id":"86270","group":"Group1","full_date":"2025-12-05T19:02:44.757Z","date":"2025-12-05","time":"19:02:44"},{"task":"memory_phase","broad_category":"S","image_png":"S_Shale_01.png","image_id":465,"category_name":"Shale","category":30,"distinct_rating":2.7,"distinct_type":"Bottom","rt":null,"stimulus":"Stimuli_Rocks480/S_Shale_01.png","response":null,"trial_type":"image-keyboard-response","trial_index":222,"plugin_version":"2.1.0","time_elapsed":1541387,"subject_id":"86270","group":"Group1","full_date":"2025-12-05T19:02:44.757Z","date":"2025-12-05","time":"19:02:44"},{"rt":null,"stimulus":"<p style=\"font-size: 50px; margin: 0; text-align: center;\">+</p>","response":null,"trial_type":"html-keyboard-response","trial_index":223,"plugin_version":"2.1.0","time_elapsed":1542391,"subject_id":"86270","group":"Group1","full_date":"2025-12-05T19:02:44.757Z","date":"2025-12-05","time":"19:02:44"},{"task":"memory_phase","broad_category":"S","image_png":"S_Breccia_11.png","image_id":347,"category_name":"Breccia","category":22,"distinct_rating":6.7,"distinct_type":"Top","rt":null,"stimulus":"Stimuli_Rocks480/S_Breccia_11.png","response":null,"trial_type":"image-keyboard-response","trial_index":224,"plugin_version":"2.1.0","time_elapsed":1544895,"subject_id":"86270","group":"Group1","full_date":"2025-12-05T19:02:44.757Z","date":"2025-12-05","time":"19:02:44"},{"rt":null,"stimulus":"<p style=\"font-size: 50px; margin: 0; text-align: center;\">+</p>","response":null,"trial_type":"html-keyboard-response","trial_index":225,"plugin_version":"2.1.0","time_elapsed":1545908,"subject_id":"86270","group":"Group1","full_date":"2025-12-05T19:02:44.757Z","date":"2025-12-05","time":"19:02:44"},{"task":"memory_phase","broad_category":"I","image_png":"I_Diorite_04.png","image_id":36,"category_name":"Diorite","category":3,"distinct_rating":2.98,"distinct_type":"Bottom","rt":null,"stimulus":"Stimuli_Rocks480/I_Diorite_04.png","response":null,"trial_type":"image-keyboard-response","trial_index":226,"plugin_version":"2.1.0","time_elapsed":1548410,"subject_id":"86270","group":"Group1","full_date":"2025-12-05T19:02:44.757Z","date":"2025-12-05","time":"19:02:44"},{"rt":null,"stimulus":"<p style=\"font-size: 50px; margin: 0; text-align: center;\">+</p>","response":null,"trial_type":"html-keyboard-response","trial_index":227,"plugin_version":"2.1.0","time_elapsed":1549424,"subject_id":"86270","group":"Group1","full_date":"2025-12-05T19:02:44.757Z","date":"2025-12-05","time":"19:02:44"},{"task":"memory_phase","broad_category":"I","image_png":"I_Rhyolite_16.png","image_id":160,"category_name":"Rhyolite","category":10,"distinct_rating":2.19,"distinct_type":"Bottom","rt":null,"stimulus":"Stimuli_Rocks480/I_Rhyolite_16.png","response":null,"trial_type":"image-keyboard-response","trial_index":228,"plugin_version":"2.1.0","time_elapsed":1551927,"subject_id":"86270","group":"Group1","full_date":"2025-12-05T19:02:44.757Z","date":"2025-12-05","time":"19:02:44"},{"rt":null,"stimulus":"<p style=\"font-size: 50px; margin: 0; text-align: center;\">+</p>","response":null,"trial_type":"html-keyboard-response","trial_index":229,"plugin_version":"2.1.0","time_elapsed":1552928,"subject_id":"86270","group":"Group1","full_date":"2025-12-05T19:02:44.757Z","date":"2025-12-05","time":"19:02:44"},{"task":"memory_phase","broad_category":"S","image_png":"S_Dolomite_14.png","image_id":398,"category_name":"Dolomite","category":25,"distinct_rating":1.43,"distinct_type":"Bottom","rt":null,"stimulus":"Stimuli_Rocks480/S_Dolomite_14.png","response":null,"trial_type":"image-keyboard-response","trial_index":230,"plugin_version":"2.1.0","time_elapsed":1555445,"subject_id":"86270","group":"Group1","full_date":"2025-12-05T19:02:44.757Z","date":"2025-12-05","time":"19:02:44"},{"rt":null,"stimulus":"<p style=\"font-size: 50px; margin: 0; text-align: center;\">+</p>","response":null,"trial_type":"html-keyboard-response","trial_index":231,"plugin_version":"2.1.0","time_elapsed":1556461,"subject_id":"86270","group":"Group1","full_date":"2025-12-05T19:02:44.757Z","date":"2025-12-05","time":"19:02:44"},{"task":"memory_phase","broad_category":"M","image_png":"M_Gneiss_06.png","image_id":198,"category_name":"Gneiss","category":13,"distinct_rating":2.65,"distinct_type":"Bottom","rt":null,"stimulus":"Stimuli_Rocks480/M_Gneiss_06.png","response":null,"trial_type":"image-keyboard-response","trial_index":232,"plugin_version":"2.1.0","time_elapsed":1558977,"subject_id":"86270","group":"Group1","full_date":"2025-12-05T19:02:44.757Z","date":"2025-12-05","time":"19:02:44"},{"rt":null,"stimulus":"<p style=\"font-size: 50px; margin: 0; text-align: center;\">+</p>","response":null,"trial_type":"html-keyboard-response","trial_index":233,"plugin_version":"2.1.0","time_elapsed":1559990,"subject_id":"86270","group":"Group1","full_date":"2025-12-05T19:02:44.757Z","date":"2025-12-05","time":"19:02:44"},{"task":"memory_phase","broad_category":"I","image_png":"I_Diorite_05.png","image_id":37,"category_name":"Diorite","category":3,"distinct_rating":3.08,"distinct_type":"Bottom","rt":null,"stimulus":"Stimuli_Rocks480/I_Diorite_05.png","response":null,"trial_type":"image-keyboard-response","trial_index":234,"plugin_version":"2.1.0","time_elapsed":1562494,"subject_id":"86270","group":"Group1","full_date":"2025-12-05T19:02:44.757Z","date":"2025-12-05","time":"19:02:44"},{"rt":null,"stimulus":"<p style=\"font-size: 50px; margin: 0; text-align: center;\">+</p>","response":null,"trial_type":"html-keyboard-response","trial_index":235,"plugin_version":"2.1.0","time_elapsed":1563497,"subject_id":"86270","group":"Group1","full_date":"2025-12-05T19:02:44.757Z","date":"2025-12-05","time":"19:02:44"},{"task":"memory_phase","broad_category":"I","image_png":"I_Diorite_03.png","image_id":35,"category_name":"Diorite","category":3,"distinct_rating":3.14,"distinct_type":"Bottom","rt":null,"stimulus":"Stimuli_Rocks480/I_Diorite_03.png","response":null,"trial_type":"image-keyboard-response","trial_index":236,"plugin_version":"2.1.0","time_elapsed":1566001,"subject_id":"86270","group":"Group1","full_date":"2025-12-05T19:02:44.757Z","date":"2025-12-05","time":"19:02:44"},{"rt":null,"stimulus":"<p style=\"font-size: 50px; margin: 0; text-align: center;\">+</p>","response":null,"trial_type":"html-keyboard-response","trial_index":237,"plugin_version":"2.1.0","time_elapsed":1567008,"subject_id":"86270","group":"Group1","full_date":"2025-12-05T19:02:44.757Z","date":"2025-12-05","time":"19:02:44"},{"task":"memory_phase","broad_category":"I","image_png":"I_Andesite_10.png","image_id":10,"category_name":"Andesite","category":1,"distinct_rating":3.15,"distinct_type":"Bottom","rt":null,"stimulus":"Stimuli_Rocks480/I_Andesite_10.png","response":null,"trial_type":"image-keyboard-response","trial_index":238,"plugin_version":"2.1.0","time_elapsed":1569522,"subject_id":"86270","group":"Group1","full_date":"2025-12-05T19:02:44.757Z","date":"2025-12-05","time":"19:02:44"},{"rt":null,"stimulus":"<p style=\"font-size: 50px; margin: 0; text-align: center;\">+</p>","response":null,"trial_type":"html-keyboard-response","trial_index":239,"plugin_version":"2.1.0","time_elapsed":1570525,"subject_id":"86270","group":"Group1","full_date":"2025-12-05T19:02:44.757Z","date":"2025-12-05","time":"19:02:44"},{"task":"memory_phase","broad_category":"I","image_png":"I_Gabbro_16.png","image_id":64,"category_name":"Gabbro","category":4,"distinct_rating":2.52,"distinct_type":"Bottom","rt":null,"stimulus":"Stimuli_Rocks480/I_Gabbro_16.png","response":null,"trial_type":"image-keyboard-response","trial_index":240,"plugin_version":"2.1.0","time_elapsed":1573038,"subject_id":"86270","group":"Group1","full_date":"2025-12-05T19:02:44.757Z","date":"2025-12-05","time":"19:02:44"},{"rt":null,"stimulus":"<p style=\"font-size: 50px; margin: 0; text-align: center;\">+</p>","response":null,"trial_type":"html-keyboard-response","trial_index":241,"plugin_version":"2.1.0","time_elapsed":1574042,"subject_id":"86270","group":"Group1","full_date":"2025-12-05T19:02:44.757Z","date":"2025-12-05","time":"19:02:44"},{"task":"memory_phase","broad_category":"M","image_png":"M_Phyllite_03.png","image_id":259,"category_name":"Phyllite","category":17,"distinct_rating":2.5,"distinct_type":"Bottom","rt":null,"stimulus":"Stimuli_Rocks480/M_Phyllite_03.png","response":null,"trial_type":"image-keyboard-response","trial_index":242,"plugin_version":"2.1.0","time_elapsed":1576558,"subject_id":"86270","group":"Group1","full_date":"2025-12-05T19:02:44.757Z","date":"2025-12-05","time":"19:02:44"},{"rt":null,"stimulus":"<p style=\"font-size: 50px; margin: 0; text-align: center;\">+</p>","response":null,"trial_type":"html-keyboard-response","trial_index":243,"plugin_version":"2.1.0","time_elapsed":1577570,"subject_id":"86270","group":"Group1","full_date":"2025-12-05T19:02:44.757Z","date":"2025-12-05","time":"19:02:44"},{"task":"memory_phase","broad_category":"I","image_png":"I_Andesite_08.png","image_id":8,"category_name":"Andesite","category":1,"distinct_rating":1.95,"distinct_type":"Bottom","rt":null,"stimulus":"Stimuli_Rocks480/I_Andesite_08.png","response":null,"trial_type":"image-keyboard-response","trial_index":244,"plugin_version":"2.1.0","time_elapsed":1580088,"subject_id":"86270","group":"Group1","full_date":"2025-12-05T19:02:44.757Z","date":"2025-12-05","time":"19:02:44"},{"rt":null,"stimulus":"<p style=\"font-size: 50px; margin: 0; text-align: center;\">+</p>","response":null,"trial_type":"html-keyboard-response","trial_index":245,"plugin_version":"2.1.0","time_elapsed":1581093,"subject_id":"86270","group":"Group1","full_date":"2025-12-05T19:02:44.757Z","date":"2025-12-05","time":"19:02:44"},{"task":"memory_phase","broad_category":"I","image_png":"I_Pumice_11.png","image_id":139,"category_name":"Pumice","category":9,"distinct_rating":1.74,"distinct_type":"Bottom","rt":null,"stimulus":"Stimuli_Rocks480/I_Pumice_11.png","response":null,"trial_type":"image-keyboard-response","trial_index":246,"plugin_version":"2.1.0","time_elapsed":1583600,"subject_id":"86270","group":"Group1","full_date":"2025-12-05T19:02:44.757Z","date":"2025-12-05","time":"19:02:44"},{"rt":null,"stimulus":"<p style=\"font-size: 50px; margin: 0; text-align: center;\">+</p>","response":null,"trial_type":"html-keyboard-response","trial_index":247,"plugin_version":"2.1.0","time_elapsed":1584611,"subject_id":"86270","group":"Group1","full_date":"2025-12-05T19:02:44.757Z","date":"2025-12-05","time":"19:02:44"},{"task":"memory_phase","broad_category":"I","image_png":"I_Pumice_08.png","image_id":136,"category_name":"Pumice","category":9,"distinct_rating":3.1,"distinct_type":"Bo