[{"width":1440,"height":812,"webaudio":true,"browser":"chrome","browser_version":"143.0.0","mobile":false,"os":"Mac OS","fullscreen":true,"vsync_rate":60.62,"webcam":false,"microphone":true,"trial_type":"browser-check","trial_index":0,"plugin_version":"2.1.0","time_elapsed":1011,"subject_id":"87596","group":"Group1","full_date":"2025-12-03T22:52:43.598Z","date":"2025-12-03","time":"22:52:43"},{"success":true,"timeout":false,"failed_images":[],"failed_audio":[],"failed_video":[],"trial_type":"preload","trial_index":1,"plugin_version":"2.1.0","time_elapsed":2682,"subject_id":"87596","group":"Group1","full_date":"2025-12-03T22:52:43.598Z","date":"2025-12-03","time":"22:52:43"},{"rt":25482,"url":"SONA_consent_memorability.html","trial_type":"external-html","trial_index":2,"plugin_version":"2.1.0","time_elapsed":28226,"subject_id":"87596","group":"Group1","full_date":"2025-12-03T22:52:43.598Z","date":"2025-12-03","time":"22:52:43"},{"success":true,"rt":3039,"trial_type":"fullscreen","trial_index":3,"plugin_version":"2.1.0","time_elapsed":32277,"subject_id":"87596","group":"Group1","full_date":"2025-12-03T22:52:43.598Z","date":"2025-12-03","time":"22:52:43"},{"rt":29403,"stimulus":"<div style=\"max-width: 760px; margin: auto; font-size: 20px; line-height: 1.5;\">\n      <h1 style=\"text-align:center; font-size: 30px;\">Instructions</h1>\n      <p>\n        Welcome to the study on <b>visual memory</b>. This experiment consists of <b>two phases</b>: \n        a <b>study phase</b> and a <b>test phase</b>.\n      </p>\n      <p>\n        In the study phase, you will see a series of rock images along with their category labels.\n        The images will appear one at a time.\n        <b>Your task</b> is to learn the categories to which the rock images belong \n        and to remember each image as accurately as possible.\n      </p> \n      <p>\n        Note that we will repeat the study phase <b>3 times</b>, \n        so you will have multiple opportunities to see and remember each image.\n      </p>\n      <p>\n        After the study phase, <b>your memory will be tested</b>. \n        Additional instructions for the test phase will be provided at that time.\n      </p>\n      <p>\n        If your computer has multiple <b>language settings</b> (e.g., English and another language),\n        please make sure it is set to English before starting.\n      </p>\n      <p>\n        You can track your progress using the <b>completion bar</b> at the top of the screen. \n        Please note that the bar will refresh when the test phase begins \n        to give you an accurate sense of your progress in both phases.\n      </p> \n      <p>\n        Press the button below when you are ready to begin.\n      </p>\n    </div>","response":0,"trial_type":"html-button-response","trial_index":4,"plugin_version":"2.1.0","time_elapsed":61682,"subject_id":"87596","group":"Group1","full_date":"2025-12-03T22:52:43.598Z","date":"2025-12-03","time":"22:52:43"},{"rt":null,"stimulus":"<p style=\"font-size: 50px; margin: 0; text-align: center;\">+</p>","response":null,"trial_type":"html-keyboard-response","trial_index":5,"plugin_version":"2.1.0","time_elapsed":62687,"subject_id":"87596","group":"Group1","full_date":"2025-12-03T22:52:43.598Z","date":"2025-12-03","time":"22:52:43"},{"task":"memory_phase","broad_category":"S","image_png":"S_Chert_10.png","image_id":362,"category_name":"Chert","category":23,"distinct_rating":7.17,"distinct_type":"Top","rt":null,"stimulus":"Stimuli_Rocks480/S_Chert_10.png","response":null,"trial_type":"image-keyboard-response","trial_index":6,"plugin_version":"2.1.0","time_elapsed":65193,"subject_id":"87596","group":"Group1","full_date":"2025-12-03T22:52:43.598Z","date":"2025-12-03","time":"22:52:43"},{"rt":null,"stimulus":"<p style=\"font-size: 50px; margin: 0; text-align: center;\">+</p>","response":null,"trial_type":"html-keyboard-response","trial_index":7,"plugin_version":"2.1.0","time_elapsed":66196,"subject_id":"87596","group":"Group1","full_date":"2025-12-03T22:52:43.598Z","date":"2025-12-03","time":"22:52:43"},{"task":"memory_phase","broad_category":"I","image_png":"I_Obsidian_05.png","image_id":85,"category_name":"Obsidian","category":6,"distinct_rating":7.32,"distinct_type":"Top","rt":null,"stimulus":"Stimuli_Rocks480/I_Obsidian_05.png","response":null,"trial_type":"image-keyboard-response","trial_index":8,"plugin_version":"2.1.0","time_elapsed":68700,"subject_id":"87596","group":"Group1","full_date":"2025-12-03T22:52:43.598Z","date":"2025-12-03","time":"22:52:43"},{"rt":null,"stimulus":"<p style=\"font-size: 50px; margin: 0; text-align: center;\">+</p>","response":null,"trial_type":"html-keyboard-response","trial_index":9,"plugin_version":"2.1.0","time_elapsed":69703,"subject_id":"87596","group":"Group1","full_date":"2025-12-03T22:52:43.598Z","date":"2025-12-03","time":"22:52:43"},{"task":"memory_phase","broad_category":"S","image_png":"S_Dolomite_14.png","image_id":398,"category_name":"Dolomite","category":25,"distinct_rating":1.43,"distinct_type":"Bottom","rt":null,"stimulus":"Stimuli_Rocks480/S_Dolomite_14.png","response":null,"trial_type":"image-keyboard-response","trial_index":10,"plugin_version":"2.1.0","time_elapsed":72206,"subject_id":"87596","group":"Group1","full_date":"2025-12-03T22:52:43.598Z","date":"2025-12-03","time":"22:52:43"},{"rt":null,"stimulus":"<p style=\"font-size: 50px; margin: 0; text-align: center;\">+</p>","response":null,"trial_type":"html-keyboard-response","trial_index":11,"plugin_version":"2.1.0","time_elapsed":73208,"subject_id":"87596","group":"Group1","full_date":"2025-12-03T22:52:43.598Z","date":"2025-12-03","time":"22:52:43"},{"task":"memory_phase","broad_category":"S","image_png":"S_Dolomite_13.png","image_id":397,"category_name":"Dolomite","category":25,"distinct_rating":1.77,"distinct_type":"Bottom","rt":null,"stimulus":"Stimuli_Rocks480/S_Dolomite_13.png","response":null,"trial_type":"image-keyboard-response","trial_index":12,"plugin_version":"2.1.0","time_elapsed":75711,"subject_id":"87596","group":"Group1","full_date":"2025-12-03T22:52:43.598Z","date":"2025-12-03","time":"22:52:43"},{"rt":null,"stimulus":"<p style=\"font-size: 50px; margin: 0; text-align: center;\">+</p>","response":null,"trial_type":"html-keyboard-response","trial_index":13,"plugin_version":"2.1.0","time_elapsed":76714,"subject_id":"87596","group":"Group1","full_date":"2025-12-03T22:52:43.598Z","date":"2025-12-03","time":"22:52:43"},{"task":"memory_phase","broad_category":"I","image_png":"I_Rhyolite_14.png","image_id":158,"category_name":"Rhyolite","category":10,"distinct_rating":2.59,"distinct_type":"Bottom","rt":null,"stimulus":"Stimuli_Rocks480/I_Rhyolite_14.png","response":null,"trial_type":"image-keyboard-response","trial_index":14,"plugin_version":"2.1.0","time_elapsed":79217,"subject_id":"87596","group":"Group1","full_date":"2025-12-03T22:52:43.598Z","date":"2025-12-03","time":"22:52:43"},{"rt":null,"stimulus":"<p style=\"font-size: 50px; margin: 0; text-align: center;\">+</p>","response":null,"trial_type":"html-keyboard-response","trial_index":15,"plugin_version":"2.1.0","time_elapsed":80220,"subject_id":"87596","group":"Group1","full_date":"2025-12-03T22:52:43.598Z","date":"2025-12-03","time":"22:52:43"},{"task":"memory_phase","broad_category":"I","image_png":"I_Gabbro_11.png","image_id":59,"category_name":"Gabbro","category":4,"distinct_rating":1.99,"distinct_type":"Bottom","rt":null,"stimulus":"Stimuli_Rocks480/I_Gabbro_11.png","response":null,"trial_type":"image-keyboard-response","trial_index":16,"plugin_version":"2.1.0","time_elapsed":82723,"subject_id":"87596","group":"Group1","full_date":"2025-12-03T22:52:43.598Z","date":"2025-12-03","time":"22:52:43"},{"rt":null,"stimulus":"<p style=\"font-size: 50px; margin: 0; text-align: center;\">+</p>","response":null,"trial_type":"html-keyboard-response","trial_index":17,"plugin_version":"2.1.0","time_elapsed":83726,"subject_id":"87596","group":"Group1","full_date":"2025-12-03T22:52:43.598Z","date":"2025-12-03","time":"22:52:43"},{"task":"memory_phase","broad_category":"M","image_png":"M_Marble_16.png","image_id":240,"category_name":"Marble","category":15,"distinct_rating":2.57,"distinct_type":"Bottom","rt":null,"stimulus":"Stimuli_Rocks480/M_Marble_16.png","response":null,"trial_type":"image-keyboard-response","trial_index":18,"plugin_version":"2.1.0","time_elapsed":86230,"subject_id":"87596","group":"Group1","full_date":"2025-12-03T22:52:43.598Z","date":"2025-12-03","time":"22:52:43"},{"rt":null,"stimulus":"<p style=\"font-size: 50px; margin: 0; text-align: center;\">+</p>","response":null,"trial_type":"html-keyboard-response","trial_index":19,"plugin_version":"2.1.0","time_elapsed":87233,"subject_id":"87596","group":"Group1","full_date":"2025-12-03T22:52:43.598Z","date":"2025-12-03","time":"22:52:43"},{"task":"memory_phase","broad_category":"I","image_png":"I_Pumice_12.png","image_id":140,"category_name":"Pumice","category":9,"distinct_rating":2.97,"distinct_type":"Bottom","rt":null,"stimulus":"Stimuli_Rocks480/I_Pumice_12.png","response":null,"trial_type":"image-keyboard-response","trial_index":20,"plugin_version":"2.1.0","time_elapsed":89736,"subject_id":"87596","group":"Group1","full_date":"2025-12-03T22:52:43.598Z","date":"2025-12-03","time":"22:52:43"},{"rt":null,"stimulus":"<p style=\"font-size: 50px; margin: 0; text-align: center;\">+</p>","response":null,"trial_type":"html-keyboard-response","trial_index":21,"plugin_version":"2.1.0","time_elapsed":90738,"subject_id":"87596","group":"Group1","full_date":"2025-12-03T22:52:43.598Z","date":"2025-12-03","time":"22:52:43"},{"task":"memory_phase","broad_category":"I","image_png":"I_Rhyolite_16.png","image_id":160,"category_name":"Rhyolite","category":10,"distinct_rating":2.19,"distinct_type":"Bottom","rt":null,"stimulus":"Stimuli_Rocks480/I_Rhyolite_16.png","response":null,"trial_type":"image-keyboard-response","trial_index":22,"plugin_version":"2.1.0","time_elapsed":93242,"subject_id":"87596","group":"Group1","full_date":"2025-12-03T22:52:43.598Z","date":"2025-12-03","time":"22:52:43"},{"rt":null,"stimulus":"<p style=\"font-size: 50px; margin: 0; text-align: center;\">+</p>","response":null,"trial_type":"html-keyboard-response","trial_index":23,"plugin_version":"2.1.0","time_elapsed":94244,"subject_id":"87596","group":"Group1","full_date":"2025-12-03T22:52:43.598Z","date":"2025-12-03","time":"22:52:43"},{"task":"memory_phase","broad_category":"I","image_png":"I_Rhyolite_11.png","image_id":155,"category_name":"Rhyolite","category":10,"distinct_rating":1.73,"distinct_type":"Bottom","rt":null,"stimulus":"Stimuli_Rocks480/I_Rhyolite_11.png","response":null,"trial_type":"image-keyboard-response","trial_index":24,"plugin_version":"2.1.0","time_elapsed":96747,"subject_id":"87596","group":"Group1","full_date":"2025-12-03T22:52:43.598Z","date":"2025-12-03","time":"22:52:43"},{"rt":null,"stimulus":"<p style=\"font-size: 50px; margin: 0; text-align: center;\">+</p>","response":null,"trial_type":"html-keyboard-response","trial_index":25,"plugin_version":"2.1.0","time_elapsed":97750,"subject_id":"87596","group":"Group1","full_date":"2025-12-03T22:52:43.598Z","date":"2025-12-03","time":"22:52:43"},{"task":"memory_phase","broad_category":"S","image_png":"S_Sandstone_16.png","image_id":464,"category_name":"Sandstone","category":29,"distinct_rating":1.93,"distinct_type":"Bottom","rt":null,"stimulus":"Stimuli_Rocks480/S_Sandstone_16.png","response":null,"trial_type":"image-keyboard-response","trial_index":26,"plugin_version":"2.1.0","time_elapsed":100254,"subject_id":"87596","group":"Group1","full_date":"2025-12-03T22:52:43.598Z","date":"2025-12-03","time":"22:52:43"},{"rt":null,"stimulus":"<p style=\"font-size: 50px; margin: 0; text-align: center;\">+</p>","response":null,"trial_type":"html-keyboard-response","trial_index":27,"plugin_version":"2.1.0","time_elapsed":101256,"subject_id":"87596","group":"Group1","full_date":"2025-12-03T22:52:43.598Z","date":"2025-12-03","time":"22:52:43"},{"task":"memory_phase","broad_category":"M","image_png":"M_Slate_11.png","image_id":315,"category_name":"Slate","category":20,"distinct_rating":2.75,"distinct_type":"Bottom","rt":null,"stimulus":"Stimuli_Rocks480/M_Slate_11.png","response":null,"trial_type":"image-keyboard-response","trial_index":28,"plugin_version":"2.1.0","time_elapsed":103760,"subject_id":"87596","group":"Group1","full_date":"2025-12-03T22:52:43.598Z","date":"2025-12-03","time":"22:52:43"},{"rt":null,"stimulus":"<p style=\"font-size: 50px; margin: 0; text-align: center;\">+</p>","response":null,"trial_type":"html-keyboard-response","trial_index":29,"plugin_version":"2.1.0","time_elapsed":104762,"subject_id":"87596","group":"Group1","full_date":"2025-12-03T22:52:43.598Z","date":"2025-12-03","time":"22:52:43"},{"task":"memory_phase","broad_category":"M","image_png":"M_Phyllite_10.png","image_id":266,"category_name":"Phyllite","category":17,"distinct_rating":2.6,"distinct_type":"Bottom","rt":null,"stimulus":"Stimuli_Rocks480/M_Phyllite_10.png","response":null,"trial_type":"image-keyboard-response","trial_index":30,"plugin_version":"2.1.0","time_elapsed":107264,"subject_id":"87596","group":"Group1","full_date":"2025-12-03T22:52:43.598Z","date":"2025-12-03","time":"22:52:43"},{"rt":null,"stimulus":"<p style=\"font-size: 50px; margin: 0; text-align: center;\">+</p>","response":null,"trial_type":"html-keyboard-response","trial_index":31,"plugin_version":"2.1.0","time_elapsed":108266,"subject_id":"87596","group":"Group1","full_date":"2025-12-03T22:52:43.598Z","date":"2025-12-03","time":"22:52:43"},{"task":"memory_phase","broad_category":"M","image_png":"M_Slate_15.png","image_id":319,"category_name":"Slate","category":20,"distinct_rating":2.13,"distinct_type":"Bottom","rt":null,"stimulus":"Stimuli_Rocks480/M_Slate_15.png","response":null,"trial_type":"image-keyboard-response","trial_index":32,"plugin_version":"2.1.0","time_elapsed":110769,"subject_id":"87596","group":"Group1","full_date":"2025-12-03T22:52:43.598Z","date":"2025-12-03","time":"22:52:43"},{"rt":null,"stimulus":"<p style=\"font-size: 50px; margin: 0; text-align: center;\">+</p>","response":null,"trial_type":"html-keyboard-response","trial_index":33,"plugin_version":"2.1.0","time_elapsed":111771,"subject_id":"87596","group":"Group1","full_date":"2025-12-03T22:52:43.598Z","date":"2025-12-03","time":"22:52:43"},{"task":"memory_phase","broad_category":"I","image_png":"I_Gabbro_16.png","image_id":64,"category_name":"Gabbro","category":4,"distinct_rating":2.52,"distinct_type":"Bottom","rt":null,"stimulus":"Stimuli_Rocks480/I_Gabbro_16.png","response":null,"trial_type":"image-keyboard-response","trial_index":34,"plugin_version":"2.1.0","time_elapsed":114275,"subject_id":"87596","group":"Group1","full_date":"2025-12-03T22:52:43.598Z","date":"2025-12-03","time":"22:52:43"},{"rt":null,"stimulus":"<p style=\"font-size: 50px; margin: 0; text-align: center;\">+</p>","response":null,"trial_type":"html-keyboard-response","trial_index":35,"plugin_version":"2.1.0","time_elapsed":115277,"subject_id":"87596","group":"Group1","full_date":"2025-12-03T22:52:43.598Z","date":"2025-12-03","time":"22:52:43"},{"task":"memory_phase","broad_category":"S","image_png":"S_Breccia_11.png","image_id":347,"category_name":"Breccia","category":22,"distinct_rating":6.7,"distinct_type":"Top","rt":null,"stimulus":"Stimuli_Rocks480/S_Breccia_11.png","response":null,"trial_type":"image-keyboard-response","trial_index":36,"plugin_version":"2.1.0","time_elapsed":117781,"subject_id":"87596","group":"Group1","full_date":"2025-12-03T22:52:43.598Z","date":"2025-12-03","time":"22:52:43"},{"rt":null,"stimulus":"<p style=\"font-size: 50px; margin: 0; text-align: center;\">+</p>","response":null,"trial_type":"html-keyboard-response","trial_index":37,"plugin_version":"2.1.0","time_elapsed":118783,"subject_id":"87596","group":"Group1","full_date":"2025-12-03T22:52:43.598Z","date":"2025-12-03","time":"22:52:43"},{"task":"memory_phase","broad_category":"M","image_png":"M_Marble_04.png","image_id":228,"category_name":"Marble","category":15,"distinct_rating":3.15,"distinct_type":"Bottom","rt":null,"stimulus":"Stimuli_Rocks480/M_Marble_04.png","response":null,"trial_type":"image-keyboard-response","trial_index":38,"plugin_version":"2.1.0","time_elapsed":121286,"subject_id":"87596","group":"Group1","full_date":"2025-12-03T22:52:43.598Z","date":"2025-12-03","time":"22:52:43"},{"rt":null,"stimulus":"<p style=\"font-size: 50px; margin: 0; text-align: center;\">+</p>","response":null,"trial_type":"html-keyboard-response","trial_index":39,"plugin_version":"2.1.0","time_elapsed":122289,"subject_id":"87596","group":"Group1","full_date":"2025-12-03T22:52:43.598Z","date":"2025-12-03","time":"22:52:43"},{"task":"memory_phase","broad_category":"S","image_png":"S_Shale_12.png","image_id":476,"category_name":"Shale","category":30,"distinct_rating":2.48,"distinct_type":"Bottom","rt":null,"stimulus":"Stimuli_Rocks480/S_Shale_12.png","response":null,"trial_type":"image-keyboard-response","trial_index":40,"plugin_version":"2.1.0","time_elapsed":124792,"subject_id":"87596","group":"Group1","full_date":"2025-12-03T22:52:43.598Z","date":"2025-12-03","time":"22:52:43"},{"rt":null,"stimulus":"<p style=\"font-size: 50px; margin: 0; text-align: center;\">+</p>","response":null,"trial_type":"html-keyboard-response","trial_index":41,"plugin_version":"2.1.0","time_elapsed":125794,"subject_id":"87596","group":"Group1","full_date":"2025-12-03T22:52:43.598Z","date":"2025-12-03","time":"22:52:43"},{"task":"memory_phase","broad_category":"S","image_png":"S_Dolomite_12.png","image_id":396,"category_name":"Dolomite","category":25,"distinct_rating":1.85,"distinct_type":"Bottom","rt":null,"stimulus":"Stimuli_Rocks480/S_Dolomite_12.png","response":null,"trial_type":"image-keyboard-response","trial_index":42,"plugin_version":"2.1.0","time_elapsed":128298,"subject_id":"87596","group":"Group1","full_date":"2025-12-03T22:52:43.598Z","date":"2025-12-03","time":"22:52:43"},{"rt":null,"stimulus":"<p style=\"font-size: 50px; margin: 0; text-align: center;\">+</p>","response":null,"trial_type":"html-keyboard-response","trial_index":43,"plugin_version":"2.1.0","time_elapsed":129300,"subject_id":"87596","group":"Group1","full_date":"2025-12-03T22:52:43.598Z","date":"2025-12-03","time":"22:52:43"},{"task":"memory_phase","broad_category":"I","image_png":"I_Pumice_11.png","image_id":139,"category_name":"Pumice","category":9,"distinct_rating":1.74,"distinct_type":"Bottom","rt":null,"stimulus":"Stimuli_Rocks480/I_Pumice_11.png","response":null,"trial_type":"image-keyboard-response","trial_index":44,"plugin_version":"2.1.0","time_elapsed":131804,"subject_id":"87596","group":"Group1","full_date":"2025-12-03T22:52:43.598Z","date":"2025-12-03","time":"22:52:43"},{"rt":null,"stimulus":"<p style=\"font-size: 50px; margin: 0; text-align: center;\">+</p>","response":null,"trial_type":"html-keyboard-response","trial_index":45,"plugin_version":"2.1.0","time_elapsed":132806,"subject_id":"87596","group":"Group1","full_date":"2025-12-03T22:52:43.598Z","date":"2025-12-03","time":"22:52:43"},{"task":"memory_phase","broad_category":"I","image_png":"I_Pegmatite_16.png","image_id":112,"category_name":"Pegmatite","category":7,"distinct_rating":7.03,"distinct_type":"Top","rt":null,"stimulus":"Stimuli_Rocks480/I_Pegmatite_16.png","response":null,"trial_type":"image-keyboard-response","trial_index":46,"plugin_version":"2.1.0","time_elapsed":135309,"subject_id":"87596","group":"Group1","full_date":"2025-12-03T22:52:43.598Z","date":"2025-12-03","time":"22:52:43"},{"rt":null,"stimulus":"<p style=\"font-size: 50px; margin: 0; text-align: center;\">+</p>","response":null,"trial_type":"html-keyboard-response","trial_index":47,"plugin_version":"2.1.0","time_elapsed":136311,"subject_id":"87596","group":"Group1","full_date":"2025-12-03T22:52:43.598Z","date":"2025-12-03","time":"22:52:43"},{"task":"memory_phase","broad_category":"I","image_png":"I_Pegmatite_10.png","image_id":106,"category_name":"Pegmatite","category":7,"distinct_rating":7.66,"distinct_type":"Top","rt":null,"stimulus":"Stimuli_Rocks480/I_Pegmatite_10.png","response":null,"trial_type":"image-keyboard-response","trial_index":48,"plugin_version":"2.1.0","time_elapsed":138814,"subject_id":"87596","group":"Group1","full_date":"2025-12-03T22:52:43.598Z","date":"2025-12-03","time":"22:52:43"},{"rt":null,"stimulus":"<p style=\"font-size: 50px; margin: 0; text-align: center;\">+</p>","response":null,"trial_type":"html-keyboard-response","trial_index":49,"plugin_version":"2.1.0","time_elapsed":139816,"subject_id":"87596","group":"Group1","full_date":"2025-12-03T22:52:43.598Z","date":"2025-12-03","time":"22:52:43"},{"task":"memory_phase","broad_category":"S","image_png":"S_Sandstone_15.png","image_id":463,"category_name":"Sandstone","category":29,"distinct_rating":2,"distinct_type":"Bottom","rt":null,"stimulus":"Stimuli_Rocks480/S_Sandstone_15.png","response":null,"trial_type":"image-keyboard-response","trial_index":50,"plugin_version":"2.1.0","time_elapsed":142320,"subject_id":"87596","group":"Group1","full_date":"2025-12-03T22:52:43.598Z","date":"2025-12-03","time":"22:52:43"},{"rt":null,"stimulus":"<p style=\"font-size: 50px; margin: 0; text-align: center;\">+</p>","response":null,"trial_type":"html-keyboard-response","trial_index":51,"plugin_version":"2.1.0","time_elapsed":143322,"subject_id":"87596","group":"Group1","full_date":"2025-12-03T22:52:43.598Z","date":"2025-12-03","time":"22:52:43"},{"task":"memory_phase","broad_category":"S","image_png":"S_Rock Gypsum_04.png","image_id":420,"category_name":"Rock Gypsum","category":27,"distinct_rating":7.61,"distinct_type":"Top","rt":null,"stimulus":"Stimuli_Rocks480/S_Rock Gypsum_04.png","response":null,"trial_type":"image-keyboard-response","trial_index":52,"plugin_version":"2.1.0","time_elapsed":145825,"subject_id":"87596","group":"Group1","full_date":"2025-12-03T22:52:43.598Z","date":"2025-12-03","time":"22:52:43"},{"rt":null,"stimulus":"<p style=\"font-size: 50px; margin: 0; text-align: center;\">+</p>","response":null,"trial_type":"html-keyboard-response","trial_index":53,"plugin_version":"2.1.0","time_elapsed":146828,"subject_id":"87596","group":"Group1","full_date":"2025-12-03T22:52:43.598Z","date":"2025-12-03","time":"22:52:43"},{"task":"memory_phase","broad_category":"M","image_png":"M_Phyllite_07.png","image_id":263,"category_name":"Phyllite","category":17,"distinct_rating":2.59,"distinct_type":"Bottom","rt":null,"stimulus":"Stimuli_Rocks480/M_Phyllite_07.png","response":null,"trial_type":"image-keyboard-response","trial_index":54,"plugin_version":"2.1.0","time_elapsed":149331,"subject_id":"87596","group":"Group1","full_date":"2025-12-03T22:52:43.598Z","date":"2025-12-03","time":"22:52:43"},{"rt":9640,"stimulus":"<p style=\"max-width: 760px; margin: auto; font-size: 35px; line-height: 1.5;\">Press SPACE to continue study phase</p>","response":" ","trial_type":"html-keyboard-response","trial_index":55,"plugin_version":"2.1.0","time_elapsed":158972,"subject_id":"87596","group":"Group1","full_date":"2025-12-03T22:52:43.598Z","date":"2025-12-03","time":"22:52:43"},{"rt":null,"stimulus":"<p style=\"font-size: 50px; margin: 0; text-align: center;\">+</p>","response":null,"trial_type":"html-keyboard-response","trial_index":56,"plugin_version":"2.1.0","time_elapsed":159974,"subject_id":"87596","group":"Group1","full_date":"2025-12-03T22:52:43.598Z","date":"2025-12-03","time":"22:52:43"},{"task":"memory_phase","broad_category":"M","image_png":"M_Gneiss_06.png","image_id":198,"category_name":"Gneiss","category":13,"distinct_rating":2.65,"distinct_type":"Bottom","rt":null,"stimulus":"Stimuli_Rocks480/M_Gneiss_06.png","response":null,"trial_type":"image-keyboard-response","trial_index":57,"plugin_version":"2.1.0","time_elapsed":162477,"subject_id":"87596","group":"Group1","full_date":"2025-12-03T22:52:43.598Z","date":"2025-12-03","time":"22:52:43"},{"rt":null,"stimulus":"<p style=\"font-size: 50px; margin: 0; text-align: center;\">+</p>","response":null,"trial_type":"html-keyboard-response","trial_index":58,"plugin_version":"2.1.0","time_elapsed":163478,"subject_id":"87596","group":"Group1","full_date":"2025-12-03T22:52:43.598Z","date":"2025-12-03","time":"22:52:43"},{"task":"memory_phase","broad_category":"S","image_png":"S_Sandstone_03.png","image_id":451,"category_name":"Sandstone","category":29,"distinct_rating":1.86,"distinct_type":"Bottom","rt":null,"stimulus":"Stimuli_Rocks480/S_Sandstone_03.png","response":null,"trial_type":"image-keyboard-response","trial_index":59,"plugin_version":"2.1.0","time_elapsed":165982,"subject_id":"87596","group":"Group1","full_date":"2025-12-03T22:52:43.598Z","date":"2025-12-03","time":"22:52:43"},{"rt":null,"stimulus":"<p style=\"font-size: 50px; margin: 0; text-align: center;\">+</p>","response":null,"trial_type":"html-keyboard-response","trial_index":60,"plugin_version":"2.1.0","time_elapsed":166983,"subject_id":"87596","group":"Group1","full_date":"2025-12-03T22:52:43.598Z","date":"2025-12-03","time":"22:52:43"},{"task":"memory_phase","broad_category":"I","image_png":"I_Diorite_04.png","image_id":36,"category_name":"Diorite","category":3,"distinct_rating":2.98,"distinct_type":"Bottom","rt":null,"stimulus":"Stimuli_Rocks480/I_Diorite_04.png","response":null,"trial_type":"image-keyboard-response","trial_index":61,"plugin_version":"2.1.0","time_elapsed":169486,"subject_id":"87596","group":"Group1","full_date":"2025-12-03T22:52:43.598Z","date":"2025-12-03","time":"22:52:43"},{"rt":null,"stimulus":"<p style=\"font-size: 50px; margin: 0; text-align: center;\">+</p>","response":null,"trial_type":"html-keyboard-response","trial_index":62,"plugin_version":"2.1.0","time_elapsed":170489,"subject_id":"87596","group":"Group1","full_date":"2025-12-03T22:52:43.598Z","date":"2025-12-03","time":"22:52:43"},{"task":"memory_phase","broad_category":"I","image_png":"I_Basalt_09.png","image_id":25,"category_name":"Basalt","category":2,"distinct_rating":1.89,"distinct_type":"Bottom","rt":null,"stimulus":"Stimuli_Rocks480/I_Basalt_09.png","response":null,"trial_type":"image-keyboard-response","trial_index":63,"plugin_version":"2.1.0","time_elapsed":172992,"subject_id":"87596","group":"Group1","full_date":"2025-12-03T22:52:43.598Z","date":"2025-12-03","time":"22:52:43"},{"rt":null,"stimulus":"<p style=\"font-size: 50px; margin: 0; text-align: center;\">+</p>","response":null,"trial_type":"html-keyboard-response","trial_index":64,"plugin_version":"2.1.0","time_elapsed":173994,"subject_id":"87596","group":"Group1","full_date":"2025-12-03T22:52:43.598Z","date":"2025-12-03","time":"22:52:43"},{"task":"memory_phase","broad_category":"M","image_png":"M_Quartzite_05.png","image_id":277,"category_name":"Quartzite","category":18,"distinct_rating":2.23,"distinct_type":"Bottom","rt":null,"stimulus":"Stimuli_Rocks480/M_Quartzite_05.png","response":null,"trial_type":"image-keyboard-response","trial_index":65,"plugin_version":"2.1.0","time_elapsed":176497,"subject_id":"87596","group":"Group1","full_date":"2025-12-03T22:52:43.598Z","date":"2025-12-03","time":"22:52:43"},{"rt":null,"stimulus":"<p style=\"font-size: 50px; margin: 0; text-align: center;\">+</p>","response":null,"trial_type":"html-keyboard-response","trial_index":66,"plugin_version":"2.1.0","time_elapsed":177500,"subject_id":"87596","group":"Group1","full_date":"2025-12-03T22:52:43.598Z","date":"2025-12-03","time":"22:52:43"},{"task":"memory_phase","broad_category":"M","image_png":"M_Gneiss_13.png","image_id":205,"category_name":"Gneiss","category":13,"distinct_rating":3.26,"distinct_type":"Bottom","rt":null,"stimulus":"Stimuli_Rocks480/M_Gneiss_13.png","response":null,"trial_type":"image-keyboard-response","trial_index":67,"plugin_version":"2.1.0","time_elapsed":180003,"subject_id":"87596","group":"Group1","full_date":"2025-12-03T22:52:43.598Z","date":"2025-12-03","time":"22:52:43"},{"rt":null,"stimulus":"<p style=\"font-size: 50px; margin: 0; text-align: center;\">+</p>","response":null,"trial_type":"html-keyboard-response","trial_index":68,"plugin_version":"2.1.0","time_elapsed":181005,"subject_id":"87596","group":"Group1","full_date":"2025-12-03T22:52:43.598Z","date":"2025-12-03","time":"22:52:43"},{"task":"memory_phase","broad_category":"I","image_png":"I_Basalt_02.png","image_id":18,"category_name":"Basalt","category":2,"distinct_rating":1.84,"distinct_type":"Bottom","rt":null,"stimulus":"Stimuli_Rocks480/I_Basalt_02.png","response":null,"trial_type":"image-keyboard-response","trial_index":69,"plugin_version":"2.1.0","time_elapsed":183507,"subject_id":"87596","group":"Group1","full_date":"2025-12-03T22:52:43.598Z","date":"2025-12-03","time":"22:52:43"},{"rt":null,"stimulus":"<p style=\"font-size: 50px; margin: 0; text-align: center;\">+</p>","response":null,"trial_type":"html-keyboard-response","trial_index":70,"plugin_version":"2.1.0","time_elapsed":184509,"subject_id":"87596","group":"Group1","full_date":"2025-12-03T22:52:43.598Z","date":"2025-12-03","time":"22:52:43"},{"task":"memory_phase","broad_category":"S","image_png":"S_Shale_01.png","image_id":465,"category_name":"Shale","category":30,"distinct_rating":2.7,"distinct_type":"Bottom","rt":null,"stimulus":"Stimuli_Rocks480/S_Shale_01.png","response":null,"trial_type":"image-keyboard-response","trial_index":71,"plugin_version":"2.1.0","time_elapsed":187013,"subject_id":"87596","group":"Group1","full_date":"2025-12-03T22:52:43.598Z","date":"2025-12-03","time":"22:52:43"},{"rt":null,"stimulus":"<p style=\"font-size: 50px; margin: 0; text-align: center;\">+</p>","response":null,"trial_type":"html-keyboard-response","trial_index":72,"plugin_version":"2.1.0","time_elapsed":188015,"subject_id":"87596","group":"Group1","full_date":"2025-12-03T22:52:43.598Z","date":"2025-12-03","time":"22:52:43"},{"task":"memory_phase","broad_category":"M","image_png":"M_Phyllite_03.png","image_id":259,"category_name":"Phyllite","category":17,"distinct_rating":2.5,"distinct_type":"Bottom","rt":null,"stimulus":"Stimuli_Rocks480/M_Phyllite_03.png","response":null,"trial_type":"image-keyboard-response","trial_index":73,"plugin_version":"2.1.0","time_elapsed":190519,"subject_id":"87596","group":"Group1","full_date":"2025-12-03T22:52:43.598Z","date":"2025-12-03","time":"22:52:43"},{"rt":null,"stimulus":"<p style=\"font-size: 50px; margin: 0; text-align: center;\">+</p>","response":null,"trial_type":"html-keyboard-response","trial_index":74,"plugin_version":"2.1.0","time_elapsed":191522,"subject_id":"87596","group":"Group1","full_date":"2025-12-03T22:52:43.598Z","date":"2025-12-03","time":"22:52:43"},{"task":"memory_phase","broad_category":"M","image_png":"M_Gneiss_05.png","image_id":197,"category_name":"Gneiss","category":13,"distinct_rating":2.97,"distinct_type":"Bottom","rt":null,"stimulus":"Stimuli_Rocks480/M_Gneiss_05.png","response":null,"trial_type":"image-keyboard-response","trial_index":75,"plugin_version":"2.1.0","time_elapsed":194025,"subject_id":"87596","group":"Group1","full_date":"2025-12-03T22:52:43.598Z","date":"2025-12-03","time":"22:52:43"},{"rt":null,"stimulus":"<p style=\"font-size: 50px; margin: 0; text-align: center;\">+</p>","response":null,"trial_type":"html-keyboard-response","trial_index":76,"plugin_version":"2.1.0","time_elapsed":195027,"subject_id":"87596","group":"Group1","full_date":"2025-12-03T22:52:43.598Z","date":"2025-12-03","time":"22:52:43"},{"task":"memory_phase","broad_category":"I","image_png":"I_Gabbro_08.png","image_id":56,"category_name":"Gabbro","category":4,"distinct_rating":3.02,"distinct_type":"Bottom","rt":null,"stimulus":"Stimuli_Rocks480/I_Gabbro_08.png","response":null,"trial_type":"image-keyboard-response","trial_index":77,"plugin_version":"2.1.0","time_elapsed":197530,"subject_id":"87596","group":"Group1","full_date":"2025-12-03T22:52:43.598Z","date":"2025-12-03","time":"22:52:43"},{"rt":null,"stimulus":"<p style=\"font-size: 50px; margin: 0; text-align: center;\">+</p>","response":null,"trial_type":"html-keyboard-response","trial_index":78,"plugin_version":"2.1.0","time_elapsed":198532,"subject_id":"87596","group":"Group1","full_date":"2025-12-03T22:52:43.598Z","date":"2025-12-03","time":"22:52:43"},{"task":"memory_phase","broad_category":"M","image_png":"M_Slate_03.png","image_id":307,"category_name":"Slate","category":20,"distinct_rating":1.87,"distinct_type":"Bottom","rt":null,"stimulus":"Stimuli_Rocks480/M_Slate_03.png","response":null,"trial_type":"image-keyboard-response","trial_index":79,"plugin_version":"2.1.0","time_elapsed":201035,"subject_id":"87596","group":"Group1","full_date":"2025-12-03T22:52:43.598Z","date":"2025-12-03","time":"22:52:43"},{"rt":null,"stimulus":"<p style=\"font-size: 50px; margin: 0; text-align: center;\">+</p>","response":null,"trial_type":"html-keyboard-response","trial_index":80,"plugin_version":"2.1.0","time_elapsed":202037,"subject_id":"87596","group":"Group1","full_date":"2025-12-03T22:52:43.598Z","date":"2025-12-03","time":"22:52:43"},{"task":"memory_phase","broad_category":"M","image_png":"M_Marble_06.png","image_id":230,"category_name":"Marble","category":15,"distinct_rating":3.4,"distinct_type":"Bottom","rt":null,"stimulus":"Stimuli_Rocks480/M_Marble_06.png","response":null,"trial_type":"image-keyboard-response","trial_index":81,"plugin_version":"2.1.0","time_elapsed":204541,"subject_id":"87596","group":"Group1","full_date":"2025-12-03T22:52:43.598Z","date":"2025-12-03","time":"22:52:43"},{"rt":null,"stimulus":"<p style=\"font-size: 50px; margin: 0; text-align: center;\">+</p>","response":null,"trial_type":"html-keyboard-response","trial_index":82,"plugin_version":"2.1.0","time_elapsed":205543,"subject_id":"87596","group":"Group1","full_date":"2025-12-03T22:52:43.598Z","date":"2025-12-03","time":"22:52:43"},{"task":"memory_phase","broad_category":"I","image_png":"I_Pumice_08.png","image_id":136,"category_name":"Pumice","category":9,"distinct_rating":3.1,"distinct_type":"Bottom","rt":null,"stimulus":"Stimuli_Rocks480/I_Pumice_08.png","response":null,"trial_type":"image-keyboard-response","trial_index":83,"plugin_version":"2.1.0","time_elapsed":208046,"subject_id":"87596","group":"Group1","full_date":"2025-12-03T22:52:43.598Z","date":"2025-12-03","time":"22:52:43"},{"rt":null,"stimulus":"<p style=\"font-size: 50px; margin: 0; text-align: center;\">+</p>","response":null,"trial_type":"html-keyboard-response","trial_index":84,"plugin_version":"2.1.0","time_elapsed":209049,"subject_id":"87596","group":"Group1","full_date":"2025-12-03T22:52:43.598Z","date":"2025-12-03","time":"22:52:43"},{"task":"memory_phase","broad_category":"I","image_png":"I_Basalt_01.png","image_id":17,"category_name":"Basalt","category":2,"distinct_rating":1.92,"distinct_type":"Bottom","rt":null,"stimulus":"Stimuli_Rocks480/I_Basalt_01.png","response":null,"trial_type":"image-keyboard-response","trial_index":85,"plugin_version":"2.1.0","time_elapsed":211552,"subject_id":"87596","group":"Group1","full_date":"2025-12-03T22:52:43.598Z","date":"2025-12-03","time":"22:52:43"},{"rt":null,"stimulus":"<p style=\"font-size: 50px; margin: 0; text-align: center;\">+</p>","response":null,"trial_type":"html-keyboard-response","trial_index":86,"plugin_version":"2.1.0","time_elapsed":212555,"subject_id":"87596","group":"Group1","full_date":"2025-12-03T22:52:43.598Z","date":"2025-12-03","time":"22:52:43"},{"task":"memory_phase","broad_category":"I","image_png":"I_Diorite_05.png","image_id":37,"category_name":"Diorite","category":3,"distinct_rating":3.08,"distinct_type":"Bottom","rt":null,"stimulus":"Stimuli_Rocks480/I_Diorite_05.png","response":null,"trial_type":"image-keyboard-response","trial_index":87,"plugin_version":"2.1.0","time_elapsed":215058,"subject_id":"87596","group":"Group1","full_date":"2025-12-03T22:52:43.598Z","date":"2025-12-03","time":"22:52:43"},{"rt":null,"stimulus":"<p style=\"font-size: 50px; margin: 0; text-align: center;\">+</p>","response":null,"trial_type":"html-keyboard-response","trial_index":88,"plugin_version":"2.1.0","time_elapsed":216060,"subject_id":"87596","group":"Group1","full_date":"2025-12-03T22:52:43.598Z","date":"2025-12-03","time":"22:52:43"},{"task":"memory_phase","broad_category":"I","image_png":"I_Andesite_06.png","image_id":6,"category_name":"Andesite","category":1,"distinct_rating":3.17,"distinct_type":"Bottom","rt":null,"stimulus":"Stimuli_Rocks480/I_Andesite_06.png","response":null,"trial_type":"image-keyboard-response","trial_index":89,"plugin_version":"2.1.0","time_elapsed":218562,"subject_id":"87596","group":"Group1","full_date":"2025-12-03T22:52:43.598Z","date":"2025-12-03","time":"22:52:43"},{"rt":null,"stimulus":"<p style=\"font-size: 50px; margin: 0; text-align: center;\">+</p>","response":null,"trial_type":"html-keyboard-response","trial_index":90,"plugin_version":"2.1.0","time_elapsed":219565,"subject_id":"87596","group":"Group1","full_date":"2025-12-03T22:52:43.598Z","date":"2025-12-03","time":"22:52:43"},{"task":"memory_phase","broad_category":"M","image_png":"M_Quartzite_13.png","image_id":285,"category_name":"Quartzite","category":18,"distinct_rating":2.27,"distinct_type":"Bottom","rt":null,"stimulus":"Stimuli_Rocks480/M_Quartzite_13.png","response":null,"trial_type":"image-keyboard-response","trial_index":91,"plugin_version":"2.1.0","time_elapsed":222068,"subject_id":"87596","group":"Group1","full_date":"2025-12-03T22:52:43.598Z","date":"2025-12-03","time":"22:52:43"},{"rt":null,"stimulus":"<p style=\"font-size: 50px; margin: 0; text-align: center;\">+</p>","response":null,"trial_type":"html-keyboard-response","trial_index":92,"plugin_version":"2.1.0","time_elapsed":223071,"subject_id":"87596","group":"Group1","full_date":"2025-12-03T22:52:43.598Z","date":"2025-12-03","time":"22:52:43"},{"task":"memory_phase","broad_category":"I","image_png":"I_Andesite_08.png","image_id":8,"category_name":"Andesite","category":1,"distinct_rating":1.95,"distinct_type":"Bottom","rt":null,"stimulus":"Stimuli_Rocks480/I_Andesite_08.png","response":null,"trial_type":"image-keyboard-response","trial_index":93,"plugin_version":"2.1.0","time_elapsed":225574,"subject_id":"87596","group":"Group1","full_date":"2025-12-03T22:52:43.598Z","date":"2025-12-03","time":"22:52:43"},{"rt":null,"stimulus":"<p style=\"font-size: 50px; margin: 0; text-align: center;\">+</p>","response":null,"trial_type":"html-keyboard-response","trial_index":94,"plugin_version":"2.1.0","time_elapsed":226577,"subject_id":"87596","group":"Group1","full_date":"2025-12-03T22:52:43.598Z","date":"2025-12-03","time":"22:52:43"},{"task":"memory_phase","broad_category":"I","image_png":"I_Diorite_03.png","image_id":35,"category_name":"Diorite","category":3,"distinct_rating":3.14,"distinct_type":"Bottom","rt":null,"stimulus":"Stimuli_Rocks480/I_Diorite_03.png","response":null,"trial_type":"image-keyboard-response","trial_index":95,"plugin_version":"2.1.0","time_elapsed":229080,"subject_id":"87596","group":"Group1","full_date":"2025-12-03T22:52:43.598Z","date":"2025-12-03","time":"22:52:43"},{"rt":null,"stimulus":"<p style=\"font-size: 50px; margin: 0; text-align: center;\">+</p>","response":null,"trial_type":"html-keyboard-response","trial_index":96,"plugin_version":"2.1.0","time_elapsed":230082,"subject_id":"87596","group":"Group1","full_date":"2025-12-03T22:52:43.598Z","date":"2025-12-03","time":"22:52:43"},{"task":"memory_phase","broad_category":"M","image_png":"M_Quartzite_08.png","image_id":280,"category_name":"Quartzite","category":18,"distinct_rating":2.15,"distinct_type":"Bottom","rt":null,"stimulus":"Stimuli_Rocks480/M_Quartzite_08.png","response":null,"trial_type":"image-keyboard-response","trial_index":97,"plugin_version":"2.1.0","time_elapsed":232585,"subject_id":"87596","group":"Group1","full_date":"2025-12-03T22:52:43.598Z","date":"2025-12-03","time":"22:52:43"},{"rt":null,"stimulus":"<p style=\"font-size: 50px; margin: 0; text-align: center;\">+</p>","response":null,"trial_type":"html-keyboard-response","trial_index":98,"plugin_version":"2.1.0","time_elapsed":233588,"subject_id":"87596","group":"Group1","full_date":"2025-12-03T22:52:43.598Z","date":"2025-12-03","time":"22:52:43"},{"task":"memory_phase","broad_category":"I","image_png":"I_Andesite_10.png","image_id":10,"category_name":"Andesite","category":1,"distinct_rating":3.15,"distinct_type":"Bottom","rt":null,"stimulus":"Stimuli_Rocks480/I_Andesite_10.png","response":null,"trial_type":"image-keyboard-response","trial_index":99,"plugin_version":"2.1.0","time_elapsed":236090,"subject_id":"87596","group":"Group1","full_date":"2025-12-03T22:52:43.598Z","date":"2025-12-03","time":"22:52:43"},{"rt":null,"stimulus":"<p style=\"font-size: 50px; margin: 0; text-align: center;\">+</p>","response":null,"trial_type":"html-keyboard-response","trial_index":100,"plugin_version":"2.1.0","time_elapsed":237092,"subject_id":"87596","group":"Group1","full_date":"2025-12-03T22:52:43.598Z","date":"2025-12-03","time":"22:52:43"},{"task":"memory_phase","broad_category":"S","image_png":"S_Rock Salt_01.png","image_id":433,"category_name":"Rock Salt","category":28,"distinct_rating":7.18,"distinct_type":"Top","rt":null,"stimulus":"Stimuli_Rocks480/S_Rock Salt_01.png","response":null,"trial_type":"image-keyboard-response","trial_index":101,"plugin_version":"2.1.0","time_elapsed":239596,"subject_id":"87596","group":"Group1","full_date":"2025-12-03T22:52:43.598Z","date":"2025-12-03","time":"22:52:43"},{"rt":null,"stimulus":"<p style=\"font-size: 50px; margin: 0; text-align: center;\">+</p>","response":null,"trial_type":"html-keyboard-response","trial_index":102,"plugin_version":"2.1.0","time_elapsed":240598,"subject_id":"87596","group":"Group1","full_date":"2025-12-03T22:52:43.598Z","date":"2025-12-03","time":"22:52:43"},{"task":"memory_phase","broad_category":"S","image_png":"S_Conglomerate_05.png","image_id":373,"category_name":"Conglomerate","category":24,"distinct_rating":7.32,"distinct_type":"Top","rt":null,"stimulus":"Stimuli_Rocks480/S_Conglomerate_05.png","response":null,"trial_type":"image-keyboard-response","trial_index":103,"plugin_version":"2.1.0","time_elapsed":243101,"subject_id":"87596","group":"Group1","full_date":"2025-12-03T22:52:43.598Z","date":"2025-12-03","time":"22:52:43"},{"rt":null,"stimulus":"<p style=\"font-size: 50px; margin: 0; text-align: center;\">+</p>","response":null,"trial_type":"html-keyboard-response","trial_index":104,"plugin_version":"2.1.0","time_elapsed":244104,"subject_id":"87596","group":"Group1","full_date":"2025-12-03T22:52:43.598Z","date":"2025-12-03","time":"22:52:43"},{"task":"memory_phase","broad_category":"S","image_png":"S_Shale_08.png","image_id":472,"category_name":"Shale","category":30,"distinct_rating":2.55,"distinct_type":"Bottom","rt":null,"stimulus":"Stimuli_Rocks480/S_Shale_08.png","response":null,"trial_type":"image-keyboard-response","trial_index":105,"plugin_version":"2.1.0","time_elapsed":246607,"subject_id":"87596","group":"Group1","full_date":"2025-12-03T22:52:43.598Z","date":"2025-12-03","time":"22:52:43"},{"rt":30432,"stimulus":"<p style=\"max-width: 760px; margin: auto; font-size: 35px; line-height: 1.5;\">You have completed 1 study phase. Now, we'll show you all the images again 2 more times.<br><br>Press SPACE to continue</p>","response":" ","trial_type":"html-keyboard-response","trial_index":106,"plugin_version":"2.1.0","time_elapsed":277040,"subject_id":"87596","group":"Group1","full_date":"2025-12-03T22:52:43.598Z","date":"2025-12-03","time":"22:52:43"},{"rt":null,"stimulus":"<p style=\"font-size: 50px; margin: 0; text-align: center;\">+</p>","response":null,"trial_type":"html-keyboard-response","trial_index":107,"plugin_version":"2.1.0","time_elapsed":278042,"subject_id":"87596","group":"Group1","full_date":"2025-12-03T22:52:43.598Z","date":"2025-12-03","time":"22:52:43"},{"task":"memory_phase","broad_category":"I","image_png":"I_Diorite_05.png","image_id":37,"category_name":"Diorite","category":3,"distinct_rating":3.08,"distinct_type":"Bottom","rt":null,"stimulus":"Stimuli_Rocks480/I_Diorite_05.png","response":null,"trial_type":"image-keyboard-response","trial_index":108,"plugin_version":"2.1.0","time_elapsed":280546,"subject_id":"87596","group":"Group1","full_date":"2025-12-03T22:52:43.598Z","date":"2025-12-03","time":"22:52:43"},{"rt":null,"stimulus":"<p style=\"font-size: 50px; margin: 0; text-align: center;\">+</p>","response":null,"trial_type":"html-keyboard-response","trial_index":109,"plugin_version":"2.1.0","time_elapsed":281548,"subject_id":"87596","group":"Group1","full_date":"2025-12-03T22:52:43.598Z","date":"2025-12-03","time":"22:52:43"},{"task":"memory_phase","broad_category":"S","image_png":"S_Sandstone_16.png","image_id":464,"category_name":"Sandstone","category":29,"distinct_rating":1.93,"distinct_type":"Bottom","rt":null,"stimulus":"Stimuli_Rocks480/S_Sandstone_16.png","response":null,"trial_type":"image-keyboard-response","trial_index":110,"plugin_version":"2.1.0","time_elapsed":284051,"subject_id":"87596","group":"Group1","full_date":"2025-12-03T22:52:43.598Z","date":"2025-12-03","time":"22:52:43"},{"rt":null,"stimulus":"<p style=\"font-size: 50px; margin: 0; text-align: center;\">+</p>","response":null,"trial_type":"html-keyboard-response","trial_index":111,"plugin_version":"2.1.0","time_elapsed":285054,"subject_id":"87596","group":"Group1","full_date":"2025-12-03T22:52:43.598Z","date":"2025-12-03","time":"22:52:43"},{"task":"memory_phase","broad_category":"I","image_png":"I_Andesite_06.png","image_id":6,"category_name":"Andesite","category":1,"distinct_rating":3.17,"distinct_type":"Bottom","rt":null,"stimulus":"Stimuli_Rocks480/I_Andesite_06.png","response":null,"trial_type":"image-keyboard-response","trial_index":112,"plugin_version":"2.1.0","time_elapsed":287557,"subject_id":"87596","group":"Group1","full_date":"2025-12-03T22:52:43.598Z","date":"2025-12-03","time":"22:52:43"},{"rt":null,"stimulus":"<p style=\"font-size: 50px; margin: 0; text-align: center;\">+</p>","response":null,"trial_type":"html-keyboard-response","trial_index":113,"plugin_version":"2.1.0","time_elapsed":288560,"subject_id":"87596","group":"Group1","full_date":"2025-12-03T22:52:43.598Z","date":"2025-12-03","time":"22:52:43"},{"task":"memory_phase","broad_category":"M","image_png":"M_Gneiss_13.png","image_id":205,"category_name":"Gneiss","category":13,"distinct_rating":3.26,"distinct_type":"Bottom","rt":null,"stimulus":"Stimuli_Rocks480/M_Gneiss_13.png","response":null,"trial_type":"image-keyboard-response","trial_index":114,"plugin_version":"2.1.0","time_elapsed":291063,"subject_id":"87596","group":"Group1","full_date":"2025-12-03T22:52:43.598Z","date":"2025-12-03","time":"22:52:43"},{"rt":null,"stimulus":"<p style=\"font-size: 50px; margin: 0; text-align: center;\">+</p>","response":null,"trial_type":"html-keyboard-response","trial_index":115,"plugin_version":"2.1.0","time_elapsed":292065,"subject_id":"87596","group":"Group1","full_date":"2025-12-03T22:52:43.598Z","date":"2025-12-03","time":"22:52:43"},{"task":"memory_phase","broad_category":"I","image_png":"I_Rhyolite_11.png","image_id":155,"category_name":"Rhyolite","category":10,"distinct_rating":1.73,"distinct_type":"Bottom","rt":null,"stimulus":"Stimuli_Rocks480/I_Rhyolite_11.png","response":null,"trial_type":"image-keyboard-response","trial_index":116,"plugin_version":"2.1.0","time_elapsed":294568,"subject_id":"87596","group":"Group1","full_date":"2025-12-03T22:52:43.598Z","date":"2025-12-03","time":"22:52:43"},{"rt":null,"stimulus":"<p style=\"font-size: 50px; margin: 0; text-align: center;\">+</p>","response":null,"trial_type":"html-keyboard-response","trial_index":117,"plugin_version":"2.1.0","time_elapsed":295569,"subject_id":"87596","group":"Group1","full_date":"2025-12-03T22:52:43.598Z","date":"2025-12-03","time":"22:52:43"},{"task":"memory_phase","broad_category":"I","image_png":"I_Diorite_03.png","image_id":35,"category_name":"Diorite","category":3,"distinct_rating":3.14,"distinct_type":"Bottom","rt":null,"stimulus":"Stimuli_Rocks480/I_Diorite_03.png","response":null,"trial_type":"image-keyboard-response","trial_index":118,"plugin_version":"2.1.0","time_elapsed":298072,"subject_id":"87596","group":"Group1","full_date":"2025-12-03T22:52:43.598Z","date":"2025-12-03","time":"22:52:43"},{"rt":null,"stimulus":"<p style=\"font-size: 50px; margin: 0; text-align: center;\">+</p>","response":null,"trial_type":"html-keyboard-response","trial_index":119,"plugin_version":"2.1.0","time_elapsed":299074,"subject_id":"87596","group":"Group1","full_date":"2025-12-03T22:52:43.598Z","date":"2025-12-03","time":"22:52:43"},{"task":"memory_phase","broad_category":"M","image_png":"M_Slate_15.png","image_id":319,"category_name":"Slate","category":20,"distinct_rating":2.13,"distinct_type":"Bottom","rt":null,"stimulus":"Stimuli_Rocks480/M_Slate_15.png","response":null,"trial_type":"image-keyboard-response","trial_index":120,"plugin_version":"2.1.0","time_elapsed":301577,"subject_id":"87596","group":"Group1","full_date":"2025-12-03T22:52:43.598Z","date":"2025-12-03","time":"22:52:43"},{"rt":null,"stimulus":"<p style=\"font-size: 50px; margin: 0; text-align: center;\">+</p>","response":null,"trial_type":"html-keyboard-response","trial_index":121,"plugin_version":"2.1.0","time_elapsed":302580,"subject_id":"87596","group":"Group1","full_date":"2025-12-03T22:52:43.598Z","date":"2025-12-03","time":"22:52:43"},{"task":"memory_phase","broad_category":"I","image_png":"I_Pumice_12.png","image_id":140,"category_name":"Pumice","category":9,"distinct_rating":2.97,"distinct_type":"Bottom","rt":null,"stimulus":"Stimuli_Rocks480/I_Pumice_12.png","response":null,"trial_type":"image-keyboard-response","trial_index":122,"plugin_version":"2.1.0","time_elapsed":305083,"subject_id":"87596","group":"Group1","full_date":"2025-12-03T22:52:43.598Z","date":"2025-12-03","time":"22:52:43"},{"rt":null,"stimulus":"<p style=\"font-size: 50px; margin: 0; text-align: center;\">+</p>","response":null,"trial_type":"html-keyboard-response","trial_index":123,"plugin_version":"2.1.0","time_elapsed":306086,"subject_id":"87596","group":"Group1","full_date":"2025-12-03T22:52:43.598Z","date":"2025-12-03","time":"22:52:43"},{"task":"memory_phase","broad_category":"M","image_png":"M_Gneiss_06.png","image_id":198,"category_name":"Gneiss","category":13,"distinct_rating":2.65,"distinct_type":"Bottom","rt":null,"stimulus":"Stimuli_Rocks480/M_Gneiss_06.png","response":null,"trial_type":"image-keyboard-response","trial_index":124,"plugin_version":"2.1.0","time_elapsed":308588,"subject_id":"87596","group":"Group1","full_date":"2025-12-03T22:52:43.598Z","date":"2025-12-03","time":"22:52:43"},{"rt":null,"stimulus":"<p style=\"font-size: 50px; margin: 0; text-align: center;\">+</p>","response":null,"trial_type":"html-keyboard-response","trial_index":125,"plugin_version":"2.1.0","time_elapsed":309591,"subject_id":"87596","group":"Group1","full_date":"2025-12-03T22:52:43.598Z","date":"2025-12-03","time":"22:52:43"},{"task":"memory_phase","broad_category":"I","image_png":"I_Obsidian_05.png","image_id":85,"category_name":"Obsidian","category":6,"distinct_rating":7.32,"distinct_type":"Top","rt":null,"stimulus":"Stimuli_Rocks480/I_Obsidian_05.png","response":null,"trial_type":"image-keyboard-response","trial_index":126,"plugin_version":"2.1.0","time_elapsed":312094,"subject_id":"87596","group":"Group1","full_date":"2025-12-03T22:52:43.598Z","date":"2025-12-03","time":"22:52:43"},{"rt":null,"stimulus":"<p style=\"font-size: 50px; margin: 0; text-align: center;\">+</p>","response":null,"trial_type":"html-keyboard-response","trial_index":127,"plugin_version":"2.1.0","time_elapsed":313097,"subject_id":"87596","group":"Group1","full_date":"2025-12-03T22:52:43.598Z","date":"2025-12-03","time":"22:52:43"},{"task":"memory_phase","broad_category":"I","image_png":"I_Rhyolite_14.png","image_id":158,"category_name":"Rhyolite","category":10,"distinct_rating":2.59,"distinct_type":"Bottom","rt":null,"stimulus":"Stimuli_Rocks480/I_Rhyolite_14.png","response":null,"trial_type":"image-keyboard-response","trial_index":128,"plugin_version":"2.1.0","time_elapsed":315599,"subject_id":"87596","group":"Group1","full_date":"2025-12-03T22:52:43.598Z","date":"2025-12-03","time":"22:52:43"},{"rt":null,"stimulus":"<p style=\"font-size: 50px; margin: 0; text-align: center;\">+</p>","response":null,"trial_type":"html-keyboard-response","trial_index":129,"plugin_version":"2.1.0","time_elapsed":316601,"subject_id":"87596","group":"Group1","full_date":"2025-12-03T22:52:43.598Z","date":"2025-12-03","time":"22:52:43"},{"task":"memory_phase","broad_category":"M","image_png":"M_Phyllite_07.png","image_id":263,"category_name":"Phyllite","category":17,"distinct_rating":2.59,"distinct_type":"Bottom","rt":null,"stimulus":"Stimuli_Rocks480/M_Phyllite_07.png","response":null,"trial_type":"image-keyboard-response","trial_index":130,"plugin_version":"2.1.0","time_elapsed":319104,"subject_id":"87596","group":"Group1","full_date":"2025-12-03T22:52:43.598Z","date":"2025-12-03","time":"22:52:43"},{"rt":null,"stimulus":"<p style=\"font-size: 50px; margin: 0; text-align: center;\">+</p>","response":null,"trial_type":"html-keyboard-response","trial_index":131,"plugin_version":"2.1.0","time_elapsed":320107,"subject_id":"87596","group":"Group1","full_date":"2025-12-03T22:52:43.598Z","date":"2025-12-03","time":"22:52:43"},{"task":"memory_phase","broad_category":"M","image_png":"M_Marble_16.png","image_id":240,"category_name":"Marble","category":15,"distinct_rating":2.57,"distinct_type":"Bottom","rt":null,"stimulus":"Stimuli_Rocks480/M_Marble_16.png","response":null,"trial_type":"image-keyboard-response","trial_index":132,"plugin_version":"2.1.0","time_elapsed":322610,"subject_id":"87596","group":"Group1","full_date":"2025-12-03T22:52:43.598Z","date":"2025-12-03","time":"22:52:43"},{"rt":null,"stimulus":"<p style=\"font-size: 50px; margin: 0; text-align: center;\">+</p>","response":null,"trial_type":"html-keyboard-response","trial_index":133,"plugin_version":"2.1.0","time_elapsed":323612,"subject_id":"87596","group":"Group1","full_date":"2025-12-03T22:52:43.598Z","date":"2025-12-03","time":"22:52:43"},{"task":"memory_phase","broad_category":"S","image_png":"S_Rock Gypsum_04.png","image_id":420,"category_name":"Rock Gypsum","category":27,"distinct_rating":7.61,"distinct_type":"Top","rt":null,"stimulus":"Stimuli_Rocks480/S_Rock Gypsum_04.png","response":null,"trial_type":"image-keyboard-response","trial_index":134,"plugin_version":"2.1.0","time_elapsed":326115,"subject_id":"87596","group":"Group1","full_date":"2025-12-03T22:52:43.598Z","date":"2025-12-03","time":"22:52:43"},{"rt":null,"stimulus":"<p style=\"font-size: 50px; margin: 0; text-align: center;\">+</p>","response":null,"trial_type":"html-keyboard-response","trial_index":135,"plugin_version":"2.1.0","time_elapsed":327117,"subject_id":"87596","group":"Group1","full_date":"2025-12-03T22:52:43.598Z","date":"2025-12-03","time":"22:52:43"},{"task":"memory_phase","broad_category":"I","image_png":"I_Andesite_10.png","image_id":10,"category_name":"Andesite","category":1,"distinct_rating":3.15,"distinct_type":"Bottom","rt":null,"stimulus":"Stimuli_Rocks480/I_Andesite_10.png","response":null,"trial_type":"image-keyboard-response","trial_index":136,"plugin_version":"2.1.0","time_elapsed":329621,"subject_id":"87596","group":"Group1","full_date":"2025-12-03T22:52:43.598Z","date":"2025-12-03","time":"22:52:43"},{"rt":null,"stimulus":"<p style=\"font-size: 50px; margin: 0; text-align: center;\">+</p>","response":null,"trial_type":"html-keyboard-response","trial_index":137,"plugin_version":"2.1.0","time_elapsed":330624,"subject_id":"87596","group":"Group1","full_date":"2025-12-03T22:52:43.598Z","date":"2025-12-03","time":"22:52:43"},{"task":"memory_phase","broad_category":"S","image_png":"S_Dolomite_13.png","image_id":397,"category_name":"Dolomite","category":25,"distinct_rating":1.77,"distinct_type":"Bottom","rt":null,"stimulus":"Stimuli_Rocks480/S_Dolomite_13.png","response":null,"trial_type":"image-keyboard-response","trial_index":138,"plugin_version":"2.1.0","time_elapsed":333126,"subject_id":"87596","group":"Group1","full_date":"2025-12-03T22:52:43.598Z","date":"2025-12-03","time":"22:52:43"},{"rt":null,"stimulus":"<p style=\"font-size: 50px; margin: 0; text-align: center;\">+</p>","response":null,"trial_type":"html-keyboard-response","trial_index":139,"plugin_version":"2.1.0","time_elapsed":334129,"subject_id":"87596","group":"Group1","full_date":"2025-12-03T22:52:43.598Z","date":"2025-12-03","time":"22:52:43"},{"task":"memory_phase","broad_category":"I","image_png":"I_Rhyolite_16.png","image_id":160,"category_name":"Rhyolite","category":10,"distinct_rating":2.19,"distinct_type":"Bottom","rt":null,"stimulus":"Stimuli_Rocks480/I_Rhyolite_16.png","response":null,"trial_type":"image-keyboard-response","trial_index":140,"plugin_version":"2.1.0","time_elapsed":336633,"subject_id":"87596","group":"Group1","full_date":"2025-12-03T22:52:43.598Z","date":"2025-12-03","time":"22:52:43"},{"rt":null,"stimulus":"<p style=\"font-size: 50px; margin: 0; text-align: center;\">+</p>","response":null,"trial_type":"html-keyboard-response","trial_index":141,"plugin_version":"2.1.0","time_elapsed":337635,"subject_id":"87596","group":"Group1","full_date":"2025-12-03T22:52:43.598Z","date":"2025-12-03","time":"22:52:43"},{"task":"memory_phase","broad_category":"M","image_png":"M_Slate_03.png","image_id":307,"category_name":"Slate","category":20,"distinct_rating":1.87,"distinct_type":"Bottom","rt":null,"stimulus":"Stimuli_Rocks480/M_Slate_03.png","response":null,"trial_type":"image-keyboard-response","trial_index":142,"plugin_version":"2.1.0","time_elapsed":340138,"subject_id":"87596","group":"Group1","full_date":"2025-12-03T22:52:43.598Z","date":"2025-12-03","time":"22:52:43"},{"rt":null,"stimulus":"<p style=\"font-size: 50px; margin: 0; text-align: center;\">+</p>","response":null,"trial_type":"html-keyboard-response","trial_index":143,"plugin_version":"2.1.0","time_elapsed":341140,"subject_id":"87596","group":"Group1","full_date":"2025-12-03T22:52:43.598Z","date":"2025-12-03","time":"22:52:43"},{"task":"memory_phase","broad_category":"M","image_png":"M_Phyllite_03.png","image_id":259,"category_name":"Phyllite","category":17,"distinct_rating":2.5,"distinct_type":"Bottom","rt":null,"stimulus":"Stimuli_Rocks480/M_Phyllite_03.png","response":null,"trial_type":"image-keyboard-response","trial_index":144,"plugin_version":"2.1.0","time_elapsed":343643,"subject_id":"87596","group":"Group1","full_date":"2025-12-03T22:52:43.598Z","date":"2025-12-03","time":"22:52:43"},{"rt":null,"stimulus":"<p style=\"font-size: 50px; margin: 0; text-align: center;\">+</p>","response":null,"trial_type":"html-keyboard-response","trial_index":145,"plugin_version":"2.1.0","time_elapsed":344645,"subject_id":"87596","group":"Group1","full_date":"2025-12-03T22:52:43.598Z","date":"2025-12-03","time":"22:52:43"},{"task":"memory_phase","broad_category":"S","image_png":"S_Shale_12.png","image_id":476,"category_name":"Shale","category":30,"distinct_rating":2.48,"distinct_type":"Bottom","rt":null,"stimulus":"Stimuli_Rocks480/S_Shale_12.png","response":null,"trial_type":"image-keyboard-response","trial_index":146,"plugin_version":"2.1.0","time_elapsed":347149,"subject_id":"87596","group":"Group1","full_date":"2025-12-03T22:52:43.598Z","date":"2025-12-03","time":"22:52:43"},{"rt":null,"stimulus":"<p style=\"font-size: 50px; margin: 0; text-align: center;\">+</p>","response":null,"trial_type":"html-keyboard-response","trial_index":147,"plugin_version":"2.1.0","time_elapsed":348151,"subject_id":"87596","group":"Group1","full_date":"2025-12-03T22:52:43.598Z","date":"2025-12-03","time":"22:52:43"},{"task":"memory_phase","broad_category":"S","image_png":"S_Dolomite_12.png","image_id":396,"category_name":"Dolomite","category":25,"distinct_rating":1.85,"distinct_type":"Bottom","rt":null,"stimulus":"Stimuli_Rocks480/S_Dolomite_12.png","response":null,"trial_type":"image-keyboard-response","trial_index":148,"plugin_version":"2.1.0","time_elapsed":350654,"subject_id":"87596","group":"Group1","full_date":"2025-12-03T22:52:43.598Z","date":"2025-12-03","time":"22:52:43"},{"rt":null,"stimulus":"<p style=\"font-size: 50px; margin: 0; text-align: center;\">+</p>","response":null,"trial_type":"html-keyboard-response","trial_index":149,"plugin_version":"2.1.0","time_elapsed":351656,"subject_id":"87596","group":"Group1","full_date":"2025-12-03T22:52:43.598Z","date":"2025-12-03","time":"22:52:43"},{"task":"memory_phase","broad_category":"I","image_png":"I_Pumice_08.png","image_id":136,"category_name":"Pumice","category":9,"distinct_rating":3.1,"distinct_type":"Bottom","rt":null,"stimulus":"Stimuli_Rocks480/I_Pumice_08.png","response":null,"trial_type":"image-keyboard-response","trial_index":150,"plugin_version":"2.1.0","time_elapsed":354159,"subject_id":"87596","group":"Group1","full_date":"2025-12-03T22:52:43.598Z","date":"2025-12-03","time":"22:52:43"},{"rt":null,"stimulus":"<p style=\"font-size: 50px; margin: 0; text-align: center;\">+</p>","response":null,"trial_type":"html-keyboard-response","trial_index":151,"plugin_version":"2.1.0","time_elapsed":355161,"subject_id":"87596","group":"Group1","full_date":"2025-12-03T22:52:43.598Z","date":"2025-12-03","time":"22:52:43"},{"task":"memory_phase","broad_category":"M","image_png":"M_Phyllite_10.png","image_id":266,"category_name":"Phyllite","category":17,"distinct_rating":2.6,"distinct_type":"Bottom","rt":null,"stimulus":"Stimuli_Rocks480/M_Phyllite_10.png","response":null,"trial_type":"image-keyboard-response","trial_index":152,"plugin_version":"2.1.0","time_elapsed":357664,"subject_id":"87596","group":"Group1","full_date":"2025-12-03T22:52:43.598Z","date":"2025-12-03","time":"22:52:43"},{"rt":null,"stimulus":"<p style=\"font-size: 50px; margin: 0; text-align: center;\">+</p>","response":null,"trial_type":"html-keyboard-response","trial_index":153,"plugin_version":"2.1.0","time_elapsed":358667,"subject_id":"87596","group":"Group1","full_date":"2025-12-03T22:52:43.598Z","date":"2025-12-03","time":"22:52:43"},{"task":"memory_phase","broad_category":"I","image_png":"I_Gabbro_16.png","image_id":64,"category_name":"Gabbro","category":4,"distinct_rating":2.52,"distinct_type":"Bottom","rt":null,"stimulus":"Stimuli_Rocks480/I_Gabbro_16.png","response":null,"trial_type":"image-keyboard-response","trial_index":154,"plugin_version":"2.1.0","time_elapsed":361170,"subject_id":"87596","group":"Group1","full_date":"2025-12-03T22:52:43.598Z","date":"2025-12-03","time":"22:52:43"},{"rt":null,"stimulus":"<p style=\"font-size: 50px; margin: 0; text-align: center;\">+</p>","response":null,"trial_type":"html-keyboard-response","trial_index":155,"plugin_version":"2.1.0","time_elapsed":362173,"subject_id":"87596","group":"Group1","full_date":"2025-12-03T22:52:43.598Z","date":"2025-12-03","time":"22:52:43"},{"task":"memory_phase","broad_category":"I","image_png":"I_Basalt_09.png","image_id":25,"category_name":"Basalt","category":2,"distinct_rating":1.89,"distinct_type":"Bottom","rt":null,"stimulus":"Stimuli_Rocks480/I_Basalt_09.png","response":null,"trial_type":"image-keyboard-response","trial_index":156,"plugin_version":"2.1.0","time_elapsed":364676,"subject_id":"87596","group":"Group1","full_date":"2025-12-03T22:52:43.598Z","date":"2025-12-03","time":"22:52:43"},{"rt":1599,"stimulus":"<p style=\"max-width: 760px; margin: auto; font-size: 35px; line-height: 1.5;\">Press SPACE to continue study phase</p>","response":" ","trial_type":"html-keyboard-response","trial_index":157,"plugin_version":"2.1.0","time_elapsed":366276,"subject_id":"87596","group":"Group1","full_date":"2025-12-03T22:52:43.598Z","date":"2025-12-03","time":"22:52:43"},{"rt":null,"stimulus":"<p style=\"font-size: 50px; margin: 0; text-align: center;\">+</p>","response":null,"trial_type":"html-keyboard-response","trial_index":158,"plugin_version":"2.1.0","time_elapsed":367279,"subject_id":"87596","group":"Group1","full_date":"2025-12-03T22:52:43.598Z","date":"2025-12-03","time":"22:52:43"},{"task":"memory_phase","broad_category":"S","image_png":"S_Breccia_11.png","image_id":347,"category_name":"Breccia","category":22,"distinct_rating":6.7,"distinct_type":"Top","rt":null,"stimulus":"Stimuli_Rocks480/S_Breccia_11.png","response":null,"trial_type":"image-keyboard-response","trial_index":159,"plugin_version":"2.1.0","time_elapsed":369781,"subject_id":"87596","group":"Group1","full_date":"2025-12-03T22:52:43.598Z","date":"2025-12-03","time":"22:52:43"},{"rt":null,"stimulus":"<p style=\"font-size: 50px; margin: 0; text-align: center;\">+</p>","response":null,"trial_type":"html-keyboard-response","trial_index":160,"plugin_version":"2.1.0","time_elapsed":370782,"subject_id":"87596","group":"Group1","full_date":"2025-12-03T22:52:43.598Z","date":"2025-12-03","time":"22:52:43"},{"task":"memory_phase","broad_category":"I","image_png":"I_Pegmatite_16.png","image_id":112,"category_name":"Pegmatite","category":7,"distinct_rating":7.03,"distinct_type":"Top","rt":null,"stimulus":"Stimuli_Rocks480/I_Pegmatite_16.png","response":null,"trial_type":"image-keyboard-response","trial_index":161,"plugin_version":"2.1.0","time_elapsed":373285,"subject_id":"87596","group":"Group1","full_date":"2025-12-03T22:52:43.598Z","date":"2025-12-03","time":"22:52:43"},{"rt":null,"stimulus":"<p style=\"font-size: 50px; margin: 0; text-align: center;\">+</p>","response":null,"trial_type":"html-keyboard-response","trial_index":162,"plugin_version":"2.1.0","time_elapsed":374288,"subject_id":"87596","group":"Group1","full_date":"2025-12-03T22:52:43.598Z","date":"2025-12-03","time":"22:52:43"},{"task":"memory_phase","broad_category":"S","image_png":"S_Conglomerate_05.png","image_id":373,"category_name":"Conglomerate","category":24,"distinct_rating":7.32,"distinct_type":"Top","rt":null,"stimulus":"Stimuli_Rocks480/S_Conglomerate_05.png","response":null,"trial_type":"image-keyboard-response","trial_index":163,"plugin_version":"2.1.0","time_elapsed":376791,"subject_id":"87596","group":"Group1","full_date":"2025-12-03T22:52:43.598Z","date":"2025-12-03","time":"22:52:43"},{"rt":null,"stimulus":"<p style=\"font-size: 50px; margin: 0; text-align: center;\">+</p>","response":null,"trial_type":"html-keyboard-response","trial_index":164,"plugin_version":"2.1.0","time_elapsed":377793,"subject_id":"87596","group":"Group1","full_date":"2025-12-03T22:52:43.598Z","date":"2025-12-03","time":"22:52:43"},{"task":"memory_phase","broad_category":"I","image_png":"I_Pumice_11.png","image_id":139,"category_name":"Pumice","category":9,"distinct_rating":1.74,"distinct_type":"Bottom","rt":null,"stimulus":"Stimuli_Rocks480/I_Pumice_11.png","response":null,"trial_type":"image-keyboard-response","trial_index":165,"plugin_version":"2.1.0","time_elapsed":380297,"subject_id":"87596","group":"Group1","full_date":"2025-12-03T22:52:43.598Z","date":"2025-12-03","time":"22:52:43"},{"rt":null,"stimulus":"<p style=\"font-size: 50px; margin: 0; text-align: center;\">+</p>","response":null,"trial_type":"html-keyboard-response","trial_index":166,"plugin_version":"2.1.0","time_elapsed":381299,"subject_id":"87596","group":"Group1","full_date":"2025-12-03T22:52:43.598Z","date":"2025-12-03","time":"22:52:43"},{"task":"memory_phase","broad_category":"S","image_png":"S_Shale_01.png","image_id":465,"category_name":"Shale","category":30,"distinct_rating":2.7,"distinct_type":"Bottom","rt":null,"stimulus":"Stimuli_Rocks480/S_Shale_01.png","response":null,"trial_type":"image-keyboard-response","trial_index":167,"plugin_version":"2.1.0","time_elapsed":383802,"subject_id":"87596","group":"Group1","full_date":"2025-12-03T22:52:43.598Z","date":"2025-12-03","time":"22:52:43"},{"rt":null,"stimulus":"<p style=\"font-size: 50px; margin: 0; text-align: center;\">+</p>","response":null,"trial_type":"html-keyboard-response","trial_index":168,"plugin_version":"2.1.0","time_elapsed":384805,"subject_id":"87596","group":"Group1","full_date":"2025-12-03T22:52:43.598Z","date":"2025-12-03","time":"22:52:43"},{"task":"memory_phase","broad_category":"I","image_png":"I_Diorite_04.png","image_id":36,"category_name":"Diorite","category":3,"distinct_rating":2.98,"distinct_type":"Bottom","rt":null,"stimulus":"Stimuli_Rocks480/I_Diorite_04.png","response":null,"trial_type":"image-keyboard-response","trial_index":169,"plugin_version":"2.1.0","time_elapsed":387307,"subject_id":"87596","group":"Group1","full_date":"2025-12-03T22:52:43.598Z","date":"2025-12-03","time":"22:52:43"},{"rt":null,"stimulus":"<p style=\"font-size: 50px; margin: 0; text-align: center;\">+</p>","response":null,"trial_type":"html-keyboard-response","trial_index":170,"plugin_version":"2.1.0","time_elapsed":388310,"subject_id":"87596","group":"Group1","full_date":"2025-12-03T22:52:43.598Z","date":"2025-12-03","time":"22:52:43"},{"task":"memory_phase","broad_category":"I","image_png":"I_Andesite_08.png","image_id":8,"category_name":"Andesite","category":1,"distinct_rating":1.95,"distinct_type":"Bottom","rt":null,"stimulus":"Stimuli_Rocks480/I_Andesite_08.png","response":null,"trial_type":"image-keyboard-response","trial_index":171,"plugin_version":"2.1.0","time_elapsed":390813,"subject_id":"87596","group":"Group1","full_date":"2025-12-03T22:52:43.598Z","date":"2025-12-03","time":"22:52:43"},{"rt":null,"stimulus":"<p style=\"font-size: 50px; margin: 0; text-align: center;\">+</p>","response":null,"trial_type":"html-keyboard-response","trial_index":172,"plugin_version":"2.1.0","time_elapsed":391815,"subject_id":"87596","group":"Group1","full_date":"2025-12-03T22:52:43.598Z","date":"2025-12-03","time":"22:52:43"},{"task":"memory_phase","broad_category":"I","image_png":"I_Gabbro_11.png","image_id":59,"category_name":"Gabbro","category":4,"distinct_rating":1.99,"distinct_type":"Bottom","rt":null,"stimulus":"Stimuli_Rocks480/I_Gabbro_11.png","response":null,"trial_type":"image-keyboard-response","trial_index":173,"plugin_version":"2.1.0","time_elapsed":394319,"subject_id":"87596","group":"Group1","full_date":"2025-12-03T22:52:43.598Z","date":"2025-12-03","time":"22:52:43"},{"rt":null,"stimulus":"<p style=\"font-size: 50px; margin: 0; text-align: center;\">+</p>","response":null,"trial_type":"html-keyboard-response","trial_index":174,"plugin_version":"2.1.0","time_elapsed":395321,"subject_id":"87596","group":"Group1","full_date":"2025-12-03T22:52:43.598Z","date":"2025-12-03","time":"22:52:43"},{"task":"memory_phase","broad_category":"I","image_png":"I_Pegmatite_10.png","image_id":106,"category_name":"Pegmatite","category":7,"distinct_rating":7.66,"distinct_type":"Top","rt":null,"stimulus":"Stimuli_Rocks480/I_Pegmatite_10.png","response":null,"trial_type":"image-keyboard-response","trial_index":175,"plugin_version":"2.1.0","time_elapsed":397824,"subject_id":"87596","group":"Group1","full_date":"2025-12-03T22:52:43.598Z","date":"2025-12-03","time":"22:52:43"},{"rt":null,"stimulus":"<p style=\"font-size: 50px; margin: 0; text-align: center;\">+</p>","response":null,"trial_type":"html-keyboard-response","trial_index":176,"plugin_version":"2.1.0","time_elapsed":398827,"subject_id":"87596","group":"Group1","full_date":"2025-12-03T22:52:43.598Z","date":"2025-12-03","time":"22:52:43"},{"task":"memory_phase","broad_category":"S","image_png":"S_Shale_08.png","image_id":472,"category_name":"Shale","category":30,"distinct_rating":2.55,"distinct_type":"Bottom","rt":null,"stimulus":"Stimuli_Rocks480/S_Shale_08.png","response":null,"trial_type":"image-keyboard-response","trial_index":177,"plugin_version":"2.1.0","time_elapsed":401329,"subject_id":"87596","group":"Group1","full_date":"2025-12-03T22:52:43.598Z","date":"2025-12-03","time":"22:52:43"},{"rt":null,"stimulus":"<p style=\"font-size: 50px; margin: 0; text-align: center;\">+</p>","response":null,"trial_type":"html-keyboard-response","trial_index":178,"plugin_version":"2.1.0","time_elapsed":402331,"subject_id":"87596","group":"Group1","full_date":"2025-12-03T22:52:43.598Z","date":"2025-12-03","time":"22:52:43"},{"task":"memory_phase","broad_category":"M","image_png":"M_Marble_06.png","image_id":230,"category_name":"Marble","category":15,"distinct_rating":3.4,"distinct_type":"Bottom","rt":null,"stimulus":"Stimuli_Rocks480/M_Marble_06.png","response":null,"trial_type":"image-keyboard-response","trial_index":179,"plugin_version":"2.1.0","time_elapsed":404835,"subject_id":"87596","group":"Group1","full_date":"2025-12-03T22:52:43.598Z","date":"2025-12-03","time":"22:52:43"},{"rt":null,"stimulus":"<p style=\"font-size: 50px; margin: 0; text-align: center;\">+</p>","response":null,"trial_type":"html-keyboard-response","trial_index":180,"plugin_version":"2.1.0","time_elapsed":405837,"subject_id":"87596","group":"Group1","full_date":"2025-12-03T22:52:43.598Z","date":"2025-12-03","time":"22:52:43"},{"task":"memory_phase","broad_category":"M","image_png":"M_Slate_11.png","image_id":315,"category_name":"Slate","category":20,"distinct_rating":2.75,"distinct_type":"Bottom","rt":null,"stimulus":"Stimuli_Rocks480/M_Slate_11.png","response":null,"trial_type":"image-keyboard-response","trial_index":181,"plugin_version":"2.1.0","time_elapsed":408339,"subject_id":"87596","group":"Group1","full_date":"2025-12-03T22:52:43.598Z","date":"2025-12-03","time":"22:52:43"},{"rt":null,"stimulus":"<p style=\"font-size: 50px; margin: 0; text-align: center;\">+</p>","response":null,"trial_type":"html-keyboard-response","trial_index":182,"plugin_version":"2.1.0","time_elapsed":409341,"subject_id":"87596","group":"Group1","full_date":"2025-12-03T22:52:43.598Z","date":"2025-12-03","time":"22:52:43"},{"task":"memory_phase","broad_category":"M","image_png":"M_Quartzite_13.png","image_id":285,"category_name":"Quartzite","category":18,"distinct_rating":2.27,"distinct_type":"Bottom","rt":null,"stimulus":"Stimuli_Rocks480/M_Quartzite_13.png","response":null,"trial_type":"image-keyboard-response","trial_index":183,"plugin_version":"2.1.0","time_elapsed":411844,"subject_id":"87596","group":"Group1","full_date":"2025-12-03T22:52:43.598Z","date":"2025-12-03","time":"22:52:43"},{"rt":null,"stimulus":"<p style=\"font-size: 50px; margin: 0; text-align: center;\">+</p>","response":null,"trial_type":"html-keyboard-response","trial_index":184,"plugin_version":"2.1.0","time_elapsed":412847,"subject_id":"87596","group":"Group1","full_date":"2025-12-03T22:52:43.598Z","date":"2025-12-03","time":"22:52:43"},{"task":"memory_phase","broad_category":"S","image_png":"S_Chert_10.png","image_id":362,"category_name":"Chert","category":23,"distinct_rating":7.17,"distinct_type":"Top","rt":null,"stimulus":"Stimuli_Rocks480/S_Chert_10.png","response":null,"trial_type":"image-keyboard-response","trial_index":185,"plugin_version":"2.1.0","time_elapsed":415350,"subject_id":"87596","group":"Group1","full_date":"2025-12-03T22:52:43.598Z","date":"2025-12-03","time":"22:52:43"},{"rt":null,"stimulus":"<p style=\"font-size: 50px; margin: 0; text-align: center;\">+</p>","response":null,"trial_type":"html-keyboard-response","trial_index":186,"plugin_version":"2.1.0","time_elapsed":416352,"subject_id":"87596","group":"Group1","full_date":"2025-12-03T22:52:43.598Z","date":"2025-12-03","time":"22:52:43"},{"task":"memory_phase","broad_category":"S","image_png":"S_Sandstone_03.png","image_id":451,"category_name":"Sandstone","category":29,"distinct_rating":1.86,"distinct_type":"Bottom","rt":null,"stimulus":"Stimuli_Rocks480/S_Sandstone_03.png","response":null,"trial_type":"image-keyboard-response","trial_index":187,"plugin_version":"2.1.0","time_elapsed":418854,"subject_id":"87596","group":"Group1","full_date":"2025-12-03T22:52:43.598Z","date":"2025-12-03","time":"22:52:43"},{"rt":null,"stimulus":"<p style=\"font-size: 50px; margin: 0; text-align: center;\">+</p>","response":null,"trial_type":"html-keyboard-response","trial_index":188,"plugin_version":"2.1.0","time_elapsed":419856,"subject_id":"87596","group":"Group1","full_date":"2025-12-03T22:52:43.598Z","date":"2025-12-03","time":"22:52:43"},{"task":"memory_phase","broad_category":"S","image_png":"S_Dolomite_14.png","image_id":398,"category_name":"Dolomite","category":25,"distinct_rating":1.43,"distinct_type":"Bottom","rt":null,"stimulus":"Stimuli_Rocks480/S_Dolomite_14.png","response":null,"trial_type":"image-keyboard-response","trial_index":189,"plugin_version":"2.1.0","time_elapsed":422359,"subject_id":"87596","group":"Group1","full_date":"2025-12-03T22:52:43.598Z","date":"2025-12-03","time":"22:52:43"},{"rt":null,"stimulus":"<p style=\"font-size: 50px; margin: 0; text-align: center;\">+</p>","response":null,"trial_type":"html-keyboard-response","trial_index":190,"plugin_version":"2.1.0","time_elapsed":423362,"subject_id":"87596","group":"Group1","full_date":"2025-12-03T22:52:43.598Z","date":"2025-12-03","time":"22:52:43"},{"task":"memory_phase","broad_category":"S","image_png":"S_Sandstone_15.png","image_id":463,"category_name":"Sandstone","category":29,"distinct_rating":2,"distinct_type":"Bottom","rt":null,"stimulus":"Stimuli_Rocks480/S_Sandstone_15.png","response":null,"trial_type":"image-keyboard-response","trial_index":191,"plugin_version":"2.1.0","time_elapsed":425865,"subject_id":"87596","group":"Group1","full_date":"2025-12-03T22:52:43.598Z","date":"2025-12-03","time":"22:52:43"},{"rt":null,"stimulus":"<p style=\"font-size: 50px; margin: 0; text-align: center;\">+</p>","response":null,"trial_type":"html-keyboard-response","trial_index":192,"plugin_version":"2.1.0","time_elapsed":426867,"subject_id":"87596","group":"Group1","full_date":"2025-12-03T22:52:43.598Z","date":"2025-12-03","time":"22:52:43"},{"task":"memory_phase","broad_category":"M","image_png":"M_Gneiss_05.png","image_id":197,"category_name":"Gneiss","category":13,"distinct_rating":2.97,"distinct_type":"Bottom","rt":null,"stimulus":"Stimuli_Rocks480/M_Gneiss_05.png","response":null,"trial_type":"image-keyboard-response","trial_index":193,"plugin_version":"2.1.0","time_elapsed":429370,"subject_id":"87596","group":"Group1","full_date":"2025-12-03T22:52:43.598Z","date":"2025-12-03","time":"22:52:43"},{"rt":null,"stimulus":"<p style=\"font-size: 50px; margin: 0; text-align: center;\">+</p>","response":null,"trial_type":"html-keyboard-response","trial_index":194,"plugin_version":"2.1.0","time_elapsed":430372,"subject_id":"87596","group":"Group1","full_date":"2025-12-03T22:52:43.598Z","date":"2025-12-03","time":"22:52:43"},{"task":"memory_phase","broad_category":"M","image_png":"M_Quartzite_08.png","image_id":280,"category_name":"Quartzite","category":18,"distinct_rating":2.15,"distinct_type":"Bottom","rt":null,"stimulus":"Stimuli_Rocks480/M_Quartzite_08.png","response":null,"trial_type":"image-keyboard-response","trial_index":195,"plugin_version":"2.1.0","time_elapsed":432876,"subject_id":"87596","group":"Group1","full_date":"2025-12-03T22:52:43.598Z","date":"2025-12-03","time":"22:52:43"},{"rt":null,"stimulus":"<p style=\"font-size: 50px; margin: 0; text-align: center;\">+</p>","response":null,"trial_type":"html-keyboard-response","trial_index":196,"plugin_version":"2.1.0","time_elapsed":433878,"subject_id":"87596","group":"Group1","full_date":"2025-12-03T22:52:43.598Z","date":"2025-12-03","time":"22:52:43"},{"task":"memory_phase","broad_category":"S","image_png":"S_Rock Salt_01.png","image_id":433,"category_name":"Rock Salt","category":28,"distinct_rating":7.18,"distinct_type":"Top","rt":null,"stimulus":"Stimuli_Rocks480/S_Rock Salt_01.png","response":null,"trial_type":"image-keyboard-response","trial_index":197,"plugin_version":"2.1.0","time_elapsed":436381,"subject_id":"87596","group":"Group1","full_date":"2025-12-03T22:52:43.598Z","date":"2025-12-03","time":"22:52:43"},{"rt":null,"stimulus":"<p style=\"font-size: 50px; margin: 0; text-align: center;\">+</p>","response":null,"trial_type":"html-keyboard-response","trial_index":198,"plugin_version":"2.1.0","time_elapsed":437383,"subject_id":"87596","group":"Group1","full_date":"2025-12-03T22:52:43.598Z","date":"2025-12-03","time":"22:52:43"},{"task":"memory_phase","broad_category":"I","image_png":"I_Basalt_01.png","image_id":17,"category_name":"Basalt","category":2,"distinct_rating":1.92,"distinct_type":"Bottom","rt":null,"stimulus":"Stimuli_Rocks480/I_Basalt_01.png","response":null,"trial_type":"image-keyboard-response","trial_index":199,"plugin_version":"2.1.0","time_elapsed":439886,"subject_id":"87596","group":"Group1","full_date":"2025-12-03T22:52:43.598Z","date":"2025-12-03","time":"22:52:43"},{"rt":null,"stimulus":"<p style=\"font-size: 50px; margin: 0; text-align: center;\">+</p>","response":null,"trial_type":"html-keyboard-response","trial_index":200,"plugin_version":"2.1.0","time_elapsed":440889,"subject_id":"87596","group":"Group1","full_date":"2025-12-03T22:52:43.598Z","date":"2025-12-03","time":"22:52:43"},{"task":"memory_phase","broad_category":"M","image_png":"M_Quartzite_05.png","image_id":277,"category_name":"Quartzite","category":18,"distinct_rating":2.23,"distinct_type":"Bottom","rt":null,"stimulus":"Stimuli_Rocks480/M_Quartzite_05.png","response":null,"trial_type":"image-keyboard-response","trial_index":201,"plugin_version":"2.1.0","time_elapsed":443393,"subject_id":"87596","group":"Group1","full_date":"2025-12-03T22:52:43.598Z","date":"2025-12-03","time":"22:52:43"},{"rt":null,"stimulus":"<p style=\"font-size: 50px; margin: 0; text-align: center;\">+</p>","response":null,"trial_type":"html-keyboard-response","trial_index":202,"plugin_version":"2.1.0","time_elapsed":444395,"subject_id":"87596","group":"Group1","full_date":"2025-12-03T22:52:43.598Z","date":"2025-12-03","time":"22:52:43"},{"task":"memory_phase","broad_category":"I","image_png":"I_Basalt_02.png","image_id":18,"category_name":"Basalt","category":2,"distinct_rating":1.84,"distinct_type":"Bottom","rt":null,"stimulus":"Stimuli_Rocks480/I_Basalt_02.png","response":null,"trial_type":"image-keyboard-response","trial_index":203,"plugin_version":"2.1.0","time_elapsed":446897,"subject_id":"87596","group":"Group1","full_date":"2025-12-03T22:52:43.598Z","date":"2025-12-03","time":"22:52:43"},{"rt":null,"stimulus":"<p style=\"font-size: 50px; margin: 0; text-align: center;\">+</p>","response":null,"trial_type":"html-keyboard-response","trial_index":204,"plugin_version":"2.1.0","time_elapsed":447898,"subject_id":"87596","group":"Group1","full_date":"2025-12-03T22:52:43.598Z","date":"2025-12-03","time":"22:52:43"},{"task":"memory_phase","broad_category":"M","image_png":"M_Marble_04.png","image_id":228,"category_name":"Marble","category":15,"distinct_rating":3.15,"distinct_type":"Bottom","rt":null,"stimulus":"Stimuli_Rocks480/M_Marble_04.png","response":null,"trial_type":"image-keyboard-response","trial_index":205,"plugin_version":"2.1.0","time_elapsed":450401,"subject_id":"87596","group":"Group1","full_date":"2025-12-03T22:52:43.598Z","date":"2025-12-03","time":"22:52:43"},{"rt":null,"stimulus":"<p style=\"font-size: 50px; margin: 0; text-align: center;\">+</p>","response":null,"trial_type":"html-keyboard-response","trial_index":206,"plugin_version":"2.1.0","time_elapsed":451404,"subject_id":"87596","group":"Group1","full_date":"2025-12-03T22:52:43.598Z","date":"2025-12-03","time":"22:52:43"},{"task":"memory_phase","broad_category":"I","image_png":"I_Gabbro_08.png","image_id":56,"category_name":"Gabbro","category":4,"distinct_rating":3.02,"distinct_type":"Bottom","rt":null,"stimulus":"Stimuli_Rocks480/I_Gabbro_08.png","response":null,"trial_type":"image-keyboard-response","trial_index":207,"plugin_version":"2.1.0","time_elapsed":453907,"subject_id":"87596","group":"Group1","full_date":"2025-12-03T22:52:43.598Z","date":"2025-12-03","time":"22:52:43"},{"rt":21055,"stimulus":"<p style=\"max-width: 760px; margin: auto; font-size: 35px; line-height: 1.5;\">You have completed 2 study phases. Now, we'll show you all the images again 1 more time.<br><br>Press SPACE to continue</p>","response":" ","trial_type":"html-keyboard-response","trial_index":208,"plugin_version":"2.1.0","time_elapsed":474963,"subject_id":"87596","group":"Group1","full_date":"2025-12-03T22:52:43.598Z","date":"2025-12-03","time":"22:52:43"},{"rt":null,"stimulus":"<p style=\"font-size: 50px; margin: 0; text-align: center;\">+</p>","response":null,"trial_type":"html-keyboard-response","trial_index":209,"plugin_version":"2.1.0","time_elapsed":475965,"subject_id":"87596","group":"Group1","full_date":"2025-12-03T22:52:43.598Z","date":"2025-12-03","time":"22:52:43"},{"task":"memory_phase","broad_category":"I","image_png":"I_Gabbro_11.png","image_id":59,"category_name":"Gabbro","category":4,"distinct_rating":1.99,"distinct_type":"Bottom","rt":null,"stimulus":"Stimuli_Rocks480/I_Gabbro_11.png","response":null,"trial_type":"image-keyboard-response","trial_index":210,"plugin_version":"2.1.0","time_elapsed":478468,"subject_id":"87596","group":"Group1","full_date":"2025-12-03T22:52:43.598Z","date":"2025-12-03","time":"22:52:43"},{"rt":null,"stimulus":"<p style=\"font-size: 50px; margin: 0; text-align: center;\">+</p>","response":null,"trial_type":"html-keyboard-response","trial_index":211,"plugin_version":"2.1.0","time_elapsed":479471,"subject_id":"87596","group":"Group1","full_date":"2025-12-03T22:52:43.598Z","date":"2025-12-03","time":"22:52:43"},{"task":"memory_phase","broad_category":"S","image_png":"S_Sandstone_16.png","image_id":464,"category_name":"Sandstone","category":29,"distinct_rating":1.93,"distinct_type":"Bottom","rt":null,"stimulus":"Stimuli_Rocks480/S_Sandstone_16.png","response":null,"trial_type":"image-keyboard-response","trial_index":212,"plugin_version":"2.1.0","time_elapsed":481974,"subject_id":"87596","group":"Group1","full_date":"2025-12-03T22:52:43.598Z","date":"2025-12-03","time":"22:52:43"},{"rt":null,"stimulus":"<p style=\"font-size: 50px; margin: 0; text-align: center;\">+</p>","response":null,"trial_type":"html-keyboard-response","trial_index":213,"plugin_version":"2.1.0","time_elapsed":482976,"subject_id":"87596","group":"Group1","full_date":"2025-12-03T22:52:43.598Z","date":"2025-12-03","time":"22:52:43"},{"task":"memory_phase","broad_category":"I","image_png":"I_Andesite_06.png","image_id":6,"category_name":"Andesite","category":1,"distinct_rating":3.17,"distinct_type":"Bottom","rt":null,"stimulus":"Stimuli_Rocks480/I_Andesite_06.png","response":null,"trial_type":"image-keyboard-response","trial_index":214,"plugin_version":"2.1.0","time_elapsed":485479,"subject_id":"87596","group":"Group1","full_date":"2025-12-03T22:52:43.598Z","date":"2025-12-03","time":"22:52:43"},{"rt":null,"stimulus":"<p style=\"font-size: 50px; margin: 0; text-align: center;\">+</p>","response":null,"trial_type":"html-keyboard-response","trial_index":215,"plugin_version":"2.1.0","time_elapsed":486481,"subject_id":"87596","group":"Group1","full_date":"2025-12-03T22:52:43.598Z","date":"2025-12-03","time":"22:52:43"},{"task":"memory_phase","broad_category":"M","image_png":"M_Slate_03.png","image_id":307,"category_name":"Slate","category":20,"distinct_rating":1.87,"distinct_type":"Bottom","rt":null,"stimulus":"Stimuli_Rocks480/M_Slate_03.png","response":null,"trial_type":"image-keyboard-response","trial_index":216,"plugin_version":"2.1.0","time_elapsed":488985,"subject_id":"87596","group":"Group1","full_date":"2025-12-03T22:52:43.598Z","date":"2025-12-03","time":"22:52:43"},{"rt":null,"stimulus":"<p style=\"font-size: 50px; margin: 0; text-align: center;\">+</p>","response":null,"trial_type":"html-keyboard-response","trial_index":217,"plugin_version":"2.1.0","time_elapsed":489987,"subject_id":"87596","group":"Group1","full_date":"2025-12-03T22:52:43.598Z","date":"2025-12-03","time":"22:52:43"},{"task":"memory_phase","broad_category":"I","image_png":"I_Rhyolite_11.png","image_id":155,"category_name":"Rhyolite","category":10,"distinct_rating":1.73,"distinct_type":"Bottom","rt":null,"stimulus":"Stimuli_Rocks480/I_Rhyolite_11.png","response":null,"trial_type":"image-keyboard-response","trial_index":218,"plugin_version":"2.1.0","time_elapsed":492491,"subject_id":"87596","group":"Group1","full_date":"2025-12-03T22:52:43.598Z","date":"2025-12-03","time":"22:52:43"},{"rt":null,"stimulus":"<p style=\"font-size: 50px; margin: 0; text-align: center;\">+</p>","response":null,"trial_type":"html-keyboard-response","trial_index":219,"plugin_version":"2.1.0","time_elapsed":493493,"subject_id":"87596","group":"Group1","full_date":"2025-12-03T22:52:43.598Z","date":"2025-12-03","time":"22:52:43"},{"task":"memory_phase","broad_category":"S","image_png":"S_Sandstone_03.png","image_id":451,"category_name":"Sandstone","category":29,"distinct_rating":1.86,"distinct_type":"Bottom","rt":null,"stimulus":"Stimuli_Rocks480/S_Sandstone_03.png","response":null,"trial_type":"image-keyboard-response","trial_index":220,"plugin_version":"2.1.0","time_elapsed":495996,"subject_id":"87596","group":"Group1","full_date":"2025-12-03T22:52:43.598Z","date":"2025-12-03","time":"22:52:43"},{"rt":null,"stimulus":"<p style=\"font-size: 50px; margin: 0; text-align: center;\">+</p>","response":null,"trial_type":"html-keyboard-response","trial_index":221,"plugin_version":"2.1.0","time_elapsed":496999,"subject_id":"87596","group":"Group1","full_date":"2025-12-03T22:52:43.598Z","date":"2025-12-03","time":"22:52:43"},{"task":"memory_phase","broad_category":"M","image_png":"M_Slate_15.png","image_id":319,"category_name":"Slate","category":20,"distinct_rating":2.13,"distinct_type":"Bottom","rt":null,"stimulus":"Stimuli_Rocks480/M_Slate_15.png","response":null,"trial_type":"image-keyboard-response","trial_index":222,"plugin_version":"2.1.0","time_elapsed":499502,"subject_id":"87596","group":"Group1","full_date":"2025-12-03T22:52:43.598Z","date":"2025-12-03","time":"22:52:43"},{"rt":null,"stimulus":"<p style=\"font-size: 50px; margin: 0; text-align: center;\">+</p>","response":null,"trial_type":"html-keyboard-response","trial_index":223,"plugin_version":"2.1.0","time_elapsed":500504,"subject_id":"87596","group":"Group1","full_date":"2025-12-03T22:52:43.598Z","date":"2025-12-03","time":"22:52:43"},{"task":"memory_phase","broad_category":"M","image_png":"M_Slate_11.png","image_id":315,"category_name":"Slate","category":20,"distinct_rating":2.75,"distinct_type":"Bottom","rt":null,"stimulus":"Stimuli_Rocks480/M_Slate_11.png","response":null,"trial_type":"image-keyboard-response","trial_index":224,"plugin_version":"2.1.0","time_elapsed":503008,"subject_id":"87596","group":"Group1","full_date":"2025-12-03T22:52:43.598Z","date":"2025-12-03","time":"22:52:43"},{"rt":null,"stimulus":"<p style=\"font-size: 50px; margin: 0; text-align: center;\">+</p>","response":null,"trial_type":"html-keyboard-response","trial_index":225,"plugin_version":"2.1.0","time_elapsed":504011,"subject_id":"87596","group":"Group1","full_date":"2025-12-03T22:52:43.598Z","date":"2025-12-03","time":"22:52:43"},{"task":"memory_phase","broad_category":"I","image_png":"I_Pegmatite_10.png","image_id":106,"category_name":"Pegmatite","category":7,"distinct_rating":7.66,"distinct_type":"Top","rt":null,"stimulus":"Stimuli_Rocks480/I_Pegmatite_10.png","response":null,"trial_type":"image-keyboard-response","trial_index":226,"plugin_version":"2.1.0","time_elapsed":506514,"subject_id":"87596","group":"Group1","full_date":"2025-12-03T22:52:43.598Z","date":"2025-12-03","time":"22:52:43"},{"rt":null,"stimulus":"<p style=\"font-size: 50px; margin: 0; text-align: center;\">+</p>","response":null,"trial_type":"html-keyboard-response","trial_index":227,"plugin_version":"2.1.0","time_elapsed":507516,"subject_id":"87596","group":"Group1","full_date":"2025-12-03T22:52:43.598Z","date":"2025-12-03","time":"22:52:43"},{"task":"memory_phase","broad_category":"S","image_png":"S_Rock Gypsum_04.png","image_id":420,"category_name":"Rock Gypsum","category":27,"distinct_rating":7.61,"distinct_type":"Top","rt":null,"stimulus":"Stimuli_Rocks480/S_Rock Gypsum_04.png","response":null,"trial_type":"image-keyboard-response","trial_index":228,"plugin_version":"2.1.0","time_elapsed":510019,"subject_id":"87596","group":"Group1","full_date":"2025-12-03T22:52:43.598Z","date":"2025-12-03","time":"22:52:43"},{"rt":null,"stimulus":"<p style=\"font-size: 50px; margin: 0; text-align: center;\">+</p>","response":null,"trial_type":"html-keyboard-response","trial_index":229,"plugin_version":"2.1.0","time_elapsed":511021,"subject_id":"87596","group":"Group1","full_date":"2025-12-03T22:52:43.598Z","date":"2025-12-03","time":"22:52:43"},{"task":"memory_phase","broad_category":"I","image_png":"I_Rhyolite_14.png","image_id":158,"category_name":"Rhyolite","category":10,"distinct_rating":2.59,"distinct_type":"Bottom","rt":null,"stimulus":"Stimuli_Rocks480/I_Rhyolite_14.png","response":null,"trial_type":"image-keyboard-response","trial_index":230,"plugin_version":"2.1.0","time_elapsed":513524,"subject_id":"87596","group":"Group1","full_date":"2025-12-03T22:52:43.598Z","date":"2025-12-03","time":"22:52:43"},{"rt":null,"stimulus":"<p style=\"font-size: 50px; margin: 0; text-align: center;\">+</p>","response":null,"trial_type":"html-keyboard-response","trial_index":231,"plugin_version":"2.1.0","time_elapsed":514526,"subject_id":"87596","group":"Group1","full_date":"2025-12-03T22:52:43.598Z","date":"2025-12-03","time":"22:52:43"},{"task":"memory_phase","broad_category":"I","image_png":"I_Basalt_01.png","image_id":17,"category_name":"Basalt","category":2,"distinct_rating":1.92,"distinct_type":"Bottom","rt":null,"stimulus":"Stimuli_Rocks480/I_Basalt_01.png","response":null,"trial_type":"image-keyboard-response","trial_index":232,"plugin_version":"2.1.0","time_elapsed":517030,"subject_id":"87596","group":"Group1","full_date":"2025-12-03T22:52:43.598Z","date":"2025-12-03","time":"22:52:43"},{"rt":null,"stimulus":"<p style=\"font-size: 50px; margin: 0; text-align: center;\">+</p>","response":null,"trial_type":"html-keyboard-response","trial_index":233,"plugin_version":"2.1.0","time_elapsed":518032,"subject_id":"87596","group":"Group1","full_date":"2025-12-03T22:52:43.598Z","date":"2025-12-03","time":"22:52:43"},{"task":"memory_phase","broad_category":"I","image_png":"I_Obsidian_05.png","image_id":85,"category_name":"Obsidian","category":6,"distinct_rating":7.32,"distinct_type":"Top","rt":null,"stimulus":"Stimuli_Rocks480/I_Obsidian_05.png","response":null,"trial_type":"image-keyboard-response","trial_index":234,"plugin_version":"2.1.0","time_elapsed":520535,"subject_id":"87596","group":"Group1","full_date":"2025-12-03T22:52:43.598Z","date":"2025-12-03","time":"22:52:43"},{"rt":null,"stimulus":"<p style=\"font-size: 50px; margin: 0; text-align: center;\">+</p>","response":null,"trial_type":"html-keyboard-response","trial_index":235,"plugin_version":"2.1.0","time_elapsed":521538,"subject_id":"87596","group":"Group1","full_date":"2025-12-03T22:52:43.598Z","date":"2025-12-03","time":"22:52:43"},{"task":"memory_phase","broad_category":"I","image_png":"I_Basalt_02.png","image_id":18,"category_name":"Basalt","category":2,"distinct_rating":1.84,"distinct_type":"Bottom","rt":null,"stimulus":"Stimuli_Rocks480/I_Basalt_02.png","response":null,"trial_type":"image-keyboard-response","trial_index":236,"plugin_version":"2.1.0","time_elapsed":524042,"subject_id":"87596","group":"Group1","full_date":"2025-12-03T22:52:43.598Z","date":"2025-12-03","time":"22:52:43"},{"rt":null,"stimulus":"<p style=\"font-size: 50px; margin: 0; text-align: center;\">+</p>","response":null,"trial_type":"html-keyboard-response","trial_index":237,"plugin_version":"2.1.0","time_elapsed":525044,"subject_id":"87596","group":"Group1","full_date":"2025-12-03T22:52:43.598Z","date":"2025-12-03","time":"22:52:43"},{"task":"memory_phase","broad_category":"S","image_png":"S_Shale_01.png","image_id":465,"category_name":"Shale","category":30,"distinct_rating":2.7,"distinct_type":"Bottom","rt":null,"stimulus":"Stimuli_Rocks480/S_Shale_01.png","response":null,"trial_type":"image-keyboard-response","trial_index":238,"plugin_version":"2.1.0","time_elapsed":527547,"subject_id":"87596","group":"Group1","full_date":"2025-12-03T22:52:43.598Z","date":"2025-12-03","time":"22:52:43"},{"rt":null,"stimulus":"<p style=\"font-size: 50px; margin: 0; text-align: center;\">+</p>","response":null,"trial_type":"html-keyboard-response","trial_index":239,"plugin_version":"2.1.0","time_elapsed":528550,"subject_id":"87596","group":"Group1","full_date":"2025-12-03T22:52:43.598Z","date":"2025-12-03","time":"22:52:43"},{"task":"memory_phase","broad_category":"S","image_png":"S_Conglomerate_05.png","image_id":373,"category_name":"Conglomerate","category":24,"distinct_rating":7.32,"distinct_type":"Top","rt":null,"stimulus":"Stimuli_Rocks480/S_Conglomerate_05.png","response":null,"trial_type":"image-keyboard-response","trial_index":240,"plugin_version":"2.1.0","time_elapsed":531053,"subject_id":"87596","group":"Group1","full_date":"2025-12-03T22:52:43.598Z","date":"2025-12-03","time":"22:52:43"},{"rt":null,"stimulus":"<p style=\"font-size: 50px; margin: 0; text-align: center;\">+</p>","response":null,"trial_type":"html-keyboard-response","trial_index":241,"plugin_version":"2.1.0","time_elapsed":532055,"subject_id":"87596","group":"Group1","full_date":"2025-12-03T22:52:43.598Z","date":"2025-12-03","time":"22:52:43"},{"task":"memory_phase","broad_category":"S","image_png":"S_Chert_10.png","image_id":362,"category_name":"Chert","category":23,"distinct_rating":7.17,"distinct_type":"Top","rt":null,"stimulus":"Stimuli_Rocks480/S_Chert_10.png","response":null,"trial_type":"image-keyboard-response","trial_index":242,"plugin_version":"2.1.0","time_elapsed":534557,"subject_id":"87596","group":"Group1","full_date":"2025-12-03T22:52:43.598Z","date":"2025-12-03","time":"22:52:43"},{"rt":null,"stimulus":"<p style=\"font-size: 50px; margin: 0; text-align: center;\">+</p>","response":null,"trial_type":"html-keyboard-response","trial_index":243,"plugin_version":"2.1.0","time_elapsed":535559,"subject_id":"87596","group":"Group1","full_date":"2025-12-03T22:52:43.598Z","date":"2025-12-03","time":"22:52:43"},{"task":"memory_phase","broad_category":"M","image_png":"M_Quartzite_05.png","image_id":277,"category_name":"Quartzite","category":18,"distinct_rating":2.23,"distinct_type":"Bottom","rt":null,"stimulus":"Stimuli_Rocks480/M_Quartzite_05.png","response":null,"trial_type":"image-keyboard-response","trial_index":244,"plugin_version":"2.1.0","time_elapsed":538062,"subject_id":"87596","group":"Group1","full_date":"2025-12-03T22:52:43.598Z","date":"2025-12-03","time":"22:52:43"},{"rt":null,"stimulus":"<p style=\"font-size: 50px; margin: 0; text-align: center;\">+</p>","response":null,"trial_type":"html-keyboard-response","trial_index":245,"plugin_version":"2.1.0","time_elapsed":539065,"subject_id":"87596","group":"Group1","full_date":"2025-12-03T22:52:43.598Z","date":"2025-12-03","time":"22:52:43"},{"task":"memory_phase","broad_category":"M","image_png":"M_Phyllite_10.png","image_id":266,"category_name":"Phyllite","category":17,"distinct_rating":2.6,"distinct_type":"Bottom","rt":null,"stimulus":"Stimuli_Rocks480/M_Phyllite_10.png","response":null,"trial_type":"image-keyboard-response","trial_index":246,"plugin_version":"2.1.0","time_elapsed":541569,"subject_id":"87596","group":"Group1","full_date":"2025-12-03T22:52:43.598Z","date":"2025-12-03","time":"22:52:43"},{"rt":null,"stimulus":"<p style=\"font-size: 50px; margin: 0; text-align: center;\">+</p>","response":null,"trial_type":"html-keyboard-response","trial_index":247,"plugin_version":"2.1.0","time_elapsed":542572,"subject_id":"87596","group":"Group1","full_date":"2025-12-03T22:52:43.598Z","date":"2025-12-03","time":"22:52:43"},{"task":"memory_phase","broad_category":"S","image_png":"S_Rock Salt_01.png","image_id":433,"category_name":"Rock Salt","category":28,"distinct_rating":7.18,"distinct_type":"Top","rt":null,"stimulus":"Stimuli_Rocks480/S_Rock Salt_01.png","response":null,"trial_type":"image-keyboard-response","trial_index":248,"plugin_version":"2.1.0","time_elapsed":545075,"