[{"width":1272,"height":674,"webaudio":true,"browser":"edge-chromium","browser_version":"142.0.0","mobile":false,"os":"Windows 10","fullscreen":true,"vsync_rate":60.19,"webcam":true,"microphone":true,"trial_type":"browser-check","trial_index":0,"plugin_version":"2.1.0","time_elapsed":1009,"subject_id":"87728","group":"Group2","full_date":"2025-12-03T20:14:15.229Z","date":"2025-12-03","time":"20:14:15"},{"success":true,"timeout":false,"failed_images":[],"failed_audio":[],"failed_video":[],"trial_type":"preload","trial_index":1,"plugin_version":"2.1.0","time_elapsed":14506,"subject_id":"87728","group":"Group2","full_date":"2025-12-03T20:14:15.229Z","date":"2025-12-03","time":"20:14:15"},{"rt":15216,"url":"SONA_consent_memorability.html","trial_type":"external-html","trial_index":2,"plugin_version":"2.1.0","time_elapsed":29745,"subject_id":"87728","group":"Group2","full_date":"2025-12-03T20:14:15.229Z","date":"2025-12-03","time":"20:14:15"},{"success":true,"rt":2049,"trial_type":"fullscreen","trial_index":3,"plugin_version":"2.1.0","time_elapsed":32804,"subject_id":"87728","group":"Group2","full_date":"2025-12-03T20:14:15.229Z","date":"2025-12-03","time":"20:14:15"},{"rt":20393,"stimulus":"<div style=\"max-width: 760px; margin: auto; font-size: 20px; line-height: 1.5;\">\n      <h1 style=\"text-align:center; font-size: 30px;\">Instructions</h1>\n      <p>\n        Welcome to the study on <b>visual memory</b>. This experiment consists of <b>two phases</b>: \n        a <b>study phase</b> and a <b>test phase</b>.\n      </p>\n      <p>\n        In the study phase, you will see a series of rock images along with their category labels.\n        The images will appear one at a time.\n        <b>Your task</b> is to learn the categories to which the rock images belong \n        and to remember each image as accurately as possible.\n      </p> \n      <p>\n        Note that we will repeat the study phase <b>3 times</b>, \n        so you will have multiple opportunities to see and remember each image.\n      </p>\n      <p>\n        After the study phase, <b>your memory will be tested</b>. \n        Additional instructions for the test phase will be provided at that time.\n      </p>\n      <p>\n        If your computer has multiple <b>language settings</b> (e.g., English and another language),\n        please make sure it is set to English before starting.\n      </p>\n      <p>\n        You can track your progress using the <b>completion bar</b> at the top of the screen. \n        Please note that the bar will refresh when the test phase begins \n        to give you an accurate sense of your progress in both phases.\n      </p> \n      <p>\n        Press the button below when you are ready to begin.\n      </p>\n    </div>","response":0,"trial_type":"html-button-response","trial_index":4,"plugin_version":"2.1.0","time_elapsed":53199,"subject_id":"87728","group":"Group2","full_date":"2025-12-03T20:14:15.229Z","date":"2025-12-03","time":"20:14:15"},{"rt":null,"stimulus":"<p style=\"font-size: 50px; margin: 0; text-align: center;\">+</p>","response":null,"trial_type":"html-keyboard-response","trial_index":5,"plugin_version":"2.1.0","time_elapsed":54213,"subject_id":"87728","group":"Group2","full_date":"2025-12-03T20:14:15.229Z","date":"2025-12-03","time":"20:14:15"},{"task":"memory_phase","broad_category":"M","image_png":"M_Quartzite_12.png","image_id":284,"category_name":"Quartzite","category":18,"distinct_rating":1.92,"distinct_type":"Bottom","rt":null,"stimulus":"Stimuli_Rocks480/M_Quartzite_12.png","response":null,"trial_type":"image-keyboard-response","trial_index":6,"plugin_version":"2.1.0","time_elapsed":56723,"subject_id":"87728","group":"Group2","full_date":"2025-12-03T20:14:15.229Z","date":"2025-12-03","time":"20:14:15"},{"rt":null,"stimulus":"<p style=\"font-size: 50px; margin: 0; text-align: center;\">+</p>","response":null,"trial_type":"html-keyboard-response","trial_index":7,"plugin_version":"2.1.0","time_elapsed":57727,"subject_id":"87728","group":"Group2","full_date":"2025-12-03T20:14:15.229Z","date":"2025-12-03","time":"20:14:15"},{"task":"memory_phase","broad_category":"I","image_png":"I_Rhyolite_08.png","image_id":152,"category_name":"Rhyolite","category":10,"distinct_rating":1.38,"distinct_type":"Bottom","rt":null,"stimulus":"Stimuli_Rocks480/I_Rhyolite_08.png","response":null,"trial_type":"image-keyboard-response","trial_index":8,"plugin_version":"2.1.0","time_elapsed":60244,"subject_id":"87728","group":"Group2","full_date":"2025-12-03T20:14:15.229Z","date":"2025-12-03","time":"20:14:15"},{"rt":null,"stimulus":"<p style=\"font-size: 50px; margin: 0; text-align: center;\">+</p>","response":null,"trial_type":"html-keyboard-response","trial_index":9,"plugin_version":"2.1.0","time_elapsed":61251,"subject_id":"87728","group":"Group2","full_date":"2025-12-03T20:14:15.229Z","date":"2025-12-03","time":"20:14:15"},{"task":"memory_phase","broad_category":"M","image_png":"M_Marble_14.png","image_id":238,"category_name":"Marble","category":15,"distinct_rating":3.31,"distinct_type":"Bottom","rt":null,"stimulus":"Stimuli_Rocks480/M_Marble_14.png","response":null,"trial_type":"image-keyboard-response","trial_index":10,"plugin_version":"2.1.0","time_elapsed":63756,"subject_id":"87728","group":"Group2","full_date":"2025-12-03T20:14:15.229Z","date":"2025-12-03","time":"20:14:15"},{"rt":null,"stimulus":"<p style=\"font-size: 50px; margin: 0; text-align: center;\">+</p>","response":null,"trial_type":"html-keyboard-response","trial_index":11,"plugin_version":"2.1.0","time_elapsed":64765,"subject_id":"87728","group":"Group2","full_date":"2025-12-03T20:14:15.229Z","date":"2025-12-03","time":"20:14:15"},{"task":"memory_phase","broad_category":"S","image_png":"S_Rock Salt_13.png","image_id":445,"category_name":"Rock Salt","category":28,"distinct_rating":7.58,"distinct_type":"Top","rt":null,"stimulus":"Stimuli_Rocks480/S_Rock Salt_13.png","response":null,"trial_type":"image-keyboard-response","trial_index":12,"plugin_version":"2.1.0","time_elapsed":67277,"subject_id":"87728","group":"Group2","full_date":"2025-12-03T20:14:15.229Z","date":"2025-12-03","time":"20:14:15"},{"rt":null,"stimulus":"<p style=\"font-size: 50px; margin: 0; text-align: center;\">+</p>","response":null,"trial_type":"html-keyboard-response","trial_index":13,"plugin_version":"2.1.0","time_elapsed":68288,"subject_id":"87728","group":"Group2","full_date":"2025-12-03T20:14:15.229Z","date":"2025-12-03","time":"20:14:15"},{"task":"memory_phase","broad_category":"S","image_png":"S_Dolomite_16.png","image_id":400,"category_name":"Dolomite","category":25,"distinct_rating":1.71,"distinct_type":"Bottom","rt":null,"stimulus":"Stimuli_Rocks480/S_Dolomite_16.png","response":null,"trial_type":"image-keyboard-response","trial_index":14,"plugin_version":"2.1.0","time_elapsed":70795,"subject_id":"87728","group":"Group2","full_date":"2025-12-03T20:14:15.229Z","date":"2025-12-03","time":"20:14:15"},{"rt":null,"stimulus":"<p style=\"font-size: 50px; margin: 0; text-align: center;\">+</p>","response":null,"trial_type":"html-keyboard-response","trial_index":15,"plugin_version":"2.1.0","time_elapsed":71811,"subject_id":"87728","group":"Group2","full_date":"2025-12-03T20:14:15.229Z","date":"2025-12-03","time":"20:14:15"},{"task":"memory_phase","broad_category":"I","image_png":"I_Pumice_01.png","image_id":129,"category_name":"Pumice","category":9,"distinct_rating":3.25,"distinct_type":"Bottom","rt":null,"stimulus":"Stimuli_Rocks480/I_Pumice_01.png","response":null,"trial_type":"image-keyboard-response","trial_index":16,"plugin_version":"2.1.0","time_elapsed":74321,"subject_id":"87728","group":"Group2","full_date":"2025-12-03T20:14:15.229Z","date":"2025-12-03","time":"20:14:15"},{"rt":null,"stimulus":"<p style=\"font-size: 50px; margin: 0; text-align: center;\">+</p>","response":null,"trial_type":"html-keyboard-response","trial_index":17,"plugin_version":"2.1.0","time_elapsed":75327,"subject_id":"87728","group":"Group2","full_date":"2025-12-03T20:14:15.229Z","date":"2025-12-03","time":"20:14:15"},{"task":"memory_phase","broad_category":"M","image_png":"M_Gneiss_15.png","image_id":207,"category_name":"Gneiss","category":13,"distinct_rating":3.11,"distinct_type":"Bottom","rt":null,"stimulus":"Stimuli_Rocks480/M_Gneiss_15.png","response":null,"trial_type":"image-keyboard-response","trial_index":18,"plugin_version":"2.1.0","time_elapsed":77841,"subject_id":"87728","group":"Group2","full_date":"2025-12-03T20:14:15.229Z","date":"2025-12-03","time":"20:14:15"},{"rt":null,"stimulus":"<p style=\"font-size: 50px; margin: 0; text-align: center;\">+</p>","response":null,"trial_type":"html-keyboard-response","trial_index":19,"plugin_version":"2.1.0","time_elapsed":78854,"subject_id":"87728","group":"Group2","full_date":"2025-12-03T20:14:15.229Z","date":"2025-12-03","time":"20:14:15"},{"task":"memory_phase","broad_category":"S","image_png":"S_Shale_03.png","image_id":467,"category_name":"Shale","category":30,"distinct_rating":1.95,"distinct_type":"Bottom","rt":null,"stimulus":"Stimuli_Rocks480/S_Shale_03.png","response":null,"trial_type":"image-keyboard-response","trial_index":20,"plugin_version":"2.1.0","time_elapsed":81362,"subject_id":"87728","group":"Group2","full_date":"2025-12-03T20:14:15.229Z","date":"2025-12-03","time":"20:14:15"},{"rt":null,"stimulus":"<p style=\"font-size: 50px; margin: 0; text-align: center;\">+</p>","response":null,"trial_type":"html-keyboard-response","trial_index":21,"plugin_version":"2.1.0","time_elapsed":82379,"subject_id":"87728","group":"Group2","full_date":"2025-12-03T20:14:15.229Z","date":"2025-12-03","time":"20:14:15"},{"task":"memory_phase","broad_category":"I","image_png":"I_Andesite_03.png","image_id":3,"category_name":"Andesite","category":1,"distinct_rating":3.17,"distinct_type":"Bottom","rt":null,"stimulus":"Stimuli_Rocks480/I_Andesite_03.png","response":null,"trial_type":"image-keyboard-response","trial_index":22,"plugin_version":"2.1.0","time_elapsed":84887,"subject_id":"87728","group":"Group2","full_date":"2025-12-03T20:14:15.229Z","date":"2025-12-03","time":"20:14:15"},{"rt":null,"stimulus":"<p style=\"font-size: 50px; margin: 0; text-align: center;\">+</p>","response":null,"trial_type":"html-keyboard-response","trial_index":23,"plugin_version":"2.1.0","time_elapsed":85896,"subject_id":"87728","group":"Group2","full_date":"2025-12-03T20:14:15.229Z","date":"2025-12-03","time":"20:14:15"},{"task":"memory_phase","broad_category":"I","image_png":"I_Andesite_09.png","image_id":9,"category_name":"Andesite","category":1,"distinct_rating":2.49,"distinct_type":"Bottom","rt":null,"stimulus":"Stimuli_Rocks480/I_Andesite_09.png","response":null,"trial_type":"image-keyboard-response","trial_index":24,"plugin_version":"2.1.0","time_elapsed":88404,"subject_id":"87728","group":"Group2","full_date":"2025-12-03T20:14:15.229Z","date":"2025-12-03","time":"20:14:15"},{"rt":null,"stimulus":"<p style=\"font-size: 50px; margin: 0; text-align: center;\">+</p>","response":null,"trial_type":"html-keyboard-response","trial_index":25,"plugin_version":"2.1.0","time_elapsed":89412,"subject_id":"87728","group":"Group2","full_date":"2025-12-03T20:14:15.229Z","date":"2025-12-03","time":"20:14:15"},{"task":"memory_phase","broad_category":"I","image_png":"I_Basalt_10.png","image_id":26,"category_name":"Basalt","category":2,"distinct_rating":2.76,"distinct_type":"Bottom","rt":null,"stimulus":"Stimuli_Rocks480/I_Basalt_10.png","response":null,"trial_type":"image-keyboard-response","trial_index":26,"plugin_version":"2.1.0","time_elapsed":91929,"subject_id":"87728","group":"Group2","full_date":"2025-12-03T20:14:15.229Z","date":"2025-12-03","time":"20:14:15"},{"rt":null,"stimulus":"<p style=\"font-size: 50px; margin: 0; text-align: center;\">+</p>","response":null,"trial_type":"html-keyboard-response","trial_index":27,"plugin_version":"2.1.0","time_elapsed":92932,"subject_id":"87728","group":"Group2","full_date":"2025-12-03T20:14:15.229Z","date":"2025-12-03","time":"20:14:15"},{"task":"memory_phase","broad_category":"S","image_png":"S_Conglomerate_14.png","image_id":382,"category_name":"Conglomerate","category":24,"distinct_rating":6.86,"distinct_type":"Top","rt":null,"stimulus":"Stimuli_Rocks480/S_Conglomerate_14.png","response":null,"trial_type":"image-keyboard-response","trial_index":28,"plugin_version":"2.1.0","time_elapsed":95446,"subject_id":"87728","group":"Group2","full_date":"2025-12-03T20:14:15.229Z","date":"2025-12-03","time":"20:14:15"},{"rt":null,"stimulus":"<p style=\"font-size: 50px; margin: 0; text-align: center;\">+</p>","response":null,"trial_type":"html-keyboard-response","trial_index":29,"plugin_version":"2.1.0","time_elapsed":96462,"subject_id":"87728","group":"Group2","full_date":"2025-12-03T20:14:15.229Z","date":"2025-12-03","time":"20:14:15"},{"task":"memory_phase","broad_category":"I","image_png":"I_Basalt_08.png","image_id":24,"category_name":"Basalt","category":2,"distinct_rating":2.31,"distinct_type":"Bottom","rt":null,"stimulus":"Stimuli_Rocks480/I_Basalt_08.png","response":null,"trial_type":"image-keyboard-response","trial_index":30,"plugin_version":"2.1.0","time_elapsed":98969,"subject_id":"87728","group":"Group2","full_date":"2025-12-03T20:14:15.229Z","date":"2025-12-03","time":"20:14:15"},{"rt":null,"stimulus":"<p style=\"font-size: 50px; margin: 0; text-align: center;\">+</p>","response":null,"trial_type":"html-keyboard-response","trial_index":31,"plugin_version":"2.1.0","time_elapsed":99979,"subject_id":"87728","group":"Group2","full_date":"2025-12-03T20:14:15.229Z","date":"2025-12-03","time":"20:14:15"},{"task":"memory_phase","broad_category":"I","image_png":"I_Rhyolite_10.png","image_id":154,"category_name":"Rhyolite","category":10,"distinct_rating":2.88,"distinct_type":"Bottom","rt":null,"stimulus":"Stimuli_Rocks480/I_Rhyolite_10.png","response":null,"trial_type":"image-keyboard-response","trial_index":32,"plugin_version":"2.1.0","time_elapsed":102488,"subject_id":"87728","group":"Group2","full_date":"2025-12-03T20:14:15.229Z","date":"2025-12-03","time":"20:14:15"},{"rt":null,"stimulus":"<p style=\"font-size: 50px; margin: 0; text-align: center;\">+</p>","response":null,"trial_type":"html-keyboard-response","trial_index":33,"plugin_version":"2.1.0","time_elapsed":103514,"subject_id":"87728","group":"Group2","full_date":"2025-12-03T20:14:15.229Z","date":"2025-12-03","time":"20:14:15"},{"task":"memory_phase","broad_category":"M","image_png":"M_Phyllite_02.png","image_id":258,"category_name":"Phyllite","category":17,"distinct_rating":2.89,"distinct_type":"Bottom","rt":null,"stimulus":"Stimuli_Rocks480/M_Phyllite_02.png","response":null,"trial_type":"image-keyboard-response","trial_index":34,"plugin_version":"2.1.0","time_elapsed":106028,"subject_id":"87728","group":"Group2","full_date":"2025-12-03T20:14:15.229Z","date":"2025-12-03","time":"20:14:15"},{"rt":null,"stimulus":"<p style=\"font-size: 50px; margin: 0; text-align: center;\">+</p>","response":null,"trial_type":"html-keyboard-response","trial_index":35,"plugin_version":"2.1.0","time_elapsed":107038,"subject_id":"87728","group":"Group2","full_date":"2025-12-03T20:14:15.229Z","date":"2025-12-03","time":"20:14:15"},{"task":"memory_phase","broad_category":"S","image_png":"S_Sandstone_04.png","image_id":452,"category_name":"Sandstone","category":29,"distinct_rating":1.8,"distinct_type":"Bottom","rt":null,"stimulus":"Stimuli_Rocks480/S_Sandstone_04.png","response":null,"trial_type":"image-keyboard-response","trial_index":36,"plugin_version":"2.1.0","time_elapsed":109559,"subject_id":"87728","group":"Group2","full_date":"2025-12-03T20:14:15.229Z","date":"2025-12-03","time":"20:14:15"},{"rt":null,"stimulus":"<p style=\"font-size: 50px; margin: 0; text-align: center;\">+</p>","response":null,"trial_type":"html-keyboard-response","trial_index":37,"plugin_version":"2.1.0","time_elapsed":110573,"subject_id":"87728","group":"Group2","full_date":"2025-12-03T20:14:15.229Z","date":"2025-12-03","time":"20:14:15"},{"task":"memory_phase","broad_category":"M","image_png":"M_Phyllite_13.png","image_id":269,"category_name":"Phyllite","category":17,"distinct_rating":2.8,"distinct_type":"Bottom","rt":null,"stimulus":"Stimuli_Rocks480/M_Phyllite_13.png","response":null,"trial_type":"image-keyboard-response","trial_index":38,"plugin_version":"2.1.0","time_elapsed":113088,"subject_id":"87728","group":"Group2","full_date":"2025-12-03T20:14:15.229Z","date":"2025-12-03","time":"20:14:15"},{"rt":null,"stimulus":"<p style=\"font-size: 50px; margin: 0; text-align: center;\">+</p>","response":null,"trial_type":"html-keyboard-response","trial_index":39,"plugin_version":"2.1.0","time_elapsed":114102,"subject_id":"87728","group":"Group2","full_date":"2025-12-03T20:14:15.229Z","date":"2025-12-03","time":"20:14:15"},{"task":"memory_phase","broad_category":"M","image_png":"M_Slate_10.png","image_id":314,"category_name":"Slate","category":20,"distinct_rating":1.94,"distinct_type":"Bottom","rt":null,"stimulus":"Stimuli_Rocks480/M_Slate_10.png","response":null,"trial_type":"image-keyboard-response","trial_index":40,"plugin_version":"2.1.0","time_elapsed":116606,"subject_id":"87728","group":"Group2","full_date":"2025-12-03T20:14:15.229Z","date":"2025-12-03","time":"20:14:15"},{"rt":null,"stimulus":"<p style=\"font-size: 50px; margin: 0; text-align: center;\">+</p>","response":null,"trial_type":"html-keyboard-response","trial_index":41,"plugin_version":"2.1.0","time_elapsed":117612,"subject_id":"87728","group":"Group2","full_date":"2025-12-03T20:14:15.229Z","date":"2025-12-03","time":"20:14:15"},{"task":"memory_phase","broad_category":"I","image_png":"I_Pumice_13.png","image_id":141,"category_name":"Pumice","category":9,"distinct_rating":3.12,"distinct_type":"Bottom","rt":null,"stimulus":"Stimuli_Rocks480/I_Pumice_13.png","response":null,"trial_type":"image-keyboard-response","trial_index":42,"plugin_version":"2.1.0","time_elapsed":120125,"subject_id":"87728","group":"Group2","full_date":"2025-12-03T20:14:15.229Z","date":"2025-12-03","time":"20:14:15"},{"rt":null,"stimulus":"<p style=\"font-size: 50px; margin: 0; text-align: center;\">+</p>","response":null,"trial_type":"html-keyboard-response","trial_index":43,"plugin_version":"2.1.0","time_elapsed":121139,"subject_id":"87728","group":"Group2","full_date":"2025-12-03T20:14:15.229Z","date":"2025-12-03","time":"20:14:15"},{"task":"memory_phase","broad_category":"M","image_png":"M_Slate_14.png","image_id":318,"category_name":"Slate","category":20,"distinct_rating":2.58,"distinct_type":"Bottom","rt":null,"stimulus":"Stimuli_Rocks480/M_Slate_14.png","response":null,"trial_type":"image-keyboard-response","trial_index":44,"plugin_version":"2.1.0","time_elapsed":123644,"subject_id":"87728","group":"Group2","full_date":"2025-12-03T20:14:15.229Z","date":"2025-12-03","time":"20:14:15"},{"rt":null,"stimulus":"<p style=\"font-size: 50px; margin: 0; text-align: center;\">+</p>","response":null,"trial_type":"html-keyboard-response","trial_index":45,"plugin_version":"2.1.0","time_elapsed":124652,"subject_id":"87728","group":"Group2","full_date":"2025-12-03T20:14:15.229Z","date":"2025-12-03","time":"20:14:15"},{"task":"memory_phase","broad_category":"S","image_png":"S_Dolomite_07.png","image_id":391,"category_name":"Dolomite","category":25,"distinct_rating":1.73,"distinct_type":"Bottom","rt":null,"stimulus":"Stimuli_Rocks480/S_Dolomite_07.png","response":null,"trial_type":"image-keyboard-response","trial_index":46,"plugin_version":"2.1.0","time_elapsed":127164,"subject_id":"87728","group":"Group2","full_date":"2025-12-03T20:14:15.229Z","date":"2025-12-03","time":"20:14:15"},{"rt":null,"stimulus":"<p style=\"font-size: 50px; margin: 0; text-align: center;\">+</p>","response":null,"trial_type":"html-keyboard-response","trial_index":47,"plugin_version":"2.1.0","time_elapsed":128182,"subject_id":"87728","group":"Group2","full_date":"2025-12-03T20:14:15.229Z","date":"2025-12-03","time":"20:14:15"},{"task":"memory_phase","broad_category":"S","image_png":"S_Chert_13.png","image_id":365,"category_name":"Chert","category":23,"distinct_rating":6.57,"distinct_type":"Top","rt":null,"stimulus":"Stimuli_Rocks480/S_Chert_13.png","response":null,"trial_type":"image-keyboard-response","trial_index":48,"plugin_version":"2.1.0","time_elapsed":130686,"subject_id":"87728","group":"Group2","full_date":"2025-12-03T20:14:15.229Z","date":"2025-12-03","time":"20:14:15"},{"rt":null,"stimulus":"<p style=\"font-size: 50px; margin: 0; text-align: center;\">+</p>","response":null,"trial_type":"html-keyboard-response","trial_index":49,"plugin_version":"2.1.0","time_elapsed":131698,"subject_id":"87728","group":"Group2","full_date":"2025-12-03T20:14:15.229Z","date":"2025-12-03","time":"20:14:15"},{"task":"memory_phase","broad_category":"I","image_png":"I_Rhyolite_05.png","image_id":149,"category_name":"Rhyolite","category":10,"distinct_rating":3.02,"distinct_type":"Bottom","rt":null,"stimulus":"Stimuli_Rocks480/I_Rhyolite_05.png","response":null,"trial_type":"image-keyboard-response","trial_index":50,"plugin_version":"2.1.0","time_elapsed":134207,"subject_id":"87728","group":"Group2","full_date":"2025-12-03T20:14:15.229Z","date":"2025-12-03","time":"20:14:15"},{"rt":null,"stimulus":"<p style=\"font-size: 50px; margin: 0; text-align: center;\">+</p>","response":null,"trial_type":"html-keyboard-response","trial_index":51,"plugin_version":"2.1.0","time_elapsed":135219,"subject_id":"87728","group":"Group2","full_date":"2025-12-03T20:14:15.229Z","date":"2025-12-03","time":"20:14:15"},{"task":"memory_phase","broad_category":"S","image_png":"S_Shale_07.png","image_id":471,"category_name":"Shale","category":30,"distinct_rating":2.73,"distinct_type":"Bottom","rt":null,"stimulus":"Stimuli_Rocks480/S_Shale_07.png","response":null,"trial_type":"image-keyboard-response","trial_index":52,"plugin_version":"2.1.0","time_elapsed":137739,"subject_id":"87728","group":"Group2","full_date":"2025-12-03T20:14:15.229Z","date":"2025-12-03","time":"20:14:15"},{"rt":null,"stimulus":"<p style=\"font-size: 50px; margin: 0; text-align: center;\">+</p>","response":null,"trial_type":"html-keyboard-response","trial_index":53,"plugin_version":"2.1.0","time_elapsed":138751,"subject_id":"87728","group":"Group2","full_date":"2025-12-03T20:14:15.229Z","date":"2025-12-03","time":"20:14:15"},{"task":"memory_phase","broad_category":"I","image_png":"I_Pegmatite_03.png","image_id":99,"category_name":"Pegmatite","category":7,"distinct_rating":7.24,"distinct_type":"Top","rt":null,"stimulus":"Stimuli_Rocks480/I_Pegmatite_03.png","response":null,"trial_type":"image-keyboard-response","trial_index":54,"plugin_version":"2.1.0","time_elapsed":141265,"subject_id":"87728","group":"Group2","full_date":"2025-12-03T20:14:15.229Z","date":"2025-12-03","time":"20:14:15"},{"rt":1896,"stimulus":"<p style=\"max-width: 760px; margin: auto; font-size: 35px; line-height: 1.5;\">Press SPACE to continue study phase</p>","response":" ","trial_type":"html-keyboard-response","trial_index":55,"plugin_version":"2.1.0","time_elapsed":143162,"subject_id":"87728","group":"Group2","full_date":"2025-12-03T20:14:15.229Z","date":"2025-12-03","time":"20:14:15"},{"rt":null,"stimulus":"<p style=\"font-size: 50px; margin: 0; text-align: center;\">+</p>","response":null,"trial_type":"html-keyboard-response","trial_index":56,"plugin_version":"2.1.0","time_elapsed":144179,"subject_id":"87728","group":"Group2","full_date":"2025-12-03T20:14:15.229Z","date":"2025-12-03","time":"20:14:15"},{"task":"memory_phase","broad_category":"I","image_png":"I_Pumice_14.png","image_id":142,"category_name":"Pumice","category":9,"distinct_rating":3.22,"distinct_type":"Bottom","rt":null,"stimulus":"Stimuli_Rocks480/I_Pumice_14.png","response":null,"trial_type":"image-keyboard-response","trial_index":57,"plugin_version":"2.1.0","time_elapsed":146693,"subject_id":"87728","group":"Group2","full_date":"2025-12-03T20:14:15.229Z","date":"2025-12-03","time":"20:14:15"},{"rt":null,"stimulus":"<p style=\"font-size: 50px; margin: 0; text-align: center;\">+</p>","response":null,"trial_type":"html-keyboard-response","trial_index":58,"plugin_version":"2.1.0","time_elapsed":147708,"subject_id":"87728","group":"Group2","full_date":"2025-12-03T20:14:15.229Z","date":"2025-12-03","time":"20:14:15"},{"task":"memory_phase","broad_category":"M","image_png":"M_Gneiss_10.png","image_id":202,"category_name":"Gneiss","category":13,"distinct_rating":3.09,"distinct_type":"Bottom","rt":null,"stimulus":"Stimuli_Rocks480/M_Gneiss_10.png","response":null,"trial_type":"image-keyboard-response","trial_index":59,"plugin_version":"2.1.0","time_elapsed":150214,"subject_id":"87728","group":"Group2","full_date":"2025-12-03T20:14:15.229Z","date":"2025-12-03","time":"20:14:15"},{"rt":null,"stimulus":"<p style=\"font-size: 50px; margin: 0; text-align: center;\">+</p>","response":null,"trial_type":"html-keyboard-response","trial_index":60,"plugin_version":"2.1.0","time_elapsed":151216,"subject_id":"87728","group":"Group2","full_date":"2025-12-03T20:14:15.229Z","date":"2025-12-03","time":"20:14:15"},{"task":"memory_phase","broad_category":"M","image_png":"M_Slate_04.png","image_id":308,"category_name":"Slate","category":20,"distinct_rating":2.2,"distinct_type":"Bottom","rt":null,"stimulus":"Stimuli_Rocks480/M_Slate_04.png","response":null,"trial_type":"image-keyboard-response","trial_index":61,"plugin_version":"2.1.0","time_elapsed":153729,"subject_id":"87728","group":"Group2","full_date":"2025-12-03T20:14:15.229Z","date":"2025-12-03","time":"20:14:15"},{"rt":null,"stimulus":"<p style=\"font-size: 50px; margin: 0; text-align: center;\">+</p>","response":null,"trial_type":"html-keyboard-response","trial_index":62,"plugin_version":"2.1.0","time_elapsed":154742,"subject_id":"87728","group":"Group2","full_date":"2025-12-03T20:14:15.229Z","date":"2025-12-03","time":"20:14:15"},{"task":"memory_phase","broad_category":"S","image_png":"S_Sandstone_11.png","image_id":459,"category_name":"Sandstone","category":29,"distinct_rating":1.82,"distinct_type":"Bottom","rt":null,"stimulus":"Stimuli_Rocks480/S_Sandstone_11.png","response":null,"trial_type":"image-keyboard-response","trial_index":63,"plugin_version":"2.1.0","time_elapsed":157246,"subject_id":"87728","group":"Group2","full_date":"2025-12-03T20:14:15.229Z","date":"2025-12-03","time":"20:14:15"},{"rt":null,"stimulus":"<p style=\"font-size: 50px; margin: 0; text-align: center;\">+</p>","response":null,"trial_type":"html-keyboard-response","trial_index":64,"plugin_version":"2.1.0","time_elapsed":158257,"subject_id":"87728","group":"Group2","full_date":"2025-12-03T20:14:15.229Z","date":"2025-12-03","time":"20:14:15"},{"task":"memory_phase","broad_category":"S","image_png":"S_Shale_02.png","image_id":466,"category_name":"Shale","category":30,"distinct_rating":2.9,"distinct_type":"Bottom","rt":null,"stimulus":"Stimuli_Rocks480/S_Shale_02.png","response":null,"trial_type":"image-keyboard-response","trial_index":65,"plugin_version":"2.1.0","time_elapsed":160762,"subject_id":"87728","group":"Group2","full_date":"2025-12-03T20:14:15.229Z","date":"2025-12-03","time":"20:14:15"},{"rt":null,"stimulus":"<p style=\"font-size: 50px; margin: 0; text-align: center;\">+</p>","response":null,"trial_type":"html-keyboard-response","trial_index":66,"plugin_version":"2.1.0","time_elapsed":161779,"subject_id":"87728","group":"Group2","full_date":"2025-12-03T20:14:15.229Z","date":"2025-12-03","time":"20:14:15"},{"task":"memory_phase","broad_category":"I","image_png":"I_Diorite_01.png","image_id":33,"category_name":"Diorite","category":3,"distinct_rating":2.97,"distinct_type":"Bottom","rt":null,"stimulus":"Stimuli_Rocks480/I_Diorite_01.png","response":null,"trial_type":"image-keyboard-response","trial_index":67,"plugin_version":"2.1.0","time_elapsed":164296,"subject_id":"87728","group":"Group2","full_date":"2025-12-03T20:14:15.229Z","date":"2025-12-03","time":"20:14:15"},{"rt":null,"stimulus":"<p style=\"font-size: 50px; margin: 0; text-align: center;\">+</p>","response":null,"trial_type":"html-keyboard-response","trial_index":68,"plugin_version":"2.1.0","time_elapsed":165310,"subject_id":"87728","group":"Group2","full_date":"2025-12-03T20:14:15.229Z","date":"2025-12-03","time":"20:14:15"},{"task":"memory_phase","broad_category":"I","image_png":"I_Pegmatite_11.png","image_id":107,"category_name":"Pegmatite","category":7,"distinct_rating":7.11,"distinct_type":"Top","rt":null,"stimulus":"Stimuli_Rocks480/I_Pegmatite_11.png","response":null,"trial_type":"image-keyboard-response","trial_index":69,"plugin_version":"2.1.0","time_elapsed":167822,"subject_id":"87728","group":"Group2","full_date":"2025-12-03T20:14:15.229Z","date":"2025-12-03","time":"20:14:15"},{"rt":null,"stimulus":"<p style=\"font-size: 50px; margin: 0; text-align: center;\">+</p>","response":null,"trial_type":"html-keyboard-response","trial_index":70,"plugin_version":"2.1.0","time_elapsed":168830,"subject_id":"87728","group":"Group2","full_date":"2025-12-03T20:14:15.229Z","date":"2025-12-03","time":"20:14:15"},{"task":"memory_phase","broad_category":"M","image_png":"M_Marble_03.png","image_id":227,"category_name":"Marble","category":15,"distinct_rating":2.67,"distinct_type":"Bottom","rt":null,"stimulus":"Stimuli_Rocks480/M_Marble_03.png","response":null,"trial_type":"image-keyboard-response","trial_index":71,"plugin_version":"2.1.0","time_elapsed":171343,"subject_id":"87728","group":"Group2","full_date":"2025-12-03T20:14:15.229Z","date":"2025-12-03","time":"20:14:15"},{"rt":null,"stimulus":"<p style=\"font-size: 50px; margin: 0; text-align: center;\">+</p>","response":null,"trial_type":"html-keyboard-response","trial_index":72,"plugin_version":"2.1.0","time_elapsed":172359,"subject_id":"87728","group":"Group2","full_date":"2025-12-03T20:14:15.229Z","date":"2025-12-03","time":"20:14:15"},{"task":"memory_phase","broad_category":"I","image_png":"I_Peridotite_13.png","image_id":125,"category_name":"Peridotite","category":8,"distinct_rating":7.28,"distinct_type":"Top","rt":null,"stimulus":"Stimuli_Rocks480/I_Peridotite_13.png","response":null,"trial_type":"image-keyboard-response","trial_index":73,"plugin_version":"2.1.0","time_elapsed":174880,"subject_id":"87728","group":"Group2","full_date":"2025-12-03T20:14:15.229Z","date":"2025-12-03","time":"20:14:15"},{"rt":null,"stimulus":"<p style=\"font-size: 50px; margin: 0; text-align: center;\">+</p>","response":null,"trial_type":"html-keyboard-response","trial_index":74,"plugin_version":"2.1.0","time_elapsed":175886,"subject_id":"87728","group":"Group2","full_date":"2025-12-03T20:14:15.229Z","date":"2025-12-03","time":"20:14:15"},{"task":"memory_phase","broad_category":"I","image_png":"I_Basalt_13.png","image_id":29,"category_name":"Basalt","category":2,"distinct_rating":2.68,"distinct_type":"Bottom","rt":null,"stimulus":"Stimuli_Rocks480/I_Basalt_13.png","response":null,"trial_type":"image-keyboard-response","trial_index":75,"plugin_version":"2.1.0","time_elapsed":178391,"subject_id":"87728","group":"Group2","full_date":"2025-12-03T20:14:15.229Z","date":"2025-12-03","time":"20:14:15"},{"rt":null,"stimulus":"<p style=\"font-size: 50px; margin: 0; text-align: center;\">+</p>","response":null,"trial_type":"html-keyboard-response","trial_index":76,"plugin_version":"2.1.0","time_elapsed":179397,"subject_id":"87728","group":"Group2","full_date":"2025-12-03T20:14:15.229Z","date":"2025-12-03","time":"20:14:15"},{"task":"memory_phase","broad_category":"M","image_png":"M_Phyllite_05.png","image_id":261,"category_name":"Phyllite","category":17,"distinct_rating":2.14,"distinct_type":"Bottom","rt":null,"stimulus":"Stimuli_Rocks480/M_Phyllite_05.png","response":null,"trial_type":"image-keyboard-response","trial_index":77,"plugin_version":"2.1.0","time_elapsed":181912,"subject_id":"87728","group":"Group2","full_date":"2025-12-03T20:14:15.229Z","date":"2025-12-03","time":"20:14:15"},{"rt":null,"stimulus":"<p style=\"font-size: 50px; margin: 0; text-align: center;\">+</p>","response":null,"trial_type":"html-keyboard-response","trial_index":78,"plugin_version":"2.1.0","time_elapsed":182923,"subject_id":"87728","group":"Group2","full_date":"2025-12-03T20:14:15.229Z","date":"2025-12-03","time":"20:14:15"},{"task":"memory_phase","broad_category":"S","image_png":"S_Rock Salt_15.png","image_id":447,"category_name":"Rock Salt","category":28,"distinct_rating":7.79,"distinct_type":"Top","rt":null,"stimulus":"Stimuli_Rocks480/S_Rock Salt_15.png","response":null,"trial_type":"image-keyboard-response","trial_index":79,"plugin_version":"2.1.0","time_elapsed":185439,"subject_id":"87728","group":"Group2","full_date":"2025-12-03T20:14:15.229Z","date":"2025-12-03","time":"20:14:15"},{"rt":null,"stimulus":"<p style=\"font-size: 50px; margin: 0; text-align: center;\">+</p>","response":null,"trial_type":"html-keyboard-response","trial_index":80,"plugin_version":"2.1.0","time_elapsed":186456,"subject_id":"87728","group":"Group2","full_date":"2025-12-03T20:14:15.229Z","date":"2025-12-03","time":"20:14:15"},{"task":"memory_phase","broad_category":"I","image_png":"I_Gabbro_12.png","image_id":60,"category_name":"Gabbro","category":4,"distinct_rating":2.6,"distinct_type":"Bottom","rt":null,"stimulus":"Stimuli_Rocks480/I_Gabbro_12.png","response":null,"trial_type":"image-keyboard-response","trial_index":81,"plugin_version":"2.1.0","time_elapsed":188961,"subject_id":"87728","group":"Group2","full_date":"2025-12-03T20:14:15.229Z","date":"2025-12-03","time":"20:14:15"},{"rt":null,"stimulus":"<p style=\"font-size: 50px; margin: 0; text-align: center;\">+</p>","response":null,"trial_type":"html-keyboard-response","trial_index":82,"plugin_version":"2.1.0","time_elapsed":189963,"subject_id":"87728","group":"Group2","full_date":"2025-12-03T20:14:15.229Z","date":"2025-12-03","time":"20:14:15"},{"task":"memory_phase","broad_category":"I","image_png":"I_Andesite_04.png","image_id":4,"category_name":"Andesite","category":1,"distinct_rating":3.18,"distinct_type":"Bottom","rt":null,"stimulus":"Stimuli_Rocks480/I_Andesite_04.png","response":null,"trial_type":"image-keyboard-response","trial_index":83,"plugin_version":"2.1.0","time_elapsed":192481,"subject_id":"87728","group":"Group2","full_date":"2025-12-03T20:14:15.229Z","date":"2025-12-03","time":"20:14:15"},{"rt":null,"stimulus":"<p style=\"font-size: 50px; margin: 0; text-align: center;\">+</p>","response":null,"trial_type":"html-keyboard-response","trial_index":84,"plugin_version":"2.1.0","time_elapsed":193493,"subject_id":"87728","group":"Group2","full_date":"2025-12-03T20:14:15.229Z","date":"2025-12-03","time":"20:14:15"},{"task":"memory_phase","broad_category":"I","image_png":"I_Obsidian_06.png","image_id":86,"category_name":"Obsidian","category":6,"distinct_rating":8.01,"distinct_type":"Top","rt":null,"stimulus":"Stimuli_Rocks480/I_Obsidian_06.png","response":null,"trial_type":"image-keyboard-response","trial_index":85,"plugin_version":"2.1.0","time_elapsed":196005,"subject_id":"87728","group":"Group2","full_date":"2025-12-03T20:14:15.229Z","date":"2025-12-03","time":"20:14:15"},{"rt":null,"stimulus":"<p style=\"font-size: 50px; margin: 0; text-align: center;\">+</p>","response":null,"trial_type":"html-keyboard-response","trial_index":86,"plugin_version":"2.1.0","time_elapsed":197018,"subject_id":"87728","group":"Group2","full_date":"2025-12-03T20:14:15.229Z","date":"2025-12-03","time":"20:14:15"},{"task":"memory_phase","broad_category":"S","image_png":"S_Dolomite_01.png","image_id":385,"category_name":"Dolomite","category":25,"distinct_rating":1.43,"distinct_type":"Bottom","rt":null,"stimulus":"Stimuli_Rocks480/S_Dolomite_01.png","response":null,"trial_type":"image-keyboard-response","trial_index":87,"plugin_version":"2.1.0","time_elapsed":199528,"subject_id":"87728","group":"Group2","full_date":"2025-12-03T20:14:15.229Z","date":"2025-12-03","time":"20:14:15"},{"rt":null,"stimulus":"<p style=\"font-size: 50px; margin: 0; text-align: center;\">+</p>","response":null,"trial_type":"html-keyboard-response","trial_index":88,"plugin_version":"2.1.0","time_elapsed":200534,"subject_id":"87728","group":"Group2","full_date":"2025-12-03T20:14:15.229Z","date":"2025-12-03","time":"20:14:15"},{"task":"memory_phase","broad_category":"M","image_png":"M_Marble_02.png","image_id":226,"category_name":"Marble","category":15,"distinct_rating":3.2,"distinct_type":"Bottom","rt":null,"stimulus":"Stimuli_Rocks480/M_Marble_02.png","response":null,"trial_type":"image-keyboard-response","trial_index":89,"plugin_version":"2.1.0","time_elapsed":203043,"subject_id":"87728","group":"Group2","full_date":"2025-12-03T20:14:15.229Z","date":"2025-12-03","time":"20:14:15"},{"rt":null,"stimulus":"<p style=\"font-size: 50px; margin: 0; text-align: center;\">+</p>","response":null,"trial_type":"html-keyboard-response","trial_index":90,"plugin_version":"2.1.0","time_elapsed":204047,"subject_id":"87728","group":"Group2","full_date":"2025-12-03T20:14:15.229Z","date":"2025-12-03","time":"20:14:15"},{"task":"memory_phase","broad_category":"M","image_png":"M_Quartzite_15.png","image_id":287,"category_name":"Quartzite","category":18,"distinct_rating":2.19,"distinct_type":"Bottom","rt":null,"stimulus":"Stimuli_Rocks480/M_Quartzite_15.png","response":null,"trial_type":"image-keyboard-response","trial_index":91,"plugin_version":"2.1.0","time_elapsed":206561,"subject_id":"87728","group":"Group2","full_date":"2025-12-03T20:14:15.229Z","date":"2025-12-03","time":"20:14:15"},{"rt":null,"stimulus":"<p style=\"font-size: 50px; margin: 0; text-align: center;\">+</p>","response":null,"trial_type":"html-keyboard-response","trial_index":92,"plugin_version":"2.1.0","time_elapsed":207572,"subject_id":"87728","group":"Group2","full_date":"2025-12-03T20:14:15.229Z","date":"2025-12-03","time":"20:14:15"},{"task":"memory_phase","broad_category":"S","image_png":"S_Sandstone_08.png","image_id":456,"category_name":"Sandstone","category":29,"distinct_rating":1.5,"distinct_type":"Bottom","rt":null,"stimulus":"Stimuli_Rocks480/S_Sandstone_08.png","response":null,"trial_type":"image-keyboard-response","trial_index":93,"plugin_version":"2.1.0","time_elapsed":210085,"subject_id":"87728","group":"Group2","full_date":"2025-12-03T20:14:15.229Z","date":"2025-12-03","time":"20:14:15"},{"rt":null,"stimulus":"<p style=\"font-size: 50px; margin: 0; text-align: center;\">+</p>","response":null,"trial_type":"html-keyboard-response","trial_index":94,"plugin_version":"2.1.0","time_elapsed":211102,"subject_id":"87728","group":"Group2","full_date":"2025-12-03T20:14:15.229Z","date":"2025-12-03","time":"20:14:15"},{"task":"memory_phase","broad_category":"I","image_png":"I_Gabbro_14.png","image_id":62,"category_name":"Gabbro","category":4,"distinct_rating":2.95,"distinct_type":"Bottom","rt":null,"stimulus":"Stimuli_Rocks480/I_Gabbro_14.png","response":null,"trial_type":"image-keyboard-response","trial_index":95,"plugin_version":"2.1.0","time_elapsed":213606,"subject_id":"87728","group":"Group2","full_date":"2025-12-03T20:14:15.229Z","date":"2025-12-03","time":"20:14:15"},{"rt":null,"stimulus":"<p style=\"font-size: 50px; margin: 0; text-align: center;\">+</p>","response":null,"trial_type":"html-keyboard-response","trial_index":96,"plugin_version":"2.1.0","time_elapsed":214613,"subject_id":"87728","group":"Group2","full_date":"2025-12-03T20:14:15.229Z","date":"2025-12-03","time":"20:14:15"},{"task":"memory_phase","broad_category":"I","image_png":"I_Diorite_15.png","image_id":47,"category_name":"Diorite","category":3,"distinct_rating":3.05,"distinct_type":"Bottom","rt":null,"stimulus":"Stimuli_Rocks480/I_Diorite_15.png","response":null,"trial_type":"image-keyboard-response","trial_index":97,"plugin_version":"2.1.0","time_elapsed":217128,"subject_id":"87728","group":"Group2","full_date":"2025-12-03T20:14:15.229Z","date":"2025-12-03","time":"20:14:15"},{"rt":null,"stimulus":"<p style=\"font-size: 50px; margin: 0; text-align: center;\">+</p>","response":null,"trial_type":"html-keyboard-response","trial_index":98,"plugin_version":"2.1.0","time_elapsed":218132,"subject_id":"87728","group":"Group2","full_date":"2025-12-03T20:14:15.229Z","date":"2025-12-03","time":"20:14:15"},{"task":"memory_phase","broad_category":"M","image_png":"M_Gneiss_14.png","image_id":206,"category_name":"Gneiss","category":13,"distinct_rating":3.41,"distinct_type":"Bottom","rt":null,"stimulus":"Stimuli_Rocks480/M_Gneiss_14.png","response":null,"trial_type":"image-keyboard-response","trial_index":99,"plugin_version":"2.1.0","time_elapsed":220644,"subject_id":"87728","group":"Group2","full_date":"2025-12-03T20:14:15.229Z","date":"2025-12-03","time":"20:14:15"},{"rt":null,"stimulus":"<p style=\"font-size: 50px; margin: 0; text-align: center;\">+</p>","response":null,"trial_type":"html-keyboard-response","trial_index":100,"plugin_version":"2.1.0","time_elapsed":221661,"subject_id":"87728","group":"Group2","full_date":"2025-12-03T20:14:15.229Z","date":"2025-12-03","time":"20:14:15"},{"task":"memory_phase","broad_category":"I","image_png":"I_Diorite_10.png","image_id":42,"category_name":"Diorite","category":3,"distinct_rating":2.84,"distinct_type":"Bottom","rt":null,"stimulus":"Stimuli_Rocks480/I_Diorite_10.png","response":null,"trial_type":"image-keyboard-response","trial_index":101,"plugin_version":"2.1.0","time_elapsed":224166,"subject_id":"87728","group":"Group2","full_date":"2025-12-03T20:14:15.229Z","date":"2025-12-03","time":"20:14:15"},{"rt":null,"stimulus":"<p style=\"font-size: 50px; margin: 0; text-align: center;\">+</p>","response":null,"trial_type":"html-keyboard-response","trial_index":102,"plugin_version":"2.1.0","time_elapsed":225177,"subject_id":"87728","group":"Group2","full_date":"2025-12-03T20:14:15.229Z","date":"2025-12-03","time":"20:14:15"},{"task":"memory_phase","broad_category":"I","image_png":"I_Gabbro_02.png","image_id":50,"category_name":"Gabbro","category":4,"distinct_rating":2.73,"distinct_type":"Bottom","rt":null,"stimulus":"Stimuli_Rocks480/I_Gabbro_02.png","response":null,"trial_type":"image-keyboard-response","trial_index":103,"plugin_version":"2.1.0","time_elapsed":227690,"subject_id":"87728","group":"Group2","full_date":"2025-12-03T20:14:15.229Z","date":"2025-12-03","time":"20:14:15"},{"rt":null,"stimulus":"<p style=\"font-size: 50px; margin: 0; text-align: center;\">+</p>","response":null,"trial_type":"html-keyboard-response","trial_index":104,"plugin_version":"2.1.0","time_elapsed":228705,"subject_id":"87728","group":"Group2","full_date":"2025-12-03T20:14:15.229Z","date":"2025-12-03","time":"20:14:15"},{"task":"memory_phase","broad_category":"M","image_png":"M_Quartzite_07.png","image_id":279,"category_name":"Quartzite","category":18,"distinct_rating":1.97,"distinct_type":"Bottom","rt":null,"stimulus":"Stimuli_Rocks480/M_Quartzite_07.png","response":null,"trial_type":"image-keyboard-response","trial_index":105,"plugin_version":"2.1.0","time_elapsed":231223,"subject_id":"87728","group":"Group2","full_date":"2025-12-03T20:14:15.229Z","date":"2025-12-03","time":"20:14:15"},{"rt":3179,"stimulus":"<p style=\"max-width: 760px; margin: auto; font-size: 35px; line-height: 1.5;\">You have completed 1 study phase. Now, we'll show you all the images again 2 more times.<br><br>Press SPACE to continue</p>","response":" ","trial_type":"html-keyboard-response","trial_index":106,"plugin_version":"2.1.0","time_elapsed":234402,"subject_id":"87728","group":"Group2","full_date":"2025-12-03T20:14:15.229Z","date":"2025-12-03","time":"20:14:15"},{"rt":null,"stimulus":"<p style=\"font-size: 50px; margin: 0; text-align: center;\">+</p>","response":null,"trial_type":"html-keyboard-response","trial_index":107,"plugin_version":"2.1.0","time_elapsed":235410,"subject_id":"87728","group":"Group2","full_date":"2025-12-03T20:14:15.229Z","date":"2025-12-03","time":"20:14:15"},{"task":"memory_phase","broad_category":"I","image_png":"I_Basalt_10.png","image_id":26,"category_name":"Basalt","category":2,"distinct_rating":2.76,"distinct_type":"Bottom","rt":null,"stimulus":"Stimuli_Rocks480/I_Basalt_10.png","response":null,"trial_type":"image-keyboard-response","trial_index":108,"plugin_version":"2.1.0","time_elapsed":237924,"subject_id":"87728","group":"Group2","full_date":"2025-12-03T20:14:15.229Z","date":"2025-12-03","time":"20:14:15"},{"rt":null,"stimulus":"<p style=\"font-size: 50px; margin: 0; text-align: center;\">+</p>","response":null,"trial_type":"html-keyboard-response","trial_index":109,"plugin_version":"2.1.0","time_elapsed":238930,"subject_id":"87728","group":"Group2","full_date":"2025-12-03T20:14:15.229Z","date":"2025-12-03","time":"20:14:15"},{"task":"memory_phase","broad_category":"M","image_png":"M_Phyllite_05.png","image_id":261,"category_name":"Phyllite","category":17,"distinct_rating":2.14,"distinct_type":"Bottom","rt":null,"stimulus":"Stimuli_Rocks480/M_Phyllite_05.png","response":null,"trial_type":"image-keyboard-response","trial_index":110,"plugin_version":"2.1.0","time_elapsed":241439,"subject_id":"87728","group":"Group2","full_date":"2025-12-03T20:14:15.229Z","date":"2025-12-03","time":"20:14:15"},{"rt":null,"stimulus":"<p style=\"font-size: 50px; margin: 0; text-align: center;\">+</p>","response":null,"trial_type":"html-keyboard-response","trial_index":111,"plugin_version":"2.1.0","time_elapsed":242453,"subject_id":"87728","group":"Group2","full_date":"2025-12-03T20:14:15.229Z","date":"2025-12-03","time":"20:14:15"},{"task":"memory_phase","broad_category":"S","image_png":"S_Sandstone_11.png","image_id":459,"category_name":"Sandstone","category":29,"distinct_rating":1.82,"distinct_type":"Bottom","rt":null,"stimulus":"Stimuli_Rocks480/S_Sandstone_11.png","response":null,"trial_type":"image-keyboard-response","trial_index":112,"plugin_version":"2.1.0","time_elapsed":244964,"subject_id":"87728","group":"Group2","full_date":"2025-12-03T20:14:15.229Z","date":"2025-12-03","time":"20:14:15"},{"rt":null,"stimulus":"<p style=\"font-size: 50px; margin: 0; text-align: center;\">+</p>","response":null,"trial_type":"html-keyboard-response","trial_index":113,"plugin_version":"2.1.0","time_elapsed":245969,"subject_id":"87728","group":"Group2","full_date":"2025-12-03T20:14:15.229Z","date":"2025-12-03","time":"20:14:15"},{"task":"memory_phase","broad_category":"I","image_png":"I_Diorite_15.png","image_id":47,"category_name":"Diorite","category":3,"distinct_rating":3.05,"distinct_type":"Bottom","rt":null,"stimulus":"Stimuli_Rocks480/I_Diorite_15.png","response":null,"trial_type":"image-keyboard-response","trial_index":114,"plugin_version":"2.1.0","time_elapsed":248480,"subject_id":"87728","group":"Group2","full_date":"2025-12-03T20:14:15.229Z","date":"2025-12-03","time":"20:14:15"},{"rt":null,"stimulus":"<p style=\"font-size: 50px; margin: 0; text-align: center;\">+</p>","response":null,"trial_type":"html-keyboard-response","trial_index":115,"plugin_version":"2.1.0","time_elapsed":249486,"subject_id":"87728","group":"Group2","full_date":"2025-12-03T20:14:15.229Z","date":"2025-12-03","time":"20:14:15"},{"task":"memory_phase","broad_category":"I","image_png":"I_Basalt_08.png","image_id":24,"category_name":"Basalt","category":2,"distinct_rating":2.31,"distinct_type":"Bottom","rt":null,"stimulus":"Stimuli_Rocks480/I_Basalt_08.png","response":null,"trial_type":"image-keyboard-response","trial_index":116,"plugin_version":"2.1.0","time_elapsed":251994,"subject_id":"87728","group":"Group2","full_date":"2025-12-03T20:14:15.229Z","date":"2025-12-03","time":"20:14:15"},{"rt":null,"stimulus":"<p style=\"font-size: 50px; margin: 0; text-align: center;\">+</p>","response":null,"trial_type":"html-keyboard-response","trial_index":117,"plugin_version":"2.1.0","time_elapsed":252997,"subject_id":"87728","group":"Group2","full_date":"2025-12-03T20:14:15.229Z","date":"2025-12-03","time":"20:14:15"},{"task":"memory_phase","broad_category":"I","image_png":"I_Andesite_09.png","image_id":9,"category_name":"Andesite","category":1,"distinct_rating":2.49,"distinct_type":"Bottom","rt":null,"stimulus":"Stimuli_Rocks480/I_Andesite_09.png","response":null,"trial_type":"image-keyboard-response","trial_index":118,"plugin_version":"2.1.0","time_elapsed":255508,"subject_id":"87728","group":"Group2","full_date":"2025-12-03T20:14:15.229Z","date":"2025-12-03","time":"20:14:15"},{"rt":null,"stimulus":"<p style=\"font-size: 50px; margin: 0; text-align: center;\">+</p>","response":null,"trial_type":"html-keyboard-response","trial_index":119,"plugin_version":"2.1.0","time_elapsed":256511,"subject_id":"87728","group":"Group2","full_date":"2025-12-03T20:14:15.229Z","date":"2025-12-03","time":"20:14:15"},{"task":"memory_phase","broad_category":"I","image_png":"I_Pegmatite_11.png","image_id":107,"category_name":"Pegmatite","category":7,"distinct_rating":7.11,"distinct_type":"Top","rt":null,"stimulus":"Stimuli_Rocks480/I_Pegmatite_11.png","response":null,"trial_type":"image-keyboard-response","trial_index":120,"plugin_version":"2.1.0","time_elapsed":259028,"subject_id":"87728","group":"Group2","full_date":"2025-12-03T20:14:15.229Z","date":"2025-12-03","time":"20:14:15"},{"rt":null,"stimulus":"<p style=\"font-size: 50px; margin: 0; text-align: center;\">+</p>","response":null,"trial_type":"html-keyboard-response","trial_index":121,"plugin_version":"2.1.0","time_elapsed":260042,"subject_id":"87728","group":"Group2","full_date":"2025-12-03T20:14:15.229Z","date":"2025-12-03","time":"20:14:15"},{"task":"memory_phase","broad_category":"I","image_png":"I_Diorite_01.png","image_id":33,"category_name":"Diorite","category":3,"distinct_rating":2.97,"distinct_type":"Bottom","rt":null,"stimulus":"Stimuli_Rocks480/I_Diorite_01.png","response":null,"trial_type":"image-keyboard-response","trial_index":122,"plugin_version":"2.1.0","time_elapsed":262544,"subject_id":"87728","group":"Group2","full_date":"2025-12-03T20:14:15.229Z","date":"2025-12-03","time":"20:14:15"},{"rt":null,"stimulus":"<p style=\"font-size: 50px; margin: 0; text-align: center;\">+</p>","response":null,"trial_type":"html-keyboard-response","trial_index":123,"plugin_version":"2.1.0","time_elapsed":263547,"subject_id":"87728","group":"Group2","full_date":"2025-12-03T20:14:15.229Z","date":"2025-12-03","time":"20:14:15"},{"task":"memory_phase","broad_category":"I","image_png":"I_Gabbro_02.png","image_id":50,"category_name":"Gabbro","category":4,"distinct_rating":2.73,"distinct_type":"Bottom","rt":null,"stimulus":"Stimuli_Rocks480/I_Gabbro_02.png","response":null,"trial_type":"image-keyboard-response","trial_index":124,"plugin_version":"2.1.0","time_elapsed":266065,"subject_id":"87728","group":"Group2","full_date":"2025-12-03T20:14:15.229Z","date":"2025-12-03","time":"20:14:15"},{"rt":null,"stimulus":"<p style=\"font-size: 50px; margin: 0; text-align: center;\">+</p>","response":null,"trial_type":"html-keyboard-response","trial_index":125,"plugin_version":"2.1.0","time_elapsed":267068,"subject_id":"87728","group":"Group2","full_date":"2025-12-03T20:14:15.229Z","date":"2025-12-03","time":"20:14:15"},{"task":"memory_phase","broad_category":"I","image_png":"I_Andesite_03.png","image_id":3,"category_name":"Andesite","category":1,"distinct_rating":3.17,"distinct_type":"Bottom","rt":null,"stimulus":"Stimuli_Rocks480/I_Andesite_03.png","response":null,"trial_type":"image-keyboard-response","trial_index":126,"plugin_version":"2.1.0","time_elapsed":269575,"subject_id":"87728","group":"Group2","full_date":"2025-12-03T20:14:15.229Z","date":"2025-12-03","time":"20:14:15"},{"rt":null,"stimulus":"<p style=\"font-size: 50px; margin: 0; text-align: center;\">+</p>","response":null,"trial_type":"html-keyboard-response","trial_index":127,"plugin_version":"2.1.0","time_elapsed":270576,"subject_id":"87728","group":"Group2","full_date":"2025-12-03T20:14:15.229Z","date":"2025-12-03","time":"20:14:15"},{"task":"memory_phase","broad_category":"I","image_png":"I_Peridotite_13.png","image_id":125,"category_name":"Peridotite","category":8,"distinct_rating":7.28,"distinct_type":"Top","rt":null,"stimulus":"Stimuli_Rocks480/I_Peridotite_13.png","response":null,"trial_type":"image-keyboard-response","trial_index":128,"plugin_version":"2.1.0","time_elapsed":273079,"subject_id":"87728","group":"Group2","full_date":"2025-12-03T20:14:15.229Z","date":"2025-12-03","time":"20:14:15"},{"rt":null,"stimulus":"<p style=\"font-size: 50px; margin: 0; text-align: center;\">+</p>","response":null,"trial_type":"html-keyboard-response","trial_index":129,"plugin_version":"2.1.0","time_elapsed":274094,"subject_id":"87728","group":"Group2","full_date":"2025-12-03T20:14:15.229Z","date":"2025-12-03","time":"20:14:15"},{"task":"memory_phase","broad_category":"I","image_png":"I_Gabbro_14.png","image_id":62,"category_name":"Gabbro","category":4,"distinct_rating":2.95,"distinct_type":"Bottom","rt":null,"stimulus":"Stimuli_Rocks480/I_Gabbro_14.png","response":null,"trial_type":"image-keyboard-response","trial_index":130,"plugin_version":"2.1.0","time_elapsed":276607,"subject_id":"87728","group":"Group2","full_date":"2025-12-03T20:14:15.229Z","date":"2025-12-03","time":"20:14:15"},{"rt":null,"stimulus":"<p style=\"font-size: 50px; margin: 0; text-align: center;\">+</p>","response":null,"trial_type":"html-keyboard-response","trial_index":131,"plugin_version":"2.1.0","time_elapsed":277617,"subject_id":"87728","group":"Group2","full_date":"2025-12-03T20:14:15.229Z","date":"2025-12-03","time":"20:14:15"},{"task":"memory_phase","broad_category":"I","image_png":"I_Diorite_10.png","image_id":42,"category_name":"Diorite","category":3,"distinct_rating":2.84,"distinct_type":"Bottom","rt":null,"stimulus":"Stimuli_Rocks480/I_Diorite_10.png","response":null,"trial_type":"image-keyboard-response","trial_index":132,"plugin_version":"2.1.0","time_elapsed":280133,"subject_id":"87728","group":"Group2","full_date":"2025-12-03T20:14:15.229Z","date":"2025-12-03","time":"20:14:15"},{"rt":null,"stimulus":"<p style=\"font-size: 50px; margin: 0; text-align: center;\">+</p>","response":null,"trial_type":"html-keyboard-response","trial_index":133,"plugin_version":"2.1.0","time_elapsed":281138,"subject_id":"87728","group":"Group2","full_date":"2025-12-03T20:14:15.229Z","date":"2025-12-03","time":"20:14:15"},{"task":"memory_phase","broad_category":"M","image_png":"M_Quartzite_12.png","image_id":284,"category_name":"Quartzite","category":18,"distinct_rating":1.92,"distinct_type":"Bottom","rt":null,"stimulus":"Stimuli_Rocks480/M_Quartzite_12.png","response":null,"trial_type":"image-keyboard-response","trial_index":134,"plugin_version":"2.1.0","time_elapsed":283655,"subject_id":"87728","group":"Group2","full_date":"2025-12-03T20:14:15.229Z","date":"2025-12-03","time":"20:14:15"},{"rt":null,"stimulus":"<p style=\"font-size: 50px; margin: 0; text-align: center;\">+</p>","response":null,"trial_type":"html-keyboard-response","trial_index":135,"plugin_version":"2.1.0","time_elapsed":284670,"subject_id":"87728","group":"Group2","full_date":"2025-12-03T20:14:15.229Z","date":"2025-12-03","time":"20:14:15"},{"task":"memory_phase","broad_category":"I","image_png":"I_Pumice_14.png","image_id":142,"category_name":"Pumice","category":9,"distinct_rating":3.22,"distinct_type":"Bottom","rt":null,"stimulus":"Stimuli_Rocks480/I_Pumice_14.png","response":null,"trial_type":"image-keyboard-response","trial_index":136,"plugin_version":"2.1.0","time_elapsed":287182,"subject_id":"87728","group":"Group2","full_date":"2025-12-03T20:14:15.229Z","date":"2025-12-03","time":"20:14:15"},{"rt":null,"stimulus":"<p style=\"font-size: 50px; margin: 0; text-align: center;\">+</p>","response":null,"trial_type":"html-keyboard-response","trial_index":137,"plugin_version":"2.1.0","time_elapsed":288187,"subject_id":"87728","group":"Group2","full_date":"2025-12-03T20:14:15.229Z","date":"2025-12-03","time":"20:14:15"},{"task":"memory_phase","broad_category":"I","image_png":"I_Rhyolite_05.png","image_id":149,"category_name":"Rhyolite","category":10,"distinct_rating":3.02,"distinct_type":"Bottom","rt":null,"stimulus":"Stimuli_Rocks480/I_Rhyolite_05.png","response":null,"trial_type":"image-keyboard-response","trial_index":138,"plugin_version":"2.1.0","time_elapsed":290699,"subject_id":"87728","group":"Group2","full_date":"2025-12-03T20:14:15.229Z","date":"2025-12-03","time":"20:14:15"},{"rt":null,"stimulus":"<p style=\"font-size: 50px; margin: 0; text-align: center;\">+</p>","response":null,"trial_type":"html-keyboard-response","trial_index":139,"plugin_version":"2.1.0","time_elapsed":291713,"subject_id":"87728","group":"Group2","full_date":"2025-12-03T20:14:15.229Z","date":"2025-12-03","time":"20:14:15"},{"task":"memory_phase","broad_category":"S","image_png":"S_Shale_03.png","image_id":467,"category_name":"Shale","category":30,"distinct_rating":1.95,"distinct_type":"Bottom","rt":null,"stimulus":"Stimuli_Rocks480/S_Shale_03.png","response":null,"trial_type":"image-keyboard-response","trial_index":140,"plugin_version":"2.1.0","time_elapsed":294231,"subject_id":"87728","group":"Group2","full_date":"2025-12-03T20:14:15.229Z","date":"2025-12-03","time":"20:14:15"},{"rt":null,"stimulus":"<p style=\"font-size: 50px; margin: 0; text-align: center;\">+</p>","response":null,"trial_type":"html-keyboard-response","trial_index":141,"plugin_version":"2.1.0","time_elapsed":295248,"subject_id":"87728","group":"Group2","full_date":"2025-12-03T20:14:15.229Z","date":"2025-12-03","time":"20:14:15"},{"task":"memory_phase","broad_category":"I","image_png":"I_Rhyolite_10.png","image_id":154,"category_name":"Rhyolite","category":10,"distinct_rating":2.88,"distinct_type":"Bottom","rt":null,"stimulus":"Stimuli_Rocks480/I_Rhyolite_10.png","response":null,"trial_type":"image-keyboard-response","trial_index":142,"plugin_version":"2.1.0","time_elapsed":297756,"subject_id":"87728","group":"Group2","full_date":"2025-12-03T20:14:15.229Z","date":"2025-12-03","time":"20:14:15"},{"rt":null,"stimulus":"<p style=\"font-size: 50px; margin: 0; text-align: center;\">+</p>","response":null,"trial_type":"html-keyboard-response","trial_index":143,"plugin_version":"2.1.0","time_elapsed":298758,"subject_id":"87728","group":"Group2","full_date":"2025-12-03T20:14:15.229Z","date":"2025-12-03","time":"20:14:15"},{"task":"memory_phase","broad_category":"S","image_png":"S_Dolomite_07.png","image_id":391,"category_name":"Dolomite","category":25,"distinct_rating":1.73,"distinct_type":"Bottom","rt":null,"stimulus":"Stimuli_Rocks480/S_Dolomite_07.png","response":null,"trial_type":"image-keyboard-response","trial_index":144,"plugin_version":"2.1.0","time_elapsed":301263,"subject_id":"87728","group":"Group2","full_date":"2025-12-03T20:14:15.229Z","date":"2025-12-03","time":"20:14:15"},{"rt":null,"stimulus":"<p style=\"font-size: 50px; margin: 0; text-align: center;\">+</p>","response":null,"trial_type":"html-keyboard-response","trial_index":145,"plugin_version":"2.1.0","time_elapsed":302275,"subject_id":"87728","group":"Group2","full_date":"2025-12-03T20:14:15.229Z","date":"2025-12-03","time":"20:14:15"},{"task":"memory_phase","broad_category":"S","image_png":"S_Dolomite_16.png","image_id":400,"category_name":"Dolomite","category":25,"distinct_rating":1.71,"distinct_type":"Bottom","rt":null,"stimulus":"Stimuli_Rocks480/S_Dolomite_16.png","response":null,"trial_type":"image-keyboard-response","trial_index":146,"plugin_version":"2.1.0","time_elapsed":304785,"subject_id":"87728","group":"Group2","full_date":"2025-12-03T20:14:15.229Z","date":"2025-12-03","time":"20:14:15"},{"rt":null,"stimulus":"<p style=\"font-size: 50px; margin: 0; text-align: center;\">+</p>","response":null,"trial_type":"html-keyboard-response","trial_index":147,"plugin_version":"2.1.0","time_elapsed":305799,"subject_id":"87728","group":"Group2","full_date":"2025-12-03T20:14:15.229Z","date":"2025-12-03","time":"20:14:15"},{"task":"memory_phase","broad_category":"I","image_png":"I_Rhyolite_08.png","image_id":152,"category_name":"Rhyolite","category":10,"distinct_rating":1.38,"distinct_type":"Bottom","rt":null,"stimulus":"Stimuli_Rocks480/I_Rhyolite_08.png","response":null,"trial_type":"image-keyboard-response","trial_index":148,"plugin_version":"2.1.0","time_elapsed":308310,"subject_id":"87728","group":"Group2","full_date":"2025-12-03T20:14:15.229Z","date":"2025-12-03","time":"20:14:15"},{"rt":null,"stimulus":"<p style=\"font-size: 50px; margin: 0; text-align: center;\">+</p>","response":null,"trial_type":"html-keyboard-response","trial_index":149,"plugin_version":"2.1.0","time_elapsed":309332,"subject_id":"87728","group":"Group2","full_date":"2025-12-03T20:14:15.229Z","date":"2025-12-03","time":"20:14:15"},{"task":"memory_phase","broad_category":"S","image_png":"S_Shale_02.png","image_id":466,"category_name":"Shale","category":30,"distinct_rating":2.9,"distinct_type":"Bottom","rt":null,"stimulus":"Stimuli_Rocks480/S_Shale_02.png","response":null,"trial_type":"image-keyboard-response","trial_index":150,"plugin_version":"2.1.0","time_elapsed":311841,"subject_id":"87728","group":"Group2","full_date":"2025-12-03T20:14:15.229Z","date":"2025-12-03","time":"20:14:15"},{"rt":null,"stimulus":"<p style=\"font-size: 50px; margin: 0; text-align: center;\">+</p>","response":null,"trial_type":"html-keyboard-response","trial_index":151,"plugin_version":"2.1.0","time_elapsed":312849,"subject_id":"87728","group":"Group2","full_date":"2025-12-03T20:14:15.229Z","date":"2025-12-03","time":"20:14:15"},{"task":"memory_phase","broad_category":"I","image_png":"I_Obsidian_06.png","image_id":86,"category_name":"Obsidian","category":6,"distinct_rating":8.01,"distinct_type":"Top","rt":null,"stimulus":"Stimuli_Rocks480/I_Obsidian_06.png","response":null,"trial_type":"image-keyboard-response","trial_index":152,"plugin_version":"2.1.0","time_elapsed":315365,"subject_id":"87728","group":"Group2","full_date":"2025-12-03T20:14:15.229Z","date":"2025-12-03","time":"20:14:15"},{"rt":null,"stimulus":"<p style=\"font-size: 50px; margin: 0; text-align: center;\">+</p>","response":null,"trial_type":"html-keyboard-response","trial_index":153,"plugin_version":"2.1.0","time_elapsed":316378,"subject_id":"87728","group":"Group2","full_date":"2025-12-03T20:14:15.229Z","date":"2025-12-03","time":"20:14:15"},{"task":"memory_phase","broad_category":"M","image_png":"M_Phyllite_13.png","image_id":269,"category_name":"Phyllite","category":17,"distinct_rating":2.8,"distinct_type":"Bottom","rt":null,"stimulus":"Stimuli_Rocks480/M_Phyllite_13.png","response":null,"trial_type":"image-keyboard-response","trial_index":154,"plugin_version":"2.1.0","time_elapsed":318884,"subject_id":"87728","group":"Group2","full_date":"2025-12-03T20:14:15.229Z","date":"2025-12-03","time":"20:14:15"},{"rt":null,"stimulus":"<p style=\"font-size: 50px; margin: 0; text-align: center;\">+</p>","response":null,"trial_type":"html-keyboard-response","trial_index":155,"plugin_version":"2.1.0","time_elapsed":319887,"subject_id":"87728","group":"Group2","full_date":"2025-12-03T20:14:15.229Z","date":"2025-12-03","time":"20:14:15"},{"task":"memory_phase","broad_category":"M","image_png":"M_Gneiss_15.png","image_id":207,"category_name":"Gneiss","category":13,"distinct_rating":3.11,"distinct_type":"Bottom","rt":null,"stimulus":"Stimuli_Rocks480/M_Gneiss_15.png","response":null,"trial_type":"image-keyboard-response","trial_index":156,"plugin_version":"2.1.0","time_elapsed":322392,"subject_id":"87728","group":"Group2","full_date":"2025-12-03T20:14:15.229Z","date":"2025-12-03","time":"20:14:15"},{"rt":1347,"stimulus":"<p style=\"max-width: 760px; margin: auto; font-size: 35px; line-height: 1.5;\">Press SPACE to continue study phase</p>","response":" ","trial_type":"html-keyboard-response","trial_index":157,"plugin_version":"2.1.0","time_elapsed":323740,"subject_id":"87728","group":"Group2","full_date":"2025-12-03T20:14:15.229Z","date":"2025-12-03","time":"20:14:15"},{"rt":null,"stimulus":"<p style=\"font-size: 50px; margin: 0; text-align: center;\">+</p>","response":null,"trial_type":"html-keyboard-response","trial_index":158,"plugin_version":"2.1.0","time_elapsed":324744,"subject_id":"87728","group":"Group2","full_date":"2025-12-03T20:14:15.229Z","date":"2025-12-03","time":"20:14:15"},{"task":"memory_phase","broad_category":"I","image_png":"I_Basalt_13.png","image_id":29,"category_name":"Basalt","category":2,"distinct_rating":2.68,"distinct_type":"Bottom","rt":null,"stimulus":"Stimuli_Rocks480/I_Basalt_13.png","response":null,"trial_type":"image-keyboard-response","trial_index":159,"plugin_version":"2.1.0","time_elapsed":327253,"subject_id":"87728","group":"Group2","full_date":"2025-12-03T20:14:15.229Z","date":"2025-12-03","time":"20:14:15"},{"rt":null,"stimulus":"<p style=\"font-size: 50px; margin: 0; text-align: center;\">+</p>","response":null,"trial_type":"html-keyboard-response","trial_index":160,"plugin_version":"2.1.0","time_elapsed":328262,"subject_id":"87728","group":"Group2","full_date":"2025-12-03T20:14:15.229Z","date":"2025-12-03","time":"20:14:15"},{"task":"memory_phase","broad_category":"M","image_png":"M_Marble_14.png","image_id":238,"category_name":"Marble","category":15,"distinct_rating":3.31,"distinct_type":"Bottom","rt":null,"stimulus":"Stimuli_Rocks480/M_Marble_14.png","response":null,"trial_type":"image-keyboard-response","trial_index":161,"plugin_version":"2.1.0","time_elapsed":330777,"subject_id":"87728","group":"Group2","full_date":"2025-12-03T20:14:15.229Z","date":"2025-12-03","time":"20:14:15"},{"rt":null,"stimulus":"<p style=\"font-size: 50px; margin: 0; text-align: center;\">+</p>","response":null,"trial_type":"html-keyboard-response","trial_index":162,"plugin_version":"2.1.0","time_elapsed":331780,"subject_id":"87728","group":"Group2","full_date":"2025-12-03T20:14:15.229Z","date":"2025-12-03","time":"20:14:15"},{"task":"memory_phase","broad_category":"S","image_png":"S_Shale_07.png","image_id":471,"category_name":"Shale","category":30,"distinct_rating":2.73,"distinct_type":"Bottom","rt":null,"stimulus":"Stimuli_Rocks480/S_Shale_07.png","response":null,"trial_type":"image-keyboard-response","trial_index":163,"plugin_version":"2.1.0","time_elapsed":334300,"subject_id":"87728","group":"Group2","full_date":"2025-12-03T20:14:15.229Z","date":"2025-12-03","time":"20:14:15"},{"rt":null,"stimulus":"<p style=\"font-size: 50px; margin: 0; text-align: center;\">+</p>","response":null,"trial_type":"html-keyboard-response","trial_index":164,"plugin_version":"2.1.0","time_elapsed":335317,"subject_id":"87728","group":"Group2","full_date":"2025-12-03T20:14:15.229Z","date":"2025-12-03","time":"20:14:15"},{"task":"memory_phase","broad_category":"M","image_png":"M_Quartzite_07.png","image_id":279,"category_name":"Quartzite","category":18,"distinct_rating":1.97,"distinct_type":"Bottom","rt":null,"stimulus":"Stimuli_Rocks480/M_Quartzite_07.png","response":null,"trial_type":"image-keyboard-response","trial_index":165,"plugin_version":"2.1.0","time_elapsed":337835,"subject_id":"87728","group":"Group2","full_date":"2025-12-03T20:14:15.229Z","date":"2025-12-03","time":"20:14:15"},{"rt":null,"stimulus":"<p style=\"font-size: 50px; margin: 0; text-align: center;\">+</p>","response":null,"trial_type":"html-keyboard-response","trial_index":166,"plugin_version":"2.1.0","time_elapsed":338841,"subject_id":"87728","group":"Group2","full_date":"2025-12-03T20:14:15.229Z","date":"2025-12-03","time":"20:14:15"},{"task":"memory_phase","broad_category":"M","image_png":"M_Gneiss_10.png","image_id":202,"category_name":"Gneiss","category":13,"distinct_rating":3.09,"distinct_type":"Bottom","rt":null,"stimulus":"Stimuli_Rocks480/M_Gneiss_10.png","response":null,"trial_type":"image-keyboard-response","trial_index":167,"plugin_version":"2.1.0","time_elapsed":341359,"subject_id":"87728","group":"Group2","full_date":"2025-12-03T20:14:15.229Z","date":"2025-12-03","time":"20:14:15"},{"rt":null,"stimulus":"<p style=\"font-size: 50px; margin: 0; text-align: center;\">+</p>","response":null,"trial_type":"html-keyboard-response","trial_index":168,"plugin_version":"2.1.0","time_elapsed":342361,"subject_id":"87728","group":"Group2","full_date":"2025-12-03T20:14:15.229Z","date":"2025-12-03","time":"20:14:15"},{"task":"memory_phase","broad_category":"M","image_png":"M_Quartzite_15.png","image_id":287,"category_name":"Quartzite","category":18,"distinct_rating":2.19,"distinct_type":"Bottom","rt":null,"stimulus":"Stimuli_Rocks480/M_Quartzite_15.png","response":null,"trial_type":"image-keyboard-response","trial_index":169,"plugin_version":"2.1.0","time_elapsed":344868,"subject_id":"87728","group":"Group2","full_date":"2025-12-03T20:14:15.229Z","date":"2025-12-03","time":"20:14:15"},{"rt":null,"stimulus":"<p style=\"font-size: 50px; margin: 0; text-align: center;\">+</p>","response":null,"trial_type":"html-keyboard-response","trial_index":170,"plugin_version":"2.1.0","time_elapsed":345884,"subject_id":"87728","group":"Group2","full_date":"2025-12-03T20:14:15.229Z","date":"2025-12-03","time":"20:14:15"},{"task":"memory_phase","broad_category":"S","image_png":"S_Rock Salt_13.png","image_id":445,"category_name":"Rock Salt","category":28,"distinct_rating":7.58,"distinct_type":"Top","rt":null,"stimulus":"Stimuli_Rocks480/S_Rock Salt_13.png","response":null,"trial_type":"image-keyboard-response","trial_index":171,"plugin_version":"2.1.0","time_elapsed":348393,"subject_id":"87728","group":"Group2","full_date":"2025-12-03T20:14:15.229Z","date":"2025-12-03","time":"20:14:15"},{"rt":null,"stimulus":"<p style=\"font-size: 50px; margin: 0; text-align: center;\">+</p>","response":null,"trial_type":"html-keyboard-response","trial_index":172,"plugin_version":"2.1.0","time_elapsed":349410,"subject_id":"87728","group":"Group2","full_date":"2025-12-03T20:14:15.229Z","date":"2025-12-03","time":"20:14:15"},{"task":"memory_phase","broad_category":"M","image_png":"M_Slate_04.png","image_id":308,"category_name":"Slate","category":20,"distinct_rating":2.2,"distinct_type":"Bottom","rt":null,"stimulus":"Stimuli_Rocks480/M_Slate_04.png","response":null,"trial_type":"image-keyboard-response","trial_index":173,"plugin_version":"2.1.0","time_elapsed":351926,"subject_id":"87728","group":"Group2","full_date":"2025-12-03T20:14:15.229Z","date":"2025-12-03","time":"20:14:15"},{"rt":null,"stimulus":"<p style=\"font-size: 50px; margin: 0; text-align: center;\">+</p>","response":null,"trial_type":"html-keyboard-response","trial_index":174,"plugin_version":"2.1.0","time_elapsed":352934,"subject_id":"87728","group":"Group2","full_date":"2025-12-03T20:14:15.229Z","date":"2025-12-03","time":"20:14:15"},{"task":"memory_phase","broad_category":"S","image_png":"S_Sandstone_04.png","image_id":452,"category_name":"Sandstone","category":29,"distinct_rating":1.8,"distinct_type":"Bottom","rt":null,"stimulus":"Stimuli_Rocks480/S_Sandstone_04.png","response":null,"trial_type":"image-keyboard-response","trial_index":175,"plugin_version":"2.1.0","time_elapsed":355445,"subject_id":"87728","group":"Group2","full_date":"2025-12-03T20:14:15.229Z","date":"2025-12-03","time":"20:14:15"},{"rt":null,"stimulus":"<p style=\"font-size: 50px; margin: 0; text-align: center;\">+</p>","response":null,"trial_type":"html-keyboard-response","trial_index":176,"plugin_version":"2.1.0","time_elapsed":356451,"subject_id":"87728","group":"Group2","full_date":"2025-12-03T20:14:15.229Z","date":"2025-12-03","time":"20:14:15"},{"task":"memory_phase","broad_category":"I","image_png":"I_Pegmatite_03.png","image_id":99,"category_name":"Pegmatite","category":7,"distinct_rating":7.24,"distinct_type":"Top","rt":null,"stimulus":"Stimuli_Rocks480/I_Pegmatite_03.png","response":null,"trial_type":"image-keyboard-response","trial_index":177,"plugin_version":"2.1.0","time_elapsed":358967,"subject_id":"87728","group":"Group2","full_date":"2025-12-03T20:14:15.229Z","date":"2025-12-03","time":"20:14:15"},{"rt":null,"stimulus":"<p style=\"font-size: 50px; margin: 0; text-align: center;\">+</p>","response":null,"trial_type":"html-keyboard-response","trial_index":178,"plugin_version":"2.1.0","time_elapsed":359972,"subject_id":"87728","group":"Group2","full_date":"2025-12-03T20:14:15.229Z","date":"2025-12-03","time":"20:14:15"},{"task":"memory_phase","broad_category":"I","image_png":"I_Pumice_13.png","image_id":141,"category_name":"Pumice","category":9,"distinct_rating":3.12,"distinct_type":"Bottom","rt":null,"stimulus":"Stimuli_Rocks480/I_Pumice_13.png","response":null,"trial_type":"image-keyboard-response","trial_index":179,"plugin_version":"2.1.0","time_elapsed":362479,"subject_id":"87728","group":"Group2","full_date":"2025-12-03T20:14:15.229Z","date":"2025-12-03","time":"20:14:15"},{"rt":null,"stimulus":"<p style=\"font-size: 50px; margin: 0; text-align: center;\">+</p>","response":null,"trial_type":"html-keyboard-response","trial_index":180,"plugin_version":"2.1.0","time_elapsed":363483,"subject_id":"87728","group":"Group2","full_date":"2025-12-03T20:14:15.229Z","date":"2025-12-03","time":"20:14:15"},{"task":"memory_phase","broad_category":"M","image_png":"M_Marble_03.png","image_id":227,"category_name":"Marble","category":15,"distinct_rating":2.67,"distinct_type":"Bottom","rt":null,"stimulus":"Stimuli_Rocks480/M_Marble_03.png","response":null,"trial_type":"image-keyboard-response","trial_index":181,"plugin_version":"2.1.0","time_elapsed":365992,"subject_id":"87728","group":"Group2","full_date":"2025-12-03T20:14:15.229Z","date":"2025-12-03","time":"20:14:15"},{"rt":null,"stimulus":"<p style=\"font-size: 50px; margin: 0; text-align: center;\">+</p>","response":null,"trial_type":"html-keyboard-response","trial_index":182,"plugin_version":"2.1.0","time_elapsed":367003,"subject_id":"87728","group":"Group2","full_date":"2025-12-03T20:14:15.229Z","date":"2025-12-03","time":"20:14:15"},{"task":"memory_phase","broad_category":"M","image_png":"M_Gneiss_14.png","image_id":206,"category_name":"Gneiss","category":13,"distinct_rating":3.41,"distinct_type":"Bottom","rt":null,"stimulus":"Stimuli_Rocks480/M_Gneiss_14.png","response":null,"trial_type":"image-keyboard-response","trial_index":183,"plugin_version":"2.1.0","time_elapsed":369511,"subject_id":"87728","group":"Group2","full_date":"2025-12-03T20:14:15.229Z","date":"2025-12-03","time":"20:14:15"},{"rt":null,"stimulus":"<p style=\"font-size: 50px; margin: 0; text-align: center;\">+</p>","response":null,"trial_type":"html-keyboard-response","trial_index":184,"plugin_version":"2.1.0","time_elapsed":370512,"subject_id":"87728","group":"Group2","full_date":"2025-12-03T20:14:15.229Z","date":"2025-12-03","time":"20:14:15"},{"task":"memory_phase","broad_category":"S","image_png":"S_Chert_13.png","image_id":365,"category_name":"Chert","category":23,"distinct_rating":6.57,"distinct_type":"Top","rt":null,"stimulus":"Stimuli_Rocks480/S_Chert_13.png","response":null,"trial_type":"image-keyboard-response","trial_index":185,"plugin_version":"2.1.0","time_elapsed":373021,"subject_id":"87728","group":"Group2","full_date":"2025-12-03T20:14:15.229Z","date":"2025-12-03","time":"20:14:15"},{"rt":null,"stimulus":"<p style=\"font-size: 50px; margin: 0; text-align: center;\">+</p>","response":null,"trial_type":"html-keyboard-response","trial_index":186,"plugin_version":"2.1.0","time_elapsed":374037,"subject_id":"87728","group":"Group2","full_date":"2025-12-03T20:14:15.229Z","date":"2025-12-03","time":"20:14:15"},{"task":"memory_phase","broad_category":"M","image_png":"M_Slate_10.png","image_id":314,"category_name":"Slate","category":20,"distinct_rating":1.94,"distinct_type":"Bottom","rt":null,"stimulus":"Stimuli_Rocks480/M_Slate_10.png","response":null,"trial_type":"image-keyboard-response","trial_index":187,"plugin_version":"2.1.0","time_elapsed":376540,"subject_id":"87728","group":"Group2","full_date":"2025-12-03T20:14:15.229Z","date":"2025-12-03","time":"20:14:15"},{"rt":null,"stimulus":"<p style=\"font-size: 50px; margin: 0; text-align: center;\">+</p>","response":null,"trial_type":"html-keyboard-response","trial_index":188,"plugin_version":"2.1.0","time_elapsed":377545,"subject_id":"87728","group":"Group2","full_date":"2025-12-03T20:14:15.229Z","date":"2025-12-03","time":"20:14:15"},{"task":"memory_phase","broad_category":"M","image_png":"M_Slate_14.png","image_id":318,"category_name":"Slate","category":20,"distinct_rating":2.58,"distinct_type":"Bottom","rt":null,"stimulus":"Stimuli_Rocks480/M_Slate_14.png","response":null,"trial_type":"image-keyboard-response","trial_index":189,"plugin_version":"2.1.0","time_elapsed":380050,"subject_id":"87728","group":"Group2","full_date":"2025-12-03T20:14:15.229Z","date":"2025-12-03","time":"20:14:15"},{"rt":null,"stimulus":"<p style=\"font-size: 50px; margin: 0; text-align: center;\">+</p>","response":null,"trial_type":"html-keyboard-response","trial_index":190,"plugin_version":"2.1.0","time_elapsed":381063,"subject_id":"87728","group":"Group2","full_date":"2025-12-03T20:14:15.229Z","date":"2025-12-03","time":"20:14:15"},{"task":"memory_phase","broad_category":"S","image_png":"S_Dolomite_01.png","image_id":385,"category_name":"Dolomite","category":25,"distinct_rating":1.43,"distinct_type":"Bottom","rt":null,"stimulus":"Stimuli_Rocks480/S_Dolomite_01.png","response":null,"trial_type":"image-keyboard-response","trial_index":191,"plugin_version":"2.1.0","time_elapsed":383575,"subject_id":"87728","group":"Group2","full_date":"2025-12-03T20:14:15.229Z","date":"2025-12-03","time":"20:14:15"},{"rt":null,"stimulus":"<p style=\"font-size: 50px; margin: 0; text-align: center;\">+</p>","response":null,"trial_type":"html-keyboard-response","trial_index":192,"plugin_version":"2.1.0","time_elapsed":384583,"subject_id":"87728","group":"Group2","full_date":"2025-12-03T20:14:15.229Z","date":"2025-12-03","time":"20:14:15"},{"task":"memory_phase","broad_category":"I","image_png":"I_Andesite_04.png","image_id":4,"category_name":"Andesite","category":1,"distinct_rating":3.18,"distinct_type":"Bottom","rt":null,"stimulus":"Stimuli_Rocks480/I_Andesite_04.png","response":null,"trial_type":"image-keyboard-response","trial_index":193,"plugin_version":"2.1.0","time_elapsed":387097,"subject_id":"87728","group":"Group2","full_date":"2025-12-03T20:14:15.229Z","date":"2025-12-03","time":"20:14:15"},{"rt":null,"stimulus":"<p style=\"font-size: 50px; margin: 0; text-align: center;\">+</p>","response":null,"trial_type":"html-keyboard-response","trial_index":194,"plugin_version":"2.1.0","time_elapsed":388102,"subject_id":"87728","group":"Group2","full_date":"2025-12-03T20:14:15.229Z","date":"2025-12-03","time":"20:14:15"},{"task":"memory_phase","broad_category":"M","image_png":"M_Phyllite_02.png","image_id":258,"category_name":"Phyllite","category":17,"distinct_rating":2.89,"distinct_type":"Bottom","rt":null,"stimulus":"Stimuli_Rocks480/M_Phyllite_02.png","response":null,"trial_type":"image-keyboard-response","trial_index":195,"plugin_version":"2.1.0","time_elapsed":390617,"subject_id":"87728","group":"Group2","full_date":"2025-12-03T20:14:15.229Z","date":"2025-12-03","time":"20:14:15"},{"rt":null,"stimulus":"<p style=\"font-size: 50px; margin: 0; text-align: center;\">+</p>","response":null,"trial_type":"html-keyboard-response","trial_index":196,"plugin_version":"2.1.0","time_elapsed":391621,"subject_id":"87728","group":"Group2","full_date":"2025-12-03T20:14:15.229Z","date":"2025-12-03","time":"20:14:15"},{"task":"memory_phase","broad_category":"M","image_png":"M_Marble_02.png","image_id":226,"category_name":"Marble","category":15,"distinct_rating":3.2,"distinct_type":"Bottom","rt":null,"stimulus":"Stimuli_Rocks480/M_Marble_02.png","response":null,"trial_type":"image-keyboard-response","trial_index":197,"plugin_version":"2.1.0","time_elapsed":394127,"subject_id":"87728","group":"Group2","full_date":"2025-12-03T20:14:15.229Z","date":"2025-12-03","time":"20:14:15"},{"rt":null,"stimulus":"<p style=\"font-size: 50px; margin: 0; text-align: center;\">+</p>","response":null,"trial_type":"html-keyboard-response","trial_index":198,"plugin_version":"2.1.0","time_elapsed":395135,"subject_id":"87728","group":"Group2","full_date":"2025-12-03T20:14:15.229Z","date":"2025-12-03","time":"20:14:15"},{"task":"memory_phase","broad_category":"S","image_png":"S_Conglomerate_14.png","image_id":382,"category_name":"Conglomerate","category":24,"distinct_rating":6.86,"distinct_type":"Top","rt":null,"stimulus":"Stimuli_Rocks480/S_Conglomerate_14.png","response":null,"trial_type":"image-keyboard-response","trial_index":199,"plugin_version":"2.1.0","time_elapsed":397645,"subject_id":"87728","group":"Group2","full_date":"2025-12-03T20:14:15.229Z","date":"2025-12-03","time":"20:14:15"},{"rt":null,"stimulus":"<p style=\"font-size: 50px; margin: 0; text-align: center;\">+</p>","response":null,"trial_type":"html-keyboard-response","trial_index":200,"plugin_version":"2.1.0","time_elapsed":398657,"subject_id":"87728","group":"Group2","full_date":"2025-12-03T20:14:15.229Z","date":"2025-12-03","time":"20:14:15"},{"task":"memory_phase","broad_category":"S","image_png":"S_Rock Salt_15.png","image_id":447,"category_name":"Rock Salt","category":28,"distinct_rating":7.79,"distinct_type":"Top","rt":null,"stimulus":"Stimuli_Rocks480/S_Rock Salt_15.png","response":null,"trial_type":"image-keyboard-response","trial_index":201,"plugin_version":"2.1.0","time_elapsed":401175,"subject_id":"87728","group":"Group2","full_date":"2025-12-03T20:14:15.229Z","date":"2025-12-03","time":"20:14:15"},{"rt":null,"stimulus":"<p style=\"font-size: 50px; margin: 0; text-align: center;\">+</p>","response":null,"trial_type":"html-keyboard-response","trial_index":202,"plugin_version":"2.1.0","time_elapsed":402190,"subject_id":"87728","group":"Group2","full_date":"2025-12-03T20:14:15.229Z","date":"2025-12-03","time":"20:14:15"},{"task":"memory_phase","broad_category":"S","image_png":"S_Sandstone_08.png","image_id":456,"category_name":"Sandstone","category":29,"distinct_rating":1.5,"distinct_type":"Bottom","rt":null,"stimulus":"Stimuli_Rocks480/S_Sandstone_08.png","response":null,"trial_type":"image-keyboard-response","trial_index":203,"plugin_version":"2.1.0","time_elapsed":404700,"subject_id":"87728","group":"Group2","full_date":"2025-12-03T20:14:15.229Z","date":"2025-12-03","time":"20:14:15"},{"rt":null,"stimulus":"<p style=\"font-size: 50px; margin: 0; text-align: center;\">+</p>","response":null,"trial_type":"html-keyboard-response","trial_index":204,"plugin_version":"2.1.0","time_elapsed":405714,"subject_id":"87728","group":"Group2","full_date":"2025-12-03T20:14:15.229Z","date":"2025-12-03","time":"20:14:15"},{"task":"memory_phase","broad_category":"I","image_png":"I_Gabbro_12.png","image_id":60,"category_name":"Gabbro","category":4,"distinct_rating":2.6,"distinct_type":"Bottom","rt":null,"stimulus":"Stimuli_Rocks480/I_Gabbro_12.png","response":null,"trial_type":"image-keyboard-response","trial_index":205,"plugin_version":"2.1.0","time_elapsed":408234,"subject_id":"87728","group":"Group2","full_date":"2025-12-03T20:14:15.229Z","date":"2025-12-03","time":"20:14:15"},{"rt":null,"stimulus":"<p style=\"font-size: 50px; margin: 0; text-align: center;\">+</p>","response":null,"trial_type":"html-keyboard-response","trial_index":206,"plugin_version":"2.1.0","time_elapsed":409247,"subject_id":"87728","group":"Group2","full_date":"2025-12-03T20:14:15.229Z","date":"2025-12-03","time":"20:14:15"},{"task":"memory_phase","broad_category":"I","image_png":"I_Pumice_01.png","image_id":129,"category_name":"Pumice","category":9,"distinct_rating":3.25,"distinct_type":"Bottom","rt":null,"stimulus":"Stimuli_Rocks480/I_Pumice_01.png","response":null,"trial_type":"image-keyboard-response","trial_index":207,"plugin_version":"2.1.0","time_elapsed":411763,"subject_id":"87728","group":"Group2","full_date":"2025-12-03T20:14:15.229Z","date":"2025-12-03","time":"20:14:15"},{"rt":2125,"stimulus":"<p style=\"max-width: 760px; margin: auto; font-size: 35px; line-height: 1.5;\">You have completed 2 study phases. Now, we'll show you all the images again 1 more time.<br><br>Press SPACE to continue</p>","response":" ","trial_type":"html-keyboard-response","trial_index":208,"plugin_version":"2.1.0","time_elapsed":413888,"subject_id":"87728","group":"Group2","full_date":"2025-12-03T20:14:15.229Z","date":"2025-12-03","time":"20:14:15"},{"rt":null,"stimulus":"<p style=\"font-size: 50px; margin: 0; text-align: center;\">+</p>","response":null,"trial_type":"html-keyboard-response","trial_index":209,"plugin_version":"2.1.0","time_elapsed":414901,"subject_id":"87728","group":"Group2","full_date":"2025-12-03T20:14:15.229Z","date":"2025-12-03","time":"20:14:15"},{"task":"memory_phase","broad_category":"S","image_png":"S_Dolomite_07.png","image_id":391,"category_name":"Dolomite","category":25,"distinct_rating":1.73,"distinct_type":"Bottom","rt":null,"stimulus":"Stimuli_Rocks480/S_Dolomite_07.png","response":null,"trial_type":"image-keyboard-response","trial_index":210,"plugin_version":"2.1.0","time_elapsed":417404,"subject_id":"87728","group":"Group2","full_date":"2025-12-03T20:14:15.229Z","date":"2025-12-03","time":"20:14:15"},{"rt":null,"stimulus":"<p style=\"font-size: 50px; margin: 0; text-align: center;\">+</p>","response":null,"trial_type":"html-keyboard-response","trial_index":211,"plugin_version":"2.1.0","time_elapsed":418406,"subject_id":"87728","group":"Group2","full_date":"2025-12-03T20:14:15.229Z","date":"2025-12-03","time":"20:14:15"},{"task":"memory_phase","broad_category":"I","image_png":"I_Diorite_10.png","image_id":42,"category_name":"Diorite","category":3,"distinct_rating":2.84,"distinct_type":"Bottom","rt":null,"stimulus":"Stimuli_Rocks480/I_Diorite_10.png","response":null,"trial_type":"image-keyboard-response","trial_index":212,"plugin_version":"2.1.0","time_elapsed":420918,"subject_id":"87728","group":"Group2","full_date":"2025-12-03T20:14:15.229Z","date":"2025-12-03","time":"20:14:15"},{"rt":null,"stimulus":"<p style=\"font-size: 50px; margin: 0; text-align: center;\">+</p>","response":null,"trial_type":"html-keyboard-response","trial_index":213,"plugin_version":"2.1.0","time_elapsed":421927,"subject_id":"87728","group":"Group2","full_date":"2025-12-03T20:14:15.229Z","date":"2025-12-03","time":"20:14:15"},{"task":"memory_phase","broad_category":"M","image_png":"M_Marble_14.png","image_id":238,"category_name":"Marble","category":15,"distinct_rating":3.31,"distinct_type":"Bottom","rt":null,"stimulus":"Stimuli_Rocks480/M_Marble_14.png","response":null,"trial_type":"image-keyboard-response","trial_index":214,"plugin_version":"2.1.0","time_elapsed":424441,"subject_id":"87728","group":"Group2","full_date":"2025-12-03T20:14:15.229Z","date":"2025-12-03","time":"20:14:15"},{"rt":null,"stimulus":"<p style=\"font-size: 50px; margin: 0; text-align: center;\">+</p>","response":null,"trial_type":"html-keyboard-response","trial_index":215,"plugin_version":"2.1.0","time_elapsed":425458,"subject_id":"87728","group":"Group2","full_date":"2025-12-03T20:14:15.229Z","date":"2025-12-03","time":"20:14:15"},{"task":"memory_phase","broad_category":"I","image_png":"I_Andesite_09.png","image_id":9,"category_name":"Andesite","category":1,"distinct_rating":2.49,"distinct_type":"Bottom","rt":null,"stimulus":"Stimuli_Rocks480/I_Andesite_09.png","response":null,"trial_type":"image-keyboard-response","trial_index":216,"plugin_version":"2.1.0","time_elapsed":427975,"subject_id":"87728","group":"Group2","full_date":"2025-12-03T20:14:15.229Z","date":"2025-12-03","time":"20:14:15"},{"rt":null,"stimulus":"<p style=\"font-size: 50px; margin: 0; text-align: center;\">+</p>","response":null,"trial_type":"html-keyboard-response","trial_index":217,"plugin_version":"2.1.0","time_elapsed":428979,"subject_id":"87728","group":"Group2","full_date":"2025-12-03T20:14:15.229Z","date":"2025-12-03","time":"20:14:15"},{"task":"memory_phase","broad_category":"S","image_png":"S_Rock Salt_15.png","image_id":447,"category_name":"Rock Salt","category":28,"distinct_rating":7.79,"distinct_type":"Top","rt":null,"stimulus":"Stimuli_Rocks480/S_Rock Salt_15.png","response":null,"trial_type":"image-keyboard-response","trial_index":218,"plugin_version":"2.1.0","time_elapsed":431489,"subject_id":"87728","group":"Group2","full_date":"2025-12-03T20:14:15.229Z","date":"2025-12-03","time":"20:14:15"},{"rt":null,"stimulus":"<p style=\"font-size: 50px; margin: 0; text-align: center;\">+</p>","response":null,"trial_type":"html-keyboard-response","trial_index":219,"plugin_version":"2.1.0","time_elapsed":432500,"subject_id":"87728","group":"Group2","full_date":"2025-12-03T20:14:15.229Z","date":"2025-12-03","time":"20:14:15"},{"task":"memory_phase","broad_category":"S","image_png":"S_Sandstone_08.png","image_id":456,"category_name":"Sandstone","category":29,"distinct_rating":1.5,"distinct_type":"Bottom","rt":null,"stimulus":"Stimuli_Rocks480/S_Sandstone_08.png","response":null,"trial_type":"image-keyboard-response","trial_index":220,"plugin_version":"2.1.0","time_elapsed":435010,"subject_id":"87728","group":"Group2","full_date":"2025-12-03T20:14:15.229Z","date":"2025-12-03","time":"20:14:15"},{"rt":null,"stimulus":"<p style=\"font-size: 50px; margin: 0; text-align: center;\">+</p>","response":null,"trial_type":"html-keyboard-response","trial_index":221,"plugin_version":"2.1.0","time_elapsed":436014,"subject_id":"87728","group":"Group2","full_date":"2025-12-03T20:14:15.229Z","date":"2025-12-03","time":"20:14:15"},{"task":"memory_phase","broad_category":"M","image_png":"M_Quartzite_15.png","image_id":287,"category_name":"Quartzite","category":18,"distinct_rating":2.19,"distinct_type":"Bottom","rt":null,"stimulus":"Stimuli_Rocks480/M_Quartzite_15.png","response":null,"trial_type":"image-keyboard-response","trial_index":222,"plugin_version":"2.1.0","time_elapsed":438528,"subject_id":"87728","group":"Group2","full_date":"2025-12-03T20:14:15.229Z","date":"2025-12-03","time":"20:14:15"},{"rt":null,"stimulus":"<p style=\"font-size: 50px; margin: 0; text-align: center;\">+</p>","response":null,"trial_type":"html-keyboard-response","trial_index":223,"plugin_version":"2.1.0","time_elapsed":439535,"subject_id":"87728","group":"Group2","full_date":"2025-12-03T20:14:15.229Z","date":"2025-12-03","time":"20:14:15"},{"task":"memory_phase","broad_category":"I","image_png":"I_Basalt_08.png","image_id":24,"category_name":"Basalt","category":2,"distinct_rating":2.31,"distinct_type":"Bottom","rt":null,"stimulus":"Stimuli_Rocks480/I_Basalt_08.png","response":null,"trial_type":"image-keyboard-response","trial_index":224,"plugin_version":"2.1.0","time_elapsed":442052,"subject_id":"87728","group":"Group2","full_date":"2025-12-03T20:14:15.229Z","date":"2025-12-03","time":"20:14:15"},{"rt":null,"stimulus":"<p style=\"font-size: 50px; margin: 0; text-align: center;\">+</p>","response":null,"trial_type":"html-keyboard-response","trial_index":225,"plugin_version":"2.1.0","time_elapsed":443068,"subject_id":"87728","group":"Group2","full_date":"2025-12-03T20:14:15.229Z","date":"2025-12-03","time":"20:14:15"},{"task":"memory_phase","broad_category":"M","image_png":"M_Quartzite_12.png","image_id":284,"category_name":"Quartzite","category":18,"distinct_rating":1.92,"distinct_type":"Bottom","rt":null,"stimulus":"Stimuli_Rocks480/M_Quartzite_12.png","response":null,"trial_type":"image-keyboard-response","trial_index":226,"plugin_version":"2.1.0","time_elapsed":445586,"subject_id":"87728","group":"Group2","full_date":"2025-12-03T20:14:15.229Z","date":"2025-12-03","time":"20:14:15"},{"rt":null,"stimulus":"<p style=\"font-size: 50px; margin: 0; text-align: center;\">+</p>","response":null,"trial_type":"html-keyboard-response","trial_index":227,"plugin_version":"2.1.0","time_elapsed":446598,"subject_id":"87728","group":"Group2","full_date":"2025-12-03T20:14:15.229Z","date":"2025-12-03","time":"20:14:15"},{"task":"memory_phase","broad_category":"M","image_png":"M_Marble_02.png","image_id":226,"category_name":"Marble","category":15,"distinct_rating":3.2,"distinct_type":"Bottom","rt":null,"stimulus":"Stimuli_Rocks480/M_Marble_02.png","response":null,"trial_type":"image-keyboard-response","trial_index":228,"plugin_version":"2.1.0","time_elapsed":449112,"subject_id":"87728","group":"Group2","full_date":"2025-12-03T20:14:15.229Z","date":"2025-12-03","time":"20:14:15"},{"rt":null,"stimulus":"<p style=\"font-size: 50px; margin: 0; text-align: center;\">+</p>","response":null,"trial_type":"html-keyboard-response","trial_index":229,"plugin_version":"2.1.0","time_elapsed":450119,"subject_id":"87728","group":"Group2","full_date":"2025-12-03T20:14:15.229Z","date":"2025-12-03","time":"20:14:15"},{"task":"memory_phase","broad_category":"S","image_png":"S_Shale_03.png","image_id":467,"category_name":"Shale","category":30,"distinct_rating":1.95,"distinct_type":"Bottom","rt":null,"stimulus":"Stimuli_Rocks480/S_Shale_03.png","response":null,"trial_type":"image-keyboard-response","trial_index":230,"plugin_version":"2.1.0","time_elapsed":452628,"subject_id":"87728","group":"Group2","full_date":"2025-12-03T20:14:15.229Z","date":"2025-12-03","time":"20:14:15"},{"rt":null,"stimulus":"<p style=\"font-size: 50px; margin: 0; text-align: center;\">+</p>","response":null,"trial_type":"html-keyboard-response","trial_index":231,"plugin_version":"2.1.0","time_elapsed":453637,"subject_id":"87728","group":"Group2","full_date":"2025-12-03T20:14:15.229Z","date":"2025-12-03","time":"20:14:15"},{"task":"memory_phase","broad_category":"I","image_png":"I_Gabbro_12.png","image_id":60,"category_name":"Gabbro","category":4,"distinct_rating":2.6,"distinct_type":"Bottom","rt":null,"stimulus":"Stimuli_Rocks480/I_Gabbro_12.png","response":null,"trial_type":"image-keyboard-response","trial_index":232,"plugin_version":"2.1.0","time_elapsed":456141,"subject_id":"87728","group":"Group2","full_date":"2025-12-03T20:14:15.229Z","date":"2025-12-03","time":"20:14:15"},{"rt":null,"stimulus":"<p style=\"font-size: 50px; margin: 0; text-align: center;\">+</p>","response":null,"trial_type":"html-keyboard-response","trial_index":233,"plugin_version":"2.1.0","time_elapsed":457154,"subject_id":"87728","group":"Group2","full_date":"2025-12-03T20:14:15.229Z","date":"2025-12-03","time":"20:14:15"},{"task":"memory_phase","broad_category":"I","image_png":"I_Basalt_13.png","image_id":29,"category_name":"Basalt","category":2,"distinct_rating":2.68,"distinct_type":"Bottom","rt":null,"stimulus":"Stimuli_Rocks480/I_Basalt_13.png","response":null,"trial_type":"image-keyboard-response","trial_index":234,"plugin_version":"2.1.0","time_elapsed":459661,"subject_id":"87728","group":"Group2","full_date":"2025-12-03T20:14:15.229Z","date":"2025-12-03","time":"20:14:15"},{"rt":null,"stimulus":"<p style=\"font-size: 50px; margin: 0; text-align: center;\">+</p>","response":null,"trial_type":"html-keyboard-response","trial_index":235,"plugin_version":"2.1.0","time_elapsed":460673,"subject_id":"87728","group":"Group2","full_date":"2025-12-03T20:14:15.229Z","date":"2025-12-03","time":"20:14:15"},{"task":"memory_phase","broad_category":"I","image_png":"I_Andesite_03.png","image_id":3,"category_name":"Andesite","category":1,"distinct_rating":3.17,"distinct_type":"Bottom","rt":null,"stimulus":"Stimuli_Rocks480/I_Andesite_03.png","response":null,"trial_type":"image-keyboard-response","trial_index":236,"plugin_version":"2.1.0","time_elapsed":463186,"subject_id":"87728","group":"Group2","full_date":"2025-12-03T20:14:15.229Z","date":"2025-12-03","time":"20:14:15"},{"rt":null,"stimulus":"<p style=\"font-size: 50px; margin: 0; text-align: center;\">+</p>","response":null,"trial_type":"html-keyboard-response","trial_index":237,"plugin_version":"2.1.0","time_elapsed":464189,"subject_id":"87728","group":"Group2","full_date":"2025-12-03T20:14:15.229Z","date":"2025-12-03","time":"20:14:15"},{"task":"memory_phase","broad_category":"I","image_png":"I_Rhyolite_10.png","image_id":154,"category_name":"Rhyolite","category":10,"distinct_rating":2.88,"distinct_type":"Bottom","rt":null,"stimulus":"Stimuli_Rocks480/I_Rhyolite_10.png","response":null,"trial_type":"image-keyboard-response","trial_index":238,"plugin_version":"2.1.0","time_elapsed":466702,"subject_id":"87728","group":"Group2","full_date":"2025-12-03T20:14:15.229Z","date":"2025-12-03","time":"20:14:15"},{"rt":null,"stimulus":"<p style=\"font-size: 50px; margin: 0; text-align: center;\">+</p>","response":null,"trial_type":"html-keyboard-response","trial_index":239,"plugin_version":"2.1.0","time_elapsed":467705,"subject_id":"87728","group":"Group2","full_date":"2025-12-03T20:14:15.229Z","date":"2025-12-03","time":"20:14:15"},{"task":"memory_phase","broad_category":"M","image_png":"M_Gneiss_14.png","image_id":206,"category_name":"Gneiss","category":13,"distinct_rating":3.41,"distinct_type":"Bottom","rt":null,"stimulus":"Stimuli_Rocks480/M_Gneiss_14.png","response":null,"trial_type":"image-keyboard-response","trial_index":240,"plugin_version":"2.1.0","time_elapsed":470221,"subject_id":"87728","group":"Group2","full_date":"2025-12-03T20:14:15.229Z","date":"2025-12-03","time":"20:14:15"},{"rt":null,"stimulus":"<p style=\"font-size: 50px; margin: 0; text-align: center;\">+</p>","response":null,"trial_type":"html-keyboard-response","trial_index":241,"plugin_version":"2.1.0","time_elapsed":471224,"subject_id":"87728","group":"Group2","full_date":"2025-12-03T20:14:15.229Z","date":"2025-12-03","time":"20:14:15"},{"task":"memory_phase","broad_category":"M","image_png":"M_Phyllite_13.png","image_id":269,"category_name":"Phyllite","category":17,"distinct_rating":2.8,"distinct_type":"Bottom","rt":null,"stimulus":"Stimuli_Rocks480/M_Phyllite_13.png","response":null,"trial_type":"image-keyboard-response","trial_index":242,"plugin_version":"2.1.0","time_elapsed":473734,"subject_id":"87728","group":"Group2","full_date":"2025-12-03T20:14:15.229Z","date":"2025-12-03","time":"20:14:15"},{"rt":null,"stimulus":"<p style=\"font-size: 50px; margin: 0; text-align: center;\">+</p>","response":null,"trial_type":"html-keyboard-response","trial_index":243,"plugin_version":"2.1.0","time_elapsed":474738,"subject_id":"87728","group":"Group2","full_date":"2025-12-03T20:14:15.229Z","date":"2025-12-03","time":"20:14:15"},{"task":"memory_phase","broad_category":"S","image_png":"S_Sandstone_11.png","image_id":459,"category_name":"Sandstone","category":29,"distinct_rating":1.82,"distinct_type":"Bottom","rt":null,"stimulus":"Stimuli_Rocks480/S_Sandstone_11.png","response":null,"trial_type":"image-keyboard-response","trial_index":244,"plugin_version":"2.1.0","time_elapsed":477252,"subject_id":"87728","group":"Group2","full_date":"2025-12-03T20:14:15.229Z","date":"2025-12-03","time":"20:14:15"},{"rt":null,"stimulus":"<p style=\"font-size: 50px; margin: 0; text-align: center;\">+</p>","response":null,"trial_type":"html-keyboard-response","trial_index":245,"plugin_version":"2.1.0","time_elapsed":478257,"subject_id":"87728","group":"Group2","full_date":"2025-12-03T20:14:15.229Z","date":"2025-12-03","time":"20:14:15"},{"task":"memory_phase","broad_category":"S","image_png":"S_Rock Salt_13.png","image_id":445,"category_name":"Rock Salt","category":28,"distinct_rating":7.58,"distinct_type":"Top","rt":null,"stimulus":"Stimuli_Rocks480/S_Rock Salt_13.png","response":null,"trial_type":"image-keyboard-response","trial_index":246,"plugin_version":"2.1.0","time_elapsed":480773,"subject_id":"87728","group":"Group2","full_date":"2025-12-03T20:14:15.229Z","date":"2025-12-03","time":"20:14:15"},{"rt":null,"stimulus":"<p style=\"font-size: 50px; margin: 0; text-align: center;\">+</p>","response":null,"trial_type":"html-keyboard-response","trial_index":247,"plugin_version":"2.1.0","time_elapsed":481778,"subject_id":"87728","group":"Group2","full_date":"2025-12-03T20:14:15.229Z","date":"2025-12-03","time":"20:14:15"},{"task":"memory_phase","broad_category":"I","image_png":"I_Diorite_01.png","image_id":33,"category_name":"Diorite","category":3,"distinct_rating":2.97,"distinct_type":"Bottom","rt":null,"stimulus":"Stimuli_Rocks480/I_Diorite_01.png","response":null,"trial_type":"image-keyboard-response","trial_index":248,"plugin_version":"2.1.0","time_elapsed":4