[{"width":1470,"height":798,"webaudio":true,"browser":"chrome","browser_version":"141.0.0","mobile":false,"os":"Mac OS","fullscreen":true,"vsync_rate":60.86,"webcam":true,"microphone":true,"trial_type":"browser-check","trial_index":0,"plugin_version":"2.1.0","time_elapsed":2595,"subject_id":"86671","group":"Group1","full_date":"2025-11-26T17:01:57.631Z","date":"2025-11-26","time":"17:01:57"},{"success":true,"timeout":false,"failed_images":[],"failed_audio":[],"failed_video":[],"trial_type":"preload","trial_index":1,"plugin_version":"2.1.0","time_elapsed":17793,"subject_id":"86671","group":"Group1","full_date":"2025-11-26T17:01:57.631Z","date":"2025-11-26","time":"17:01:57"},{"rt":6047,"url":"SONA_consent_memorability.html","trial_type":"external-html","trial_index":2,"plugin_version":"2.1.0","time_elapsed":23925,"subject_id":"86671","group":"Group1","full_date":"2025-11-26T17:01:57.631Z","date":"2025-11-26","time":"17:01:57"},{"success":true,"rt":1163,"trial_type":"fullscreen","trial_index":3,"plugin_version":"2.1.0","time_elapsed":26092,"subject_id":"86671","group":"Group1","full_date":"2025-11-26T17:01:57.631Z","date":"2025-11-26","time":"17:01:57"},{"rt":1596,"stimulus":"<div style=\"max-width: 760px; margin: auto; font-size: 20px; line-height: 1.5;\">\n      <h1 style=\"text-align:center; font-size: 30px;\">Instructions</h1>\n      <p>\n        Welcome to the study on <b>visual memory</b>. This experiment consists of <b>two phases</b>: \n        a <b>study phase</b> and a <b>test phase</b>.\n      </p>\n      <p>\n        In the study phase, you will see a series of rock images along with their category labels.\n        The images will appear one at a time.\n        <b>Your task</b> is to learn the categories to which the rock images belong \n        and to remember each image as accurately as possible.\n      </p> \n      <p>\n        Note that we will repeat the study phase <b>3 times</b>, \n        so you will have multiple opportunities to see and remember each image.\n      </p>\n      <p>\n        After the study phase, <b>your memory will be tested</b>. \n        Additional instructions for the test phase will be provided at that time.\n      </p>\n      <p>\n        If your computer has multiple <b>language settings</b> (e.g., English and another language),\n        please make sure it is set to English before starting.\n      </p>\n      <p>\n        You can track your progress using the <b>completion bar</b> at the top of the screen. \n        Please note that the bar will refresh when the test phase begins \n        to give you an accurate sense of your progress in both phases.\n      </p> \n      <p>\n        Press the button below when you are ready to begin.\n      </p>\n    </div>","response":0,"trial_type":"html-button-response","trial_index":4,"plugin_version":"2.1.0","time_elapsed":27691,"subject_id":"86671","group":"Group1","full_date":"2025-11-26T17:01:57.631Z","date":"2025-11-26","time":"17:01:57"},{"rt":null,"stimulus":"<p style=\"font-size: 50px; margin: 0; text-align: center;\">+</p>","response":null,"trial_type":"html-keyboard-response","trial_index":5,"plugin_version":"2.1.0","time_elapsed":28696,"subject_id":"86671","group":"Group1","full_date":"2025-11-26T17:01:57.631Z","date":"2025-11-26","time":"17:01:57"},{"task":"memory_phase","broad_category":"I","image_png":"I_Diorite_03.png","image_id":35,"category_name":"Diorite","category":3,"distinct_rating":3.14,"distinct_type":"Bottom","rt":null,"stimulus":"Stimuli_Rocks480/I_Diorite_03.png","response":null,"trial_type":"image-keyboard-response","trial_index":6,"plugin_version":"2.1.0","time_elapsed":31203,"subject_id":"86671","group":"Group1","full_date":"2025-11-26T17:01:57.631Z","date":"2025-11-26","time":"17:01:57"},{"rt":null,"stimulus":"<p style=\"font-size: 50px; margin: 0; text-align: center;\">+</p>","response":null,"trial_type":"html-keyboard-response","trial_index":7,"plugin_version":"2.1.0","time_elapsed":32206,"subject_id":"86671","group":"Group1","full_date":"2025-11-26T17:01:57.631Z","date":"2025-11-26","time":"17:01:57"},{"task":"memory_phase","broad_category":"M","image_png":"M_Quartzite_05.png","image_id":277,"category_name":"Quartzite","category":18,"distinct_rating":2.23,"distinct_type":"Bottom","rt":null,"stimulus":"Stimuli_Rocks480/M_Quartzite_05.png","response":null,"trial_type":"image-keyboard-response","trial_index":8,"plugin_version":"2.1.0","time_elapsed":34710,"subject_id":"86671","group":"Group1","full_date":"2025-11-26T17:01:57.631Z","date":"2025-11-26","time":"17:01:57"},{"rt":null,"stimulus":"<p style=\"font-size: 50px; margin: 0; text-align: center;\">+</p>","response":null,"trial_type":"html-keyboard-response","trial_index":9,"plugin_version":"2.1.0","time_elapsed":35712,"subject_id":"86671","group":"Group1","full_date":"2025-11-26T17:01:57.631Z","date":"2025-11-26","time":"17:01:57"},{"task":"memory_phase","broad_category":"M","image_png":"M_Marble_16.png","image_id":240,"category_name":"Marble","category":15,"distinct_rating":2.57,"distinct_type":"Bottom","rt":null,"stimulus":"Stimuli_Rocks480/M_Marble_16.png","response":null,"trial_type":"image-keyboard-response","trial_index":10,"plugin_version":"2.1.0","time_elapsed":38217,"subject_id":"86671","group":"Group1","full_date":"2025-11-26T17:01:57.631Z","date":"2025-11-26","time":"17:01:57"},{"rt":null,"stimulus":"<p style=\"font-size: 50px; margin: 0; text-align: center;\">+</p>","response":null,"trial_type":"html-keyboard-response","trial_index":11,"plugin_version":"2.1.0","time_elapsed":39220,"subject_id":"86671","group":"Group1","full_date":"2025-11-26T17:01:57.631Z","date":"2025-11-26","time":"17:01:57"},{"task":"memory_phase","broad_category":"S","image_png":"S_Shale_01.png","image_id":465,"category_name":"Shale","category":30,"distinct_rating":2.7,"distinct_type":"Bottom","rt":null,"stimulus":"Stimuli_Rocks480/S_Shale_01.png","response":null,"trial_type":"image-keyboard-response","trial_index":12,"plugin_version":"2.1.0","time_elapsed":41724,"subject_id":"86671","group":"Group1","full_date":"2025-11-26T17:01:57.631Z","date":"2025-11-26","time":"17:01:57"},{"rt":null,"stimulus":"<p style=\"font-size: 50px; margin: 0; text-align: center;\">+</p>","response":null,"trial_type":"html-keyboard-response","trial_index":13,"plugin_version":"2.1.0","time_elapsed":42728,"subject_id":"86671","group":"Group1","full_date":"2025-11-26T17:01:57.631Z","date":"2025-11-26","time":"17:01:57"},{"task":"memory_phase","broad_category":"S","image_png":"S_Breccia_11.png","image_id":347,"category_name":"Breccia","category":22,"distinct_rating":6.7,"distinct_type":"Top","rt":null,"stimulus":"Stimuli_Rocks480/S_Breccia_11.png","response":null,"trial_type":"image-keyboard-response","trial_index":14,"plugin_version":"2.1.0","time_elapsed":45232,"subject_id":"86671","group":"Group1","full_date":"2025-11-26T17:01:57.631Z","date":"2025-11-26","time":"17:01:57"},{"rt":null,"stimulus":"<p style=\"font-size: 50px; margin: 0; text-align: center;\">+</p>","response":null,"trial_type":"html-keyboard-response","trial_index":15,"plugin_version":"2.1.0","time_elapsed":46235,"subject_id":"86671","group":"Group1","full_date":"2025-11-26T17:01:57.631Z","date":"2025-11-26","time":"17:01:57"},{"task":"memory_phase","broad_category":"I","image_png":"I_Rhyolite_14.png","image_id":158,"category_name":"Rhyolite","category":10,"distinct_rating":2.59,"distinct_type":"Bottom","rt":null,"stimulus":"Stimuli_Rocks480/I_Rhyolite_14.png","response":null,"trial_type":"image-keyboard-response","trial_index":16,"plugin_version":"2.1.0","time_elapsed":48739,"subject_id":"86671","group":"Group1","full_date":"2025-11-26T17:01:57.631Z","date":"2025-11-26","time":"17:01:57"},{"rt":null,"stimulus":"<p style=\"font-size: 50px; margin: 0; text-align: center;\">+</p>","response":null,"trial_type":"html-keyboard-response","trial_index":17,"plugin_version":"2.1.0","time_elapsed":49742,"subject_id":"86671","group":"Group1","full_date":"2025-11-26T17:01:57.631Z","date":"2025-11-26","time":"17:01:57"},{"task":"memory_phase","broad_category":"I","image_png":"I_Diorite_04.png","image_id":36,"category_name":"Diorite","category":3,"distinct_rating":2.98,"distinct_type":"Bottom","rt":null,"stimulus":"Stimuli_Rocks480/I_Diorite_04.png","response":null,"trial_type":"image-keyboard-response","trial_index":18,"plugin_version":"2.1.0","time_elapsed":52247,"subject_id":"86671","group":"Group1","full_date":"2025-11-26T17:01:57.631Z","date":"2025-11-26","time":"17:01:57"},{"rt":null,"stimulus":"<p style=\"font-size: 50px; margin: 0; text-align: center;\">+</p>","response":null,"trial_type":"html-keyboard-response","trial_index":19,"plugin_version":"2.1.0","time_elapsed":53250,"subject_id":"86671","group":"Group1","full_date":"2025-11-26T17:01:57.631Z","date":"2025-11-26","time":"17:01:57"},{"task":"memory_phase","broad_category":"M","image_png":"M_Phyllite_07.png","image_id":263,"category_name":"Phyllite","category":17,"distinct_rating":2.59,"distinct_type":"Bottom","rt":null,"stimulus":"Stimuli_Rocks480/M_Phyllite_07.png","response":null,"trial_type":"image-keyboard-response","trial_index":20,"plugin_version":"2.1.0","time_elapsed":55753,"subject_id":"86671","group":"Group1","full_date":"2025-11-26T17:01:57.631Z","date":"2025-11-26","time":"17:01:57"},{"rt":null,"stimulus":"<p style=\"font-size: 50px; margin: 0; text-align: center;\">+</p>","response":null,"trial_type":"html-keyboard-response","trial_index":21,"plugin_version":"2.1.0","time_elapsed":56756,"subject_id":"86671","group":"Group1","full_date":"2025-11-26T17:01:57.631Z","date":"2025-11-26","time":"17:01:57"},{"task":"memory_phase","broad_category":"M","image_png":"M_Slate_03.png","image_id":307,"category_name":"Slate","category":20,"distinct_rating":1.87,"distinct_type":"Bottom","rt":null,"stimulus":"Stimuli_Rocks480/M_Slate_03.png","response":null,"trial_type":"image-keyboard-response","trial_index":22,"plugin_version":"2.1.0","time_elapsed":59260,"subject_id":"86671","group":"Group1","full_date":"2025-11-26T17:01:57.631Z","date":"2025-11-26","time":"17:01:57"},{"rt":null,"stimulus":"<p style=\"font-size: 50px; margin: 0; text-align: center;\">+</p>","response":null,"trial_type":"html-keyboard-response","trial_index":23,"plugin_version":"2.1.0","time_elapsed":60268,"subject_id":"86671","group":"Group1","full_date":"2025-11-26T17:01:57.631Z","date":"2025-11-26","time":"17:01:57"},{"task":"memory_phase","broad_category":"M","image_png":"M_Quartzite_08.png","image_id":280,"category_name":"Quartzite","category":18,"distinct_rating":2.15,"distinct_type":"Bottom","rt":null,"stimulus":"Stimuli_Rocks480/M_Quartzite_08.png","response":null,"trial_type":"image-keyboard-response","trial_index":24,"plugin_version":"2.1.0","time_elapsed":62771,"subject_id":"86671","group":"Group1","full_date":"2025-11-26T17:01:57.631Z","date":"2025-11-26","time":"17:01:57"},{"rt":null,"stimulus":"<p style=\"font-size: 50px; margin: 0; text-align: center;\">+</p>","response":null,"trial_type":"html-keyboard-response","trial_index":25,"plugin_version":"2.1.0","time_elapsed":63774,"subject_id":"86671","group":"Group1","full_date":"2025-11-26T17:01:57.631Z","date":"2025-11-26","time":"17:01:57"},{"task":"memory_phase","broad_category":"S","image_png":"S_Shale_12.png","image_id":476,"category_name":"Shale","category":30,"distinct_rating":2.48,"distinct_type":"Bottom","rt":null,"stimulus":"Stimuli_Rocks480/S_Shale_12.png","response":null,"trial_type":"image-keyboard-response","trial_index":26,"plugin_version":"2.1.0","time_elapsed":66278,"subject_id":"86671","group":"Group1","full_date":"2025-11-26T17:01:57.631Z","date":"2025-11-26","time":"17:01:57"},{"rt":null,"stimulus":"<p style=\"font-size: 50px; margin: 0; text-align: center;\">+</p>","response":null,"trial_type":"html-keyboard-response","trial_index":27,"plugin_version":"2.1.0","time_elapsed":67280,"subject_id":"86671","group":"Group1","full_date":"2025-11-26T17:01:57.631Z","date":"2025-11-26","time":"17:01:57"},{"task":"memory_phase","broad_category":"I","image_png":"I_Rhyolite_11.png","image_id":155,"category_name":"Rhyolite","category":10,"distinct_rating":1.73,"distinct_type":"Bottom","rt":null,"stimulus":"Stimuli_Rocks480/I_Rhyolite_11.png","response":null,"trial_type":"image-keyboard-response","trial_index":28,"plugin_version":"2.1.0","time_elapsed":69785,"subject_id":"86671","group":"Group1","full_date":"2025-11-26T17:01:57.631Z","date":"2025-11-26","time":"17:01:57"},{"rt":null,"stimulus":"<p style=\"font-size: 50px; margin: 0; text-align: center;\">+</p>","response":null,"trial_type":"html-keyboard-response","trial_index":29,"plugin_version":"2.1.0","time_elapsed":70788,"subject_id":"86671","group":"Group1","full_date":"2025-11-26T17:01:57.631Z","date":"2025-11-26","time":"17:01:57"},{"task":"memory_phase","broad_category":"S","image_png":"S_Rock Salt_01.png","image_id":433,"category_name":"Rock Salt","category":28,"distinct_rating":7.18,"distinct_type":"Top","rt":null,"stimulus":"Stimuli_Rocks480/S_Rock Salt_01.png","response":null,"trial_type":"image-keyboard-response","trial_index":30,"plugin_version":"2.1.0","time_elapsed":73292,"subject_id":"86671","group":"Group1","full_date":"2025-11-26T17:01:57.631Z","date":"2025-11-26","time":"17:01:57"},{"rt":null,"stimulus":"<p style=\"font-size: 50px; margin: 0; text-align: center;\">+</p>","response":null,"trial_type":"html-keyboard-response","trial_index":31,"plugin_version":"2.1.0","time_elapsed":74295,"subject_id":"86671","group":"Group1","full_date":"2025-11-26T17:01:57.631Z","date":"2025-11-26","time":"17:01:57"},{"task":"memory_phase","broad_category":"I","image_png":"I_Gabbro_16.png","image_id":64,"category_name":"Gabbro","category":4,"distinct_rating":2.52,"distinct_type":"Bottom","rt":null,"stimulus":"Stimuli_Rocks480/I_Gabbro_16.png","response":null,"trial_type":"image-keyboard-response","trial_index":32,"plugin_version":"2.1.0","time_elapsed":76799,"subject_id":"86671","group":"Group1","full_date":"2025-11-26T17:01:57.631Z","date":"2025-11-26","time":"17:01:57"},{"rt":null,"stimulus":"<p style=\"font-size: 50px; margin: 0; text-align: center;\">+</p>","response":null,"trial_type":"html-keyboard-response","trial_index":33,"plugin_version":"2.1.0","time_elapsed":77802,"subject_id":"86671","group":"Group1","full_date":"2025-11-26T17:01:57.631Z","date":"2025-11-26","time":"17:01:57"},{"task":"memory_phase","broad_category":"M","image_png":"M_Gneiss_06.png","image_id":198,"category_name":"Gneiss","category":13,"distinct_rating":2.65,"distinct_type":"Bottom","rt":null,"stimulus":"Stimuli_Rocks480/M_Gneiss_06.png","response":null,"trial_type":"image-keyboard-response","trial_index":34,"plugin_version":"2.1.0","time_elapsed":80306,"subject_id":"86671","group":"Group1","full_date":"2025-11-26T17:01:57.631Z","date":"2025-11-26","time":"17:01:57"},{"rt":null,"stimulus":"<p style=\"font-size: 50px; margin: 0; text-align: center;\">+</p>","response":null,"trial_type":"html-keyboard-response","trial_index":35,"plugin_version":"2.1.0","time_elapsed":81309,"subject_id":"86671","group":"Group1","full_date":"2025-11-26T17:01:57.631Z","date":"2025-11-26","time":"17:01:57"},{"task":"memory_phase","broad_category":"I","image_png":"I_Basalt_02.png","image_id":18,"category_name":"Basalt","category":2,"distinct_rating":1.84,"distinct_type":"Bottom","rt":null,"stimulus":"Stimuli_Rocks480/I_Basalt_02.png","response":null,"trial_type":"image-keyboard-response","trial_index":36,"plugin_version":"2.1.0","time_elapsed":83813,"subject_id":"86671","group":"Group1","full_date":"2025-11-26T17:01:57.631Z","date":"2025-11-26","time":"17:01:57"},{"rt":null,"stimulus":"<p style=\"font-size: 50px; margin: 0; text-align: center;\">+</p>","response":null,"trial_type":"html-keyboard-response","trial_index":37,"plugin_version":"2.1.0","time_elapsed":84816,"subject_id":"86671","group":"Group1","full_date":"2025-11-26T17:01:57.631Z","date":"2025-11-26","time":"17:01:57"},{"task":"memory_phase","broad_category":"I","image_png":"I_Pegmatite_16.png","image_id":112,"category_name":"Pegmatite","category":7,"distinct_rating":7.03,"distinct_type":"Top","rt":null,"stimulus":"Stimuli_Rocks480/I_Pegmatite_16.png","response":null,"trial_type":"image-keyboard-response","trial_index":38,"plugin_version":"2.1.0","time_elapsed":87320,"subject_id":"86671","group":"Group1","full_date":"2025-11-26T17:01:57.631Z","date":"2025-11-26","time":"17:01:57"},{"rt":null,"stimulus":"<p style=\"font-size: 50px; margin: 0; text-align: center;\">+</p>","response":null,"trial_type":"html-keyboard-response","trial_index":39,"plugin_version":"2.1.0","time_elapsed":88322,"subject_id":"86671","group":"Group1","full_date":"2025-11-26T17:01:57.631Z","date":"2025-11-26","time":"17:01:57"},{"task":"memory_phase","broad_category":"S","image_png":"S_Shale_08.png","image_id":472,"category_name":"Shale","category":30,"distinct_rating":2.55,"distinct_type":"Bottom","rt":null,"stimulus":"Stimuli_Rocks480/S_Shale_08.png","response":null,"trial_type":"image-keyboard-response","trial_index":40,"plugin_version":"2.1.0","time_elapsed":90825,"subject_id":"86671","group":"Group1","full_date":"2025-11-26T17:01:57.631Z","date":"2025-11-26","time":"17:01:57"},{"rt":null,"stimulus":"<p style=\"font-size: 50px; margin: 0; text-align: center;\">+</p>","response":null,"trial_type":"html-keyboard-response","trial_index":41,"plugin_version":"2.1.0","time_elapsed":91828,"subject_id":"86671","group":"Group1","full_date":"2025-11-26T17:01:57.631Z","date":"2025-11-26","time":"17:01:57"},{"task":"memory_phase","broad_category":"S","image_png":"S_Dolomite_13.png","image_id":397,"category_name":"Dolomite","category":25,"distinct_rating":1.77,"distinct_type":"Bottom","rt":null,"stimulus":"Stimuli_Rocks480/S_Dolomite_13.png","response":null,"trial_type":"image-keyboard-response","trial_index":42,"plugin_version":"2.1.0","time_elapsed":94332,"subject_id":"86671","group":"Group1","full_date":"2025-11-26T17:01:57.631Z","date":"2025-11-26","time":"17:01:57"},{"rt":null,"stimulus":"<p style=\"font-size: 50px; margin: 0; text-align: center;\">+</p>","response":null,"trial_type":"html-keyboard-response","trial_index":43,"plugin_version":"2.1.0","time_elapsed":95334,"subject_id":"86671","group":"Group1","full_date":"2025-11-26T17:01:57.631Z","date":"2025-11-26","time":"17:01:57"},{"task":"memory_phase","broad_category":"S","image_png":"S_Sandstone_15.png","image_id":463,"category_name":"Sandstone","category":29,"distinct_rating":2,"distinct_type":"Bottom","rt":null,"stimulus":"Stimuli_Rocks480/S_Sandstone_15.png","response":null,"trial_type":"image-keyboard-response","trial_index":44,"plugin_version":"2.1.0","time_elapsed":97839,"subject_id":"86671","group":"Group1","full_date":"2025-11-26T17:01:57.631Z","date":"2025-11-26","time":"17:01:57"},{"rt":null,"stimulus":"<p style=\"font-size: 50px; margin: 0; text-align: center;\">+</p>","response":null,"trial_type":"html-keyboard-response","trial_index":45,"plugin_version":"2.1.0","time_elapsed":98841,"subject_id":"86671","group":"Group1","full_date":"2025-11-26T17:01:57.631Z","date":"2025-11-26","time":"17:01:57"},{"task":"memory_phase","broad_category":"I","image_png":"I_Andesite_10.png","image_id":10,"category_name":"Andesite","category":1,"distinct_rating":3.15,"distinct_type":"Bottom","rt":null,"stimulus":"Stimuli_Rocks480/I_Andesite_10.png","response":null,"trial_type":"image-keyboard-response","trial_index":46,"plugin_version":"2.1.0","time_elapsed":101346,"subject_id":"86671","group":"Group1","full_date":"2025-11-26T17:01:57.631Z","date":"2025-11-26","time":"17:01:57"},{"rt":null,"stimulus":"<p style=\"font-size: 50px; margin: 0; text-align: center;\">+</p>","response":null,"trial_type":"html-keyboard-response","trial_index":47,"plugin_version":"2.1.0","time_elapsed":102349,"subject_id":"86671","group":"Group1","full_date":"2025-11-26T17:01:57.631Z","date":"2025-11-26","time":"17:01:57"},{"task":"memory_phase","broad_category":"I","image_png":"I_Andesite_08.png","image_id":8,"category_name":"Andesite","category":1,"distinct_rating":1.95,"distinct_type":"Bottom","rt":null,"stimulus":"Stimuli_Rocks480/I_Andesite_08.png","response":null,"trial_type":"image-keyboard-response","trial_index":48,"plugin_version":"2.1.0","time_elapsed":104853,"subject_id":"86671","group":"Group1","full_date":"2025-11-26T17:01:57.631Z","date":"2025-11-26","time":"17:01:57"},{"rt":null,"stimulus":"<p style=\"font-size: 50px; margin: 0; text-align: center;\">+</p>","response":null,"trial_type":"html-keyboard-response","trial_index":49,"plugin_version":"2.1.0","time_elapsed":105856,"subject_id":"86671","group":"Group1","full_date":"2025-11-26T17:01:57.631Z","date":"2025-11-26","time":"17:01:57"},{"task":"memory_phase","broad_category":"I","image_png":"I_Diorite_05.png","image_id":37,"category_name":"Diorite","category":3,"distinct_rating":3.08,"distinct_type":"Bottom","rt":null,"stimulus":"Stimuli_Rocks480/I_Diorite_05.png","response":null,"trial_type":"image-keyboard-response","trial_index":50,"plugin_version":"2.1.0","time_elapsed":108359,"subject_id":"86671","group":"Group1","full_date":"2025-11-26T17:01:57.631Z","date":"2025-11-26","time":"17:01:57"},{"rt":null,"stimulus":"<p style=\"font-size: 50px; margin: 0; text-align: center;\">+</p>","response":null,"trial_type":"html-keyboard-response","trial_index":51,"plugin_version":"2.1.0","time_elapsed":109361,"subject_id":"86671","group":"Group1","full_date":"2025-11-26T17:01:57.631Z","date":"2025-11-26","time":"17:01:57"},{"task":"memory_phase","broad_category":"S","image_png":"S_Rock Gypsum_04.png","image_id":420,"category_name":"Rock Gypsum","category":27,"distinct_rating":7.61,"distinct_type":"Top","rt":null,"stimulus":"Stimuli_Rocks480/S_Rock Gypsum_04.png","response":null,"trial_type":"image-keyboard-response","trial_index":52,"plugin_version":"2.1.0","time_elapsed":111865,"subject_id":"86671","group":"Group1","full_date":"2025-11-26T17:01:57.631Z","date":"2025-11-26","time":"17:01:57"},{"rt":null,"stimulus":"<p style=\"font-size: 50px; margin: 0; text-align: center;\">+</p>","response":null,"trial_type":"html-keyboard-response","trial_index":53,"plugin_version":"2.1.0","time_elapsed":112869,"subject_id":"86671","group":"Group1","full_date":"2025-11-26T17:01:57.631Z","date":"2025-11-26","time":"17:01:57"},{"task":"memory_phase","broad_category":"I","image_png":"I_Pumice_12.png","image_id":140,"category_name":"Pumice","category":9,"distinct_rating":2.97,"distinct_type":"Bottom","rt":null,"stimulus":"Stimuli_Rocks480/I_Pumice_12.png","response":null,"trial_type":"image-keyboard-response","trial_index":54,"plugin_version":"2.1.0","time_elapsed":115373,"subject_id":"86671","group":"Group1","full_date":"2025-11-26T17:01:57.631Z","date":"2025-11-26","time":"17:01:57"},{"rt":1567,"stimulus":"<p style=\"max-width: 760px; margin: auto; font-size: 35px; line-height: 1.5;\">Press SPACE to continue study phase</p>","response":" ","trial_type":"html-keyboard-response","trial_index":55,"plugin_version":"2.1.0","time_elapsed":116942,"subject_id":"86671","group":"Group1","full_date":"2025-11-26T17:01:57.631Z","date":"2025-11-26","time":"17:01:57"},{"rt":null,"stimulus":"<p style=\"font-size: 50px; margin: 0; text-align: center;\">+</p>","response":null,"trial_type":"html-keyboard-response","trial_index":56,"plugin_version":"2.1.0","time_elapsed":117944,"subject_id":"86671","group":"Group1","full_date":"2025-11-26T17:01:57.631Z","date":"2025-11-26","time":"17:01:57"},{"task":"memory_phase","broad_category":"M","image_png":"M_Marble_06.png","image_id":230,"category_name":"Marble","category":15,"distinct_rating":3.4,"distinct_type":"Bottom","rt":null,"stimulus":"Stimuli_Rocks480/M_Marble_06.png","response":null,"trial_type":"image-keyboard-response","trial_index":57,"plugin_version":"2.1.0","time_elapsed":120449,"subject_id":"86671","group":"Group1","full_date":"2025-11-26T17:01:57.631Z","date":"2025-11-26","time":"17:01:57"},{"rt":null,"stimulus":"<p style=\"font-size: 50px; margin: 0; text-align: center;\">+</p>","response":null,"trial_type":"html-keyboard-response","trial_index":58,"plugin_version":"2.1.0","time_elapsed":121452,"subject_id":"86671","group":"Group1","full_date":"2025-11-26T17:01:57.631Z","date":"2025-11-26","time":"17:01:57"},{"task":"memory_phase","broad_category":"S","image_png":"S_Sandstone_03.png","image_id":451,"category_name":"Sandstone","category":29,"distinct_rating":1.86,"distinct_type":"Bottom","rt":null,"stimulus":"Stimuli_Rocks480/S_Sandstone_03.png","response":null,"trial_type":"image-keyboard-response","trial_index":59,"plugin_version":"2.1.0","time_elapsed":123956,"subject_id":"86671","group":"Group1","full_date":"2025-11-26T17:01:57.631Z","date":"2025-11-26","time":"17:01:57"},{"rt":null,"stimulus":"<p style=\"font-size: 50px; margin: 0; text-align: center;\">+</p>","response":null,"trial_type":"html-keyboard-response","trial_index":60,"plugin_version":"2.1.0","time_elapsed":124959,"subject_id":"86671","group":"Group1","full_date":"2025-11-26T17:01:57.631Z","date":"2025-11-26","time":"17:01:57"},{"task":"memory_phase","broad_category":"M","image_png":"M_Quartzite_13.png","image_id":285,"category_name":"Quartzite","category":18,"distinct_rating":2.27,"distinct_type":"Bottom","rt":null,"stimulus":"Stimuli_Rocks480/M_Quartzite_13.png","response":null,"trial_type":"image-keyboard-response","trial_index":61,"plugin_version":"2.1.0","time_elapsed":127462,"subject_id":"86671","group":"Group1","full_date":"2025-11-26T17:01:57.631Z","date":"2025-11-26","time":"17:01:57"},{"rt":null,"stimulus":"<p style=\"font-size: 50px; margin: 0; text-align: center;\">+</p>","response":null,"trial_type":"html-keyboard-response","trial_index":62,"plugin_version":"2.1.0","time_elapsed":128466,"subject_id":"86671","group":"Group1","full_date":"2025-11-26T17:01:57.631Z","date":"2025-11-26","time":"17:01:57"},{"task":"memory_phase","broad_category":"I","image_png":"I_Pumice_08.png","image_id":136,"category_name":"Pumice","category":9,"distinct_rating":3.1,"distinct_type":"Bottom","rt":null,"stimulus":"Stimuli_Rocks480/I_Pumice_08.png","response":null,"trial_type":"image-keyboard-response","trial_index":63,"plugin_version":"2.1.0","time_elapsed":130969,"subject_id":"86671","group":"Group1","full_date":"2025-11-26T17:01:57.631Z","date":"2025-11-26","time":"17:01:57"},{"rt":null,"stimulus":"<p style=\"font-size: 50px; margin: 0; text-align: center;\">+</p>","response":null,"trial_type":"html-keyboard-response","trial_index":64,"plugin_version":"2.1.0","time_elapsed":131972,"subject_id":"86671","group":"Group1","full_date":"2025-11-26T17:01:57.631Z","date":"2025-11-26","time":"17:01:57"},{"task":"memory_phase","broad_category":"I","image_png":"I_Pumice_11.png","image_id":139,"category_name":"Pumice","category":9,"distinct_rating":1.74,"distinct_type":"Bottom","rt":null,"stimulus":"Stimuli_Rocks480/I_Pumice_11.png","response":null,"trial_type":"image-keyboard-response","trial_index":65,"plugin_version":"2.1.0","time_elapsed":134476,"subject_id":"86671","group":"Group1","full_date":"2025-11-26T17:01:57.631Z","date":"2025-11-26","time":"17:01:57"},{"rt":null,"stimulus":"<p style=\"font-size: 50px; margin: 0; text-align: center;\">+</p>","response":null,"trial_type":"html-keyboard-response","trial_index":66,"plugin_version":"2.1.0","time_elapsed":135478,"subject_id":"86671","group":"Group1","full_date":"2025-11-26T17:01:57.631Z","date":"2025-11-26","time":"17:01:57"},{"task":"memory_phase","broad_category":"I","image_png":"I_Andesite_06.png","image_id":6,"category_name":"Andesite","category":1,"distinct_rating":3.17,"distinct_type":"Bottom","rt":null,"stimulus":"Stimuli_Rocks480/I_Andesite_06.png","response":null,"trial_type":"image-keyboard-response","trial_index":67,"plugin_version":"2.1.0","time_elapsed":137982,"subject_id":"86671","group":"Group1","full_date":"2025-11-26T17:01:57.631Z","date":"2025-11-26","time":"17:01:57"},{"rt":null,"stimulus":"<p style=\"font-size: 50px; margin: 0; text-align: center;\">+</p>","response":null,"trial_type":"html-keyboard-response","trial_index":68,"plugin_version":"2.1.0","time_elapsed":138985,"subject_id":"86671","group":"Group1","full_date":"2025-11-26T17:01:57.631Z","date":"2025-11-26","time":"17:01:57"},{"task":"memory_phase","broad_category":"I","image_png":"I_Basalt_09.png","image_id":25,"category_name":"Basalt","category":2,"distinct_rating":1.89,"distinct_type":"Bottom","rt":null,"stimulus":"Stimuli_Rocks480/I_Basalt_09.png","response":null,"trial_type":"image-keyboard-response","trial_index":69,"plugin_version":"2.1.0","time_elapsed":141488,"subject_id":"86671","group":"Group1","full_date":"2025-11-26T17:01:57.631Z","date":"2025-11-26","time":"17:01:57"},{"rt":null,"stimulus":"<p style=\"font-size: 50px; margin: 0; text-align: center;\">+</p>","response":null,"trial_type":"html-keyboard-response","trial_index":70,"plugin_version":"2.1.0","time_elapsed":142491,"subject_id":"86671","group":"Group1","full_date":"2025-11-26T17:01:57.631Z","date":"2025-11-26","time":"17:01:57"},{"task":"memory_phase","broad_category":"S","image_png":"S_Chert_10.png","image_id":362,"category_name":"Chert","category":23,"distinct_rating":7.17,"distinct_type":"Top","rt":null,"stimulus":"Stimuli_Rocks480/S_Chert_10.png","response":null,"trial_type":"image-keyboard-response","trial_index":71,"plugin_version":"2.1.0","time_elapsed":144996,"subject_id":"86671","group":"Group1","full_date":"2025-11-26T17:01:57.631Z","date":"2025-11-26","time":"17:01:57"},{"rt":null,"stimulus":"<p style=\"font-size: 50px; margin: 0; text-align: center;\">+</p>","response":null,"trial_type":"html-keyboard-response","trial_index":72,"plugin_version":"2.1.0","time_elapsed":145999,"subject_id":"86671","group":"Group1","full_date":"2025-11-26T17:01:57.631Z","date":"2025-11-26","time":"17:01:57"},{"task":"memory_phase","broad_category":"S","image_png":"S_Sandstone_16.png","image_id":464,"category_name":"Sandstone","category":29,"distinct_rating":1.93,"distinct_type":"Bottom","rt":null,"stimulus":"Stimuli_Rocks480/S_Sandstone_16.png","response":null,"trial_type":"image-keyboard-response","trial_index":73,"plugin_version":"2.1.0","time_elapsed":148502,"subject_id":"86671","group":"Group1","full_date":"2025-11-26T17:01:57.631Z","date":"2025-11-26","time":"17:01:57"},{"rt":null,"stimulus":"<p style=\"font-size: 50px; margin: 0; text-align: center;\">+</p>","response":null,"trial_type":"html-keyboard-response","trial_index":74,"plugin_version":"2.1.0","time_elapsed":149505,"subject_id":"86671","group":"Group1","full_date":"2025-11-26T17:01:57.631Z","date":"2025-11-26","time":"17:01:57"},{"task":"memory_phase","broad_category":"S","image_png":"S_Dolomite_14.png","image_id":398,"category_name":"Dolomite","category":25,"distinct_rating":1.43,"distinct_type":"Bottom","rt":null,"stimulus":"Stimuli_Rocks480/S_Dolomite_14.png","response":null,"trial_type":"image-keyboard-response","trial_index":75,"plugin_version":"2.1.0","time_elapsed":152010,"subject_id":"86671","group":"Group1","full_date":"2025-11-26T17:01:57.631Z","date":"2025-11-26","time":"17:01:57"},{"rt":null,"stimulus":"<p style=\"font-size: 50px; margin: 0; text-align: center;\">+</p>","response":null,"trial_type":"html-keyboard-response","trial_index":76,"plugin_version":"2.1.0","time_elapsed":153013,"subject_id":"86671","group":"Group1","full_date":"2025-11-26T17:01:57.631Z","date":"2025-11-26","time":"17:01:57"},{"task":"memory_phase","broad_category":"M","image_png":"M_Slate_15.png","image_id":319,"category_name":"Slate","category":20,"distinct_rating":2.13,"distinct_type":"Bottom","rt":null,"stimulus":"Stimuli_Rocks480/M_Slate_15.png","response":null,"trial_type":"image-keyboard-response","trial_index":77,"plugin_version":"2.1.0","time_elapsed":155517,"subject_id":"86671","group":"Group1","full_date":"2025-11-26T17:01:57.631Z","date":"2025-11-26","time":"17:01:57"},{"rt":null,"stimulus":"<p style=\"font-size: 50px; margin: 0; text-align: center;\">+</p>","response":null,"trial_type":"html-keyboard-response","trial_index":78,"plugin_version":"2.1.0","time_elapsed":156520,"subject_id":"86671","group":"Group1","full_date":"2025-11-26T17:01:57.631Z","date":"2025-11-26","time":"17:01:57"},{"task":"memory_phase","broad_category":"M","image_png":"M_Slate_11.png","image_id":315,"category_name":"Slate","category":20,"distinct_rating":2.75,"distinct_type":"Bottom","rt":null,"stimulus":"Stimuli_Rocks480/M_Slate_11.png","response":null,"trial_type":"image-keyboard-response","trial_index":79,"plugin_version":"2.1.0","time_elapsed":159024,"subject_id":"86671","group":"Group1","full_date":"2025-11-26T17:01:57.631Z","date":"2025-11-26","time":"17:01:57"},{"rt":null,"stimulus":"<p style=\"font-size: 50px; margin: 0; text-align: center;\">+</p>","response":null,"trial_type":"html-keyboard-response","trial_index":80,"plugin_version":"2.1.0","time_elapsed":160027,"subject_id":"86671","group":"Group1","full_date":"2025-11-26T17:01:57.631Z","date":"2025-11-26","time":"17:01:57"},{"task":"memory_phase","broad_category":"S","image_png":"S_Conglomerate_05.png","image_id":373,"category_name":"Conglomerate","category":24,"distinct_rating":7.32,"distinct_type":"Top","rt":null,"stimulus":"Stimuli_Rocks480/S_Conglomerate_05.png","response":null,"trial_type":"image-keyboard-response","trial_index":81,"plugin_version":"2.1.0","time_elapsed":162531,"subject_id":"86671","group":"Group1","full_date":"2025-11-26T17:01:57.631Z","date":"2025-11-26","time":"17:01:57"},{"rt":null,"stimulus":"<p style=\"font-size: 50px; margin: 0; text-align: center;\">+</p>","response":null,"trial_type":"html-keyboard-response","trial_index":82,"plugin_version":"2.1.0","time_elapsed":163534,"subject_id":"86671","group":"Group1","full_date":"2025-11-26T17:01:57.631Z","date":"2025-11-26","time":"17:01:57"},{"task":"memory_phase","broad_category":"I","image_png":"I_Pegmatite_10.png","image_id":106,"category_name":"Pegmatite","category":7,"distinct_rating":7.66,"distinct_type":"Top","rt":null,"stimulus":"Stimuli_Rocks480/I_Pegmatite_10.png","response":null,"trial_type":"image-keyboard-response","trial_index":83,"plugin_version":"2.1.0","time_elapsed":166038,"subject_id":"86671","group":"Group1","full_date":"2025-11-26T17:01:57.631Z","date":"2025-11-26","time":"17:01:57"},{"rt":null,"stimulus":"<p style=\"font-size: 50px; margin: 0; text-align: center;\">+</p>","response":null,"trial_type":"html-keyboard-response","trial_index":84,"plugin_version":"2.1.0","time_elapsed":167041,"subject_id":"86671","group":"Group1","full_date":"2025-11-26T17:01:57.631Z","date":"2025-11-26","time":"17:01:57"},{"task":"memory_phase","broad_category":"I","image_png":"I_Gabbro_11.png","image_id":59,"category_name":"Gabbro","category":4,"distinct_rating":1.99,"distinct_type":"Bottom","rt":null,"stimulus":"Stimuli_Rocks480/I_Gabbro_11.png","response":null,"trial_type":"image-keyboard-response","trial_index":85,"plugin_version":"2.1.0","time_elapsed":169544,"subject_id":"86671","group":"Group1","full_date":"2025-11-26T17:01:57.631Z","date":"2025-11-26","time":"17:01:57"},{"rt":null,"stimulus":"<p style=\"font-size: 50px; margin: 0; text-align: center;\">+</p>","response":null,"trial_type":"html-keyboard-response","trial_index":86,"plugin_version":"2.1.0","time_elapsed":170547,"subject_id":"86671","group":"Group1","full_date":"2025-11-26T17:01:57.631Z","date":"2025-11-26","time":"17:01:57"},{"task":"memory_phase","broad_category":"I","image_png":"I_Rhyolite_16.png","image_id":160,"category_name":"Rhyolite","category":10,"distinct_rating":2.19,"distinct_type":"Bottom","rt":null,"stimulus":"Stimuli_Rocks480/I_Rhyolite_16.png","response":null,"trial_type":"image-keyboard-response","trial_index":87,"plugin_version":"2.1.0","time_elapsed":173051,"subject_id":"86671","group":"Group1","full_date":"2025-11-26T17:01:57.631Z","date":"2025-11-26","time":"17:01:57"},{"rt":null,"stimulus":"<p style=\"font-size: 50px; margin: 0; text-align: center;\">+</p>","response":null,"trial_type":"html-keyboard-response","trial_index":88,"plugin_version":"2.1.0","time_elapsed":174053,"subject_id":"86671","group":"Group1","full_date":"2025-11-26T17:01:57.631Z","date":"2025-11-26","time":"17:01:57"},{"task":"memory_phase","broad_category":"I","image_png":"I_Basalt_01.png","image_id":17,"category_name":"Basalt","category":2,"distinct_rating":1.92,"distinct_type":"Bottom","rt":null,"stimulus":"Stimuli_Rocks480/I_Basalt_01.png","response":null,"trial_type":"image-keyboard-response","trial_index":89,"plugin_version":"2.1.0","time_elapsed":176557,"subject_id":"86671","group":"Group1","full_date":"2025-11-26T17:01:57.631Z","date":"2025-11-26","time":"17:01:57"},{"rt":null,"stimulus":"<p style=\"font-size: 50px; margin: 0; text-align: center;\">+</p>","response":null,"trial_type":"html-keyboard-response","trial_index":90,"plugin_version":"2.1.0","time_elapsed":177560,"subject_id":"86671","group":"Group1","full_date":"2025-11-26T17:01:57.631Z","date":"2025-11-26","time":"17:01:57"},{"task":"memory_phase","broad_category":"M","image_png":"M_Gneiss_13.png","image_id":205,"category_name":"Gneiss","category":13,"distinct_rating":3.26,"distinct_type":"Bottom","rt":null,"stimulus":"Stimuli_Rocks480/M_Gneiss_13.png","response":null,"trial_type":"image-keyboard-response","trial_index":91,"plugin_version":"2.1.0","time_elapsed":180064,"subject_id":"86671","group":"Group1","full_date":"2025-11-26T17:01:57.631Z","date":"2025-11-26","time":"17:01:57"},{"rt":null,"stimulus":"<p style=\"font-size: 50px; margin: 0; text-align: center;\">+</p>","response":null,"trial_type":"html-keyboard-response","trial_index":92,"plugin_version":"2.1.0","time_elapsed":181067,"subject_id":"86671","group":"Group1","full_date":"2025-11-26T17:01:57.631Z","date":"2025-11-26","time":"17:01:57"},{"task":"memory_phase","broad_category":"M","image_png":"M_Gneiss_05.png","image_id":197,"category_name":"Gneiss","category":13,"distinct_rating":2.97,"distinct_type":"Bottom","rt":null,"stimulus":"Stimuli_Rocks480/M_Gneiss_05.png","response":null,"trial_type":"image-keyboard-response","trial_index":93,"plugin_version":"2.1.0","time_elapsed":183571,"subject_id":"86671","group":"Group1","full_date":"2025-11-26T17:01:57.631Z","date":"2025-11-26","time":"17:01:57"},{"rt":null,"stimulus":"<p style=\"font-size: 50px; margin: 0; text-align: center;\">+</p>","response":null,"trial_type":"html-keyboard-response","trial_index":94,"plugin_version":"2.1.0","time_elapsed":184574,"subject_id":"86671","group":"Group1","full_date":"2025-11-26T17:01:57.631Z","date":"2025-11-26","time":"17:01:57"},{"task":"memory_phase","broad_category":"M","image_png":"M_Marble_04.png","image_id":228,"category_name":"Marble","category":15,"distinct_rating":3.15,"distinct_type":"Bottom","rt":null,"stimulus":"Stimuli_Rocks480/M_Marble_04.png","response":null,"trial_type":"image-keyboard-response","trial_index":95,"plugin_version":"2.1.0","time_elapsed":187077,"subject_id":"86671","group":"Group1","full_date":"2025-11-26T17:01:57.631Z","date":"2025-11-26","time":"17:01:57"},{"rt":null,"stimulus":"<p style=\"font-size: 50px; margin: 0; text-align: center;\">+</p>","response":null,"trial_type":"html-keyboard-response","trial_index":96,"plugin_version":"2.1.0","time_elapsed":188080,"subject_id":"86671","group":"Group1","full_date":"2025-11-26T17:01:57.631Z","date":"2025-11-26","time":"17:01:57"},{"task":"memory_phase","broad_category":"M","image_png":"M_Phyllite_10.png","image_id":266,"category_name":"Phyllite","category":17,"distinct_rating":2.6,"distinct_type":"Bottom","rt":null,"stimulus":"Stimuli_Rocks480/M_Phyllite_10.png","response":null,"trial_type":"image-keyboard-response","trial_index":97,"plugin_version":"2.1.0","time_elapsed":190584,"subject_id":"86671","group":"Group1","full_date":"2025-11-26T17:01:57.631Z","date":"2025-11-26","time":"17:01:57"},{"rt":null,"stimulus":"<p style=\"font-size: 50px; margin: 0; text-align: center;\">+</p>","response":null,"trial_type":"html-keyboard-response","trial_index":98,"plugin_version":"2.1.0","time_elapsed":191586,"subject_id":"86671","group":"Group1","full_date":"2025-11-26T17:01:57.631Z","date":"2025-11-26","time":"17:01:57"},{"task":"memory_phase","broad_category":"M","image_png":"M_Phyllite_03.png","image_id":259,"category_name":"Phyllite","category":17,"distinct_rating":2.5,"distinct_type":"Bottom","rt":null,"stimulus":"Stimuli_Rocks480/M_Phyllite_03.png","response":null,"trial_type":"image-keyboard-response","trial_index":99,"plugin_version":"2.1.0","time_elapsed":194090,"subject_id":"86671","group":"Group1","full_date":"2025-11-26T17:01:57.631Z","date":"2025-11-26","time":"17:01:57"},{"rt":null,"stimulus":"<p style=\"font-size: 50px; margin: 0; text-align: center;\">+</p>","response":null,"trial_type":"html-keyboard-response","trial_index":100,"plugin_version":"2.1.0","time_elapsed":195091,"subject_id":"86671","group":"Group1","full_date":"2025-11-26T17:01:57.631Z","date":"2025-11-26","time":"17:01:57"},{"task":"memory_phase","broad_category":"S","image_png":"S_Dolomite_12.png","image_id":396,"category_name":"Dolomite","category":25,"distinct_rating":1.85,"distinct_type":"Bottom","rt":null,"stimulus":"Stimuli_Rocks480/S_Dolomite_12.png","response":null,"trial_type":"image-keyboard-response","trial_index":101,"plugin_version":"2.1.0","time_elapsed":197595,"subject_id":"86671","group":"Group1","full_date":"2025-11-26T17:01:57.631Z","date":"2025-11-26","time":"17:01:57"},{"rt":null,"stimulus":"<p style=\"font-size: 50px; margin: 0; text-align: center;\">+</p>","response":null,"trial_type":"html-keyboard-response","trial_index":102,"plugin_version":"2.1.0","time_elapsed":198597,"subject_id":"86671","group":"Group1","full_date":"2025-11-26T17:01:57.631Z","date":"2025-11-26","time":"17:01:57"},{"task":"memory_phase","broad_category":"I","image_png":"I_Gabbro_08.png","image_id":56,"category_name":"Gabbro","category":4,"distinct_rating":3.02,"distinct_type":"Bottom","rt":null,"stimulus":"Stimuli_Rocks480/I_Gabbro_08.png","response":null,"trial_type":"image-keyboard-response","trial_index":103,"plugin_version":"2.1.0","time_elapsed":201100,"subject_id":"86671","group":"Group1","full_date":"2025-11-26T17:01:57.631Z","date":"2025-11-26","time":"17:01:57"},{"rt":null,"stimulus":"<p style=\"font-size: 50px; margin: 0; text-align: center;\">+</p>","response":null,"trial_type":"html-keyboard-response","trial_index":104,"plugin_version":"2.1.0","time_elapsed":202103,"subject_id":"86671","group":"Group1","full_date":"2025-11-26T17:01:57.631Z","date":"2025-11-26","time":"17:01:57"},{"task":"memory_phase","broad_category":"I","image_png":"I_Obsidian_05.png","image_id":85,"category_name":"Obsidian","category":6,"distinct_rating":7.32,"distinct_type":"Top","rt":null,"stimulus":"Stimuli_Rocks480/I_Obsidian_05.png","response":null,"trial_type":"image-keyboard-response","trial_index":105,"plugin_version":"2.1.0","time_elapsed":204607,"subject_id":"86671","group":"Group1","full_date":"2025-11-26T17:01:57.631Z","date":"2025-11-26","time":"17:01:57"},{"rt":5400,"stimulus":"<p style=\"max-width: 760px; margin: auto; font-size: 35px; line-height: 1.5;\">You have completed 1 study phase. Now, we'll show you all the images again 2 more times.<br><br>Press SPACE to continue</p>","response":" ","trial_type":"html-keyboard-response","trial_index":106,"plugin_version":"2.1.0","time_elapsed":210008,"subject_id":"86671","group":"Group1","full_date":"2025-11-26T17:01:57.631Z","date":"2025-11-26","time":"17:01:57"},{"rt":null,"stimulus":"<p style=\"font-size: 50px; margin: 0; text-align: center;\">+</p>","response":null,"trial_type":"html-keyboard-response","trial_index":107,"plugin_version":"2.1.0","time_elapsed":211010,"subject_id":"86671","group":"Group1","full_date":"2025-11-26T17:01:57.631Z","date":"2025-11-26","time":"17:01:57"},{"task":"memory_phase","broad_category":"I","image_png":"I_Rhyolite_16.png","image_id":160,"category_name":"Rhyolite","category":10,"distinct_rating":2.19,"distinct_type":"Bottom","rt":null,"stimulus":"Stimuli_Rocks480/I_Rhyolite_16.png","response":null,"trial_type":"image-keyboard-response","trial_index":108,"plugin_version":"2.1.0","time_elapsed":213514,"subject_id":"86671","group":"Group1","full_date":"2025-11-26T17:01:57.631Z","date":"2025-11-26","time":"17:01:57"},{"rt":null,"stimulus":"<p style=\"font-size: 50px; margin: 0; text-align: center;\">+</p>","response":null,"trial_type":"html-keyboard-response","trial_index":109,"plugin_version":"2.1.0","time_elapsed":214517,"subject_id":"86671","group":"Group1","full_date":"2025-11-26T17:01:57.631Z","date":"2025-11-26","time":"17:01:57"},{"task":"memory_phase","broad_category":"I","image_png":"I_Diorite_04.png","image_id":36,"category_name":"Diorite","category":3,"distinct_rating":2.98,"distinct_type":"Bottom","rt":null,"stimulus":"Stimuli_Rocks480/I_Diorite_04.png","response":null,"trial_type":"image-keyboard-response","trial_index":110,"plugin_version":"2.1.0","time_elapsed":217022,"subject_id":"86671","group":"Group1","full_date":"2025-11-26T17:01:57.631Z","date":"2025-11-26","time":"17:01:57"},{"rt":null,"stimulus":"<p style=\"font-size: 50px; margin: 0; text-align: center;\">+</p>","response":null,"trial_type":"html-keyboard-response","trial_index":111,"plugin_version":"2.1.0","time_elapsed":218024,"subject_id":"86671","group":"Group1","full_date":"2025-11-26T17:01:57.631Z","date":"2025-11-26","time":"17:01:57"},{"task":"memory_phase","broad_category":"M","image_png":"M_Phyllite_07.png","image_id":263,"category_name":"Phyllite","category":17,"distinct_rating":2.59,"distinct_type":"Bottom","rt":null,"stimulus":"Stimuli_Rocks480/M_Phyllite_07.png","response":null,"trial_type":"image-keyboard-response","trial_index":112,"plugin_version":"2.1.0","time_elapsed":220528,"subject_id":"86671","group":"Group1","full_date":"2025-11-26T17:01:57.631Z","date":"2025-11-26","time":"17:01:57"},{"rt":null,"stimulus":"<p style=\"font-size: 50px; margin: 0; text-align: center;\">+</p>","response":null,"trial_type":"html-keyboard-response","trial_index":113,"plugin_version":"2.1.0","time_elapsed":221530,"subject_id":"86671","group":"Group1","full_date":"2025-11-26T17:01:57.631Z","date":"2025-11-26","time":"17:01:57"},{"task":"memory_phase","broad_category":"S","image_png":"S_Dolomite_13.png","image_id":397,"category_name":"Dolomite","category":25,"distinct_rating":1.77,"distinct_type":"Bottom","rt":null,"stimulus":"Stimuli_Rocks480/S_Dolomite_13.png","response":null,"trial_type":"image-keyboard-response","trial_index":114,"plugin_version":"2.1.0","time_elapsed":224035,"subject_id":"86671","group":"Group1","full_date":"2025-11-26T17:01:57.631Z","date":"2025-11-26","time":"17:01:57"},{"rt":null,"stimulus":"<p style=\"font-size: 50px; margin: 0; text-align: center;\">+</p>","response":null,"trial_type":"html-keyboard-response","trial_index":115,"plugin_version":"2.1.0","time_elapsed":225038,"subject_id":"86671","group":"Group1","full_date":"2025-11-26T17:01:57.631Z","date":"2025-11-26","time":"17:01:57"},{"task":"memory_phase","broad_category":"I","image_png":"I_Pumice_12.png","image_id":140,"category_name":"Pumice","category":9,"distinct_rating":2.97,"distinct_type":"Bottom","rt":null,"stimulus":"Stimuli_Rocks480/I_Pumice_12.png","response":null,"trial_type":"image-keyboard-response","trial_index":116,"plugin_version":"2.1.0","time_elapsed":227542,"subject_id":"86671","group":"Group1","full_date":"2025-11-26T17:01:57.631Z","date":"2025-11-26","time":"17:01:57"},{"rt":null,"stimulus":"<p style=\"font-size: 50px; margin: 0; text-align: center;\">+</p>","response":null,"trial_type":"html-keyboard-response","trial_index":117,"plugin_version":"2.1.0","time_elapsed":228544,"subject_id":"86671","group":"Group1","full_date":"2025-11-26T17:01:57.631Z","date":"2025-11-26","time":"17:01:57"},{"task":"memory_phase","broad_category":"S","image_png":"S_Shale_01.png","image_id":465,"category_name":"Shale","category":30,"distinct_rating":2.7,"distinct_type":"Bottom","rt":null,"stimulus":"Stimuli_Rocks480/S_Shale_01.png","response":null,"trial_type":"image-keyboard-response","trial_index":118,"plugin_version":"2.1.0","time_elapsed":231047,"subject_id":"86671","group":"Group1","full_date":"2025-11-26T17:01:57.631Z","date":"2025-11-26","time":"17:01:57"},{"rt":null,"stimulus":"<p style=\"font-size: 50px; margin: 0; text-align: center;\">+</p>","response":null,"trial_type":"html-keyboard-response","trial_index":119,"plugin_version":"2.1.0","time_elapsed":232050,"subject_id":"86671","group":"Group1","full_date":"2025-11-26T17:01:57.631Z","date":"2025-11-26","time":"17:01:57"},{"task":"memory_phase","broad_category":"M","image_png":"M_Marble_06.png","image_id":230,"category_name":"Marble","category":15,"distinct_rating":3.4,"distinct_type":"Bottom","rt":null,"stimulus":"Stimuli_Rocks480/M_Marble_06.png","response":null,"trial_type":"image-keyboard-response","trial_index":120,"plugin_version":"2.1.0","time_elapsed":234554,"subject_id":"86671","group":"Group1","full_date":"2025-11-26T17:01:57.631Z","date":"2025-11-26","time":"17:01:57"},{"rt":null,"stimulus":"<p style=\"font-size: 50px; margin: 0; text-align: center;\">+</p>","response":null,"trial_type":"html-keyboard-response","trial_index":121,"plugin_version":"2.1.0","time_elapsed":235557,"subject_id":"86671","group":"Group1","full_date":"2025-11-26T17:01:57.631Z","date":"2025-11-26","time":"17:01:57"},{"task":"memory_phase","broad_category":"I","image_png":"I_Gabbro_08.png","image_id":56,"category_name":"Gabbro","category":4,"distinct_rating":3.02,"distinct_type":"Bottom","rt":null,"stimulus":"Stimuli_Rocks480/I_Gabbro_08.png","response":null,"trial_type":"image-keyboard-response","trial_index":122,"plugin_version":"2.1.0","time_elapsed":238061,"subject_id":"86671","group":"Group1","full_date":"2025-11-26T17:01:57.631Z","date":"2025-11-26","time":"17:01:57"},{"rt":null,"stimulus":"<p style=\"font-size: 50px; margin: 0; text-align: center;\">+</p>","response":null,"trial_type":"html-keyboard-response","trial_index":123,"plugin_version":"2.1.0","time_elapsed":239063,"subject_id":"86671","group":"Group1","full_date":"2025-11-26T17:01:57.631Z","date":"2025-11-26","time":"17:01:57"},{"task":"memory_phase","broad_category":"I","image_png":"I_Pumice_11.png","image_id":139,"category_name":"Pumice","category":9,"distinct_rating":1.74,"distinct_type":"Bottom","rt":null,"stimulus":"Stimuli_Rocks480/I_Pumice_11.png","response":null,"trial_type":"image-keyboard-response","trial_index":124,"plugin_version":"2.1.0","time_elapsed":241567,"subject_id":"86671","group":"Group1","full_date":"2025-11-26T17:01:57.631Z","date":"2025-11-26","time":"17:01:57"},{"rt":null,"stimulus":"<p style=\"font-size: 50px; margin: 0; text-align: center;\">+</p>","response":null,"trial_type":"html-keyboard-response","trial_index":125,"plugin_version":"2.1.0","time_elapsed":242570,"subject_id":"86671","group":"Group1","full_date":"2025-11-26T17:01:57.631Z","date":"2025-11-26","time":"17:01:57"},{"task":"memory_phase","broad_category":"I","image_png":"I_Basalt_01.png","image_id":17,"category_name":"Basalt","category":2,"distinct_rating":1.92,"distinct_type":"Bottom","rt":null,"stimulus":"Stimuli_Rocks480/I_Basalt_01.png","response":null,"trial_type":"image-keyboard-response","trial_index":126,"plugin_version":"2.1.0","time_elapsed":245074,"subject_id":"86671","group":"Group1","full_date":"2025-11-26T17:01:57.631Z","date":"2025-11-26","time":"17:01:57"},{"rt":null,"stimulus":"<p style=\"font-size: 50px; margin: 0; text-align: center;\">+</p>","response":null,"trial_type":"html-keyboard-response","trial_index":127,"plugin_version":"2.1.0","time_elapsed":246076,"subject_id":"86671","group":"Group1","full_date":"2025-11-26T17:01:57.631Z","date":"2025-11-26","time":"17:01:57"},{"task":"memory_phase","broad_category":"I","image_png":"I_Gabbro_16.png","image_id":64,"category_name":"Gabbro","category":4,"distinct_rating":2.52,"distinct_type":"Bottom","rt":null,"stimulus":"Stimuli_Rocks480/I_Gabbro_16.png","response":null,"trial_type":"image-keyboard-response","trial_index":128,"plugin_version":"2.1.0","time_elapsed":248580,"subject_id":"86671","group":"Group1","full_date":"2025-11-26T17:01:57.631Z","date":"2025-11-26","time":"17:01:57"},{"rt":null,"stimulus":"<p style=\"font-size: 50px; margin: 0; text-align: center;\">+</p>","response":null,"trial_type":"html-keyboard-response","trial_index":129,"plugin_version":"2.1.0","time_elapsed":249582,"subject_id":"86671","group":"Group1","full_date":"2025-11-26T17:01:57.631Z","date":"2025-11-26","time":"17:01:57"},{"task":"memory_phase","broad_category":"M","image_png":"M_Slate_15.png","image_id":319,"category_name":"Slate","category":20,"distinct_rating":2.13,"distinct_type":"Bottom","rt":null,"stimulus":"Stimuli_Rocks480/M_Slate_15.png","response":null,"trial_type":"image-keyboard-response","trial_index":130,"plugin_version":"2.1.0","time_elapsed":252086,"subject_id":"86671","group":"Group1","full_date":"2025-11-26T17:01:57.631Z","date":"2025-11-26","time":"17:01:57"},{"rt":null,"stimulus":"<p style=\"font-size: 50px; margin: 0; text-align: center;\">+</p>","response":null,"trial_type":"html-keyboard-response","trial_index":131,"plugin_version":"2.1.0","time_elapsed":253089,"subject_id":"86671","group":"Group1","full_date":"2025-11-26T17:01:57.631Z","date":"2025-11-26","time":"17:01:57"},{"task":"memory_phase","broad_category":"S","image_png":"S_Sandstone_15.png","image_id":463,"category_name":"Sandstone","category":29,"distinct_rating":2,"distinct_type":"Bottom","rt":null,"stimulus":"Stimuli_Rocks480/S_Sandstone_15.png","response":null,"trial_type":"image-keyboard-response","trial_index":132,"plugin_version":"2.1.0","time_elapsed":255593,"subject_id":"86671","group":"Group1","full_date":"2025-11-26T17:01:57.631Z","date":"2025-11-26","time":"17:01:57"},{"rt":null,"stimulus":"<p style=\"font-size: 50px; margin: 0; text-align: center;\">+</p>","response":null,"trial_type":"html-keyboard-response","trial_index":133,"plugin_version":"2.1.0","time_elapsed":256596,"subject_id":"86671","group":"Group1","full_date":"2025-11-26T17:01:57.631Z","date":"2025-11-26","time":"17:01:57"},{"task":"memory_phase","broad_category":"I","image_png":"I_Andesite_06.png","image_id":6,"category_name":"Andesite","category":1,"distinct_rating":3.17,"distinct_type":"Bottom","rt":null,"stimulus":"Stimuli_Rocks480/I_Andesite_06.png","response":null,"trial_type":"image-keyboard-response","trial_index":134,"plugin_version":"2.1.0","time_elapsed":259100,"subject_id":"86671","group":"Group1","full_date":"2025-11-26T17:01:57.631Z","date":"2025-11-26","time":"17:01:57"},{"rt":null,"stimulus":"<p style=\"font-size: 50px; margin: 0; text-align: center;\">+</p>","response":null,"trial_type":"html-keyboard-response","trial_index":135,"plugin_version":"2.1.0","time_elapsed":260102,"subject_id":"86671","group":"Group1","full_date":"2025-11-26T17:01:57.631Z","date":"2025-11-26","time":"17:01:57"},{"task":"memory_phase","broad_category":"M","image_png":"M_Marble_16.png","image_id":240,"category_name":"Marble","category":15,"distinct_rating":2.57,"distinct_type":"Bottom","rt":null,"stimulus":"Stimuli_Rocks480/M_Marble_16.png","response":null,"trial_type":"image-keyboard-response","trial_index":136,"plugin_version":"2.1.0","time_elapsed":262606,"subject_id":"86671","group":"Group1","full_date":"2025-11-26T17:01:57.631Z","date":"2025-11-26","time":"17:01:57"},{"rt":null,"stimulus":"<p style=\"font-size: 50px; margin: 0; text-align: center;\">+</p>","response":null,"trial_type":"html-keyboard-response","trial_index":137,"plugin_version":"2.1.0","time_elapsed":263609,"subject_id":"86671","group":"Group1","full_date":"2025-11-26T17:01:57.631Z","date":"2025-11-26","time":"17:01:57"},{"task":"memory_phase","broad_category":"M","image_png":"M_Gneiss_06.png","image_id":198,"category_name":"Gneiss","category":13,"distinct_rating":2.65,"distinct_type":"Bottom","rt":null,"stimulus":"Stimuli_Rocks480/M_Gneiss_06.png","response":null,"trial_type":"image-keyboard-response","trial_index":138,"plugin_version":"2.1.0","time_elapsed":266113,"subject_id":"86671","group":"Group1","full_date":"2025-11-26T17:01:57.631Z","date":"2025-11-26","time":"17:01:57"},{"rt":null,"stimulus":"<p style=\"font-size: 50px; margin: 0; text-align: center;\">+</p>","response":null,"trial_type":"html-keyboard-response","trial_index":139,"plugin_version":"2.1.0","time_elapsed":267117,"subject_id":"86671","group":"Group1","full_date":"2025-11-26T17:01:57.631Z","date":"2025-11-26","time":"17:01:57"},{"task":"memory_phase","broad_category":"I","image_png":"I_Diorite_05.png","image_id":37,"category_name":"Diorite","category":3,"distinct_rating":3.08,"distinct_type":"Bottom","rt":null,"stimulus":"Stimuli_Rocks480/I_Diorite_05.png","response":null,"trial_type":"image-keyboard-response","trial_index":140,"plugin_version":"2.1.0","time_elapsed":269620,"subject_id":"86671","group":"Group1","full_date":"2025-11-26T17:01:57.631Z","date":"2025-11-26","time":"17:01:57"},{"rt":null,"stimulus":"<p style=\"font-size: 50px; margin: 0; text-align: center;\">+</p>","response":null,"trial_type":"html-keyboard-response","trial_index":141,"plugin_version":"2.1.0","time_elapsed":270623,"subject_id":"86671","group":"Group1","full_date":"2025-11-26T17:01:57.631Z","date":"2025-11-26","time":"17:01:57"},{"task":"memory_phase","broad_category":"M","image_png":"M_Marble_04.png","image_id":228,"category_name":"Marble","category":15,"distinct_rating":3.15,"distinct_type":"Bottom","rt":null,"stimulus":"Stimuli_Rocks480/M_Marble_04.png","response":null,"trial_type":"image-keyboard-response","trial_index":142,"plugin_version":"2.1.0","time_elapsed":273127,"subject_id":"86671","group":"Group1","full_date":"2025-11-26T17:01:57.631Z","date":"2025-11-26","time":"17:01:57"},{"rt":null,"stimulus":"<p style=\"font-size: 50px; margin: 0; text-align: center;\">+</p>","response":null,"trial_type":"html-keyboard-response","trial_index":143,"plugin_version":"2.1.0","time_elapsed":274130,"subject_id":"86671","group":"Group1","full_date":"2025-11-26T17:01:57.631Z","date":"2025-11-26","time":"17:01:57"},{"task":"memory_phase","broad_category":"S","image_png":"S_Sandstone_16.png","image_id":464,"category_name":"Sandstone","category":29,"distinct_rating":1.93,"distinct_type":"Bottom","rt":null,"stimulus":"Stimuli_Rocks480/S_Sandstone_16.png","response":null,"trial_type":"image-keyboard-response","trial_index":144,"plugin_version":"2.1.0","time_elapsed":276633,"subject_id":"86671","group":"Group1","full_date":"2025-11-26T17:01:57.631Z","date":"2025-11-26","time":"17:01:57"},{"rt":null,"stimulus":"<p style=\"font-size: 50px; margin: 0; text-align: center;\">+</p>","response":null,"trial_type":"html-keyboard-response","trial_index":145,"plugin_version":"2.1.0","time_elapsed":277636,"subject_id":"86671","group":"Group1","full_date":"2025-11-26T17:01:57.631Z","date":"2025-11-26","time":"17:01:57"},{"task":"memory_phase","broad_category":"I","image_png":"I_Andesite_08.png","image_id":8,"category_name":"Andesite","category":1,"distinct_rating":1.95,"distinct_type":"Bottom","rt":null,"stimulus":"Stimuli_Rocks480/I_Andesite_08.png","response":null,"trial_type":"image-keyboard-response","trial_index":146,"plugin_version":"2.1.0","time_elapsed":280140,"subject_id":"86671","group":"Group1","full_date":"2025-11-26T17:01:57.631Z","date":"2025-11-26","time":"17:01:57"},{"rt":null,"stimulus":"<p style=\"font-size: 50px; margin: 0; text-align: center;\">+</p>","response":null,"trial_type":"html-keyboard-response","trial_index":147,"plugin_version":"2.1.0","time_elapsed":281143,"subject_id":"86671","group":"Group1","full_date":"2025-11-26T17:01:57.631Z","date":"2025-11-26","time":"17:01:57"},{"task":"memory_phase","broad_category":"S","image_png":"S_Shale_12.png","image_id":476,"category_name":"Shale","category":30,"distinct_rating":2.48,"distinct_type":"Bottom","rt":null,"stimulus":"Stimuli_Rocks480/S_Shale_12.png","response":null,"trial_type":"image-keyboard-response","trial_index":148,"plugin_version":"2.1.0","time_elapsed":283647,"subject_id":"86671","group":"Group1","full_date":"2025-11-26T17:01:57.631Z","date":"2025-11-26","time":"17:01:57"},{"rt":null,"stimulus":"<p style=\"font-size: 50px; margin: 0; text-align: center;\">+</p>","response":null,"trial_type":"html-keyboard-response","trial_index":149,"plugin_version":"2.1.0","time_elapsed":284650,"subject_id":"86671","group":"Group1","full_date":"2025-11-26T17:01:57.631Z","date":"2025-11-26","time":"17:01:57"},{"task":"memory_phase","broad_category":"S","image_png":"S_Sandstone_03.png","image_id":451,"category_name":"Sandstone","category":29,"distinct_rating":1.86,"distinct_type":"Bottom","rt":null,"stimulus":"Stimuli_Rocks480/S_Sandstone_03.png","response":null,"trial_type":"image-keyboard-response","trial_index":150,"plugin_version":"2.1.0","time_elapsed":287154,"subject_id":"86671","group":"Group1","full_date":"2025-11-26T17:01:57.631Z","date":"2025-11-26","time":"17:01:57"},{"rt":null,"stimulus":"<p style=\"font-size: 50px; margin: 0; text-align: center;\">+</p>","response":null,"trial_type":"html-keyboard-response","trial_index":151,"plugin_version":"2.1.0","time_elapsed":288157,"subject_id":"86671","group":"Group1","full_date":"2025-11-26T17:01:57.631Z","date":"2025-11-26","time":"17:01:57"},{"task":"memory_phase","broad_category":"I","image_png":"I_Basalt_02.png","image_id":18,"category_name":"Basalt","category":2,"distinct_rating":1.84,"distinct_type":"Bottom","rt":null,"stimulus":"Stimuli_Rocks480/I_Basalt_02.png","response":null,"trial_type":"image-keyboard-response","trial_index":152,"plugin_version":"2.1.0","time_elapsed":290661,"subject_id":"86671","group":"Group1","full_date":"2025-11-26T17:01:57.631Z","date":"2025-11-26","time":"17:01:57"},{"rt":null,"stimulus":"<p style=\"font-size: 50px; margin: 0; text-align: center;\">+</p>","response":null,"trial_type":"html-keyboard-response","trial_index":153,"plugin_version":"2.1.0","time_elapsed":291664,"subject_id":"86671","group":"Group1","full_date":"2025-11-26T17:01:57.631Z","date":"2025-11-26","time":"17:01:57"},{"task":"memory_phase","broad_category":"S","image_png":"S_Dolomite_12.png","image_id":396,"category_name":"Dolomite","category":25,"distinct_rating":1.85,"distinct_type":"Bottom","rt":null,"stimulus":"Stimuli_Rocks480/S_Dolomite_12.png","response":null,"trial_type":"image-keyboard-response","trial_index":154,"plugin_version":"2.1.0","time_elapsed":294168,"subject_id":"86671","group":"Group1","full_date":"2025-11-26T17:01:57.631Z","date":"2025-11-26","time":"17:01:57"},{"rt":null,"stimulus":"<p style=\"font-size: 50px; margin: 0; text-align: center;\">+</p>","response":null,"trial_type":"html-keyboard-response","trial_index":155,"plugin_version":"2.1.0","time_elapsed":295171,"subject_id":"86671","group":"Group1","full_date":"2025-11-26T17:01:57.631Z","date":"2025-11-26","time":"17:01:57"},{"task":"memory_phase","broad_category":"M","image_png":"M_Slate_11.png","image_id":315,"category_name":"Slate","category":20,"distinct_rating":2.75,"distinct_type":"Bottom","rt":null,"stimulus":"Stimuli_Rocks480/M_Slate_11.png","response":null,"trial_type":"image-keyboard-response","trial_index":156,"plugin_version":"2.1.0","time_elapsed":297676,"subject_id":"86671","group":"Group1","full_date":"2025-11-26T17:01:57.631Z","date":"2025-11-26","time":"17:01:57"},{"rt":1441,"stimulus":"<p style=\"max-width: 760px; margin: auto; font-size: 35px; line-height: 1.5;\">Press SPACE to continue study phase</p>","response":" ","trial_type":"html-keyboard-response","trial_index":157,"plugin_version":"2.1.0","time_elapsed":299118,"subject_id":"86671","group":"Group1","full_date":"2025-11-26T17:01:57.631Z","date":"2025-11-26","time":"17:01:57"},{"rt":null,"stimulus":"<p style=\"font-size: 50px; margin: 0; text-align: center;\">+</p>","response":null,"trial_type":"html-keyboard-response","trial_index":158,"plugin_version":"2.1.0","time_elapsed":300120,"subject_id":"86671","group":"Group1","full_date":"2025-11-26T17:01:57.631Z","date":"2025-11-26","time":"17:01:57"},{"task":"memory_phase","broad_category":"M","image_png":"M_Phyllite_10.png","image_id":266,"category_name":"Phyllite","category":17,"distinct_rating":2.6,"distinct_type":"Bottom","rt":null,"stimulus":"Stimuli_Rocks480/M_Phyllite_10.png","response":null,"trial_type":"image-keyboard-response","trial_index":159,"plugin_version":"2.1.0","time_elapsed":302625,"subject_id":"86671","group":"Group1","full_date":"2025-11-26T17:01:57.631Z","date":"2025-11-26","time":"17:01:57"},{"rt":null,"stimulus":"<p style=\"font-size: 50px; margin: 0; text-align: center;\">+</p>","response":null,"trial_type":"html-keyboard-response","trial_index":160,"plugin_version":"2.1.0","time_elapsed":303627,"subject_id":"86671","group":"Group1","full_date":"2025-11-26T17:01:57.631Z","date":"2025-11-26","time":"17:01:57"},{"task":"memory_phase","broad_category":"S","image_png":"S_Dolomite_14.png","image_id":398,"category_name":"Dolomite","category":25,"distinct_rating":1.43,"distinct_type":"Bottom","rt":null,"stimulus":"Stimuli_Rocks480/S_Dolomite_14.png","response":null,"trial_type":"image-keyboard-response","trial_index":161,"plugin_version":"2.1.0","time_elapsed":306132,"subject_id":"86671","group":"Group1","full_date":"2025-11-26T17:01:57.631Z","date":"2025-11-26","time":"17:01:57"},{"rt":null,"stimulus":"<p style=\"font-size: 50px; margin: 0; text-align: center;\">+</p>","response":null,"trial_type":"html-keyboard-response","trial_index":162,"plugin_version":"2.1.0","time_elapsed":307135,"subject_id":"86671","group":"Group1","full_date":"2025-11-26T17:01:57.631Z","date":"2025-11-26","time":"17:01:57"},{"task":"memory_phase","broad_category":"I","image_png":"I_Basalt_09.png","image_id":25,"category_name":"Basalt","category":2,"distinct_rating":1.89,"distinct_type":"Bottom","rt":null,"stimulus":"Stimuli_Rocks480/I_Basalt_09.png","response":null,"trial_type":"image-keyboard-response","trial_index":163,"plugin_version":"2.1.0","time_elapsed":309639,"subject_id":"86671","group":"Group1","full_date":"2025-11-26T17:01:57.631Z","date":"2025-11-26","time":"17:01:57"},{"rt":null,"stimulus":"<p style=\"font-size: 50px; margin: 0; text-align: center;\">+</p>","response":null,"trial_type":"html-keyboard-response","trial_index":164,"plugin_version":"2.1.0","time_elapsed":310641,"subject_id":"86671","group":"Group1","full_date":"2025-11-26T17:01:57.631Z","date":"2025-11-26","time":"17:01:57"},{"task":"memory_phase","broad_category":"M","image_png":"M_Quartzite_08.png","image_id":280,"category_name":"Quartzite","category":18,"distinct_rating":2.15,"distinct_type":"Bottom","rt":null,"stimulus":"Stimuli_Rocks480/M_Quartzite_08.png","response":null,"trial_type":"image-keyboard-response","trial_index":165,"plugin_version":"2.1.0","time_elapsed":313146,"subject_id":"86671","group":"Group1","full_date":"2025-11-26T17:01:57.631Z","date":"2025-11-26","time":"17:01:57"},{"rt":null,"stimulus":"<p style=\"font-size: 50px; margin: 0; text-align: center;\">+</p>","response":null,"trial_type":"html-keyboard-response","trial_index":166,"plugin_version":"2.1.0","time_elapsed":314149,"subject_id":"86671","group":"Group1","full_date":"2025-11-26T17:01:57.631Z","date":"2025-11-26","time":"17:01:57"},{"task":"memory_phase","broad_category":"I","image_png":"I_Pegmatite_10.png","image_id":106,"category_name":"Pegmatite","category":7,"distinct_rating":7.66,"distinct_type":"Top","rt":null,"stimulus":"Stimuli_Rocks480/I_Pegmatite_10.png","response":null,"trial_type":"image-keyboard-response","trial_index":167,"plugin_version":"2.1.0","time_elapsed":316653,"subject_id":"86671","group":"Group1","full_date":"2025-11-26T17:01:57.631Z","date":"2025-11-26","time":"17:01:57"},{"rt":null,"stimulus":"<p style=\"font-size: 50px; margin: 0; text-align: center;\">+</p>","response":null,"trial_type":"html-keyboard-response","trial_index":168,"plugin_version":"2.1.0","time_elapsed":317656,"subject_id":"86671","group":"Group1","full_date":"2025-11-26T17:01:57.631Z","date":"2025-11-26","time":"17:01:57"},{"task":"memory_phase","broad_category":"M","image_png":"M_Gneiss_13.png","image_id":205,"category_name":"Gneiss","category":13,"distinct_rating":3.26,"distinct_type":"Bottom","rt":null,"stimulus":"Stimuli_Rocks480/M_Gneiss_13.png","response":null,"trial_type":"image-keyboard-response","trial_index":169,"plugin_version":"2.1.0","time_elapsed":320160,"subject_id":"86671","group":"Group1","full_date":"2025-11-26T17:01:57.631Z","date":"2025-11-26","time":"17:01:57"},{"rt":null,"stimulus":"<p style=\"font-size: 50px; margin: 0; text-align: center;\">+</p>","response":null,"trial_type":"html-keyboard-response","trial_index":170,"plugin_version":"2.1.0","time_elapsed":321163,"subject_id":"86671","group":"Group1","full_date":"2025-11-26T17:01:57.631Z","date":"2025-11-26","time":"17:01:57"},{"task":"memory_phase","broad_category":"S","image_png":"S_Breccia_11.png","image_id":347,"category_name":"Breccia","category":22,"distinct_rating":6.7,"distinct_type":"Top","rt":null,"stimulus":"Stimuli_Rocks480/S_Breccia_11.png","response":null,"trial_type":"image-keyboard-response","trial_index":171,"plugin_version":"2.1.0","time_elapsed":323667,"subject_id":"86671","group":"Group1","full_date":"2025-11-26T17:01:57.631Z","date":"2025-11-26","time":"17:01:57"},{"rt":null,"stimulus":"<p style=\"font-size: 50px; margin: 0; text-align: center;\">+</p>","response":null,"trial_type":"html-keyboard-response","trial_index":172,"plugin_version":"2.1.0","time_elapsed":324669,"subject_id":"86671","group":"Group1","full_date":"2025-11-26T17:01:57.631Z","date":"2025-11-26","time":"17:01:57"},{"task":"memory_phase","broad_category":"I","image_png":"I_Andesite_10.png","image_id":10,"category_name":"Andesite","category":1,"distinct_rating":3.15,"distinct_type":"Bottom","rt":null,"stimulus":"Stimuli_Rocks480/I_Andesite_10.png","response":null,"trial_type":"image-keyboard-response","trial_index":173,"plugin_version":"2.1.0","time_elapsed":327173,"subject_id":"86671","group":"Group1","full_date":"2025-11-26T17:01:57.631Z","date":"2025-11-26","time":"17:01:57"},{"rt":null,"stimulus":"<p style=\"font-size: 50px; margin: 0; text-align: center;\">+</p>","response":null,"trial_type":"html-keyboard-response","trial_index":174,"plugin_version":"2.1.0","time_elapsed":328175,"subject_id":"86671","group":"Group1","full_date":"2025-11-26T17:01:57.631Z","date":"2025-11-26","time":"17:01:57"},{"task":"memory_phase","broad_category":"S","image_png":"S_Rock Salt_01.png","image_id":433,"category_name":"Rock Salt","category":28,"distinct_rating":7.18,"distinct_type":"Top","rt":null,"stimulus":"Stimuli_Rocks480/S_Rock Salt_01.png","response":null,"trial_type":"image-keyboard-response","trial_index":175,"plugin_version":"2.1.0","time_elapsed":330679,"subject_id":"86671","group":"Group1","full_date":"2025-11-26T17:01:57.631Z","date":"2025-11-26","time":"17:01:57"},{"rt":null,"stimulus":"<p style=\"font-size: 50px; margin: 0; text-align: center;\">+</p>","response":null,"trial_type":"html-keyboard-response","trial_index":176,"plugin_version":"2.1.0","time_elapsed":331682,"subject_id":"86671","group":"Group1","full_date":"2025-11-26T17:01:57.631Z","date":"2025-11-26","time":"17:01:57"},{"task":"memory_phase","broad_category":"M","image_png":"M_Quartzite_13.png","image_id":285,"category_name":"Quartzite","category":18,"distinct_rating":2.27,"distinct_type":"Bottom","rt":null,"stimulus":"Stimuli_Rocks480/M_Quartzite_13.png","response":null,"trial_type":"image-keyboard-response","trial_index":177,"plugin_version":"2.1.0","time_elapsed":334186,"subject_id":"86671","group":"Group1","full_date":"2025-11-26T17:01:57.631Z","date":"2025-11-26","time":"17:01:57"},{"rt":null,"stimulus":"<p style=\"font-size: 50px; margin: 0; text-align: center;\">+</p>","response":null,"trial_type":"html-keyboard-response","trial_index":178,"plugin_version":"2.1.0","time_elapsed":335189,"subject_id":"86671","group":"Group1","full_date":"2025-11-26T17:01:57.631Z","date":"2025-11-26","time":"17:01:57"},{"task":"memory_phase","broad_category":"I","image_png":"I_Pegmatite_16.png","image_id":112,"category_name":"Pegmatite","category":7,"distinct_rating":7.03,"distinct_type":"Top","rt":null,"stimulus":"Stimuli_Rocks480/I_Pegmatite_16.png","response":null,"trial_type":"image-keyboard-response","trial_index":179,"plugin_version":"2.1.0","time_elapsed":337693,"subject_id":"86671","group":"Group1","full_date":"2025-11-26T17:01:57.631Z","date":"2025-11-26","time":"17:01:57"},{"rt":null,"stimulus":"<p style=\"font-size: 50px; margin: 0; text-align: center;\">+</p>","response":null,"trial_type":"html-keyboard-response","trial_index":180,"plugin_version":"2.1.0","time_elapsed":338696,"subject_id":"86671","group":"Group1","full_date":"2025-11-26T17:01:57.631Z","date":"2025-11-26","time":"17:01:57"},{"task":"memory_phase","broad_category":"M","image_png":"M_Phyllite_03.png","image_id":259,"category_name":"Phyllite","category":17,"distinct_rating":2.5,"distinct_type":"Bottom","rt":null,"stimulus":"Stimuli_Rocks480/M_Phyllite_03.png","response":null,"trial_type":"image-keyboard-response","trial_index":181,"plugin_version":"2.1.0","time_elapsed":341198,"subject_id":"86671","group":"Group1","full_date":"2025-11-26T17:01:57.631Z","date":"2025-11-26","time":"17:01:57"},{"rt":null,"stimulus":"<p style=\"font-size: 50px; margin: 0; text-align: center;\">+</p>","response":null,"trial_type":"html-keyboard-response","trial_index":182,"plugin_version":"2.1.0","time_elapsed":342201,"subject_id":"86671","group":"Group1","full_date":"2025-11-26T17:01:57.631Z","date":"2025-11-26","time":"17:01:57"},{"task":"memory_phase","broad_category":"I","image_png":"I_Rhyolite_11.png","image_id":155,"category_name":"Rhyolite","category":10,"distinct_rating":1.73,"distinct_type":"Bottom","rt":null,"stimulus":"Stimuli_Rocks480/I_Rhyolite_11.png","response":null,"trial_type":"image-keyboard-response","trial_index":183,"plugin_version":"2.1.0","time_elapsed":344705,"subject_id":"86671","group":"Group1","full_date":"2025-11-26T17:01:57.631Z","date":"2025-11-26","time":"17:01:57"},{"rt":null,"stimulus":"<p style=\"font-size: 50px; margin: 0; text-align: center;\">+</p>","response":null,"trial_type":"html-keyboard-response","trial_index":184,"plugin_version":"2.1.0","time_elapsed":345708,"subject_id":"86671","group":"Group1","full_date":"2025-11-26T17:01:57.631Z","date":"2025-11-26","time":"17:01:57"},{"task":"memory_phase","broad_category":"I","image_png":"I_Gabbro_11.png","image_id":59,"category_name":"Gabbro","category":4,"distinct_rating":1.99,"distinct_type":"Bottom","rt":null,"stimulus":"Stimuli_Rocks480/I_Gabbro_11.png","response":null,"trial_type":"image-keyboard-response","trial_index":185,"plugin_version":"2.1.0","time_elapsed":348212,"subject_id":"86671","group":"Group1","full_date":"2025-11-26T17:01:57.631Z","date":"2025-11-26","time":"17:01:57"},{"rt":null,"stimulus":"<p style=\"font-size: 50px; margin: 0; text-align: center;\">+</p>","response":null,"trial_type":"html-keyboard-response","trial_index":186,"plugin_version":"2.1.0","time_elapsed":349215,"subject_id":"86671","group":"Group1","full_date":"2025-11-26T17:01:57.631Z","date":"2025-11-26","time":"17:01:57"},{"task":"memory_phase","broad_category":"I","image_png":"I_Rhyolite_14.png","image_id":158,"category_name":"Rhyolite","category":10,"distinct_rating":2.59,"distinct_type":"Bottom","rt":null,"stimulus":"Stimuli_Rocks480/I_Rhyolite_14.png","response":null,"trial_type":"image-keyboard-response","trial_index":187,"plugin_version":"2.1.0","time_elapsed":351720,"subject_id":"86671","group":"Group1","full_date":"2025-11-26T17:01:57.631Z","date":"2025-11-26","time":"17:01:57"},{"rt":null,"stimulus":"<p style=\"font-size: 50px; margin: 0; text-align: center;\">+</p>","response":null,"trial_type":"html-keyboard-response","trial_index":188,"plugin_version":"2.1.0","time_elapsed":352723,"subject_id":"86671","group":"Group1","full_date":"2025-11-26T17:01:57.631Z","date":"2025-11-26","time":"17:01:57"},{"task":"memory_phase","broad_category":"I","image_png":"I_Pumice_08.png","image_id":136,"category_name":"Pumice","category":9,"distinct_rating":3.1,"distinct_type":"Bottom","rt":null,"stimulus":"Stimuli_Rocks480/I_Pumice_08.png","response":null,"trial_type":"image-keyboard-response","trial_index":189,"plugin_version":"2.1.0","time_elapsed":355226,"subject_id":"86671","group":"Group1","full_date":"2025-11-26T17:01:57.631Z","date":"2025-11-26","time":"17:01:57"},{"rt":null,"stimulus":"<p style=\"font-size: 50px; margin: 0; text-align: center;\">+</p>","response":null,"trial_type":"html-keyboard-response","trial_index":190,"plugin_version":"2.1.0","time_elapsed":356229,"subject_id":"86671","group":"Group1","full_date":"2025-11-26T17:01:57.631Z","date":"2025-11-26","time":"17:01:57"},{"task":"memory_phase","broad_category":"S","image_png":"S_Shale_08.png","image_id":472,"category_name":"Shale","category":30,"distinct_rating":2.55,"distinct_type":"Bottom","rt":null,"stimulus":"Stimuli_Rocks480/S_Shale_08.png","response":null,"trial_type":"image-keyboard-response","trial_index":191,"plugin_version":"2.1.0","time_elapsed":358732,"subject_id":"86671","group":"Group1","full_date":"2025-11-26T17:01:57.631Z","date":"2025-11-26","time":"17:01:57"},{"rt":null,"stimulus":"<p style=\"font-size: 50px; margin: 0; text-align: center;\">+</p>","response":null,"trial_type":"html-keyboard-response","trial_index":192,"plugin_version":"2.1.0","time_elapsed":359734,"subject_id":"86671","group":"Group1","full_date":"2025-11-26T17:01:57.631Z","date":"2025-11-26","time":"17:01:57"},{"task":"memory_phase","broad_category":"M","image_png":"M_Gneiss_05.png","image_id":197,"category_name":"Gneiss","category":13,"distinct_rating":2.97,"distinct_type":"Bottom","rt":null,"stimulus":"Stimuli_Rocks480/M_Gneiss_05.png","response":null,"trial_type":"image-keyboard-response","trial_index":193,"plugin_version":"2.1.0","time_elapsed":362238,"subject_id":"86671","group":"Group1","full_date":"2025-11-26T17:01:57.631Z","date":"2025-11-26","time":"17:01:57"},{"rt":null,"stimulus":"<p style=\"font-size: 50px; margin: 0; text-align: center;\">+</p>","response":null,"trial_type":"html-keyboard-response","trial_index":194,"plugin_version":"2.1.0","time_elapsed":363240,"subject_id":"86671","group":"Group1","full_date":"2025-11-26T17:01:57.631Z","date":"2025-11-26","time":"17:01:57"},{"task":"memory_phase","broad_category":"M","image_png":"M_Quartzite_05.png","image_id":277,"category_name":"Quartzite","category":18,"distinct_rating":2.23,"distinct_type":"Bottom","rt":null,"stimulus":"Stimuli_Rocks480/M_Quartzite_05.png","response":null,"trial_type":"image-keyboard-response","trial_index":195,"plugin_version":"2.1.0","time_elapsed":365745,"subject_id":"86671","group":"Group1","full_date":"2025-11-26T17:01:57.631Z","date":"2025-11-26","time":"17:01:57"},{"rt":null,"stimulus":"<p style=\"font-size: 50px; margin: 0; text-align: center;\">+</p>","response":null,"trial_type":"html-keyboard-response","trial_index":196,"plugin_version":"2.1.0","time_elapsed":366746,"subject_id":"86671","group":"Group1","full_date":"2025-11-26T17:01:57.631Z","date":"2025-11-26","time":"17:01:57"},{"task":"memory_phase","broad_category":"S","image_png":"S_Chert_10.png","image_id":362,"category_name":"Chert","category":23,"distinct_rating":7.17,"distinct_type":"Top","rt":null,"stimulus":"Stimuli_Rocks480/S_Chert_10.png","response":null,"trial_type":"image-keyboard-response","trial_index":197,"plugin_version":"2.1.0","time_elapsed":369250,"subject_id":"86671","group":"Group1","full_date":"2025-11-26T17:01:57.631Z","date":"2025-11-26","time":"17:01:57"},{"rt":null,"stimulus":"<p style=\"font-size: 50px; margin: 0; text-align: center;\">+</p>","response":null,"trial_type":"html-keyboard-response","trial_index":198,"plugin_version":"2.1.0","time_elapsed":370253,"subject_id":"86671","group":"Group1","full_date":"2025-11-26T17:01:57.631Z","date":"2025-11-26","time":"17:01:57"},{"task":"memory_phase","broad_category":"M","image_png":"M_Slate_03.png","image_id":307,"category_name":"Slate","category":20,"distinct_rating":1.87,"distinct_type":"Bottom","rt":null,"stimulus":"Stimuli_Rocks480/M_Slate_03.png","response":null,"trial_type":"image-keyboard-response","trial_index":199,"plugin_version":"2.1.0","time_elapsed":372757,"subject_id":"86671","group":"Group1","full_date":"2025-11-26T17:01:57.631Z","date":"2025-11-26","time":"17:01:57"},{"rt":null,"stimulus":"<p style=\"font-size: 50px; margin: 0; text-align: center;\">+</p>","response":null,"trial_type":"html-keyboard-response","trial_index":200,"plugin_version":"2.1.0","time_elapsed":373760,"subject_id":"86671","group":"Group1","full_date":"2025-11-26T17:01:57.631Z","date":"2025-11-26","time":"17:01:57"},{"task":"memory_phase","broad_category":"I","image_png":"I_Diorite_03.png","image_id":35,"category_name":"Diorite","category":3,"distinct_rating":3.14,"distinct_type":"Bottom","rt":null,"stimulus":"Stimuli_Rocks480/I_Diorite_03.png","response":null,"trial_type":"image-keyboard-response","trial_index":201,"plugin_version":"2.1.0","time_elapsed":376264,"subject_id":"86671","group":"Group1","full_date":"2025-11-26T17:01:57.631Z","date":"2025-11-26","time":"17:01:57"},{"rt":null,"stimulus":"<p style=\"font-size: 50px; margin: 0; text-align: center;\">+</p>","response":null,"trial_type":"html-keyboard-response","trial_index":202,"plugin_version":"2.1.0","time_elapsed":377267,"subject_id":"86671","group":"Group1","full_date":"2025-11-26T17:01:57.631Z","date":"2025-11-26","time":"17:01:57"},{"task":"memory_phase","broad_category":"S","image_png":"S_Rock Gypsum_04.png","image_id":420,"category_name":"Rock Gypsum","category":27,"distinct_rating":7.61,"distinct_type":"Top","rt":null,"stimulus":"Stimuli_Rocks480/S_Rock Gypsum_04.png","response":null,"trial_type":"image-keyboard-response","trial_index":203,"plugin_version":"2.1.0","time_elapsed":379771,"subject_id":"86671","group":"Group1","full_date":"2025-11-26T17:01:57.631Z","date":"2025-11-26","time":"17:01:57"},{"rt":null,"stimulus":"<p style=\"font-size: 50px; margin: 0; text-align: center;\">+</p>","response":null,"trial_type":"html-keyboard-response","trial_index":204,"plugin_version":"2.1.0","time_elapsed":380773,"subject_id":"86671","group":"Group1","full_date":"2025-11-26T17:01:57.631Z","date":"2025-11-26","time":"17:01:57"},{"task":"memory_phase","broad_category":"I","image_png":"I_Obsidian_05.png","image_id":85,"category_name":"Obsidian","category":6,"distinct_rating":7.32,"distinct_type":"Top","rt":null,"stimulus":"Stimuli_Rocks480/I_Obsidian_05.png","response":null,"trial_type":"image-keyboard-response","trial_index":205,"plugin_version":"2.1.0","time_elapsed":383278,"subject_id":"86671","group":"Group1","full_date":"2025-11-26T17:01:57.631Z","date":"2025-11-26","time":"17:01:57"},{"rt":null,"stimulus":"<p style=\"font-size: 50px; margin: 0; text-align: center;\">+</p>","response":null,"trial_type":"html-keyboard-response","trial_index":206,"plugin_version":"2.1.0","time_elapsed":384280,"subject_id":"86671","group":"Group1","full_date":"2025-11-26T17:01:57.631Z","date":"2025-11-26","time":"17:01:57"},{"task":"memory_phase","broad_category":"S","image_png":"S_Conglomerate_05.png","image_id":373,"category_name":"Conglomerate","category":24,"distinct_rating":7.32,"distinct_type":"Top","rt":null,"stimulus":"Stimuli_Rocks480/S_Conglomerate_05.png","response":null,"trial_type":"image-keyboard-response","trial_index":207,"plugin_version":"2.1.0","time_elapsed":386784,"subject_id":"86671","group":"Group1","full_date":"2025-11-26T17:01:57.631Z","date":"2025-11-26","time":"17:01:57"},{"rt":6962,"stimulus":"<p style=\"max-width: 760px; margin: auto; font-size: 35px; line-height: 1.5;\">You have completed 2 study phases. Now, we'll show you all the images again 1 more time.<br><br>Press SPACE to continue</p>","response":" ","trial_type":"html-keyboard-response","trial_index":208,"plugin_version":"2.1.0","time_elapsed":393747,"subject_id":"86671","group":"Group1","full_date":"2025-11-26T17:01:57.631Z","date":"2025-11-26","time":"17:01:57"},{"rt":null,"stimulus":"<p style=\"font-size: 50px; margin: 0; text-align: center;\">+</p>","response":null,"trial_type":"html-keyboard-response","trial_index":209,"plugin_version":"2.1.0","time_elapsed":394750,"subject_id":"86671","group":"Group1","full_date":"2025-11-26T17:01:57.631Z","date":"2025-11-26","time":"17:01:57"},{"task":"memory_phase","broad_category":"I","image_png":"I_Andesite_08.png","image_id":8,"category_name":"Andesite","category":1,"distinct_rating":1.95,"distinct_type":"Bottom","rt":null,"stimulus":"Stimuli_Rocks480/I_Andesite_08.png","response":null,"trial_type":"image-keyboard-response","trial_index":210,"plugin_version":"2.1.0","time_elapsed":397255,"subject_id":"86671","group":"Group1","full_date":"2025-11-26T17:01:57.631Z","date":"2025-11-26","time":"17:01:57"},{"rt":null,"stimulus":"<p style=\"font-size: 50px; margin: 0; text-align: center;\">+</p>","response":null,"trial_type":"html-keyboard-response","trial_index":211,"plugin_version":"2.1.0","time_elapsed":398257,"subject_id":"86671","group":"Group1","full_date":"2025-11-26T17:01:57.631Z","date":"2025-11-26","time":"17:01:57"},{"task":"memory_phase","broad_category":"S","image_png":"S_Sandstone_03.png","image_id":451,"category_name":"Sandstone","category":29,"distinct_rating":1.86,"distinct_type":"Bottom","rt":null,"stimulus":"Stimuli_Rocks480/S_Sandstone_03.png","response":null,"trial_type":"image-keyboard-response","trial_index":212,"plugin_version":"2.1.0","time_elapsed":400762,"subject_id":"86671","group":"Group1","full_date":"2025-11-26T17:01:57.631Z","date":"2025-11-26","time":"17:01:57"},{"rt":null,"stimulus":"<p style=\"font-size: 50px; margin: 0; text-align: center;\">+</p>","response":null,"trial_type":"html-keyboard-response","trial_index":213,"plugin_version":"2.1.0","time_elapsed":401764,"subject_id":"86671","group":"Group1","full_date":"2025-11-26T17:01:57.631Z","date":"2025-11-26","time":"17:01:57"},{"task":"memory_phase","broad_category":"I","image_png":"I_Pumice_11.png","image_id":139,"category_name":"Pumice","category":9,"distinct_rating":1.74,"distinct_type":"Bottom","rt":null,"stimulus":"Stimuli_Rocks480/I_Pumice_11.png","response":null,"trial_type":"image-keyboard-response","trial_index":214,"plugin_version":"2.1.0","time_elapsed":404269,"subject_id":"86671","group":"Group1","full_date":"2025-11-26T17:01:57.631Z","date":"2025-11-26","time":"17:01:57"},{"rt":null,"stimulus":"<p style=\"font-size: 50px; margin: 0; text-align: center;\">+</p>","response":null,"trial_type":"html-keyboard-response","trial_index":215,"plugin_version":"2.1.0","time_elapsed":405271,"subject_id":"86671","group":"Group1","full_date":"2025-11-26T17:01:57.631Z","date":"2025-11-26","time":"17:01:57"},{"task":"memory_phase","broad_category":"M","image_png":"M_Marble_16.png","image_id":240,"category_name":"Marble","category":15,"distinct_rating":2.57,"distinct_type":"Bottom","rt":null,"stimulus":"Stimuli_Rocks480/M_Marble_16.png","response":null,"trial_type":"image-keyboard-response","trial_index":216,"plugin_version":"2.1.0","time_elapsed":407775,"subject_id":"86671","group":"Group1","full_date":"2025-11-26T17:01:57.631Z","date":"2025-11-26","time":"17:01:57"},{"rt":null,"stimulus":"<p style=\"font-size: 50px; margin: 0; text-align: center;\">+</p>","response":null,"trial_type":"html-keyboard-response","trial_index":217,"plugin_version":"2.1.0","time_elapsed":408778,"subject_id":"86671","group":"Group1","full_date":"2025-11-26T17:01:57.631Z","date":"2025-11-26","time":"17:01:57"},{"task":"memory_phase","broad_category":"I","image_png":"I_Diorite_04.png","image_id":36,"category_name":"Diorite","category":3,"distinct_rating":2.98,"distinct_type":"Bottom","rt":null,"stimulus":"Stimuli_Rocks480/I_Diorite_04.png","response":null,"trial_type":"image-keyboard-response","trial_index":218,"plugin_version":"2.1.0","time_elapsed":411282,"subject_id":"86671","group":"Group1","full_date":"2025-11-26T17:01:57.631Z","date":"2025-11-26","time":"17:01:57"},{"rt":null,"stimulus":"<p style=\"font-size: 50px; margin: 0; text-align: center;\">+</p>","response":null,"trial_type":"html-keyboard-response","trial_index":219,"plugin_version":"2.1.0","time_elapsed":412284,"subject_id":"86671","group":"Group1","full_date":"2025-11-26T17:01:57.631Z","date":"2025-11-26","time":"17:01:57"},{"task":"memory_phase","broad_category":"M","image_png":"M_Phyllite_10.png","image_id":266,"category_name":"Phyllite","category":17,"distinct_rating":2.6,"distinct_type":"Bottom","rt":null,"stimulus":"Stimuli_Rocks480/M_Phyllite_10.png","response":null,"trial_type":"image-keyboard-response","trial_index":220,"plugin_version":"2.1.0","time_elapsed":414788,"subject_id":"86671","group":"Group1","full_date":"2025-11-26T17:01:57.631Z","date":"2025-11-26","time":"17:01:57"},{"rt":null,"stimulus":"<p style=\"font-size: 50px; margin: 0; text-align: center;\">+</p>","response":null,"trial_type":"html-keyboard-response","trial_index":221,"plugin_version":"2.1.0","time_elapsed":415791,"subject_id":"86671","group":"Group1","full_date":"2025-11-26T17:01:57.631Z","date":"2025-11-26","time":"17:01:57"},{"task":"memory_phase","broad_category":"M","image_png":"M_Slate_11.png","image_id":315,"category_name":"Slate","category":20,"distinct_rating":2.75,"distinct_type":"Bottom","rt":null,"stimulus":"Stimuli_Rocks480/M_Slate_11.png","response":null,"trial_type":"image-keyboard-response","trial_index":222,"plugin_version":"2.1.0","time_elapsed":418295,"subject_id":"86671","group":"Group1","full_date":"2025-11-26T17:01:57.631Z","date":"2025-11-26","time":"17:01:57"},{"rt":null,"stimulus":"<p style=\"font-size: 50px; margin: 0; text-align: center;\">+</p>","response":null,"trial_type":"html-keyboard-response","trial_index":223,"plugin_version":"2.1.0","time_elapsed":419297,"subject_id":"86671","group":"Group1","full_date":"2025-11-26T17:01:57.631Z","date":"2025-11-26","time":"17:01:57"},{"task":"memory_phase","broad_category":"S","image_png":"S_Rock Salt_01.png","image_id":433,"category_name":"Rock Salt","category":28,"distinct_rating":7.18,"distinct_type":"Top","rt":null,"stimulus":"Stimuli_Rocks480/S_Rock Salt_01.png","response":null,"trial_type":"image-keyboard-response","trial_index":224,"plugin_version":"2.1.0","time_elapsed":421801,"subject_id":"86671","group":"Group1","full_date":"2025-11-26T17:01:57.631Z","date":"2025-11-26","time":"17:01:57"},{"rt":null,"stimulus":"<p style=\"font-size: 50px; margin: 0; text-align: center;\">+</p>","response":null,"trial_type":"html-keyboard-response","trial_index":225,"plugin_version":"2.1.0","time_elapsed":422804,"subject_id":"86671","group":"Group1","full_date":"2025-11-26T17:01:57.631Z","date":"2025-11-26","time":"17:01:57"},{"task":"memory_phase","broad_category":"S","image_png":"S_Breccia_11.png","image_id":347,"category_name":"Breccia","category":22,"distinct_rating":6.7,"distinct_type":"Top","rt":null,"stimulus":"Stimuli_Rocks480/S_Breccia_11.png","response":null,"trial_type":"image-keyboard-response","trial_index":226,"plugin_version":"2.1.0","time_elapsed":425307,"subject_id":"86671","group":"Group1","full_date":"2025-11-26T17:01:57.631Z","date":"2025-11-26","time":"17:01:57"},{"rt":null,"stimulus":"<p style=\"font-size: 50px; margin: 0; text-align: center;\">+</p>","response":null,"trial_type":"html-keyboard-response","trial_index":227,"plugin_version":"2.1.0","time_elapsed":426309,"subject_id":"86671","group":"Group1","full_date":"2025-11-26T17:01:57.631Z","date":"2025-11-26","time":"17:01:57"},{"task":"memory_phase","broad_category":"S","image_png":"S_Dolomite_12.png","image_id":396,"category_name":"Dolomite","category":25,"distinct_rating":1.85,"distinct_type":"Bottom","rt":null,"stimulus":"Stimuli_Rocks480/S_Dolomite_12.png","response":null,"trial_type":"image-keyboard-response","trial_index":228,"plugin_version":"2.1.0","time_elapsed":428811,"subject_id":"86671","group":"Group1","full_date":"2025-11-26T17:01:57.631Z","date":"2025-11-26","time":"17:01:57"},{"rt":null,"stimulus":"<p style=\"font-size: 50px; margin: 0; text-align: center;\">+</p>","response":null,"trial_type":"html-keyboard-response","trial_index":229,"plugin_version":"2.1.0","time_elapsed":429814,"subject_id":"86671","group":"Group1","full_date":"2025-11-26T17:01:57.631Z","date":"2025-11-26","time":"17:01:57"},{"task":"memory_phase","broad_category":"I","image_png":"I_Basalt_02.png","image_id":18,"category_name":"Basalt","category":2,"distinct_rating":1.84,"distinct_type":"Bottom","rt":null,"stimulus":"Stimuli_Rocks480/I_Basalt_02.png","response":null,"trial_type":"image-keyboard-response","trial_index":230,"plugin_version":"2.1.0","time_elapsed":432317,"subject_id":"86671","group":"Group1","full_date":"2025-11-26T17:01:57.631Z","date":"2025-11-26","time":"17:01:57"},{"rt":null,"stimulus":"<p style=\"font-size: 50px; margin: 0; text-align: center;\">+</p>","response":null,"trial_type":"html-keyboard-response","trial_index":231,"plugin_version":"2.1.0","time_elapsed":433320,"subject_id":"86671","group":"Group1","full_date":"2025-11-26T17:01:57.631Z","date":"2025-11-26","time":"17:01:57"},{"task":"memory_phase","broad_category":"M","image_png":"M_Marble_04.png","image_id":228,"category_name":"Marble","category":15,"distinct_rating":3.15,"distinct_type":"Bottom","rt":null,"stimulus":"Stimuli_Rocks480/M_Marble_04.png","response":null,"trial_type":"image-keyboard-response","trial_index":232,"plugin_version":"2.1.0","time_elapsed":435823,"subject_id":"86671","group":"Group1","full_date":"2025-11-26T17:01:57.631Z","date":"2025-11-26","time":"17:01:57"},{"rt":null,"stimulus":"<p style=\"font-size: 50px; margin: 0; text-align: center;\">+</p>","response":null,"trial_type":"html-keyboard-response","trial_index":233,"plugin_version":"2.1.0","time_elapsed":436826,"subject_id":"86671","group":"Group1","full_date":"2025-11-26T17:01:57.631Z","date":"2025-11-26","time":"17:01:57"},{"task":"memory_phase","broad_category":"M","image_png":"M_Quartzite_05.png","image_id":277,"category_name":"Quartzite","category":18,"distinct_rating":2.23,"distinct_type":"Bottom","rt":null,"stimulus":"Stimuli_Rocks480/M_Quartzite_05.png","response":null,"trial_type":"image-keyboard-response","trial_index":234,"plugin_version":"2.1.0","time_elapsed":439329,"subject_id":"86671","group":"Group1","full_date":"2025-11-26T17:01:57.631Z","date":"2025-11-26","time":"17:01:57"},{"rt":null,"stimulus":"<p style=\"font-size: 50px; margin: 0; text-align: center;\">+</p>","response":null,"trial_type":"html-keyboard-response","trial_index":235,"plugin_version":"2.1.0","time_elapsed":440332,"subject_id":"86671","group":"Group1","full_date":"2025-11-26T17:01:57.631Z","date":"2025-11-26","time":"17:01:57"},{"task":"memory_phase","broad_category":"M","image_png":"M_Phyllite_03.png","image_id":259,"category_name":"Phyllite","category":17,"distinct_rating":2.5,"distinct_type":"Bottom","rt":null,"stimulus":"Stimuli_Rocks480/M_Phyllite_03.png","response":null,"trial_type":"image-keyboard-response","trial_index":236,"plugin_version":"2.1.0","time_elapsed":442836,"subject_id":"86671","group":"Group1","full_date":"2025-11-26T17:01:57.631Z","date":"2025-11-26","time":"17:01:57"},{"rt":null,"stimulus":"<p style=\"font-size: 50px; margin: 0; text-align: center;\">+</p>","response":null,"trial_type":"html-keyboard-response","trial_index":237,"plugin_version":"2.1.0","time_elapsed":443839,"subject_id":"86671","group":"Group1","full_date":"2025-11-26T17:01:57.631Z","date":"2025-11-26","time":"17:01:57"},{"task":"memory_phase","broad_category":"I","image_png":"I_Andesite_06.png","image_id":6,"category_name":"Andesite","category":1,"distinct_rating":3.17,"distinct_type":"Bottom","rt":null,"stimulus":"Stimuli_Rocks480/I_Andesite_06.png","response":null,"trial_type":"image-keyboard-response","trial_index":238,"plugin_version":"2.1.0","time_elapsed":446340,"subject_id":"86671","group":"Group1","full_date":"2025-11-26T17:01:57.631Z","date":"2025-11-26","time":"17:01:57"},{"rt":null,"stimulus":"<p style=\"font-size: 50px; margin: 0; text-align: center;\">+</p>","response":null,"trial_type":"html-keyboard-response","trial_index":239,"plugin_version":"2.1.0","time_elapsed":447343,"subject_id":"86671","group":"Group1","full_date":"2025-11-26T17:01:57.631Z","date":"2025-11-26","time":"17:01:57"},{"task":"memory_phase","broad_category":"I","image_png":"I_Pegmatite_10.png","image_id":106,"category_name":"Pegmatite","category":7,"distinct_rating":7.66,"distinct_type":"Top","rt":null,"stimulus":"Stimuli_Rocks480/I_Pegmatite_10.png","response":null,"trial_type":"image-keyboard-response","trial_index":240,"plugin_version":"2.1.0","time_elapsed":449847,"subject_id":"86671","group":"Group1","full_date":"2025-11-26T17:01:57.631Z","date":"2025-11-26","time":"17:01:57"},{"rt":null,"stimulus":"<p style=\"font-size: 50px; margin: 0; text-align: center;\">+</p>","response":null,"trial_type":"html-keyboard-response","trial_index":241,"plugin_version":"2.1.0","time_elapsed":450849,"subject_id":"86671","group":"Group1","full_date":"2025-11-26T17:01:57.631Z","date":"2025-11-26","time":"17:01:57"},{"task":"memory_phase","broad_category":"I","image_png":"I_Basalt_09.png","image_id":25,"category_name":"Basalt","category":2,"distinct_rating":1.89,"distinct_type":"Bottom","rt":null,"stimulus":"Stimuli_Rocks480/I_Basalt_09.png","response":null,"trial_type":"image-keyboard-response","trial_index":242,"plugin_version":"2.1.0","time_elapsed":453353,"subject_id":"86671","group":"Group1","full_date":"2025-11-26T17:01:57.631Z","date":"2025-11-26","time":"17:01:57"},{"rt":null,"stimulus":"<p style=\"font-size: 50px; margin: 0; text-align: center;\">+</p>","response":null,"trial_type":"html-keyboard-response","trial_index":243,"plugin_version":"2.1.0","time_elapsed":454356,"subject_id":"86671","group":"Group1","full_date":"2025-11-26T17:01:57.631Z","date":"2025-11-26","time":"17:01:57"},{"task":"memory_phase","broad_category":"M","image_png":"M_Quartzite_13.png","image_id":285,"category_name":"Quartzite","category":18,"distinct_rating":2.27,"distinct_type":"Bottom","rt":null,"stimulus":"Stimuli_Rocks480/M_Quartzite_13.png","response":null,"trial_type":"image-keyboard-response","trial_index":244,"plugin_version":"2.1.0","time_elapsed":456860,"subject_id":"86671","group":"Group1","full_date":"2025-11-26T17:01:57.631Z","date":"2025-11-26","time":"17:01:57"},{"rt":null,"stimulus":"<p style=\"font-size: 50px; margin: 0; text-align: center;\">+</p>","response":null,"trial_type":"html-keyboard-response","trial_index":245,"plugin_version":"2.1.0","time_elapsed":457863,"subject_id":"86671","group":"Group1","full_date":"2025-11-26T17:01:57.631Z","date":"2025-11-26","time":"17:01:57"},{"task":"memory_phase","broad_category":"M","image_png":"M_Phyllite_07.png","image_id":263,"category_name":"Phyllite","category":17,"distinct_rating":2.59,"distinct_type":"Bottom","rt":null,"stimulus":"Stimuli_Rocks480/M_Phyllite_07.png","response":null,"trial_type":"image-keyboard-response","trial_index":246,"plugin_version":"2.1.0","time_elapsed":460367,"subject_id":"86671","group":"Group1","full_date":"2025-11-26T17:01:57.631Z","date":"2025-11-26","time":"17:01:57"},{"rt":null,"stimulus":"<p style=\"font-size: 50px; margin: 0; text-align: center;\">+</p>","response":null,"trial_type":"html-keyboard-response","trial_index":247,"plugin_version":"2.1.0","time_elapsed":461370,"subject_id":"86671","group":"Group1","full_date":"2025-11-26T17:01:57.631Z","date":"2025-11-26","time":"17:01:57"},{"task":"memory_phase","broad_category":"M","image_png":"M_Marble_06.png","image_id":230,"category_name":"Marble","category":15,"distinct_rating":3.4,"distinct_type":"Bottom","rt":null,"stimulus":"Stimuli_Rocks480/M_Marble_06.png","response":null,"trial_type":"image-keyboard-response","trial_index":248,"plugin_version":"2.1.0","time_elapsed":463874,"subject_id":"86671","group":