[{"width":1311,"height":644,"webaudio":true,"browser":"edge-chromium","browser_version":"142.0.0","mobile":false,"os":"Windows 10","fullscreen":true,"vsync_rate":60.91,"webcam":true,"microphone":true,"trial_type":"browser-check","trial_index":0,"plugin_version":"2.1.0","time_elapsed":1007,"subject_id":"86896","group":"Group1","full_date":"2025-12-10T05:49:39.699Z","date":"2025-12-10","time":"05:49:39"},{"success":true,"timeout":false,"failed_images":[],"failed_audio":[],"failed_video":[],"trial_type":"preload","trial_index":1,"plugin_version":"2.1.0","time_elapsed":2781,"subject_id":"86896","group":"Group1","full_date":"2025-12-10T05:49:39.699Z","date":"2025-12-10","time":"05:49:39"},{"rt":6452,"url":"SONA_consent_memorability.html","trial_type":"external-html","trial_index":2,"plugin_version":"2.1.0","time_elapsed":9284,"subject_id":"86896","group":"Group1","full_date":"2025-12-10T05:49:39.699Z","date":"2025-12-10","time":"05:49:39"},{"success":true,"rt":1388,"trial_type":"fullscreen","trial_index":3,"plugin_version":"2.1.0","time_elapsed":11689,"subject_id":"86896","group":"Group1","full_date":"2025-12-10T05:49:39.699Z","date":"2025-12-10","time":"05:49:39"},{"rt":1760,"stimulus":"<div style=\"max-width: 760px; margin: auto; font-size: 20px; line-height: 1.5;\">\n      <h1 style=\"text-align:center; font-size: 30px;\">Instructions</h1>\n      <p>\n        Welcome to the study on <b>visual memory</b>. This experiment consists of <b>two phases</b>: \n        a <b>study phase</b> and a <b>test phase</b>.\n      </p>\n      <p>\n        In the study phase, you will see a series of rock images along with their category labels.\n        The images will appear one at a time.\n        <b>Your task</b> is to learn the categories to which the rock images belong \n        and to remember each image as accurately as possible.\n      </p> \n      <p>\n        Note that we will repeat the study phase <b>3 times</b>, \n        so you will have multiple opportunities to see and remember each image.\n      </p>\n      <p>\n        After the study phase, <b>your memory will be tested</b>. \n        Additional instructions for the test phase will be provided at that time.\n      </p>\n      <p>\n        If your computer has multiple <b>language settings</b> (e.g., English and another language),\n        please make sure it is set to English before starting.\n      </p>\n      <p>\n        You can track your progress using the <b>completion bar</b> at the top of the screen. \n        Please note that the bar will refresh when the test phase begins \n        to give you an accurate sense of your progress in both phases.\n      </p> \n      <p>\n        Press the button below when you are ready to begin.\n      </p>\n    </div>","response":0,"trial_type":"html-button-response","trial_index":4,"plugin_version":"2.1.0","time_elapsed":13450,"subject_id":"86896","group":"Group1","full_date":"2025-12-10T05:49:39.699Z","date":"2025-12-10","time":"05:49:39"},{"rt":null,"stimulus":"<p style=\"font-size: 50px; margin: 0; text-align: center;\">+</p>","response":null,"trial_type":"html-keyboard-response","trial_index":5,"plugin_version":"2.1.0","time_elapsed":14455,"subject_id":"86896","group":"Group1","full_date":"2025-12-10T05:49:39.699Z","date":"2025-12-10","time":"05:49:39"},{"task":"memory_phase","broad_category":"S","image_png":"S_Dolomite_14.png","image_id":398,"category_name":"Dolomite","category":25,"distinct_rating":1.43,"distinct_type":"Bottom","rt":null,"stimulus":"Stimuli_Rocks480/S_Dolomite_14.png","response":null,"trial_type":"image-keyboard-response","trial_index":6,"plugin_version":"2.1.0","time_elapsed":16963,"subject_id":"86896","group":"Group1","full_date":"2025-12-10T05:49:39.699Z","date":"2025-12-10","time":"05:49:39"},{"rt":null,"stimulus":"<p style=\"font-size: 50px; margin: 0; text-align: center;\">+</p>","response":null,"trial_type":"html-keyboard-response","trial_index":7,"plugin_version":"2.1.0","time_elapsed":17967,"subject_id":"86896","group":"Group1","full_date":"2025-12-10T05:49:39.699Z","date":"2025-12-10","time":"05:49:39"},{"task":"memory_phase","broad_category":"S","image_png":"S_Sandstone_15.png","image_id":463,"category_name":"Sandstone","category":29,"distinct_rating":2,"distinct_type":"Bottom","rt":null,"stimulus":"Stimuli_Rocks480/S_Sandstone_15.png","response":null,"trial_type":"image-keyboard-response","trial_index":8,"plugin_version":"2.1.0","time_elapsed":20482,"subject_id":"86896","group":"Group1","full_date":"2025-12-10T05:49:39.699Z","date":"2025-12-10","time":"05:49:39"},{"rt":null,"stimulus":"<p style=\"font-size: 50px; margin: 0; text-align: center;\">+</p>","response":null,"trial_type":"html-keyboard-response","trial_index":9,"plugin_version":"2.1.0","time_elapsed":21486,"subject_id":"86896","group":"Group1","full_date":"2025-12-10T05:49:39.699Z","date":"2025-12-10","time":"05:49:39"},{"task":"memory_phase","broad_category":"I","image_png":"I_Andesite_10.png","image_id":10,"category_name":"Andesite","category":1,"distinct_rating":3.15,"distinct_type":"Bottom","rt":null,"stimulus":"Stimuli_Rocks480/I_Andesite_10.png","response":null,"trial_type":"image-keyboard-response","trial_index":10,"plugin_version":"2.1.0","time_elapsed":23988,"subject_id":"86896","group":"Group1","full_date":"2025-12-10T05:49:39.699Z","date":"2025-12-10","time":"05:49:39"},{"rt":null,"stimulus":"<p style=\"font-size: 50px; margin: 0; text-align: center;\">+</p>","response":null,"trial_type":"html-keyboard-response","trial_index":11,"plugin_version":"2.1.0","time_elapsed":25002,"subject_id":"86896","group":"Group1","full_date":"2025-12-10T05:49:39.699Z","date":"2025-12-10","time":"05:49:39"},{"task":"memory_phase","broad_category":"M","image_png":"M_Phyllite_03.png","image_id":259,"category_name":"Phyllite","category":17,"distinct_rating":2.5,"distinct_type":"Bottom","rt":null,"stimulus":"Stimuli_Rocks480/M_Phyllite_03.png","response":null,"trial_type":"image-keyboard-response","trial_index":12,"plugin_version":"2.1.0","time_elapsed":27518,"subject_id":"86896","group":"Group1","full_date":"2025-12-10T05:49:39.699Z","date":"2025-12-10","time":"05:49:39"},{"rt":null,"stimulus":"<p style=\"font-size: 50px; margin: 0; text-align: center;\">+</p>","response":null,"trial_type":"html-keyboard-response","trial_index":13,"plugin_version":"2.1.0","time_elapsed":28527,"subject_id":"86896","group":"Group1","full_date":"2025-12-10T05:49:39.699Z","date":"2025-12-10","time":"05:49:39"},{"task":"memory_phase","broad_category":"S","image_png":"S_Sandstone_16.png","image_id":464,"category_name":"Sandstone","category":29,"distinct_rating":1.93,"distinct_type":"Bottom","rt":null,"stimulus":"Stimuli_Rocks480/S_Sandstone_16.png","response":null,"trial_type":"image-keyboard-response","trial_index":14,"plugin_version":"2.1.0","time_elapsed":31031,"subject_id":"86896","group":"Group1","full_date":"2025-12-10T05:49:39.699Z","date":"2025-12-10","time":"05:49:39"},{"rt":null,"stimulus":"<p style=\"font-size: 50px; margin: 0; text-align: center;\">+</p>","response":null,"trial_type":"html-keyboard-response","trial_index":15,"plugin_version":"2.1.0","time_elapsed":32048,"subject_id":"86896","group":"Group1","full_date":"2025-12-10T05:49:39.699Z","date":"2025-12-10","time":"05:49:39"},{"task":"memory_phase","broad_category":"S","image_png":"S_Shale_12.png","image_id":476,"category_name":"Shale","category":30,"distinct_rating":2.48,"distinct_type":"Bottom","rt":null,"stimulus":"Stimuli_Rocks480/S_Shale_12.png","response":null,"trial_type":"image-keyboard-response","trial_index":16,"plugin_version":"2.1.0","time_elapsed":34552,"subject_id":"86896","group":"Group1","full_date":"2025-12-10T05:49:39.699Z","date":"2025-12-10","time":"05:49:39"},{"rt":null,"stimulus":"<p style=\"font-size: 50px; margin: 0; text-align: center;\">+</p>","response":null,"trial_type":"html-keyboard-response","trial_index":17,"plugin_version":"2.1.0","time_elapsed":35556,"subject_id":"86896","group":"Group1","full_date":"2025-12-10T05:49:39.699Z","date":"2025-12-10","time":"05:49:39"},{"task":"memory_phase","broad_category":"S","image_png":"S_Breccia_11.png","image_id":347,"category_name":"Breccia","category":22,"distinct_rating":6.7,"distinct_type":"Top","rt":null,"stimulus":"Stimuli_Rocks480/S_Breccia_11.png","response":null,"trial_type":"image-keyboard-response","trial_index":18,"plugin_version":"2.1.0","time_elapsed":38065,"subject_id":"86896","group":"Group1","full_date":"2025-12-10T05:49:39.699Z","date":"2025-12-10","time":"05:49:39"},{"rt":null,"stimulus":"<p style=\"font-size: 50px; margin: 0; text-align: center;\">+</p>","response":null,"trial_type":"html-keyboard-response","trial_index":19,"plugin_version":"2.1.0","time_elapsed":39070,"subject_id":"86896","group":"Group1","full_date":"2025-12-10T05:49:39.699Z","date":"2025-12-10","time":"05:49:39"},{"task":"memory_phase","broad_category":"S","image_png":"S_Chert_10.png","image_id":362,"category_name":"Chert","category":23,"distinct_rating":7.17,"distinct_type":"Top","rt":null,"stimulus":"Stimuli_Rocks480/S_Chert_10.png","response":null,"trial_type":"image-keyboard-response","trial_index":20,"plugin_version":"2.1.0","time_elapsed":41585,"subject_id":"86896","group":"Group1","full_date":"2025-12-10T05:49:39.699Z","date":"2025-12-10","time":"05:49:39"},{"rt":null,"stimulus":"<p style=\"font-size: 50px; margin: 0; text-align: center;\">+</p>","response":null,"trial_type":"html-keyboard-response","trial_index":21,"plugin_version":"2.1.0","time_elapsed":42596,"subject_id":"86896","group":"Group1","full_date":"2025-12-10T05:49:39.699Z","date":"2025-12-10","time":"05:49:39"},{"task":"memory_phase","broad_category":"M","image_png":"M_Slate_15.png","image_id":319,"category_name":"Slate","category":20,"distinct_rating":2.13,"distinct_type":"Bottom","rt":null,"stimulus":"Stimuli_Rocks480/M_Slate_15.png","response":null,"trial_type":"image-keyboard-response","trial_index":22,"plugin_version":"2.1.0","time_elapsed":45120,"subject_id":"86896","group":"Group1","full_date":"2025-12-10T05:49:39.699Z","date":"2025-12-10","time":"05:49:39"},{"rt":null,"stimulus":"<p style=\"font-size: 50px; margin: 0; text-align: center;\">+</p>","response":null,"trial_type":"html-keyboard-response","trial_index":23,"plugin_version":"2.1.0","time_elapsed":46132,"subject_id":"86896","group":"Group1","full_date":"2025-12-10T05:49:39.699Z","date":"2025-12-10","time":"05:49:39"},{"task":"memory_phase","broad_category":"M","image_png":"M_Gneiss_06.png","image_id":198,"category_name":"Gneiss","category":13,"distinct_rating":2.65,"distinct_type":"Bottom","rt":null,"stimulus":"Stimuli_Rocks480/M_Gneiss_06.png","response":null,"trial_type":"image-keyboard-response","trial_index":24,"plugin_version":"2.1.0","time_elapsed":48642,"subject_id":"86896","group":"Group1","full_date":"2025-12-10T05:49:39.699Z","date":"2025-12-10","time":"05:49:39"},{"rt":null,"stimulus":"<p style=\"font-size: 50px; margin: 0; text-align: center;\">+</p>","response":null,"trial_type":"html-keyboard-response","trial_index":25,"plugin_version":"2.1.0","time_elapsed":49657,"subject_id":"86896","group":"Group1","full_date":"2025-12-10T05:49:39.699Z","date":"2025-12-10","time":"05:49:39"},{"task":"memory_phase","broad_category":"M","image_png":"M_Quartzite_05.png","image_id":277,"category_name":"Quartzite","category":18,"distinct_rating":2.23,"distinct_type":"Bottom","rt":null,"stimulus":"Stimuli_Rocks480/M_Quartzite_05.png","response":null,"trial_type":"image-keyboard-response","trial_index":26,"plugin_version":"2.1.0","time_elapsed":52167,"subject_id":"86896","group":"Group1","full_date":"2025-12-10T05:49:39.699Z","date":"2025-12-10","time":"05:49:39"},{"rt":null,"stimulus":"<p style=\"font-size: 50px; margin: 0; text-align: center;\">+</p>","response":null,"trial_type":"html-keyboard-response","trial_index":27,"plugin_version":"2.1.0","time_elapsed":53175,"subject_id":"86896","group":"Group1","full_date":"2025-12-10T05:49:39.699Z","date":"2025-12-10","time":"05:49:39"},{"task":"memory_phase","broad_category":"I","image_png":"I_Gabbro_16.png","image_id":64,"category_name":"Gabbro","category":4,"distinct_rating":2.52,"distinct_type":"Bottom","rt":null,"stimulus":"Stimuli_Rocks480/I_Gabbro_16.png","response":null,"trial_type":"image-keyboard-response","trial_index":28,"plugin_version":"2.1.0","time_elapsed":55681,"subject_id":"86896","group":"Group1","full_date":"2025-12-10T05:49:39.699Z","date":"2025-12-10","time":"05:49:39"},{"rt":null,"stimulus":"<p style=\"font-size: 50px; margin: 0; text-align: center;\">+</p>","response":null,"trial_type":"html-keyboard-response","trial_index":29,"plugin_version":"2.1.0","time_elapsed":56697,"subject_id":"86896","group":"Group1","full_date":"2025-12-10T05:49:39.699Z","date":"2025-12-10","time":"05:49:39"},{"task":"memory_phase","broad_category":"S","image_png":"S_Dolomite_12.png","image_id":396,"category_name":"Dolomite","category":25,"distinct_rating":1.85,"distinct_type":"Bottom","rt":null,"stimulus":"Stimuli_Rocks480/S_Dolomite_12.png","response":null,"trial_type":"image-keyboard-response","trial_index":30,"plugin_version":"2.1.0","time_elapsed":59200,"subject_id":"86896","group":"Group1","full_date":"2025-12-10T05:49:39.699Z","date":"2025-12-10","time":"05:49:39"},{"rt":null,"stimulus":"<p style=\"font-size: 50px; margin: 0; text-align: center;\">+</p>","response":null,"trial_type":"html-keyboard-response","trial_index":31,"plugin_version":"2.1.0","time_elapsed":60213,"subject_id":"86896","group":"Group1","full_date":"2025-12-10T05:49:39.699Z","date":"2025-12-10","time":"05:49:39"},{"task":"memory_phase","broad_category":"I","image_png":"I_Basalt_02.png","image_id":18,"category_name":"Basalt","category":2,"distinct_rating":1.84,"distinct_type":"Bottom","rt":null,"stimulus":"Stimuli_Rocks480/I_Basalt_02.png","response":null,"trial_type":"image-keyboard-response","trial_index":32,"plugin_version":"2.1.0","time_elapsed":62728,"subject_id":"86896","group":"Group1","full_date":"2025-12-10T05:49:39.699Z","date":"2025-12-10","time":"05:49:39"},{"rt":null,"stimulus":"<p style=\"font-size: 50px; margin: 0; text-align: center;\">+</p>","response":null,"trial_type":"html-keyboard-response","trial_index":33,"plugin_version":"2.1.0","time_elapsed":63729,"subject_id":"86896","group":"Group1","full_date":"2025-12-10T05:49:39.699Z","date":"2025-12-10","time":"05:49:39"},{"task":"memory_phase","broad_category":"I","image_png":"I_Diorite_04.png","image_id":36,"category_name":"Diorite","category":3,"distinct_rating":2.98,"distinct_type":"Bottom","rt":null,"stimulus":"Stimuli_Rocks480/I_Diorite_04.png","response":null,"trial_type":"image-keyboard-response","trial_index":34,"plugin_version":"2.1.0","time_elapsed":66232,"subject_id":"86896","group":"Group1","full_date":"2025-12-10T05:49:39.699Z","date":"2025-12-10","time":"05:49:39"},{"rt":null,"stimulus":"<p style=\"font-size: 50px; margin: 0; text-align: center;\">+</p>","response":null,"trial_type":"html-keyboard-response","trial_index":35,"plugin_version":"2.1.0","time_elapsed":67244,"subject_id":"86896","group":"Group1","full_date":"2025-12-10T05:49:39.699Z","date":"2025-12-10","time":"05:49:39"},{"task":"memory_phase","broad_category":"M","image_png":"M_Marble_06.png","image_id":230,"category_name":"Marble","category":15,"distinct_rating":3.4,"distinct_type":"Bottom","rt":null,"stimulus":"Stimuli_Rocks480/M_Marble_06.png","response":null,"trial_type":"image-keyboard-response","trial_index":36,"plugin_version":"2.1.0","time_elapsed":69758,"subject_id":"86896","group":"Group1","full_date":"2025-12-10T05:49:39.699Z","date":"2025-12-10","time":"05:49:39"},{"rt":null,"stimulus":"<p style=\"font-size: 50px; margin: 0; text-align: center;\">+</p>","response":null,"trial_type":"html-keyboard-response","trial_index":37,"plugin_version":"2.1.0","time_elapsed":70765,"subject_id":"86896","group":"Group1","full_date":"2025-12-10T05:49:39.699Z","date":"2025-12-10","time":"05:49:39"},{"task":"memory_phase","broad_category":"M","image_png":"M_Quartzite_13.png","image_id":285,"category_name":"Quartzite","category":18,"distinct_rating":2.27,"distinct_type":"Bottom","rt":null,"stimulus":"Stimuli_Rocks480/M_Quartzite_13.png","response":null,"trial_type":"image-keyboard-response","trial_index":38,"plugin_version":"2.1.0","time_elapsed":73279,"subject_id":"86896","group":"Group1","full_date":"2025-12-10T05:49:39.699Z","date":"2025-12-10","time":"05:49:39"},{"rt":null,"stimulus":"<p style=\"font-size: 50px; margin: 0; text-align: center;\">+</p>","response":null,"trial_type":"html-keyboard-response","trial_index":39,"plugin_version":"2.1.0","time_elapsed":74280,"subject_id":"86896","group":"Group1","full_date":"2025-12-10T05:49:39.699Z","date":"2025-12-10","time":"05:49:39"},{"task":"memory_phase","broad_category":"S","image_png":"S_Rock Salt_01.png","image_id":433,"category_name":"Rock Salt","category":28,"distinct_rating":7.18,"distinct_type":"Top","rt":null,"stimulus":"Stimuli_Rocks480/S_Rock Salt_01.png","response":null,"trial_type":"image-keyboard-response","trial_index":40,"plugin_version":"2.1.0","time_elapsed":76787,"subject_id":"86896","group":"Group1","full_date":"2025-12-10T05:49:39.699Z","date":"2025-12-10","time":"05:49:39"},{"rt":null,"stimulus":"<p style=\"font-size: 50px; margin: 0; text-align: center;\">+</p>","response":null,"trial_type":"html-keyboard-response","trial_index":41,"plugin_version":"2.1.0","time_elapsed":77799,"subject_id":"86896","group":"Group1","full_date":"2025-12-10T05:49:39.699Z","date":"2025-12-10","time":"05:49:39"},{"task":"memory_phase","broad_category":"I","image_png":"I_Andesite_06.png","image_id":6,"category_name":"Andesite","category":1,"distinct_rating":3.17,"distinct_type":"Bottom","rt":null,"stimulus":"Stimuli_Rocks480/I_Andesite_06.png","response":null,"trial_type":"image-keyboard-response","trial_index":42,"plugin_version":"2.1.0","time_elapsed":80308,"subject_id":"86896","group":"Group1","full_date":"2025-12-10T05:49:39.699Z","date":"2025-12-10","time":"05:49:39"},{"rt":null,"stimulus":"<p style=\"font-size: 50px; margin: 0; text-align: center;\">+</p>","response":null,"trial_type":"html-keyboard-response","trial_index":43,"plugin_version":"2.1.0","time_elapsed":81315,"subject_id":"86896","group":"Group1","full_date":"2025-12-10T05:49:39.699Z","date":"2025-12-10","time":"05:49:39"},{"task":"memory_phase","broad_category":"I","image_png":"I_Pegmatite_16.png","image_id":112,"category_name":"Pegmatite","category":7,"distinct_rating":7.03,"distinct_type":"Top","rt":null,"stimulus":"Stimuli_Rocks480/I_Pegmatite_16.png","response":null,"trial_type":"image-keyboard-response","trial_index":44,"plugin_version":"2.1.0","time_elapsed":83825,"subject_id":"86896","group":"Group1","full_date":"2025-12-10T05:49:39.699Z","date":"2025-12-10","time":"05:49:39"},{"rt":null,"stimulus":"<p style=\"font-size: 50px; margin: 0; text-align: center;\">+</p>","response":null,"trial_type":"html-keyboard-response","trial_index":45,"plugin_version":"2.1.0","time_elapsed":84827,"subject_id":"86896","group":"Group1","full_date":"2025-12-10T05:49:39.699Z","date":"2025-12-10","time":"05:49:39"},{"task":"memory_phase","broad_category":"I","image_png":"I_Pegmatite_10.png","image_id":106,"category_name":"Pegmatite","category":7,"distinct_rating":7.66,"distinct_type":"Top","rt":null,"stimulus":"Stimuli_Rocks480/I_Pegmatite_10.png","response":null,"trial_type":"image-keyboard-response","trial_index":46,"plugin_version":"2.1.0","time_elapsed":87339,"subject_id":"86896","group":"Group1","full_date":"2025-12-10T05:49:39.699Z","date":"2025-12-10","time":"05:49:39"},{"rt":null,"stimulus":"<p style=\"font-size: 50px; margin: 0; text-align: center;\">+</p>","response":null,"trial_type":"html-keyboard-response","trial_index":47,"plugin_version":"2.1.0","time_elapsed":88347,"subject_id":"86896","group":"Group1","full_date":"2025-12-10T05:49:39.699Z","date":"2025-12-10","time":"05:49:39"},{"task":"memory_phase","broad_category":"I","image_png":"I_Andesite_08.png","image_id":8,"category_name":"Andesite","category":1,"distinct_rating":1.95,"distinct_type":"Bottom","rt":null,"stimulus":"Stimuli_Rocks480/I_Andesite_08.png","response":null,"trial_type":"image-keyboard-response","trial_index":48,"plugin_version":"2.1.0","time_elapsed":90862,"subject_id":"86896","group":"Group1","full_date":"2025-12-10T05:49:39.699Z","date":"2025-12-10","time":"05:49:39"},{"rt":null,"stimulus":"<p style=\"font-size: 50px; margin: 0; text-align: center;\">+</p>","response":null,"trial_type":"html-keyboard-response","trial_index":49,"plugin_version":"2.1.0","time_elapsed":91877,"subject_id":"86896","group":"Group1","full_date":"2025-12-10T05:49:39.699Z","date":"2025-12-10","time":"05:49:39"},{"task":"memory_phase","broad_category":"M","image_png":"M_Slate_11.png","image_id":315,"category_name":"Slate","category":20,"distinct_rating":2.75,"distinct_type":"Bottom","rt":null,"stimulus":"Stimuli_Rocks480/M_Slate_11.png","response":null,"trial_type":"image-keyboard-response","trial_index":50,"plugin_version":"2.1.0","time_elapsed":94390,"subject_id":"86896","group":"Group1","full_date":"2025-12-10T05:49:39.699Z","date":"2025-12-10","time":"05:49:39"},{"rt":null,"stimulus":"<p style=\"font-size: 50px; margin: 0; text-align: center;\">+</p>","response":null,"trial_type":"html-keyboard-response","trial_index":51,"plugin_version":"2.1.0","time_elapsed":95396,"subject_id":"86896","group":"Group1","full_date":"2025-12-10T05:49:39.699Z","date":"2025-12-10","time":"05:49:39"},{"task":"memory_phase","broad_category":"S","image_png":"S_Rock Gypsum_04.png","image_id":420,"category_name":"Rock Gypsum","category":27,"distinct_rating":7.61,"distinct_type":"Top","rt":null,"stimulus":"Stimuli_Rocks480/S_Rock Gypsum_04.png","response":null,"trial_type":"image-keyboard-response","trial_index":52,"plugin_version":"2.1.0","time_elapsed":97909,"subject_id":"86896","group":"Group1","full_date":"2025-12-10T05:49:39.699Z","date":"2025-12-10","time":"05:49:39"},{"rt":null,"stimulus":"<p style=\"font-size: 50px; margin: 0; text-align: center;\">+</p>","response":null,"trial_type":"html-keyboard-response","trial_index":53,"plugin_version":"2.1.0","time_elapsed":98913,"subject_id":"86896","group":"Group1","full_date":"2025-12-10T05:49:39.699Z","date":"2025-12-10","time":"05:49:39"},{"task":"memory_phase","broad_category":"I","image_png":"I_Gabbro_11.png","image_id":59,"category_name":"Gabbro","category":4,"distinct_rating":1.99,"distinct_type":"Bottom","rt":null,"stimulus":"Stimuli_Rocks480/I_Gabbro_11.png","response":null,"trial_type":"image-keyboard-response","trial_index":54,"plugin_version":"2.1.0","time_elapsed":101415,"subject_id":"86896","group":"Group1","full_date":"2025-12-10T05:49:39.699Z","date":"2025-12-10","time":"05:49:39"},{"rt":41349,"stimulus":"<p style=\"max-width: 760px; margin: auto; font-size: 35px; line-height: 1.5;\">Press SPACE to continue study phase</p>","response":" ","trial_type":"html-keyboard-response","trial_index":55,"plugin_version":"2.1.0","time_elapsed":142765,"subject_id":"86896","group":"Group1","full_date":"2025-12-10T05:49:39.699Z","date":"2025-12-10","time":"05:49:39"},{"rt":null,"stimulus":"<p style=\"font-size: 50px; margin: 0; text-align: center;\">+</p>","response":null,"trial_type":"html-keyboard-response","trial_index":56,"plugin_version":"2.1.0","time_elapsed":143782,"subject_id":"86896","group":"Group1","full_date":"2025-12-10T05:49:39.699Z","date":"2025-12-10","time":"05:49:39"},{"task":"memory_phase","broad_category":"I","image_png":"I_Diorite_05.png","image_id":37,"category_name":"Diorite","category":3,"distinct_rating":3.08,"distinct_type":"Bottom","rt":null,"stimulus":"Stimuli_Rocks480/I_Diorite_05.png","response":null,"trial_type":"image-keyboard-response","trial_index":57,"plugin_version":"2.1.0","time_elapsed":146296,"subject_id":"86896","group":"Group1","full_date":"2025-12-10T05:49:39.699Z","date":"2025-12-10","time":"05:49:39"},{"rt":null,"stimulus":"<p style=\"font-size: 50px; margin: 0; text-align: center;\">+</p>","response":null,"trial_type":"html-keyboard-response","trial_index":58,"plugin_version":"2.1.0","time_elapsed":147298,"subject_id":"86896","group":"Group1","full_date":"2025-12-10T05:49:39.699Z","date":"2025-12-10","time":"05:49:39"},{"task":"memory_phase","broad_category":"S","image_png":"S_Conglomerate_05.png","image_id":373,"category_name":"Conglomerate","category":24,"distinct_rating":7.32,"distinct_type":"Top","rt":null,"stimulus":"Stimuli_Rocks480/S_Conglomerate_05.png","response":null,"trial_type":"image-keyboard-response","trial_index":59,"plugin_version":"2.1.0","time_elapsed":149802,"subject_id":"86896","group":"Group1","full_date":"2025-12-10T05:49:39.699Z","date":"2025-12-10","time":"05:49:39"},{"rt":null,"stimulus":"<p style=\"font-size: 50px; margin: 0; text-align: center;\">+</p>","response":null,"trial_type":"html-keyboard-response","trial_index":60,"plugin_version":"2.1.0","time_elapsed":150814,"subject_id":"86896","group":"Group1","full_date":"2025-12-10T05:49:39.699Z","date":"2025-12-10","time":"05:49:39"},{"task":"memory_phase","broad_category":"I","image_png":"I_Obsidian_05.png","image_id":85,"category_name":"Obsidian","category":6,"distinct_rating":7.32,"distinct_type":"Top","rt":null,"stimulus":"Stimuli_Rocks480/I_Obsidian_05.png","response":null,"trial_type":"image-keyboard-response","trial_index":61,"plugin_version":"2.1.0","time_elapsed":153316,"subject_id":"86896","group":"Group1","full_date":"2025-12-10T05:49:39.699Z","date":"2025-12-10","time":"05:49:39"},{"rt":null,"stimulus":"<p style=\"font-size: 50px; margin: 0; text-align: center;\">+</p>","response":null,"trial_type":"html-keyboard-response","trial_index":62,"plugin_version":"2.1.0","time_elapsed":154331,"subject_id":"86896","group":"Group1","full_date":"2025-12-10T05:49:39.699Z","date":"2025-12-10","time":"05:49:39"},{"task":"memory_phase","broad_category":"M","image_png":"M_Marble_04.png","image_id":228,"category_name":"Marble","category":15,"distinct_rating":3.15,"distinct_type":"Bottom","rt":null,"stimulus":"Stimuli_Rocks480/M_Marble_04.png","response":null,"trial_type":"image-keyboard-response","trial_index":63,"plugin_version":"2.1.0","time_elapsed":156837,"subject_id":"86896","group":"Group1","full_date":"2025-12-10T05:49:39.699Z","date":"2025-12-10","time":"05:49:39"},{"rt":null,"stimulus":"<p style=\"font-size: 50px; margin: 0; text-align: center;\">+</p>","response":null,"trial_type":"html-keyboard-response","trial_index":64,"plugin_version":"2.1.0","time_elapsed":157848,"subject_id":"86896","group":"Group1","full_date":"2025-12-10T05:49:39.699Z","date":"2025-12-10","time":"05:49:39"},{"task":"memory_phase","broad_category":"M","image_png":"M_Phyllite_10.png","image_id":266,"category_name":"Phyllite","category":17,"distinct_rating":2.6,"distinct_type":"Bottom","rt":null,"stimulus":"Stimuli_Rocks480/M_Phyllite_10.png","response":null,"trial_type":"image-keyboard-response","trial_index":65,"plugin_version":"2.1.0","time_elapsed":160350,"subject_id":"86896","group":"Group1","full_date":"2025-12-10T05:49:39.699Z","date":"2025-12-10","time":"05:49:39"},{"rt":null,"stimulus":"<p style=\"font-size: 50px; margin: 0; text-align: center;\">+</p>","response":null,"trial_type":"html-keyboard-response","trial_index":66,"plugin_version":"2.1.0","time_elapsed":161363,"subject_id":"86896","group":"Group1","full_date":"2025-12-10T05:49:39.699Z","date":"2025-12-10","time":"05:49:39"},{"task":"memory_phase","broad_category":"M","image_png":"M_Quartzite_08.png","image_id":280,"category_name":"Quartzite","category":18,"distinct_rating":2.15,"distinct_type":"Bottom","rt":null,"stimulus":"Stimuli_Rocks480/M_Quartzite_08.png","response":null,"trial_type":"image-keyboard-response","trial_index":67,"plugin_version":"2.1.0","time_elapsed":163869,"subject_id":"86896","group":"Group1","full_date":"2025-12-10T05:49:39.699Z","date":"2025-12-10","time":"05:49:39"},{"rt":null,"stimulus":"<p style=\"font-size: 50px; margin: 0; text-align: center;\">+</p>","response":null,"trial_type":"html-keyboard-response","trial_index":68,"plugin_version":"2.1.0","time_elapsed":164879,"subject_id":"86896","group":"Group1","full_date":"2025-12-10T05:49:39.699Z","date":"2025-12-10","time":"05:49:39"},{"task":"memory_phase","broad_category":"I","image_png":"I_Rhyolite_11.png","image_id":155,"category_name":"Rhyolite","category":10,"distinct_rating":1.73,"distinct_type":"Bottom","rt":null,"stimulus":"Stimuli_Rocks480/I_Rhyolite_11.png","response":null,"trial_type":"image-keyboard-response","trial_index":69,"plugin_version":"2.1.0","time_elapsed":167388,"subject_id":"86896","group":"Group1","full_date":"2025-12-10T05:49:39.699Z","date":"2025-12-10","time":"05:49:39"},{"rt":null,"stimulus":"<p style=\"font-size: 50px; margin: 0; text-align: center;\">+</p>","response":null,"trial_type":"html-keyboard-response","trial_index":70,"plugin_version":"2.1.0","time_elapsed":168397,"subject_id":"86896","group":"Group1","full_date":"2025-12-10T05:49:39.699Z","date":"2025-12-10","time":"05:49:39"},{"task":"memory_phase","broad_category":"M","image_png":"M_Marble_16.png","image_id":240,"category_name":"Marble","category":15,"distinct_rating":2.57,"distinct_type":"Bottom","rt":null,"stimulus":"Stimuli_Rocks480/M_Marble_16.png","response":null,"trial_type":"image-keyboard-response","trial_index":71,"plugin_version":"2.1.0","time_elapsed":170902,"subject_id":"86896","group":"Group1","full_date":"2025-12-10T05:49:39.699Z","date":"2025-12-10","time":"05:49:39"},{"rt":null,"stimulus":"<p style=\"font-size: 50px; margin: 0; text-align: center;\">+</p>","response":null,"trial_type":"html-keyboard-response","trial_index":72,"plugin_version":"2.1.0","time_elapsed":171907,"subject_id":"86896","group":"Group1","full_date":"2025-12-10T05:49:39.699Z","date":"2025-12-10","time":"05:49:39"},{"task":"memory_phase","broad_category":"I","image_png":"I_Pumice_11.png","image_id":139,"category_name":"Pumice","category":9,"distinct_rating":1.74,"distinct_type":"Bottom","rt":null,"stimulus":"Stimuli_Rocks480/I_Pumice_11.png","response":null,"trial_type":"image-keyboard-response","trial_index":73,"plugin_version":"2.1.0","time_elapsed":174416,"subject_id":"86896","group":"Group1","full_date":"2025-12-10T05:49:39.699Z","date":"2025-12-10","time":"05:49:39"},{"rt":null,"stimulus":"<p style=\"font-size: 50px; margin: 0; text-align: center;\">+</p>","response":null,"trial_type":"html-keyboard-response","trial_index":74,"plugin_version":"2.1.0","time_elapsed":175428,"subject_id":"86896","group":"Group1","full_date":"2025-12-10T05:49:39.699Z","date":"2025-12-10","time":"05:49:39"},{"task":"memory_phase","broad_category":"S","image_png":"S_Sandstone_03.png","image_id":451,"category_name":"Sandstone","category":29,"distinct_rating":1.86,"distinct_type":"Bottom","rt":null,"stimulus":"Stimuli_Rocks480/S_Sandstone_03.png","response":null,"trial_type":"image-keyboard-response","trial_index":75,"plugin_version":"2.1.0","time_elapsed":177935,"subject_id":"86896","group":"Group1","full_date":"2025-12-10T05:49:39.699Z","date":"2025-12-10","time":"05:49:39"},{"rt":null,"stimulus":"<p style=\"font-size: 50px; margin: 0; text-align: center;\">+</p>","response":null,"trial_type":"html-keyboard-response","trial_index":76,"plugin_version":"2.1.0","time_elapsed":178947,"subject_id":"86896","group":"Group1","full_date":"2025-12-10T05:49:39.699Z","date":"2025-12-10","time":"05:49:39"},{"task":"memory_phase","broad_category":"S","image_png":"S_Dolomite_13.png","image_id":397,"category_name":"Dolomite","category":25,"distinct_rating":1.77,"distinct_type":"Bottom","rt":null,"stimulus":"Stimuli_Rocks480/S_Dolomite_13.png","response":null,"trial_type":"image-keyboard-response","trial_index":77,"plugin_version":"2.1.0","time_elapsed":181458,"subject_id":"86896","group":"Group1","full_date":"2025-12-10T05:49:39.699Z","date":"2025-12-10","time":"05:49:39"},{"rt":null,"stimulus":"<p style=\"font-size: 50px; margin: 0; text-align: center;\">+</p>","response":null,"trial_type":"html-keyboard-response","trial_index":78,"plugin_version":"2.1.0","time_elapsed":182459,"subject_id":"86896","group":"Group1","full_date":"2025-12-10T05:49:39.699Z","date":"2025-12-10","time":"05:49:39"},{"task":"memory_phase","broad_category":"I","image_png":"I_Rhyolite_16.png","image_id":160,"category_name":"Rhyolite","category":10,"distinct_rating":2.19,"distinct_type":"Bottom","rt":null,"stimulus":"Stimuli_Rocks480/I_Rhyolite_16.png","response":null,"trial_type":"image-keyboard-response","trial_index":79,"plugin_version":"2.1.0","time_elapsed":184966,"subject_id":"86896","group":"Group1","full_date":"2025-12-10T05:49:39.699Z","date":"2025-12-10","time":"05:49:39"},{"rt":null,"stimulus":"<p style=\"font-size: 50px; margin: 0; text-align: center;\">+</p>","response":null,"trial_type":"html-keyboard-response","trial_index":80,"plugin_version":"2.1.0","time_elapsed":185978,"subject_id":"86896","group":"Group1","full_date":"2025-12-10T05:49:39.699Z","date":"2025-12-10","time":"05:49:39"},{"task":"memory_phase","broad_category":"S","image_png":"S_Shale_01.png","image_id":465,"category_name":"Shale","category":30,"distinct_rating":2.7,"distinct_type":"Bottom","rt":null,"stimulus":"Stimuli_Rocks480/S_Shale_01.png","response":null,"trial_type":"image-keyboard-response","trial_index":81,"plugin_version":"2.1.0","time_elapsed":188495,"subject_id":"86896","group":"Group1","full_date":"2025-12-10T05:49:39.699Z","date":"2025-12-10","time":"05:49:39"},{"rt":null,"stimulus":"<p style=\"font-size: 50px; margin: 0; text-align: center;\">+</p>","response":null,"trial_type":"html-keyboard-response","trial_index":82,"plugin_version":"2.1.0","time_elapsed":189509,"subject_id":"86896","group":"Group1","full_date":"2025-12-10T05:49:39.699Z","date":"2025-12-10","time":"05:49:39"},{"task":"memory_phase","broad_category":"M","image_png":"M_Phyllite_07.png","image_id":263,"category_name":"Phyllite","category":17,"distinct_rating":2.59,"distinct_type":"Bottom","rt":null,"stimulus":"Stimuli_Rocks480/M_Phyllite_07.png","response":null,"trial_type":"image-keyboard-response","trial_index":83,"plugin_version":"2.1.0","time_elapsed":192015,"subject_id":"86896","group":"Group1","full_date":"2025-12-10T05:49:39.699Z","date":"2025-12-10","time":"05:49:39"},{"rt":null,"stimulus":"<p style=\"font-size: 50px; margin: 0; text-align: center;\">+</p>","response":null,"trial_type":"html-keyboard-response","trial_index":84,"plugin_version":"2.1.0","time_elapsed":193029,"subject_id":"86896","group":"Group1","full_date":"2025-12-10T05:49:39.699Z","date":"2025-12-10","time":"05:49:39"},{"task":"memory_phase","broad_category":"I","image_png":"I_Basalt_01.png","image_id":17,"category_name":"Basalt","category":2,"distinct_rating":1.92,"distinct_type":"Bottom","rt":null,"stimulus":"Stimuli_Rocks480/I_Basalt_01.png","response":null,"trial_type":"image-keyboard-response","trial_index":85,"plugin_version":"2.1.0","time_elapsed":195532,"subject_id":"86896","group":"Group1","full_date":"2025-12-10T05:49:39.699Z","date":"2025-12-10","time":"05:49:39"},{"rt":null,"stimulus":"<p style=\"font-size: 50px; margin: 0; text-align: center;\">+</p>","response":null,"trial_type":"html-keyboard-response","trial_index":86,"plugin_version":"2.1.0","time_elapsed":196546,"subject_id":"86896","group":"Group1","full_date":"2025-12-10T05:49:39.699Z","date":"2025-12-10","time":"05:49:39"},{"task":"memory_phase","broad_category":"M","image_png":"M_Gneiss_05.png","image_id":197,"category_name":"Gneiss","category":13,"distinct_rating":2.97,"distinct_type":"Bottom","rt":null,"stimulus":"Stimuli_Rocks480/M_Gneiss_05.png","response":null,"trial_type":"image-keyboard-response","trial_index":87,"plugin_version":"2.1.0","time_elapsed":199051,"subject_id":"86896","group":"Group1","full_date":"2025-12-10T05:49:39.699Z","date":"2025-12-10","time":"05:49:39"},{"rt":null,"stimulus":"<p style=\"font-size: 50px; margin: 0; text-align: center;\">+</p>","response":null,"trial_type":"html-keyboard-response","trial_index":88,"plugin_version":"2.1.0","time_elapsed":200060,"subject_id":"86896","group":"Group1","full_date":"2025-12-10T05:49:39.699Z","date":"2025-12-10","time":"05:49:39"},{"task":"memory_phase","broad_category":"I","image_png":"I_Pumice_08.png","image_id":136,"category_name":"Pumice","category":9,"distinct_rating":3.1,"distinct_type":"Bottom","rt":null,"stimulus":"Stimuli_Rocks480/I_Pumice_08.png","response":null,"trial_type":"image-keyboard-response","trial_index":89,"plugin_version":"2.1.0","time_elapsed":202563,"subject_id":"86896","group":"Group1","full_date":"2025-12-10T05:49:39.699Z","date":"2025-12-10","time":"05:49:39"},{"rt":null,"stimulus":"<p style=\"font-size: 50px; margin: 0; text-align: center;\">+</p>","response":null,"trial_type":"html-keyboard-response","trial_index":90,"plugin_version":"2.1.0","time_elapsed":203574,"subject_id":"86896","group":"Group1","full_date":"2025-12-10T05:49:39.699Z","date":"2025-12-10","time":"05:49:39"},{"task":"memory_phase","broad_category":"I","image_png":"I_Diorite_03.png","image_id":35,"category_name":"Diorite","category":3,"distinct_rating":3.14,"distinct_type":"Bottom","rt":null,"stimulus":"Stimuli_Rocks480/I_Diorite_03.png","response":null,"trial_type":"image-keyboard-response","trial_index":91,"plugin_version":"2.1.0","time_elapsed":206085,"subject_id":"86896","group":"Group1","full_date":"2025-12-10T05:49:39.699Z","date":"2025-12-10","time":"05:49:39"},{"rt":null,"stimulus":"<p style=\"font-size: 50px; margin: 0; text-align: center;\">+</p>","response":null,"trial_type":"html-keyboard-response","trial_index":92,"plugin_version":"2.1.0","time_elapsed":207096,"subject_id":"86896","group":"Group1","full_date":"2025-12-10T05:49:39.699Z","date":"2025-12-10","time":"05:49:39"},{"task":"memory_phase","broad_category":"M","image_png":"M_Slate_03.png","image_id":307,"category_name":"Slate","category":20,"distinct_rating":1.87,"distinct_type":"Bottom","rt":null,"stimulus":"Stimuli_Rocks480/M_Slate_03.png","response":null,"trial_type":"image-keyboard-response","trial_index":93,"plugin_version":"2.1.0","time_elapsed":209600,"subject_id":"86896","group":"Group1","full_date":"2025-12-10T05:49:39.699Z","date":"2025-12-10","time":"05:49:39"},{"rt":null,"stimulus":"<p style=\"font-size: 50px; margin: 0; text-align: center;\">+</p>","response":null,"trial_type":"html-keyboard-response","trial_index":94,"plugin_version":"2.1.0","time_elapsed":210610,"subject_id":"86896","group":"Group1","full_date":"2025-12-10T05:49:39.699Z","date":"2025-12-10","time":"05:49:39"},{"task":"memory_phase","broad_category":"I","image_png":"I_Gabbro_08.png","image_id":56,"category_name":"Gabbro","category":4,"distinct_rating":3.02,"distinct_type":"Bottom","rt":null,"stimulus":"Stimuli_Rocks480/I_Gabbro_08.png","response":null,"trial_type":"image-keyboard-response","trial_index":95,"plugin_version":"2.1.0","time_elapsed":213119,"subject_id":"86896","group":"Group1","full_date":"2025-12-10T05:49:39.699Z","date":"2025-12-10","time":"05:49:39"},{"rt":null,"stimulus":"<p style=\"font-size: 50px; margin: 0; text-align: center;\">+</p>","response":null,"trial_type":"html-keyboard-response","trial_index":96,"plugin_version":"2.1.0","time_elapsed":214128,"subject_id":"86896","group":"Group1","full_date":"2025-12-10T05:49:39.699Z","date":"2025-12-10","time":"05:49:39"},{"task":"memory_phase","broad_category":"I","image_png":"I_Rhyolite_14.png","image_id":158,"category_name":"Rhyolite","category":10,"distinct_rating":2.59,"distinct_type":"Bottom","rt":null,"stimulus":"Stimuli_Rocks480/I_Rhyolite_14.png","response":null,"trial_type":"image-keyboard-response","trial_index":97,"plugin_version":"2.1.0","time_elapsed":216631,"subject_id":"86896","group":"Group1","full_date":"2025-12-10T05:49:39.699Z","date":"2025-12-10","time":"05:49:39"},{"rt":null,"stimulus":"<p style=\"font-size: 50px; margin: 0; text-align: center;\">+</p>","response":null,"trial_type":"html-keyboard-response","trial_index":98,"plugin_version":"2.1.0","time_elapsed":217641,"subject_id":"86896","group":"Group1","full_date":"2025-12-10T05:49:39.699Z","date":"2025-12-10","time":"05:49:39"},{"task":"memory_phase","broad_category":"M","image_png":"M_Gneiss_13.png","image_id":205,"category_name":"Gneiss","category":13,"distinct_rating":3.26,"distinct_type":"Bottom","rt":null,"stimulus":"Stimuli_Rocks480/M_Gneiss_13.png","response":null,"trial_type":"image-keyboard-response","trial_index":99,"plugin_version":"2.1.0","time_elapsed":220142,"subject_id":"86896","group":"Group1","full_date":"2025-12-10T05:49:39.699Z","date":"2025-12-10","time":"05:49:39"},{"rt":null,"stimulus":"<p style=\"font-size: 50px; margin: 0; text-align: center;\">+</p>","response":null,"trial_type":"html-keyboard-response","trial_index":100,"plugin_version":"2.1.0","time_elapsed":221159,"subject_id":"86896","group":"Group1","full_date":"2025-12-10T05:49:39.699Z","date":"2025-12-10","time":"05:49:39"},{"task":"memory_phase","broad_category":"I","image_png":"I_Pumice_12.png","image_id":140,"category_name":"Pumice","category":9,"distinct_rating":2.97,"distinct_type":"Bottom","rt":null,"stimulus":"Stimuli_Rocks480/I_Pumice_12.png","response":null,"trial_type":"image-keyboard-response","trial_index":101,"plugin_version":"2.1.0","time_elapsed":223669,"subject_id":"86896","group":"Group1","full_date":"2025-12-10T05:49:39.699Z","date":"2025-12-10","time":"05:49:39"},{"rt":null,"stimulus":"<p style=\"font-size: 50px; margin: 0; text-align: center;\">+</p>","response":null,"trial_type":"html-keyboard-response","trial_index":102,"plugin_version":"2.1.0","time_elapsed":224674,"subject_id":"86896","group":"Group1","full_date":"2025-12-10T05:49:39.699Z","date":"2025-12-10","time":"05:49:39"},{"task":"memory_phase","broad_category":"S","image_png":"S_Shale_08.png","image_id":472,"category_name":"Shale","category":30,"distinct_rating":2.55,"distinct_type":"Bottom","rt":null,"stimulus":"Stimuli_Rocks480/S_Shale_08.png","response":null,"trial_type":"image-keyboard-response","trial_index":103,"plugin_version":"2.1.0","time_elapsed":227183,"subject_id":"86896","group":"Group1","full_date":"2025-12-10T05:49:39.699Z","date":"2025-12-10","time":"05:49:39"},{"rt":null,"stimulus":"<p style=\"font-size: 50px; margin: 0; text-align: center;\">+</p>","response":null,"trial_type":"html-keyboard-response","trial_index":104,"plugin_version":"2.1.0","time_elapsed":228195,"subject_id":"86896","group":"Group1","full_date":"2025-12-10T05:49:39.699Z","date":"2025-12-10","time":"05:49:39"},{"task":"memory_phase","broad_category":"I","image_png":"I_Basalt_09.png","image_id":25,"category_name":"Basalt","category":2,"distinct_rating":1.89,"distinct_type":"Bottom","rt":null,"stimulus":"Stimuli_Rocks480/I_Basalt_09.png","response":null,"trial_type":"image-keyboard-response","trial_index":105,"plugin_version":"2.1.0","time_elapsed":230712,"subject_id":"86896","group":"Group1","full_date":"2025-12-10T05:49:39.699Z","date":"2025-12-10","time":"05:49:39"},{"rt":210300,"stimulus":"<p style=\"max-width: 760px; margin: auto; font-size: 35px; line-height: 1.5;\">You have completed 1 study phase. Now, we'll show you all the images again 2 more times.<br><br>Press SPACE to continue</p>","response":" ","trial_type":"html-keyboard-response","trial_index":106,"plugin_version":"2.1.0","time_elapsed":441013,"subject_id":"86896","group":"Group1","full_date":"2025-12-10T05:49:39.699Z","date":"2025-12-10","time":"05:49:39"},{"rt":null,"stimulus":"<p style=\"font-size: 50px; margin: 0; text-align: center;\">+</p>","response":null,"trial_type":"html-keyboard-response","trial_index":107,"plugin_version":"2.1.0","time_elapsed":442015,"subject_id":"86896","group":"Group1","full_date":"2025-12-10T05:49:39.699Z","date":"2025-12-10","time":"05:49:39"},{"task":"memory_phase","broad_category":"S","image_png":"S_Sandstone_03.png","image_id":451,"category_name":"Sandstone","category":29,"distinct_rating":1.86,"distinct_type":"Bottom","rt":null,"stimulus":"Stimuli_Rocks480/S_Sandstone_03.png","response":null,"trial_type":"image-keyboard-response","trial_index":108,"plugin_version":"2.1.0","time_elapsed":444531,"subject_id":"86896","group":"Group1","full_date":"2025-12-10T05:49:39.699Z","date":"2025-12-10","time":"05:49:39"},{"rt":null,"stimulus":"<p style=\"font-size: 50px; margin: 0; text-align: center;\">+</p>","response":null,"trial_type":"html-keyboard-response","trial_index":109,"plugin_version":"2.1.0","time_elapsed":445544,"subject_id":"86896","group":"Group1","full_date":"2025-12-10T05:49:39.699Z","date":"2025-12-10","time":"05:49:39"},{"task":"memory_phase","broad_category":"M","image_png":"M_Gneiss_05.png","image_id":197,"category_name":"Gneiss","category":13,"distinct_rating":2.97,"distinct_type":"Bottom","rt":null,"stimulus":"Stimuli_Rocks480/M_Gneiss_05.png","response":null,"trial_type":"image-keyboard-response","trial_index":110,"plugin_version":"2.1.0","time_elapsed":448053,"subject_id":"86896","group":"Group1","full_date":"2025-12-10T05:49:39.699Z","date":"2025-12-10","time":"05:49:39"},{"rt":null,"stimulus":"<p style=\"font-size: 50px; margin: 0; text-align: center;\">+</p>","response":null,"trial_type":"html-keyboard-response","trial_index":111,"plugin_version":"2.1.0","time_elapsed":449065,"subject_id":"86896","group":"Group1","full_date":"2025-12-10T05:49:39.699Z","date":"2025-12-10","time":"05:49:39"},{"task":"memory_phase","broad_category":"I","image_png":"I_Rhyolite_14.png","image_id":158,"category_name":"Rhyolite","category":10,"distinct_rating":2.59,"distinct_type":"Bottom","rt":null,"stimulus":"Stimuli_Rocks480/I_Rhyolite_14.png","response":null,"trial_type":"image-keyboard-response","trial_index":112,"plugin_version":"2.1.0","time_elapsed":451568,"subject_id":"86896","group":"Group1","full_date":"2025-12-10T05:49:39.699Z","date":"2025-12-10","time":"05:49:39"},{"rt":null,"stimulus":"<p style=\"font-size: 50px; margin: 0; text-align: center;\">+</p>","response":null,"trial_type":"html-keyboard-response","trial_index":113,"plugin_version":"2.1.0","time_elapsed":452573,"subject_id":"86896","group":"Group1","full_date":"2025-12-10T05:49:39.699Z","date":"2025-12-10","time":"05:49:39"},{"task":"memory_phase","broad_category":"M","image_png":"M_Quartzite_13.png","image_id":285,"category_name":"Quartzite","category":18,"distinct_rating":2.27,"distinct_type":"Bottom","rt":null,"stimulus":"Stimuli_Rocks480/M_Quartzite_13.png","response":null,"trial_type":"image-keyboard-response","trial_index":114,"plugin_version":"2.1.0","time_elapsed":455075,"subject_id":"86896","group":"Group1","full_date":"2025-12-10T05:49:39.699Z","date":"2025-12-10","time":"05:49:39"},{"rt":null,"stimulus":"<p style=\"font-size: 50px; margin: 0; text-align: center;\">+</p>","response":null,"trial_type":"html-keyboard-response","trial_index":115,"plugin_version":"2.1.0","time_elapsed":456079,"subject_id":"86896","group":"Group1","full_date":"2025-12-10T05:49:39.699Z","date":"2025-12-10","time":"05:49:39"},{"task":"memory_phase","broad_category":"S","image_png":"S_Conglomerate_05.png","image_id":373,"category_name":"Conglomerate","category":24,"distinct_rating":7.32,"distinct_type":"Top","rt":null,"stimulus":"Stimuli_Rocks480/S_Conglomerate_05.png","response":null,"trial_type":"image-keyboard-response","trial_index":116,"plugin_version":"2.1.0","time_elapsed":458585,"subject_id":"86896","group":"Group1","full_date":"2025-12-10T05:49:39.699Z","date":"2025-12-10","time":"05:49:39"},{"rt":null,"stimulus":"<p style=\"font-size: 50px; margin: 0; text-align: center;\">+</p>","response":null,"trial_type":"html-keyboard-response","trial_index":117,"plugin_version":"2.1.0","time_elapsed":459593,"subject_id":"86896","group":"Group1","full_date":"2025-12-10T05:49:39.699Z","date":"2025-12-10","time":"05:49:39"},{"task":"memory_phase","broad_category":"I","image_png":"I_Basalt_01.png","image_id":17,"category_name":"Basalt","category":2,"distinct_rating":1.92,"distinct_type":"Bottom","rt":null,"stimulus":"Stimuli_Rocks480/I_Basalt_01.png","response":null,"trial_type":"image-keyboard-response","trial_index":118,"plugin_version":"2.1.0","time_elapsed":462095,"subject_id":"86896","group":"Group1","full_date":"2025-12-10T05:49:39.699Z","date":"2025-12-10","time":"05:49:39"},{"rt":null,"stimulus":"<p style=\"font-size: 50px; margin: 0; text-align: center;\">+</p>","response":null,"trial_type":"html-keyboard-response","trial_index":119,"plugin_version":"2.1.0","time_elapsed":463107,"subject_id":"86896","group":"Group1","full_date":"2025-12-10T05:49:39.699Z","date":"2025-12-10","time":"05:49:39"},{"task":"memory_phase","broad_category":"M","image_png":"M_Marble_04.png","image_id":228,"category_name":"Marble","category":15,"distinct_rating":3.15,"distinct_type":"Bottom","rt":null,"stimulus":"Stimuli_Rocks480/M_Marble_04.png","response":null,"trial_type":"image-keyboard-response","trial_index":120,"plugin_version":"2.1.0","time_elapsed":465639,"subject_id":"86896","group":"Group1","full_date":"2025-12-10T05:49:39.699Z","date":"2025-12-10","time":"05:49:39"},{"rt":null,"stimulus":"<p style=\"font-size: 50px; margin: 0; text-align: center;\">+</p>","response":null,"trial_type":"html-keyboard-response","trial_index":121,"plugin_version":"2.1.0","time_elapsed":466644,"subject_id":"86896","group":"Group1","full_date":"2025-12-10T05:49:39.699Z","date":"2025-12-10","time":"05:49:39"},{"task":"memory_phase","broad_category":"S","image_png":"S_Dolomite_12.png","image_id":396,"category_name":"Dolomite","category":25,"distinct_rating":1.85,"distinct_type":"Bottom","rt":null,"stimulus":"Stimuli_Rocks480/S_Dolomite_12.png","response":null,"trial_type":"image-keyboard-response","trial_index":122,"plugin_version":"2.1.0","time_elapsed":469146,"subject_id":"86896","group":"Group1","full_date":"2025-12-10T05:49:39.699Z","date":"2025-12-10","time":"05:49:39"},{"rt":null,"stimulus":"<p style=\"font-size: 50px; margin: 0; text-align: center;\">+</p>","response":null,"trial_type":"html-keyboard-response","trial_index":123,"plugin_version":"2.1.0","time_elapsed":470159,"subject_id":"86896","group":"Group1","full_date":"2025-12-10T05:49:39.699Z","date":"2025-12-10","time":"05:49:39"},{"task":"memory_phase","broad_category":"S","image_png":"S_Shale_08.png","image_id":472,"category_name":"Shale","category":30,"distinct_rating":2.55,"distinct_type":"Bottom","rt":null,"stimulus":"Stimuli_Rocks480/S_Shale_08.png","response":null,"trial_type":"image-keyboard-response","trial_index":124,"plugin_version":"2.1.0","time_elapsed":472661,"subject_id":"86896","group":"Group1","full_date":"2025-12-10T05:49:39.699Z","date":"2025-12-10","time":"05:49:39"},{"rt":null,"stimulus":"<p style=\"font-size: 50px; margin: 0; text-align: center;\">+</p>","response":null,"trial_type":"html-keyboard-response","trial_index":125,"plugin_version":"2.1.0","time_elapsed":473677,"subject_id":"86896","group":"Group1","full_date":"2025-12-10T05:49:39.699Z","date":"2025-12-10","time":"05:49:39"},{"task":"memory_phase","broad_category":"I","image_png":"I_Pumice_08.png","image_id":136,"category_name":"Pumice","category":9,"distinct_rating":3.1,"distinct_type":"Bottom","rt":null,"stimulus":"Stimuli_Rocks480/I_Pumice_08.png","response":null,"trial_type":"image-keyboard-response","trial_index":126,"plugin_version":"2.1.0","time_elapsed":476182,"subject_id":"86896","group":"Group1","full_date":"2025-12-10T05:49:39.699Z","date":"2025-12-10","time":"05:49:39"},{"rt":null,"stimulus":"<p style=\"font-size: 50px; margin: 0; text-align: center;\">+</p>","response":null,"trial_type":"html-keyboard-response","trial_index":127,"plugin_version":"2.1.0","time_elapsed":477192,"subject_id":"86896","group":"Group1","full_date":"2025-12-10T05:49:39.699Z","date":"2025-12-10","time":"05:49:39"},{"task":"memory_phase","broad_category":"M","image_png":"M_Gneiss_06.png","image_id":198,"category_name":"Gneiss","category":13,"distinct_rating":2.65,"distinct_type":"Bottom","rt":null,"stimulus":"Stimuli_Rocks480/M_Gneiss_06.png","response":null,"trial_type":"image-keyboard-response","trial_index":128,"plugin_version":"2.1.0","time_elapsed":479695,"subject_id":"86896","group":"Group1","full_date":"2025-12-10T05:49:39.699Z","date":"2025-12-10","time":"05:49:39"},{"rt":null,"stimulus":"<p style=\"font-size: 50px; margin: 0; text-align: center;\">+</p>","response":null,"trial_type":"html-keyboard-response","trial_index":129,"plugin_version":"2.1.0","time_elapsed":480708,"subject_id":"86896","group":"Group1","full_date":"2025-12-10T05:49:39.699Z","date":"2025-12-10","time":"05:49:39"},{"task":"memory_phase","broad_category":"S","image_png":"S_Shale_12.png","image_id":476,"category_name":"Shale","category":30,"distinct_rating":2.48,"distinct_type":"Bottom","rt":null,"stimulus":"Stimuli_Rocks480/S_Shale_12.png","response":null,"trial_type":"image-keyboard-response","trial_index":130,"plugin_version":"2.1.0","time_elapsed":483215,"subject_id":"86896","group":"Group1","full_date":"2025-12-10T05:49:39.699Z","date":"2025-12-10","time":"05:49:39"},{"rt":null,"stimulus":"<p style=\"font-size: 50px; margin: 0; text-align: center;\">+</p>","response":null,"trial_type":"html-keyboard-response","trial_index":131,"plugin_version":"2.1.0","time_elapsed":484226,"subject_id":"86896","group":"Group1","full_date":"2025-12-10T05:49:39.699Z","date":"2025-12-10","time":"05:49:39"},{"task":"memory_phase","broad_category":"M","image_png":"M_Marble_16.png","image_id":240,"category_name":"Marble","category":15,"distinct_rating":2.57,"distinct_type":"Bottom","rt":null,"stimulus":"Stimuli_Rocks480/M_Marble_16.png","response":null,"trial_type":"image-keyboard-response","trial_index":132,"plugin_version":"2.1.0","time_elapsed":486733,"subject_id":"86896","group":"Group1","full_date":"2025-12-10T05:49:39.699Z","date":"2025-12-10","time":"05:49:39"},{"rt":null,"stimulus":"<p style=\"font-size: 50px; margin: 0; text-align: center;\">+</p>","response":null,"trial_type":"html-keyboard-response","trial_index":133,"plugin_version":"2.1.0","time_elapsed":487741,"subject_id":"86896","group":"Group1","full_date":"2025-12-10T05:49:39.699Z","date":"2025-12-10","time":"05:49:39"},{"task":"memory_phase","broad_category":"M","image_png":"M_Phyllite_03.png","image_id":259,"category_name":"Phyllite","category":17,"distinct_rating":2.5,"distinct_type":"Bottom","rt":null,"stimulus":"Stimuli_Rocks480/M_Phyllite_03.png","response":null,"trial_type":"image-keyboard-response","trial_index":134,"plugin_version":"2.1.0","time_elapsed":490247,"subject_id":"86896","group":"Group1","full_date":"2025-12-10T05:49:39.699Z","date":"2025-12-10","time":"05:49:39"},{"rt":null,"stimulus":"<p style=\"font-size: 50px; margin: 0; text-align: center;\">+</p>","response":null,"trial_type":"html-keyboard-response","trial_index":135,"plugin_version":"2.1.0","time_elapsed":491259,"subject_id":"86896","group":"Group1","full_date":"2025-12-10T05:49:39.699Z","date":"2025-12-10","time":"05:49:39"},{"task":"memory_phase","broad_category":"I","image_png":"I_Basalt_09.png","image_id":25,"category_name":"Basalt","category":2,"distinct_rating":1.89,"distinct_type":"Bottom","rt":null,"stimulus":"Stimuli_Rocks480/I_Basalt_09.png","response":null,"trial_type":"image-keyboard-response","trial_index":136,"plugin_version":"2.1.0","time_elapsed":493776,"subject_id":"86896","group":"Group1","full_date":"2025-12-10T05:49:39.699Z","date":"2025-12-10","time":"05:49:39"},{"rt":null,"stimulus":"<p style=\"font-size: 50px; margin: 0; text-align: center;\">+</p>","response":null,"trial_type":"html-keyboard-response","trial_index":137,"plugin_version":"2.1.0","time_elapsed":494792,"subject_id":"86896","group":"Group1","full_date":"2025-12-10T05:49:39.699Z","date":"2025-12-10","time":"05:49:39"},{"task":"memory_phase","broad_category":"I","image_png":"I_Rhyolite_11.png","image_id":155,"category_name":"Rhyolite","category":10,"distinct_rating":1.73,"distinct_type":"Bottom","rt":null,"stimulus":"Stimuli_Rocks480/I_Rhyolite_11.png","response":null,"trial_type":"image-keyboard-response","trial_index":138,"plugin_version":"2.1.0","time_elapsed":497298,"subject_id":"86896","group":"Group1","full_date":"2025-12-10T05:49:39.699Z","date":"2025-12-10","time":"05:49:39"},{"rt":null,"stimulus":"<p style=\"font-size: 50px; margin: 0; text-align: center;\">+</p>","response":null,"trial_type":"html-keyboard-response","trial_index":139,"plugin_version":"2.1.0","time_elapsed":498307,"subject_id":"86896","group":"Group1","full_date":"2025-12-10T05:49:39.699Z","date":"2025-12-10","time":"05:49:39"},{"task":"memory_phase","broad_category":"I","image_png":"I_Andesite_10.png","image_id":10,"category_name":"Andesite","category":1,"distinct_rating":3.15,"distinct_type":"Bottom","rt":null,"stimulus":"Stimuli_Rocks480/I_Andesite_10.png","response":null,"trial_type":"image-keyboard-response","trial_index":140,"plugin_version":"2.1.0","time_elapsed":500811,"subject_id":"86896","group":"Group1","full_date":"2025-12-10T05:49:39.699Z","date":"2025-12-10","time":"05:49:39"},{"rt":null,"stimulus":"<p style=\"font-size: 50px; margin: 0; text-align: center;\">+</p>","response":null,"trial_type":"html-keyboard-response","trial_index":141,"plugin_version":"2.1.0","time_elapsed":501825,"subject_id":"86896","group":"Group1","full_date":"2025-12-10T05:49:39.699Z","date":"2025-12-10","time":"05:49:39"},{"task":"memory_phase","broad_category":"M","image_png":"M_Slate_15.png","image_id":319,"category_name":"Slate","category":20,"distinct_rating":2.13,"distinct_type":"Bottom","rt":null,"stimulus":"Stimuli_Rocks480/M_Slate_15.png","response":null,"trial_type":"image-keyboard-response","trial_index":142,"plugin_version":"2.1.0","time_elapsed":504329,"subject_id":"86896","group":"Group1","full_date":"2025-12-10T05:49:39.699Z","date":"2025-12-10","time":"05:49:39"},{"rt":null,"stimulus":"<p style=\"font-size: 50px; margin: 0; text-align: center;\">+</p>","response":null,"trial_type":"html-keyboard-response","trial_index":143,"plugin_version":"2.1.0","time_elapsed":505343,"subject_id":"86896","group":"Group1","full_date":"2025-12-10T05:49:39.699Z","date":"2025-12-10","time":"05:49:39"},{"task":"memory_phase","broad_category":"I","image_png":"I_Diorite_03.png","image_id":35,"category_name":"Diorite","category":3,"distinct_rating":3.14,"distinct_type":"Bottom","rt":null,"stimulus":"Stimuli_Rocks480/I_Diorite_03.png","response":null,"trial_type":"image-keyboard-response","trial_index":144,"plugin_version":"2.1.0","time_elapsed":507851,"subject_id":"86896","group":"Group1","full_date":"2025-12-10T05:49:39.699Z","date":"2025-12-10","time":"05:49:39"},{"rt":null,"stimulus":"<p style=\"font-size: 50px; margin: 0; text-align: center;\">+</p>","response":null,"trial_type":"html-keyboard-response","trial_index":145,"plugin_version":"2.1.0","time_elapsed":508864,"subject_id":"86896","group":"Group1","full_date":"2025-12-10T05:49:39.699Z","date":"2025-12-10","time":"05:49:39"},{"task":"memory_phase","broad_category":"I","image_png":"I_Rhyolite_16.png","image_id":160,"category_name":"Rhyolite","category":10,"distinct_rating":2.19,"distinct_type":"Bottom","rt":null,"stimulus":"Stimuli_Rocks480/I_Rhyolite_16.png","response":null,"trial_type":"image-keyboard-response","trial_index":146,"plugin_version":"2.1.0","time_elapsed":511373,"subject_id":"86896","group":"Group1","full_date":"2025-12-10T05:49:39.699Z","date":"2025-12-10","time":"05:49:39"},{"rt":null,"stimulus":"<p style=\"font-size: 50px; margin: 0; text-align: center;\">+</p>","response":null,"trial_type":"html-keyboard-response","trial_index":147,"plugin_version":"2.1.0","time_elapsed":512377,"subject_id":"86896","group":"Group1","full_date":"2025-12-10T05:49:39.699Z","date":"2025-12-10","time":"05:49:39"},{"task":"memory_phase","broad_category":"I","image_png":"I_Diorite_04.png","image_id":36,"category_name":"Diorite","category":3,"distinct_rating":2.98,"distinct_type":"Bottom","rt":null,"stimulus":"Stimuli_Rocks480/I_Diorite_04.png","response":null,"trial_type":"image-keyboard-response","trial_index":148,"plugin_version":"2.1.0","time_elapsed":514885,"subject_id":"86896","group":"Group1","full_date":"2025-12-10T05:49:39.699Z","date":"2025-12-10","time":"05:49:39"},{"rt":null,"stimulus":"<p style=\"font-size: 50px; margin: 0; text-align: center;\">+</p>","response":null,"trial_type":"html-keyboard-response","trial_index":149,"plugin_version":"2.1.0","time_elapsed":515892,"subject_id":"86896","group":"Group1","full_date":"2025-12-10T05:49:39.699Z","date":"2025-12-10","time":"05:49:39"},{"task":"memory_phase","broad_category":"I","image_png":"I_Pegmatite_16.png","image_id":112,"category_name":"Pegmatite","category":7,"distinct_rating":7.03,"distinct_type":"Top","rt":null,"stimulus":"Stimuli_Rocks480/I_Pegmatite_16.png","response":null,"trial_type":"image-keyboard-response","trial_index":150,"plugin_version":"2.1.0","time_elapsed":518412,"subject_id":"86896","group":"Group1","full_date":"2025-12-10T05:49:39.699Z","date":"2025-12-10","time":"05:49:39"},{"rt":null,"stimulus":"<p style=\"font-size: 50px; margin: 0; text-align: center;\">+</p>","response":null,"trial_type":"html-keyboard-response","trial_index":151,"plugin_version":"2.1.0","time_elapsed":519424,"subject_id":"86896","group":"Group1","full_date":"2025-12-10T05:49:39.699Z","date":"2025-12-10","time":"05:49:39"},{"task":"memory_phase","broad_category":"I","image_png":"I_Diorite_05.png","image_id":37,"category_name":"Diorite","category":3,"distinct_rating":3.08,"distinct_type":"Bottom","rt":null,"stimulus":"Stimuli_Rocks480/I_Diorite_05.png","response":null,"trial_type":"image-keyboard-response","trial_index":152,"plugin_version":"2.1.0","time_elapsed":521927,"subject_id":"86896","group":"Group1","full_date":"2025-12-10T05:49:39.699Z","date":"2025-12-10","time":"05:49:39"},{"rt":null,"stimulus":"<p style=\"font-size: 50px; margin: 0; text-align: center;\">+</p>","response":null,"trial_type":"html-keyboard-response","trial_index":153,"plugin_version":"2.1.0","time_elapsed":522939,"subject_id":"86896","group":"Group1","full_date":"2025-12-10T05:49:39.699Z","date":"2025-12-10","time":"05:49:39"},{"task":"memory_phase","broad_category":"M","image_png":"M_Quartzite_08.png","image_id":280,"category_name":"Quartzite","category":18,"distinct_rating":2.15,"distinct_type":"Bottom","rt":null,"stimulus":"Stimuli_Rocks480/M_Quartzite_08.png","response":null,"trial_type":"image-keyboard-response","trial_index":154,"plugin_version":"2.1.0","time_elapsed":525454,"subject_id":"86896","group":"Group1","full_date":"2025-12-10T05:49:39.699Z","date":"2025-12-10","time":"05:49:39"},{"rt":null,"stimulus":"<p style=\"font-size: 50px; margin: 0; text-align: center;\">+</p>","response":null,"trial_type":"html-keyboard-response","trial_index":155,"plugin_version":"2.1.0","time_elapsed":526468,"subject_id":"86896","group":"Group1","full_date":"2025-12-10T05:49:39.699Z","date":"2025-12-10","time":"05:49:39"},{"task":"memory_phase","broad_category":"I","image_png":"I_Gabbro_08.png","image_id":56,"category_name":"Gabbro","category":4,"distinct_rating":3.02,"distinct_type":"Bottom","rt":null,"stimulus":"Stimuli_Rocks480/I_Gabbro_08.png","response":null,"trial_type":"image-keyboard-response","trial_index":156,"plugin_version":"2.1.0","time_elapsed":528980,"subject_id":"86896","group":"Group1","full_date":"2025-12-10T05:49:39.699Z","date":"2025-12-10","time":"05:49:39"},{"rt":105529,"stimulus":"<p style=\"max-width: 760px; margin: auto; font-size: 35px; line-height: 1.5;\">Press SPACE to continue study phase</p>","response":" ","trial_type":"html-keyboard-response","trial_index":157,"plugin_version":"2.1.0","time_elapsed":634510,"subject_id":"86896","group":"Group1","full_date":"2025-12-10T05:49:39.699Z","date":"2025-12-10","time":"05:49:39"},{"rt":null,"stimulus":"<p style=\"font-size: 50px; margin: 0; text-align: center;\">+</p>","response":null,"trial_type":"html-keyboard-response","trial_index":158,"plugin_version":"2.1.0","time_elapsed":635522,"subject_id":"86896","group":"Group1","full_date":"2025-12-10T05:49:39.699Z","date":"2025-12-10","time":"05:49:39"},{"task":"memory_phase","broad_category":"M","image_png":"M_Quartzite_05.png","image_id":277,"category_name":"Quartzite","category":18,"distinct_rating":2.23,"distinct_type":"Bottom","rt":null,"stimulus":"Stimuli_Rocks480/M_Quartzite_05.png","response":null,"trial_type":"image-keyboard-response","trial_index":159,"plugin_version":"2.1.0","time_elapsed":638026,"subject_id":"86896","group":"Group1","full_date":"2025-12-10T05:49:39.699Z","date":"2025-12-10","time":"05:49:39"},{"rt":null,"stimulus":"<p style=\"font-size: 50px; margin: 0; text-align: center;\">+</p>","response":null,"trial_type":"html-keyboard-response","trial_index":160,"plugin_version":"2.1.0","time_elapsed":639035,"subject_id":"86896","group":"Group1","full_date":"2025-12-10T05:49:39.699Z","date":"2025-12-10","time":"05:49:39"},{"task":"memory_phase","broad_category":"I","image_png":"I_Basalt_02.png","image_id":18,"category_name":"Basalt","category":2,"distinct_rating":1.84,"distinct_type":"Bottom","rt":null,"stimulus":"Stimuli_Rocks480/I_Basalt_02.png","response":null,"trial_type":"image-keyboard-response","trial_index":161,"plugin_version":"2.1.0","time_elapsed":641553,"subject_id":"86896","group":"Group1","full_date":"2025-12-10T05:49:39.699Z","date":"2025-12-10","time":"05:49:39"},{"rt":null,"stimulus":"<p style=\"font-size: 50px; margin: 0; text-align: center;\">+</p>","response":null,"trial_type":"html-keyboard-response","trial_index":162,"plugin_version":"2.1.0","time_elapsed":642555,"subject_id":"86896","group":"Group1","full_date":"2025-12-10T05:49:39.699Z","date":"2025-12-10","time":"05:49:39"},{"task":"memory_phase","broad_category":"S","image_png":"S_Breccia_11.png","image_id":347,"category_name":"Breccia","category":22,"distinct_rating":6.7,"distinct_type":"Top","rt":null,"stimulus":"Stimuli_Rocks480/S_Breccia_11.png","response":null,"trial_type":"image-keyboard-response","trial_index":163,"plugin_version":"2.1.0","time_elapsed":645058,"subject_id":"86896","group":"Group1","full_date":"2025-12-10T05:49:39.699Z","date":"2025-12-10","time":"05:49:39"},{"rt":null,"stimulus":"<p style=\"font-size: 50px; margin: 0; text-align: center;\">+</p>","response":null,"trial_type":"html-keyboard-response","trial_index":164,"plugin_version":"2.1.0","time_elapsed":646069,"subject_id":"86896","group":"Group1","full_date":"2025-12-10T05:49:39.699Z","date":"2025-12-10","time":"05:49:39"},{"task":"memory_phase","broad_category":"I","image_png":"I_Andesite_08.png","image_id":8,"category_name":"Andesite","category":1,"distinct_rating":1.95,"distinct_type":"Bottom","rt":null,"stimulus":"Stimuli_Rocks480/I_Andesite_08.png","response":null,"trial_type":"image-keyboard-response","trial_index":165,"plugin_version":"2.1.0","time_elapsed":648574,"subject_id":"86896","group":"Group1","full_date":"2025-12-10T05:49:39.699Z","date":"2025-12-10","time":"05:49:39"},{"rt":null,"stimulus":"<p style=\"font-size: 50px; margin: 0; text-align: center;\">+</p>","response":null,"trial_type":"html-keyboard-response","trial_index":166,"plugin_version":"2.1.0","time_elapsed":649584,"subject_id":"86896","group":"Group1","full_date":"2025-12-10T05:49:39.699Z","date":"2025-12-10","time":"05:49:39"},{"task":"memory_phase","broad_category":"I","image_png":"I_Obsidian_05.png","image_id":85,"category_name":"Obsidian","category":6,"distinct_rating":7.32,"distinct_type":"Top","rt":null,"stimulus":"Stimuli_Rocks480/I_Obsidian_05.png","response":null,"trial_type":"image-keyboard-response","trial_index":167,"plugin_version":"2.1.0","time_elapsed":652091,"subject_id":"86896","group":"Group1","full_date":"2025-12-10T05:49:39.699Z","date":"2025-12-10","time":"05:49:39"},{"rt":null,"stimulus":"<p style=\"font-size: 50px; margin: 0; text-align: center;\">+</p>","response":null,"trial_type":"html-keyboard-response","trial_index":168,"plugin_version":"2.1.0","time_elapsed":653102,"subject_id":"86896","group":"Group1","full_date":"2025-12-10T05:49:39.699Z","date":"2025-12-10","time":"05:49:39"},{"task":"memory_phase","broad_category":"S","image_png":"S_Rock Gypsum_04.png","image_id":420,"category_name":"Rock Gypsum","category":27,"distinct_rating":7.61,"distinct_type":"Top","rt":null,"stimulus":"Stimuli_Rocks480/S_Rock Gypsum_04.png","response":null,"trial_type":"image-keyboard-response","trial_index":169,"plugin_version":"2.1.0","time_elapsed":655607,"subject_id":"86896","group":"Group1","full_date":"2025-12-10T05:49:39.699Z","date":"2025-12-10","time":"05:49:39"},{"rt":null,"stimulus":"<p style=\"font-size: 50px; margin: 0; text-align: center;\">+</p>","response":null,"trial_type":"html-keyboard-response","trial_index":170,"plugin_version":"2.1.0","time_elapsed":656616,"subject_id":"86896","group":"Group1","full_date":"2025-12-10T05:49:39.699Z","date":"2025-12-10","time":"05:49:39"},{"task":"memory_phase","broad_category":"S","image_png":"S_Sandstone_15.png","image_id":463,"category_name":"Sandstone","category":29,"distinct_rating":2,"distinct_type":"Bottom","rt":null,"stimulus":"Stimuli_Rocks480/S_Sandstone_15.png","response":null,"trial_type":"image-keyboard-response","trial_index":171,"plugin_version":"2.1.0","time_elapsed":659124,"subject_id":"86896","group":"Group1","full_date":"2025-12-10T05:49:39.699Z","date":"2025-12-10","time":"05:49:39"},{"rt":null,"stimulus":"<p style=\"font-size: 50px; margin: 0; text-align: center;\">+</p>","response":null,"trial_type":"html-keyboard-response","trial_index":172,"plugin_version":"2.1.0","time_elapsed":660132,"subject_id":"86896","group":"Group1","full_date":"2025-12-10T05:49:39.699Z","date":"2025-12-10","time":"05:49:39"},{"task":"memory_phase","broad_category":"I","image_png":"I_Pumice_12.png","image_id":140,"category_name":"Pumice","category":9,"distinct_rating":2.97,"distinct_type":"Bottom","rt":null,"stimulus":"Stimuli_Rocks480/I_Pumice_12.png","response":null,"trial_type":"image-keyboard-response","trial_index":173,"plugin_version":"2.1.0","time_elapsed":662644,"subject_id":"86896","group":"Group1","full_date":"2025-12-10T05:49:39.699Z","date":"2025-12-10","time":"05:49:39"},{"rt":null,"stimulus":"<p style=\"font-size: 50px; margin: 0; text-align: center;\">+</p>","response":null,"trial_type":"html-keyboard-response","trial_index":174,"plugin_version":"2.1.0","time_elapsed":663651,"subject_id":"86896","group":"Group1","full_date":"2025-12-10T05:49:39.699Z","date":"2025-12-10","time":"05:49:39"},{"task":"memory_phase","broad_category":"M","image_png":"M_Slate_11.png","image_id":315,"category_name":"Slate","category":20,"distinct_rating":2.75,"distinct_type":"Bottom","rt":null,"stimulus":"Stimuli_Rocks480/M_Slate_11.png","response":null,"trial_type":"image-keyboard-response","trial_index":175,"plugin_version":"2.1.0","time_elapsed":666154,"subject_id":"86896","group":"Group1","full_date":"2025-12-10T05:49:39.699Z","date":"2025-12-10","time":"05:49:39"},{"rt":null,"stimulus":"<p style=\"font-size: 50px; margin: 0; text-align: center;\">+</p>","response":null,"trial_type":"html-keyboard-response","trial_index":176,"plugin_version":"2.1.0","time_elapsed":667166,"subject_id":"86896","group":"Group1","full_date":"2025-12-10T05:49:39.699Z","date":"2025-12-10","time":"05:49:39"},{"task":"memory_phase","broad_category":"I","image_png":"I_Andesite_06.png","image_id":6,"category_name":"Andesite","category":1,"distinct_rating":3.17,"distinct_type":"Bottom","rt":null,"stimulus":"Stimuli_Rocks480/I_Andesite_06.png","response":null,"trial_type":"image-keyboard-response","trial_index":177,"plugin_version":"2.1.0","time_elapsed":669673,"subject_id":"86896","group":"Group1","full_date":"2025-12-10T05:49:39.699Z","date":"2025-12-10","time":"05:49:39"},{"rt":null,"stimulus":"<p style=\"font-size: 50px; margin: 0; text-align: center;\">+</p>","response":null,"trial_type":"html-keyboard-response","trial_index":178,"plugin_version":"2.1.0","time_elapsed":670685,"subject_id":"86896","group":"Group1","full_date":"2025-12-10T05:49:39.699Z","date":"2025-12-10","time":"05:49:39"},{"task":"memory_phase","broad_category":"S","image_png":"S_Shale_01.png","image_id":465,"category_name":"Shale","category":30,"distinct_rating":2.7,"distinct_type":"Bottom","rt":null,"stimulus":"Stimuli_Rocks480/S_Shale_01.png","response":null,"trial_type":"image-keyboard-response","trial_index":179,"plugin_version":"2.1.0","time_elapsed":673202,"subject_id":"86896","group":"Group1","full_date":"2025-12-10T05:49:39.699Z","date":"2025-12-10","time":"05:49:39"},{"rt":null,"stimulus":"<p style=\"font-size: 50px; margin: 0; text-align: center;\">+</p>","response":null,"trial_type":"html-keyboard-response","trial_index":180,"plugin_version":"2.1.0","time_elapsed":674218,"subject_id":"86896","group":"Group1","full_date":"2025-12-10T05:49:39.699Z","date":"2025-12-10","time":"05:49:39"},{"task":"memory_phase","broad_category":"S","image_png":"S_Dolomite_13.png","image_id":397,"category_name":"Dolomite","category":25,"distinct_rating":1.77,"distinct_type":"Bottom","rt":null,"stimulus":"Stimuli_Rocks480/S_Dolomite_13.png","response":null,"trial_type":"image-keyboard-response","trial_index":181,"plugin_version":"2.1.0","time_elapsed":676736,"subject_id":"86896","group":"Group1","full_date":"2025-12-10T05:49:39.699Z","date":"2025-12-10","time":"05:49:39"},{"rt":null,"stimulus":"<p style=\"font-size: 50px; margin: 0; text-align: center;\">+</p>","response":null,"trial_type":"html-keyboard-response","trial_index":182,"plugin_version":"2.1.0","time_elapsed":677748,"subject_id":"86896","group":"Group1","full_date":"2025-12-10T05:49:39.699Z","date":"2025-12-10","time":"05:49:39"},{"task":"memory_phase","broad_category":"S","image_png":"S_Rock Salt_01.png","image_id":433,"category_name":"Rock Salt","category":28,"distinct_rating":7.18,"distinct_type":"Top","rt":null,"stimulus":"Stimuli_Rocks480/S_Rock Salt_01.png","response":null,"trial_type":"image-keyboard-response","trial_index":183,"plugin_version":"2.1.0","time_elapsed":680257,"subject_id":"86896","group":"Group1","full_date":"2025-12-10T05:49:39.699Z","date":"2025-12-10","time":"05:49:39"},{"rt":null,"stimulus":"<p style=\"font-size: 50px; margin: 0; text-align: center;\">+</p>","response":null,"trial_type":"html-keyboard-response","trial_index":184,"plugin_version":"2.1.0","time_elapsed":681266,"subject_id":"86896","group":"Group1","full_date":"2025-12-10T05:49:39.699Z","date":"2025-12-10","time":"05:49:39"},{"task":"memory_phase","broad_category":"I","image_png":"I_Gabbro_11.png","image_id":59,"category_name":"Gabbro","category":4,"distinct_rating":1.99,"distinct_type":"Bottom","rt":null,"stimulus":"Stimuli_Rocks480/I_Gabbro_11.png","response":null,"trial_type":"image-keyboard-response","trial_index":185,"plugin_version":"2.1.0","time_elapsed":683774,"subject_id":"86896","group":"Group1","full_date":"2025-12-10T05:49:39.699Z","date":"2025-12-10","time":"05:49:39"},{"rt":null,"stimulus":"<p style=\"font-size: 50px; margin: 0; text-align: center;\">+</p>","response":null,"trial_type":"html-keyboard-response","trial_index":186,"plugin_version":"2.1.0","time_elapsed":684783,"subject_id":"86896","group":"Group1","full_date":"2025-12-10T05:49:39.699Z","date":"2025-12-10","time":"05:49:39"},{"task":"memory_phase","broad_category":"S","image_png":"S_Dolomite_14.png","image_id":398,"category_name":"Dolomite","category":25,"distinct_rating":1.43,"distinct_type":"Bottom","rt":null,"stimulus":"Stimuli_Rocks480/S_Dolomite_14.png","response":null,"trial_type":"image-keyboard-response","trial_index":187,"plugin_version":"2.1.0","time_elapsed":687286,"subject_id":"86896","group":"Group1","full_date":"2025-12-10T05:49:39.699Z","date":"2025-12-10","time":"05:49:39"},{"rt":null,"stimulus":"<p style=\"font-size: 50px; margin: 0; text-align: center;\">+</p>","response":null,"trial_type":"html-keyboard-response","trial_index":188,"plugin_version":"2.1.0","time_elapsed":688300,"subject_id":"86896","group":"Group1","full_date":"2025-12-10T05:49:39.699Z","date":"2025-12-10","time":"05:49:39"},{"task":"memory_phase","broad_category":"I","image_png":"I_Pegmatite_10.png","image_id":106,"category_name":"Pegmatite","category":7,"distinct_rating":7.66,"distinct_type":"Top","rt":null,"stimulus":"Stimuli_Rocks480/I_Pegmatite_10.png","response":null,"trial_type":"image-keyboard-response","trial_index":189,"plugin_version":"2.1.0","time_elapsed":690807,"subject_id":"86896","group":"Group1","full_date":"2025-12-10T05:49:39.699Z","date":"2025-12-10","time":"05:49:39"},{"rt":null,"stimulus":"<p style=\"font-size: 50px; margin: 0; text-align: center;\">+</p>","response":null,"trial_type":"html-keyboard-response","trial_index":190,"plugin_version":"2.1.0","time_elapsed":691815,"subject_id":"86896","group":"Group1","full_date":"2025-12-10T05:49:39.699Z","date":"2025-12-10","time":"05:49:39"},{"task":"memory_phase","broad_category":"S","image_png":"S_Chert_10.png","image_id":362,"category_name":"Chert","category":23,"distinct_rating":7.17,"distinct_type":"Top","rt":null,"stimulus":"Stimuli_Rocks480/S_Chert_10.png","response":null,"trial_type":"image-keyboard-response","trial_index":191,"plugin_version":"2.1.0","time_elapsed":694317,"subject_id":"86896","group":"Group1","full_date":"2025-12-10T05:49:39.699Z","date":"2025-12-10","time":"05:49:39"},{"rt":null,"stimulus":"<p style=\"font-size: 50px; margin: 0; text-align: center;\">+</p>","response":null,"trial_type":"html-keyboard-response","trial_index":192,"plugin_version":"2.1.0","time_elapsed":695334,"subject_id":"86896","group":"Group1","full_date":"2025-12-10T05:49:39.699Z","date":"2025-12-10","time":"05:49:39"},{"task":"memory_phase","broad_category":"I","image_png":"I_Gabbro_16.png","image_id":64,"category_name":"Gabbro","category":4,"distinct_rating":2.52,"distinct_type":"Bottom","rt":null,"stimulus":"Stimuli_Rocks480/I_Gabbro_16.png","response":null,"trial_type":"image-keyboard-response","trial_index":193,"plugin_version":"2.1.0","time_elapsed":697836,"subject_id":"86896","group":"Group1","full_date":"2025-12-10T05:49:39.699Z","date":"2025-12-10","time":"05:49:39"},{"rt":null,"stimulus":"<p style=\"font-size: 50px; margin: 0; text-align: center;\">+</p>","response":null,"trial_type":"html-keyboard-response","trial_index":194,"plugin_version":"2.1.0","time_elapsed":698846,"subject_id":"86896","group":"Group1","full_date":"2025-12-10T05:49:39.699Z","date":"2025-12-10","time":"05:49:39"},{"task":"memory_phase","broad_category":"M","image_png":"M_Phyllite_10.png","image_id":266,"category_name":"Phyllite","category":17,"distinct_rating":2.6,"distinct_type":"Bottom","rt":null,"stimulus":"Stimuli_Rocks480/M_Phyllite_10.png","response":null,"trial_type":"image-keyboard-response","trial_index":195,"plugin_version":"2.1.0","time_elapsed":701355,"subject_id":"86896","group":"Group1","full_date":"2025-12-10T05:49:39.699Z","date":"2025-12-10","time":"05:49:39"},{"rt":null,"stimulus":"<p style=\"font-size: 50px; margin: 0; text-align: center;\">+</p>","response":null,"trial_type":"html-keyboard-response","trial_index":196,"plugin_version":"2.1.0","time_elapsed":702364,"subject_id":"86896","group":"Group1","full_date":"2025-12-10T05:49:39.699Z","date":"2025-12-10","time":"05:49:39"},{"task":"memory_phase","broad_category":"M","image_png":"M_Slate_03.png","image_id":307,"category_name":"Slate","category":20,"distinct_rating":1.87,"distinct_type":"Bottom","rt":null,"stimulus":"Stimuli_Rocks480/M_Slate_03.png","response":null,"trial_type":"image-keyboard-response","trial_index":197,"plugin_version":"2.1.0","time_elapsed":704872,"subject_id":"86896","group":"Group1","full_date":"2025-12-10T05:49:39.699Z","date":"2025-12-10","time":"05:49:39"},{"rt":null,"stimulus":"<p style=\"font-size: 50px; margin: 0; text-align: center;\">+</p>","response":null,"trial_type":"html-keyboard-response","trial_index":198,"plugin_version":"2.1.0","time_elapsed":705880,"subject_id":"86896","group":"Group1","full_date":"2025-12-10T05:49:39.699Z","date":"2025-12-10","time":"05:49:39"},{"task":"memory_phase","broad_category":"S","image_png":"S_Sandstone_16.png","image_id":464,"category_name":"Sandstone","category":29,"distinct_rating":1.93,"distinct_type":"Bottom","rt":null,"stimulus":"Stimuli_Rocks480/S_Sandstone_16.png","response":null,"trial_type":"image-keyboard-response","trial_index":199,"plugin_version":"2.1.0","time_elapsed":708388,"subject_id":"86896","group":"Group1","full_date":"2025-12-10T05:49:39.699Z","date":"2025-12-10","time":"05:49:39"},{"rt":null,"stimulus":"<p style=\"font-size: 50px; margin: 0; text-align: center;\">+</p>","response":null,"trial_type":"html-keyboard-response","trial_index":200,"plugin_version":"2.1.0","time_elapsed":709397,"subject_id":"86896","group":"Group1","full_date":"2025-12-10T05:49:39.699Z","date":"2025-12-10","time":"05:49:39"},{"task":"memory_phase","broad_category":"M","image_png":"M_Gneiss_13.png","image_id":205,"category_name":"Gneiss","category":13,"distinct_rating":3.26,"distinct_type":"Bottom","rt":null,"stimulus":"Stimuli_Rocks480/M_Gneiss_13.png","response":null,"trial_type":"image-keyboard-response","trial_index":201,"plugin_version":"2.1.0","time_elapsed":711904,"subject_id":"86896","group":"Group1","full_date":"2025-12-10T05:49:39.699Z","date":"2025-12-10","time":"05:49:39"},{"rt":null,"stimulus":"<p style=\"font-size: 50px; margin: 0; text-align: center;\">+</p>","response":null,"trial_type":"html-keyboard-response","trial_index":202,"plugin_version":"2.1.0","time_elapsed":712915,"subject_id":"86896","group":"Group1","full_date":"2025-12-10T05:49:39.699Z","date":"2025-12-10","time":"05:49:39"},{"task":"memory_phase","broad_category":"I","image_png":"I_Pumice_11.png","image_id":139,"category_name":"Pumice","category":9,"distinct_rating":1.74,"distinct_type":"Bottom","rt":null,"stimulus":"Stimuli_Rocks480/I_Pumice_11.png","response":null,"trial_type":"image-keyboard-response","trial_index":203,"plugin_version":"2.1.0","time_elapsed":715431,"subject_id":"86896","group":"Group1","full_date":"2025-12-10T05:49:39.699Z","date":"2025-12-10","time":"05:49:39"},{"rt":null,"stimulus":"<p style=\"font-size: 50px; margin: 0; text-align: center;\">+</p>","response":null,"trial_type":"html-keyboard-response","trial_index":204,"plugin_version":"2.1.0","time_elapsed":716444,"subject_id":"86896","group":"Group1","full_date":"2025-12-10T05:49:39.699Z","date":"2025-12-10","time":"05:49:39"},{"task":"memory_phase","broad_category":"M","image_png":"M_Marble_06.png","image_id":230,"category_name":"Marble","category":15,"distinct_rating":3.4,"distinct_type":"Bottom","rt":null,"stimulus":"Stimuli_Rocks480/M_Marble_06.png","response":null,"trial_type":"image-keyboard-response","trial_index":205,"plugin_version":"2.1.0","time_elapsed":718961,"subject_id":"86896","group":"Group1","full_date":"2025-12-10T05:49:39.699Z","date":"2025-12-10","time":"05:49:39"},{"rt":null,"stimulus":"<p style=\"font-size: 50px; margin: 0; text-align: center;\">+</p>","response":null,"trial_type":"html-keyboard-response","trial_index":206,"plugin_version":"2.1.0","time_elapsed":719962,"subject_id":"86896","group":"Group1","full_date":"2025-12-10T05:49:39.699Z","date":"2025-12-10","time":"05:49:39"},{"task":"memory_phase","broad_category":"M","image_png":"M_Phyllite_07.png","image_id":263,"category_name":"Phyllite","category":17,"distinct_rating":2.59,"distinct_type":"Bottom","rt":null,"stimulus":"Stimuli_Rocks480/M_Phyllite_07.png","response":null,"trial_type":"image-keyboard-response","trial_index":207,"plugin_version":"2.1.0","time_elapsed":722464,"subject_id":"86896","group":"Group1","full_date":"2025-12-10T05:49:39.699Z","date":"2025-12-10","time":"05:49:39"},{"rt":19874,"stimulus":"<p style=\"max-width: 760px; margin: auto; font-size: 35px; line-height: 1.5;\">You have completed 2 study phases. Now, we'll show you all the images again 1 more time.<br><br>Press SPACE to continue</p>","response":" ","trial_type":"html-keyboard-response","trial_index":208,"plugin_version":"2.1.0","time_elapsed":742338,"subject_id":"86896","group":"Group1","full_date":"2025-12-10T05:49:39.699Z","date":"2025-12-10","time":"05:49:39"},{"rt":null,"stimulus":"<p style=\"font-size: 50px; margin: 0; text-align: center;\">+</p>","response":null,"trial_type":"html-keyboard-response","trial_index":209,"plugin_version":"2.1.0","time_elapsed":743340,"subject_id":"86896","group":"Group1","full_date":"2025-12-10T05:49:39.699Z","date":"2025-12-10","time":"05:49:39"},{"task":"memory_phase","broad_category":"I","image_png":"I_Gabbro_16.png","image_id":64,"category_name":"Gabbro","category":4,"distinct_rating":2.52,"distinct_type":"Bottom","rt":null,"stimulus":"Stimuli_Rocks480/I_Gabbro_16.png","response":null,"trial_type":"image-keyboard-response","trial_index":210,"plugin_version":"2.1.0","time_elapsed":745857,"subject_id":"86896","group":"Group1","full_date":"2025-12-10T05:49:39.699Z","date":"2025-12-10","time":"05:49:39"},{"rt":null,"stimulus":"<p style=\"font-size: 50px; margin: 0; text-align: center;\">+</p>","response":null,"trial_type":"html-keyboard-response","trial_index":211,"plugin_version":"2.1.0","time_elapsed":746860,"subject_id":"86896","group":"Group1","full_date":"2025-12-10T05:49:39.699Z","date":"2025-12-10","time":"05:49:39"},{"task":"memory_phase","broad_category":"I","image_png":"I_Andesite_08.png","image_id":8,"category_name":"Andesite","category":1,"distinct_rating":1.95,"distinct_type":"Bottom","rt":null,"stimulus":"Stimuli_Rocks480/I_Andesite_08.png","response":null,"trial_type":"image-keyboard-response","trial_index":212,"plugin_version":"2.1.0","time_elapsed":749374,"subject_id":"86896","group":"Group1","full_date":"2025-12-10T05:49:39.699Z","date":"2025-12-10","time":"05:49:39"},{"rt":null,"stimulus":"<p style=\"font-size: 50px; margin: 0; text-align: center;\">+</p>","response":null,"trial_type":"html-keyboard-response","trial_index":213,"plugin_version":"2.1.0","time_elapsed":750388,"subject_id":"86896","group":"Group1","full_date":"2025-12-10T05:49:39.699Z","date":"2025-12-10","time":"05:49:39"},{"task":"memory_phase","broad_category":"S","image_png":"S_Dolomite_12.png","image_id":396,"category_name":"Dolomite","category":25,"distinct_rating":1.85,"distinct_type":"Bottom","rt":null,"stimulus":"Stimuli_Rocks480/S_Dolomite_12.png","response":null,"trial_type":"image-keyboard-response","trial_index":214,"plugin_version":"2.1.0","time_elapsed":752895,"subject_id":"86896","group":"Group1","full_date":"2025-12-10T05:49:39.699Z","date":"2025-12-10","time":"05:49:39"},{"rt":null,"stimulus":"<p style=\"font-size: 50px; margin: 0; text-align: center;\">+</p>","response":null,"trial_type":"html-keyboard-response","trial_index":215,"plugin_version":"2.1.0","time_elapsed":753911,"subject_id":"86896","group":"Group1","full_date":"2025-12-10T05:49:39.699Z","date":"2025-12-10","time":"05:49:39"},{"task":"memory_phase","broad_category":"M","image_png":"M_Quartzite_05.png","image_id":277,"category_name":"Quartzite","category":18,"distinct_rating":2.23,"distinct_type":"Bottom","rt":null,"stimulus":"Stimuli_Rocks480/M_Quartzite_05.png","response":null,"trial_type":"image-keyboard-response","trial_index":216,"plugin_version":"2.1.0","time_elapsed":756427,"subject_id":"86896","group":"Group1","full_date":"2025-12-10T05:49:39.699Z","date":"2025-12-10","time":"05:49:39"},{"rt":null,"stimulus":"<p style=\"font-size: 50px; margin: 0; text-align: center;\">+</p>","response":null,"trial_type":"html-keyboard-response","trial_index":217,"plugin_version":"2.1.0","time_elapsed":757428,"subject_id":"86896","group":"Group1","full_date":"2025-12-10T05:49:39.699Z","date":"2025-12-10","time":"05:49:39"},{"task":"memory_phase","broad_category":"S","image_png":"S_Shale_12.png","image_id":476,"category_name":"Shale","category":30,"distinct_rating":2.48,"distinct_type":"Bottom","rt":null,"stimulus":"Stimuli_Rocks480/S_Shale_12.png","response":null,"trial_type":"image-keyboard-response","trial_index":218,"plugin_version":"2.1.0","time_elapsed":759931,"subject_id":"86896","group":"Group1","full_date":"2025-12-10T05:49:39.699Z","date":"2025-12-10","time":"05:49:39"},{"rt":null,"stimulus":"<p style=\"font-size: 50px; margin: 0; text-align: center;\">+</p>","response":null,"trial_type":"html-keyboard-response","trial_index":219,"plugin_version":"2.1.0","time_elapsed":760942,"subject_id":"86896","group":"Group1","full_date":"2025-12-10T05:49:39.699Z","date":"2025-12-10","time":"05:49:39"},{"task":"memory_phase","broad_category":"I","image_png":"I_Pumice_08.png","image_id":136,"category_name":"Pumice","category":9,"distinct_rating":3.1,"distinct_type":"Bottom","rt":null,"stimulus":"Stimuli_Rocks480/I_Pumice_08.png","response":null,"trial_type":"image-keyboard-response","trial_index":220,"plugin_version":"2.1.0","time_elapsed":763455,"subject_id":"86896","group":"Group1","full_date":"2025-12-10T05:49:39.699Z","date":"2025-12-10","time":"05:49:39"},{"rt":null,"stimulus":"<p style=\"font-size: 50px; margin: 0; text-align: center;\">+</p>","response":null,"trial_type":"html-keyboard-response","trial_index":221,"plugin_version":"2.1.0","time_elapsed":764461,"subject_id":"86896","group":"Group1","full_date":"2025-12-10T05:49:39.699Z","date":"2025-12-10","time":"05:49:39"},{"task":"memory_phase","broad_category":"I","image_png":"I_Rhyolite_14.png","image_id":158,"category_name":"Rhyolite","category":10,"distinct_rating":2.59,"distinct_type":"Bottom","rt":null,"stimulus":"Stimuli_Rocks480/I_Rhyolite_14.png","response":null,"trial_type":"image-keyboard-response","trial_index":222,"plugin_version":"2.1.0","time_elapsed":766967,"subject_id":"86896","group":"Group1","full_date":"2025-12-10T05:49:39.699Z","date":"2025-12-10","time":"05:49:39"},{"rt":null,"stimulus":"<p style=\"font-size: 50px; margin: 0; text-align: center;\">+</p>","response":null,"trial_type":"html-keyboard-response","trial_index":223,"plugin_version":"2.1.0","time_elapsed":767979,"subject_id":"86896","group":"Group1","full_date":"2025-12-10T05:49:39.699Z","date":"2025-12-10","time":"05:49:39"},{"task":"memory_phase","broad_category":"I","image_png":"I_Basalt_09.png","image_id":25,"category_name":"Basalt","category":2,"distinct_rating":1.89,"distinct_type":"Bottom","rt":null,"stimulus":"Stimuli_Rocks480/I_Basalt_09.png","response":null,"trial_type":"image-keyboard-response","trial_index":224,"plugin_version":"2.1.0","time_elapsed":770486,"subject_id":"86896","group":"Group1","full_date":"2025-12-10T05:49:39.699Z","date":"2025-12-10","time":"05:49:39"},{"rt":null,"stimulus":"<p style=\"font-size: 50px; margin: 0; text-align: center;\">+</p>","response":null,"trial_type":"html-keyboard-response","trial_index":225,"plugin_version":"2.1.0","time_elapsed":771491,"subject_id":"86896","group":"Group1","full_date":"2025-12-10T05:49:39.699Z","date":"2025-12-10","time":"05:49:39"},{"task":"memory_phase","broad_category":"I","image_png":"I_Pumice_11.png","image_id":139,"category_name":"Pumice","category":9,"distinct_rating":1.74,"distinct_type":"Bottom","rt":null,"stimulus":"Stimuli_Rocks480/I_Pumice_11.png","response":null,"trial_type":"image-keyboard-response","trial_index":226,"plugin_version":"2.1.0","time_elapsed":774001,"subject_id":"86896","group":"Group1","full_date":"2025-12-10T05:49:39.699Z","date":"2025-12-10","time":"05:49:39"},{"rt":null,"stimulus":"<p style=\"font-size: 50px; margin: 0; text-align: center;\">+</p>","response":null,"trial_type":"html-keyboard-response","trial_index":227,"plugin_version":"2.1.0","time_elapsed":775006,"subject_id":"86896","group":"Group1","full_date":"2025-12-10T05:49:39.699Z","date":"2025-12-10","time":"05:49:39"},{"task":"memory_phase","broad_category":"M","image_png":"M_Gneiss_13.png","image_id":205,"category_name":"Gneiss","category":13,"distinct_rating":3.26,"distinct_type":"Bottom","rt":null,"stimulus":"Stimuli_Rocks480/M_Gneiss_13.png","response":null,"trial_type":"image-keyboard-response","trial_index":228,"plugin_version":"2.1.0","time_elapsed":777512,"subject_id":"86896","group":"Group1","full_date":"2025-12-10T05:49:39.699Z","date":"2025-12-10","time":"05:49:39"},{"rt":null,"stimulus":"<p style=\"font-size: 50px; margin: 0; text-align: center;\">+</p>","response":null,"trial_type":"html-keyboard-response","trial_index":229,"plugin_version":"2.1.0","time_elapsed":778526,"subject_id":"86896","group":"Group1","full_date":"2025-12-10T05:49:39.699Z","date":"2025-12-10","time":"05:49:39"},{"task":"memory_phase","broad_category":"I","image_png":"I_Diorite_04.png","image_id":36,"category_name":"Diorite","category":3,"distinct_rating":2.98,"distinct_type":"Bottom","rt":null,"stimulus":"Stimuli_Rocks480/I_Diorite_04.png","response":null,"trial_type":"image-keyboard-response","trial_index":230,"plugin_version":"2.1.0","time_elapsed":781031,"subject_id":"86896","group":"Group1","full_date":"2025-12-10T05:49:39.699Z","date":"2025-12-10","time":"05:49:39"},{"rt":null,"stimulus":"<p style=\"font-size: 50px; margin: 0; text-align: center;\">+</p>","response":null,"trial_type":"html-keyboard-response","trial_index":231,"plugin_version":"2.1.0","time_elapsed":782046,"subject_id":"86896","group":"Group1","full_date":"2025-12-10T05:49:39.699Z","date":"2025-12-10","time":"05:49:39"},{"task":"memory_phase","broad_category":"I","image_png":"I_Pegmatite_16.png","image_id":112,"category_name":"Pegmatite","category":7,"distinct_rating":7.03,"distinct_type":"Top","rt":null,"stimulus":"Stimuli_Rocks480/I_Pegmatite_16.png","response":null,"trial_type":"image-keyboard-response","trial_index":232,"plugin_version":"2.1.0","time_elapsed":784563,"subject_id":"86896","group":"Group1","full_date":"2025-12-10T05:49:39.699Z","date":"2025-12-10","time":"05:49:39"},{"rt":null,"stimulus":"<p style=\"font-size: 50px; margin: 0; text-align: center;\">+</p>","response":null,"trial_type":"html-keyboard-response","trial_index":233,"plugin_version":"2.1.0","time_elapsed":785565,"subject_id":"86896","group":"Group1","full_date":"2025-12-10T05:49:39.699Z","date":"2025-12-10","time":"05:49:39"},{"task":"memory_phase","broad_category":"I","image_png":"I_Pumice_12.png","image_id":140,"category_name":"Pumice","category":9,"distinct_rating":2.97,"distinct_type":"Bottom","rt":null,"stimulus":"Stimuli_Rocks480/I_Pumice_12.png","response":null,"trial_type":"image-keyboard-response","trial_index":234,"plugin_version":"2.1.0","time_elapsed":788080,"subject_id":"86896","group":"Group1","full_date":"2025-12-10T05:49:39.699Z","date":"2025-12-10","time":"05:49:39"},{"rt":null,"stimulus":"<p style=\"font-size: 50px; margin: 0; text-align: center;\">+</p>","response":null,"trial_type":"html-keyboard-response","trial_index":235,"plugin_version":"2.1.0","time_elapsed":789095,"subject_id":"86896","group":"Group1","full_date":"2025-12-10T05:49:39.699Z","date":"2025-12-10","time":"05:49:39"},{"task":"memory_phase","broad_category":"M","image_png":"M_Slate_03.png","image_id":307,"category_name":"Slate","category":20,"distinct_rating":1.87,"distinct_type":"Bottom","rt":null,"stimulus":"Stimuli_Rocks480/M_Slate_03.png","response":null,"trial_type":"image-keyboard-response","trial_index":236,"plugin_version":"2.1.0","time_elapsed":791597,"subject_id":"86896","group":"Group1","full_date":"2025-12-10T05:49:39.699Z","date":"2025-12-10","time":"05:49:39"},{"rt":null,"stimulus":"<p style=\"font-size: 50px; margin: 0; text-align: center;\">+</p>","response":null,"trial_type":"html-keyboard-response","trial_index":237,"plugin_version":"2.1.0","time_elapsed":792612,"subject_id":"86896","group":"Group1","full_date":"2025-12-10T05:49:39.699Z","date":"2025-12-10","time":"05:49:39"},{"task":"memory_phase","broad_category":"I","image_png":"I_Pegmatite_10.png","image_id":106,"category_name":"Pegmatite","category":7,"distinct_rating":7.66,"distinct_type":"Top","rt":null,"stimulus":"Stimuli_Rocks480/I_Pegmatite_10.png","response":null,"trial_type":"image-keyboard-response","trial_index":238,"plugin_version":"2.1.0","time_elapsed":795118,"subject_id":"86896","group":"Group1","full_date":"2025-12-10T05:49:39.699Z","date":"2025-12-10","time":"05:49:39"},{"rt":null,"stimulus":"<p style=\"font-size: 50px; margin: 0; text-align: center;\">+</p>","response":null,"trial_type":"html-keyboard-response","trial_index":239,"plugin_version":"2.1.0","time_elapsed":796129,"subject_id":"86896","group":"Group1","full_date":"2025-12-10T05:49:39.699Z","date":"2025-12-10","time":"05:49:39"},{"task":"memory_phase","broad_category":"S","image_png":"S_Dolomite_14.png","image_id":398,"category_name":"Dolomite","category":25,"distinct_rating":1.43,"distinct_type":"Bottom","rt":null,"stimulus":"Stimuli_Rocks480/S_Dolomite_14.png","response":null,"trial_type":"image-keyboard-response","trial_index":240,"plugin_version":"2.1.0","time_elapsed":798630,"subject_id":"86896","group":"Group1","full_date":"2025-12-10T05:49:39.699Z","date":"2025-12-10","time":"05:49:39"},{"rt":null,"stimulus":"<p style=\"font-size: 50px; margin: 0; text-align: center;\">+</p>","response":null,"trial_type":"html-keyboard-response","trial_index":241,"plugin_version":"2.1.0","time_elapsed":799632,"subject_id":"86896","group":"Group1","full_date":"2025-12-10T05:49:39.699Z","date":"2025-12-10","time":"05:49:39"},{"task":"memory_phase","broad_category":"S","image_png":"S_Chert_10.png","image_id":362,"category_name":"Chert","category":23,"distinct_rating":7.17,"distinct_type":"Top","rt":null,"stimulus":"Stimuli_Rocks480/S_Chert_10.png","response":null,"trial_type":"image-keyboard-response","trial_index":242,"plugin_version":"2.1.0","time_elapsed":802147,"subject_id":"86896","group":"Group1","full_date":"2025-12-10T05:49:39.699Z","date":"2025-12-10","time":"05:49:39"},{"rt":null,"stimulus":"<p style=\"font-size: 50px; margin: 0; text-align: center;\">+</p>","response":null,"trial_type":"html-keyboard-response","trial_index":243,"plugin_version":"2.1.0","time_elapsed":803150,"subject_id":"86896","group":"Group1","full_date":"2025-12-10T05:49:39.699Z","date":"2025-12-10","time":"05:49:39"},{"task":"memory_phase","broad_category":"S","image_png":"S_Rock Gypsum_04.png","image_id":420,"category_name":"Rock Gypsum","category":27,"distinct_rating":7.61,"distinct_type":"Top","rt":null,"stimulus":"Stimuli_Rocks480/S_Rock Gypsum_04.png","response":null,"trial_type":"image-keyboard-response","trial_index":244,"plugin_version":"2.1.0","time_elapsed":805664,"subject_id":"86896","group":"Group1","full_date":"2025-12-10T05:49:39.699Z","date":"2025-12-10","time":"05:49:39"},{"rt":null,"stimulus":"<p style=\"font-size: 50px; margin: 0; text-align: center;\">+</p>","response":null,"trial_type":"html-keyboard-response","trial_index":245,"plugin_version":"2.1.0","time_elapsed":806677,"subject_id":"86896","group":"Group1","full_date":"2025-12-10T05:49:39.699Z","date":"2025-12-10","time":"05:49:39"},{"task":"memory_phase","broad_category":"M","image_png":"M_Slate_15.png","image_id":319,"category_name":"Slate","category":20,"distinct_rating":2.13,"distinct_type":"Bottom","rt":null,"stimulus":"Stimuli_Rocks480/M_Slate_15.png","response":null,"trial_type":"image-keyboard-response","trial_index":246,"plugin_version":"2.1.0","time_elapsed":809182,"subject_id":"86896","group":"Group1","full_date":"2025-12-10T05:49:39.699Z","date":"2025-12-10","time":"05:49:39"},{"rt":null,"stimulus":"<p style=\"font-size: 50px; margin: 0; text-align: center;\">+</p>","response":null,"trial_type":"html-keyboard-response","trial_index":247,"plugin_version":"2.1.0","time_elapsed":810196,"subject_id":"86896","group":"Group1","full_date":"2025-12-10T05:49:39.699Z","date":"2025-12-10","time":"05:49:39"},{"task":"memory_phase","broad_category":"S","image_png":"S_Shale_01.png","image_id":465,"category_name":"Shale","category":30,"distinct_rating":2.7,"distinct_type":"Bottom","rt":null,"stimulus":"Stimuli_Rocks480/S_Shale_01.png","response":null,"trial_type":"image-keyboard-response","trial_index":248,"plugin_version":"2.1.0","time_elapsed":812702,"subject_id":"86896","group":"Group1","full_date":"20