[{"width":1470,"height":765,"webaudio":true,"browser":"safari","browser_version":"17.5.0","mobile":false,"os":"Mac OS","fullscreen":true,"vsync_rate":30,"webcam":true,"microphone":true,"trial_type":"browser-check","trial_index":0,"plugin_version":"2.1.0","time_elapsed":2015,"subject_id":"88856","group":"Group1","full_date":"2025-12-06T02:13:11.024Z","date":"2025-12-06","time":"02:13:11"},{"success":true,"timeout":false,"failed_images":[],"failed_audio":[],"failed_video":[],"trial_type":"preload","trial_index":1,"plugin_version":"2.1.0","time_elapsed":4250,"subject_id":"88856","group":"Group1","full_date":"2025-12-06T02:13:11.024Z","date":"2025-12-06","time":"02:13:11"},{"rt":286419,"url":"SONA_consent_memorability.html","trial_type":"external-html","trial_index":2,"plugin_version":"2.1.0","time_elapsed":290719,"subject_id":"88856","group":"Group1","full_date":"2025-12-06T02:13:11.024Z","date":"2025-12-06","time":"02:13:11"},{"success":true,"rt":2392,"trial_type":"fullscreen","trial_index":3,"plugin_version":"2.1.0","time_elapsed":294119,"subject_id":"88856","group":"Group1","full_date":"2025-12-06T02:13:11.024Z","date":"2025-12-06","time":"02:13:11"},{"rt":20790,"stimulus":"<div style=\"max-width: 760px; margin: auto; font-size: 20px; line-height: 1.5;\">\n      <h1 style=\"text-align:center; font-size: 30px;\">Instructions</h1>\n      <p>\n        Welcome to the study on <b>visual memory</b>. This experiment consists of <b>two phases</b>: \n        a <b>study phase</b> and a <b>test phase</b>.\n      </p>\n      <p>\n        In the study phase, you will see a series of rock images along with their category labels.\n        The images will appear one at a time.\n        <b>Your task</b> is to learn the categories to which the rock images belong \n        and to remember each image as accurately as possible.\n      </p> \n      <p>\n        Note that we will repeat the study phase <b>3 times</b>, \n        so you will have multiple opportunities to see and remember each image.\n      </p>\n      <p>\n        After the study phase, <b>your memory will be tested</b>. \n        Additional instructions for the test phase will be provided at that time.\n      </p>\n      <p>\n        If your computer has multiple <b>language settings</b> (e.g., English and another language),\n        please make sure it is set to English before starting.\n      </p>\n      <p>\n        You can track your progress using the <b>completion bar</b> at the top of the screen. \n        Please note that the bar will refresh when the test phase begins \n        to give you an accurate sense of your progress in both phases.\n      </p> \n      <p>\n        Press the button below when you are ready to begin.\n      </p>\n    </div>","response":0,"trial_type":"html-button-response","trial_index":4,"plugin_version":"2.1.0","time_elapsed":314913,"subject_id":"88856","group":"Group1","full_date":"2025-12-06T02:13:11.024Z","date":"2025-12-06","time":"02:13:11"},{"rt":null,"stimulus":"<p style=\"font-size: 50px; margin: 0; text-align: center;\">+</p>","response":null,"trial_type":"html-keyboard-response","trial_index":5,"plugin_version":"2.1.0","time_elapsed":315860,"subject_id":"88856","group":"Group1","full_date":"2025-12-06T02:13:11.024Z","date":"2025-12-06","time":"02:13:11"},{"task":"memory_phase","broad_category":"I","image_png":"I_Pegmatite_16.png","image_id":112,"category_name":"Pegmatite","category":7,"distinct_rating":7.03,"distinct_type":"Top","rt":null,"stimulus":"Stimuli_Rocks480/I_Pegmatite_16.png","response":null,"trial_type":"image-keyboard-response","trial_index":6,"plugin_version":"2.1.0","time_elapsed":318380,"subject_id":"88856","group":"Group1","full_date":"2025-12-06T02:13:11.024Z","date":"2025-12-06","time":"02:13:11"},{"rt":null,"stimulus":"<p style=\"font-size: 50px; margin: 0; text-align: center;\">+</p>","response":null,"trial_type":"html-keyboard-response","trial_index":7,"plugin_version":"2.1.0","time_elapsed":319383,"subject_id":"88856","group":"Group1","full_date":"2025-12-06T02:13:11.024Z","date":"2025-12-06","time":"02:13:11"},{"task":"memory_phase","broad_category":"I","image_png":"I_Gabbro_16.png","image_id":64,"category_name":"Gabbro","category":4,"distinct_rating":2.52,"distinct_type":"Bottom","rt":null,"stimulus":"Stimuli_Rocks480/I_Gabbro_16.png","response":null,"trial_type":"image-keyboard-response","trial_index":8,"plugin_version":"2.1.0","time_elapsed":321899,"subject_id":"88856","group":"Group1","full_date":"2025-12-06T02:13:11.024Z","date":"2025-12-06","time":"02:13:11"},{"rt":null,"stimulus":"<p style=\"font-size: 50px; margin: 0; text-align: center;\">+</p>","response":null,"trial_type":"html-keyboard-response","trial_index":9,"plugin_version":"2.1.0","time_elapsed":322901,"subject_id":"88856","group":"Group1","full_date":"2025-12-06T02:13:11.024Z","date":"2025-12-06","time":"02:13:11"},{"task":"memory_phase","broad_category":"S","image_png":"S_Sandstone_16.png","image_id":464,"category_name":"Sandstone","category":29,"distinct_rating":1.93,"distinct_type":"Bottom","rt":null,"stimulus":"Stimuli_Rocks480/S_Sandstone_16.png","response":null,"trial_type":"image-keyboard-response","trial_index":10,"plugin_version":"2.1.0","time_elapsed":325415,"subject_id":"88856","group":"Group1","full_date":"2025-12-06T02:13:11.024Z","date":"2025-12-06","time":"02:13:11"},{"rt":null,"stimulus":"<p style=\"font-size: 50px; margin: 0; text-align: center;\">+</p>","response":null,"trial_type":"html-keyboard-response","trial_index":11,"plugin_version":"2.1.0","time_elapsed":326418,"subject_id":"88856","group":"Group1","full_date":"2025-12-06T02:13:11.024Z","date":"2025-12-06","time":"02:13:11"},{"task":"memory_phase","broad_category":"S","image_png":"S_Sandstone_15.png","image_id":463,"category_name":"Sandstone","category":29,"distinct_rating":2,"distinct_type":"Bottom","rt":null,"stimulus":"Stimuli_Rocks480/S_Sandstone_15.png","response":null,"trial_type":"image-keyboard-response","trial_index":12,"plugin_version":"2.1.0","time_elapsed":328936,"subject_id":"88856","group":"Group1","full_date":"2025-12-06T02:13:11.024Z","date":"2025-12-06","time":"02:13:11"},{"rt":null,"stimulus":"<p style=\"font-size: 50px; margin: 0; text-align: center;\">+</p>","response":null,"trial_type":"html-keyboard-response","trial_index":13,"plugin_version":"2.1.0","time_elapsed":329938,"subject_id":"88856","group":"Group1","full_date":"2025-12-06T02:13:11.024Z","date":"2025-12-06","time":"02:13:11"},{"task":"memory_phase","broad_category":"M","image_png":"M_Gneiss_13.png","image_id":205,"category_name":"Gneiss","category":13,"distinct_rating":3.26,"distinct_type":"Bottom","rt":null,"stimulus":"Stimuli_Rocks480/M_Gneiss_13.png","response":null,"trial_type":"image-keyboard-response","trial_index":14,"plugin_version":"2.1.0","time_elapsed":332451,"subject_id":"88856","group":"Group1","full_date":"2025-12-06T02:13:11.024Z","date":"2025-12-06","time":"02:13:11"},{"rt":null,"stimulus":"<p style=\"font-size: 50px; margin: 0; text-align: center;\">+</p>","response":null,"trial_type":"html-keyboard-response","trial_index":15,"plugin_version":"2.1.0","time_elapsed":333468,"subject_id":"88856","group":"Group1","full_date":"2025-12-06T02:13:11.024Z","date":"2025-12-06","time":"02:13:11"},{"task":"memory_phase","broad_category":"I","image_png":"I_Andesite_06.png","image_id":6,"category_name":"Andesite","category":1,"distinct_rating":3.17,"distinct_type":"Bottom","rt":null,"stimulus":"Stimuli_Rocks480/I_Andesite_06.png","response":null,"trial_type":"image-keyboard-response","trial_index":16,"plugin_version":"2.1.0","time_elapsed":335989,"subject_id":"88856","group":"Group1","full_date":"2025-12-06T02:13:11.024Z","date":"2025-12-06","time":"02:13:11"},{"rt":null,"stimulus":"<p style=\"font-size: 50px; margin: 0; text-align: center;\">+</p>","response":null,"trial_type":"html-keyboard-response","trial_index":17,"plugin_version":"2.1.0","time_elapsed":337009,"subject_id":"88856","group":"Group1","full_date":"2025-12-06T02:13:11.024Z","date":"2025-12-06","time":"02:13:11"},{"task":"memory_phase","broad_category":"S","image_png":"S_Sandstone_03.png","image_id":451,"category_name":"Sandstone","category":29,"distinct_rating":1.86,"distinct_type":"Bottom","rt":null,"stimulus":"Stimuli_Rocks480/S_Sandstone_03.png","response":null,"trial_type":"image-keyboard-response","trial_index":18,"plugin_version":"2.1.0","time_elapsed":339529,"subject_id":"88856","group":"Group1","full_date":"2025-12-06T02:13:11.024Z","date":"2025-12-06","time":"02:13:11"},{"rt":null,"stimulus":"<p style=\"font-size: 50px; margin: 0; text-align: center;\">+</p>","response":null,"trial_type":"html-keyboard-response","trial_index":19,"plugin_version":"2.1.0","time_elapsed":340549,"subject_id":"88856","group":"Group1","full_date":"2025-12-06T02:13:11.024Z","date":"2025-12-06","time":"02:13:11"},{"task":"memory_phase","broad_category":"S","image_png":"S_Breccia_11.png","image_id":347,"category_name":"Breccia","category":22,"distinct_rating":6.7,"distinct_type":"Top","rt":null,"stimulus":"Stimuli_Rocks480/S_Breccia_11.png","response":null,"trial_type":"image-keyboard-response","trial_index":20,"plugin_version":"2.1.0","time_elapsed":343099,"subject_id":"88856","group":"Group1","full_date":"2025-12-06T02:13:11.024Z","date":"2025-12-06","time":"02:13:11"},{"rt":null,"stimulus":"<p style=\"font-size: 50px; margin: 0; text-align: center;\">+</p>","response":null,"trial_type":"html-keyboard-response","trial_index":21,"plugin_version":"2.1.0","time_elapsed":344118,"subject_id":"88856","group":"Group1","full_date":"2025-12-06T02:13:11.024Z","date":"2025-12-06","time":"02:13:11"},{"task":"memory_phase","broad_category":"S","image_png":"S_Conglomerate_05.png","image_id":373,"category_name":"Conglomerate","category":24,"distinct_rating":7.32,"distinct_type":"Top","rt":null,"stimulus":"Stimuli_Rocks480/S_Conglomerate_05.png","response":null,"trial_type":"image-keyboard-response","trial_index":22,"plugin_version":"2.1.0","time_elapsed":346639,"subject_id":"88856","group":"Group1","full_date":"2025-12-06T02:13:11.024Z","date":"2025-12-06","time":"02:13:11"},{"rt":null,"stimulus":"<p style=\"font-size: 50px; margin: 0; text-align: center;\">+</p>","response":null,"trial_type":"html-keyboard-response","trial_index":23,"plugin_version":"2.1.0","time_elapsed":347659,"subject_id":"88856","group":"Group1","full_date":"2025-12-06T02:13:11.024Z","date":"2025-12-06","time":"02:13:11"},{"task":"memory_phase","broad_category":"I","image_png":"I_Basalt_01.png","image_id":17,"category_name":"Basalt","category":2,"distinct_rating":1.92,"distinct_type":"Bottom","rt":null,"stimulus":"Stimuli_Rocks480/I_Basalt_01.png","response":null,"trial_type":"image-keyboard-response","trial_index":24,"plugin_version":"2.1.0","time_elapsed":350179,"subject_id":"88856","group":"Group1","full_date":"2025-12-06T02:13:11.024Z","date":"2025-12-06","time":"02:13:11"},{"rt":null,"stimulus":"<p style=\"font-size: 50px; margin: 0; text-align: center;\">+</p>","response":null,"trial_type":"html-keyboard-response","trial_index":25,"plugin_version":"2.1.0","time_elapsed":351199,"subject_id":"88856","group":"Group1","full_date":"2025-12-06T02:13:11.024Z","date":"2025-12-06","time":"02:13:11"},{"task":"memory_phase","broad_category":"S","image_png":"S_Shale_08.png","image_id":472,"category_name":"Shale","category":30,"distinct_rating":2.55,"distinct_type":"Bottom","rt":null,"stimulus":"Stimuli_Rocks480/S_Shale_08.png","response":null,"trial_type":"image-keyboard-response","trial_index":26,"plugin_version":"2.1.0","time_elapsed":353718,"subject_id":"88856","group":"Group1","full_date":"2025-12-06T02:13:11.024Z","date":"2025-12-06","time":"02:13:11"},{"rt":null,"stimulus":"<p style=\"font-size: 50px; margin: 0; text-align: center;\">+</p>","response":null,"trial_type":"html-keyboard-response","trial_index":27,"plugin_version":"2.1.0","time_elapsed":354739,"subject_id":"88856","group":"Group1","full_date":"2025-12-06T02:13:11.024Z","date":"2025-12-06","time":"02:13:11"},{"task":"memory_phase","broad_category":"I","image_png":"I_Gabbro_11.png","image_id":59,"category_name":"Gabbro","category":4,"distinct_rating":1.99,"distinct_type":"Bottom","rt":null,"stimulus":"Stimuli_Rocks480/I_Gabbro_11.png","response":null,"trial_type":"image-keyboard-response","trial_index":28,"plugin_version":"2.1.0","time_elapsed":357259,"subject_id":"88856","group":"Group1","full_date":"2025-12-06T02:13:11.024Z","date":"2025-12-06","time":"02:13:11"},{"rt":null,"stimulus":"<p style=\"font-size: 50px; margin: 0; text-align: center;\">+</p>","response":null,"trial_type":"html-keyboard-response","trial_index":29,"plugin_version":"2.1.0","time_elapsed":358279,"subject_id":"88856","group":"Group1","full_date":"2025-12-06T02:13:11.024Z","date":"2025-12-06","time":"02:13:11"},{"task":"memory_phase","broad_category":"M","image_png":"M_Gneiss_05.png","image_id":197,"category_name":"Gneiss","category":13,"distinct_rating":2.97,"distinct_type":"Bottom","rt":null,"stimulus":"Stimuli_Rocks480/M_Gneiss_05.png","response":null,"trial_type":"image-keyboard-response","trial_index":30,"plugin_version":"2.1.0","time_elapsed":360829,"subject_id":"88856","group":"Group1","full_date":"2025-12-06T02:13:11.024Z","date":"2025-12-06","time":"02:13:11"},{"rt":null,"stimulus":"<p style=\"font-size: 50px; margin: 0; text-align: center;\">+</p>","response":null,"trial_type":"html-keyboard-response","trial_index":31,"plugin_version":"2.1.0","time_elapsed":361849,"subject_id":"88856","group":"Group1","full_date":"2025-12-06T02:13:11.024Z","date":"2025-12-06","time":"02:13:11"},{"task":"memory_phase","broad_category":"I","image_png":"I_Rhyolite_11.png","image_id":155,"category_name":"Rhyolite","category":10,"distinct_rating":1.73,"distinct_type":"Bottom","rt":null,"stimulus":"Stimuli_Rocks480/I_Rhyolite_11.png","response":null,"trial_type":"image-keyboard-response","trial_index":32,"plugin_version":"2.1.0","time_elapsed":364368,"subject_id":"88856","group":"Group1","full_date":"2025-12-06T02:13:11.024Z","date":"2025-12-06","time":"02:13:11"},{"rt":null,"stimulus":"<p style=\"font-size: 50px; margin: 0; text-align: center;\">+</p>","response":null,"trial_type":"html-keyboard-response","trial_index":33,"plugin_version":"2.1.0","time_elapsed":365389,"subject_id":"88856","group":"Group1","full_date":"2025-12-06T02:13:11.024Z","date":"2025-12-06","time":"02:13:11"},{"task":"memory_phase","broad_category":"M","image_png":"M_Quartzite_13.png","image_id":285,"category_name":"Quartzite","category":18,"distinct_rating":2.27,"distinct_type":"Bottom","rt":null,"stimulus":"Stimuli_Rocks480/M_Quartzite_13.png","response":null,"trial_type":"image-keyboard-response","trial_index":34,"plugin_version":"2.1.0","time_elapsed":367939,"subject_id":"88856","group":"Group1","full_date":"2025-12-06T02:13:11.024Z","date":"2025-12-06","time":"02:13:11"},{"rt":null,"stimulus":"<p style=\"font-size: 50px; margin: 0; text-align: center;\">+</p>","response":null,"trial_type":"html-keyboard-response","trial_index":35,"plugin_version":"2.1.0","time_elapsed":368958,"subject_id":"88856","group":"Group1","full_date":"2025-12-06T02:13:11.024Z","date":"2025-12-06","time":"02:13:11"},{"task":"memory_phase","broad_category":"M","image_png":"M_Quartzite_05.png","image_id":277,"category_name":"Quartzite","category":18,"distinct_rating":2.23,"distinct_type":"Bottom","rt":null,"stimulus":"Stimuli_Rocks480/M_Quartzite_05.png","response":null,"trial_type":"image-keyboard-response","trial_index":36,"plugin_version":"2.1.0","time_elapsed":371508,"subject_id":"88856","group":"Group1","full_date":"2025-12-06T02:13:11.024Z","date":"2025-12-06","time":"02:13:11"},{"rt":null,"stimulus":"<p style=\"font-size: 50px; margin: 0; text-align: center;\">+</p>","response":null,"trial_type":"html-keyboard-response","trial_index":37,"plugin_version":"2.1.0","time_elapsed":372528,"subject_id":"88856","group":"Group1","full_date":"2025-12-06T02:13:11.024Z","date":"2025-12-06","time":"02:13:11"},{"task":"memory_phase","broad_category":"I","image_png":"I_Rhyolite_14.png","image_id":158,"category_name":"Rhyolite","category":10,"distinct_rating":2.59,"distinct_type":"Bottom","rt":null,"stimulus":"Stimuli_Rocks480/I_Rhyolite_14.png","response":null,"trial_type":"image-keyboard-response","trial_index":38,"plugin_version":"2.1.0","time_elapsed":375049,"subject_id":"88856","group":"Group1","full_date":"2025-12-06T02:13:11.024Z","date":"2025-12-06","time":"02:13:11"},{"rt":null,"stimulus":"<p style=\"font-size: 50px; margin: 0; text-align: center;\">+</p>","response":null,"trial_type":"html-keyboard-response","trial_index":39,"plugin_version":"2.1.0","time_elapsed":376068,"subject_id":"88856","group":"Group1","full_date":"2025-12-06T02:13:11.024Z","date":"2025-12-06","time":"02:13:11"},{"task":"memory_phase","broad_category":"M","image_png":"M_Marble_04.png","image_id":228,"category_name":"Marble","category":15,"distinct_rating":3.15,"distinct_type":"Bottom","rt":null,"stimulus":"Stimuli_Rocks480/M_Marble_04.png","response":null,"trial_type":"image-keyboard-response","trial_index":40,"plugin_version":"2.1.0","time_elapsed":378589,"subject_id":"88856","group":"Group1","full_date":"2025-12-06T02:13:11.024Z","date":"2025-12-06","time":"02:13:11"},{"rt":null,"stimulus":"<p style=\"font-size: 50px; margin: 0; text-align: center;\">+</p>","response":null,"trial_type":"html-keyboard-response","trial_index":41,"plugin_version":"2.1.0","time_elapsed":379608,"subject_id":"88856","group":"Group1","full_date":"2025-12-06T02:13:11.024Z","date":"2025-12-06","time":"02:13:11"},{"task":"memory_phase","broad_category":"I","image_png":"I_Rhyolite_16.png","image_id":160,"category_name":"Rhyolite","category":10,"distinct_rating":2.19,"distinct_type":"Bottom","rt":null,"stimulus":"Stimuli_Rocks480/I_Rhyolite_16.png","response":null,"trial_type":"image-keyboard-response","trial_index":42,"plugin_version":"2.1.0","time_elapsed":382129,"subject_id":"88856","group":"Group1","full_date":"2025-12-06T02:13:11.024Z","date":"2025-12-06","time":"02:13:11"},{"rt":null,"stimulus":"<p style=\"font-size: 50px; margin: 0; text-align: center;\">+</p>","response":null,"trial_type":"html-keyboard-response","trial_index":43,"plugin_version":"2.1.0","time_elapsed":383148,"subject_id":"88856","group":"Group1","full_date":"2025-12-06T02:13:11.024Z","date":"2025-12-06","time":"02:13:11"},{"task":"memory_phase","broad_category":"S","image_png":"S_Dolomite_12.png","image_id":396,"category_name":"Dolomite","category":25,"distinct_rating":1.85,"distinct_type":"Bottom","rt":null,"stimulus":"Stimuli_Rocks480/S_Dolomite_12.png","response":null,"trial_type":"image-keyboard-response","trial_index":44,"plugin_version":"2.1.0","time_elapsed":385668,"subject_id":"88856","group":"Group1","full_date":"2025-12-06T02:13:11.024Z","date":"2025-12-06","time":"02:13:11"},{"rt":null,"stimulus":"<p style=\"font-size: 50px; margin: 0; text-align: center;\">+</p>","response":null,"trial_type":"html-keyboard-response","trial_index":45,"plugin_version":"2.1.0","time_elapsed":386688,"subject_id":"88856","group":"Group1","full_date":"2025-12-06T02:13:11.024Z","date":"2025-12-06","time":"02:13:11"},{"task":"memory_phase","broad_category":"I","image_png":"I_Diorite_05.png","image_id":37,"category_name":"Diorite","category":3,"distinct_rating":3.08,"distinct_type":"Bottom","rt":null,"stimulus":"Stimuli_Rocks480/I_Diorite_05.png","response":null,"trial_type":"image-keyboard-response","trial_index":46,"plugin_version":"2.1.0","time_elapsed":389208,"subject_id":"88856","group":"Group1","full_date":"2025-12-06T02:13:11.024Z","date":"2025-12-06","time":"02:13:11"},{"rt":null,"stimulus":"<p style=\"font-size: 50px; margin: 0; text-align: center;\">+</p>","response":null,"trial_type":"html-keyboard-response","trial_index":47,"plugin_version":"2.1.0","time_elapsed":390228,"subject_id":"88856","group":"Group1","full_date":"2025-12-06T02:13:11.024Z","date":"2025-12-06","time":"02:13:11"},{"task":"memory_phase","broad_category":"S","image_png":"S_Shale_01.png","image_id":465,"category_name":"Shale","category":30,"distinct_rating":2.7,"distinct_type":"Bottom","rt":null,"stimulus":"Stimuli_Rocks480/S_Shale_01.png","response":null,"trial_type":"image-keyboard-response","trial_index":48,"plugin_version":"2.1.0","time_elapsed":392748,"subject_id":"88856","group":"Group1","full_date":"2025-12-06T02:13:11.024Z","date":"2025-12-06","time":"02:13:11"},{"rt":null,"stimulus":"<p style=\"font-size: 50px; margin: 0; text-align: center;\">+</p>","response":null,"trial_type":"html-keyboard-response","trial_index":49,"plugin_version":"2.1.0","time_elapsed":393767,"subject_id":"88856","group":"Group1","full_date":"2025-12-06T02:13:11.024Z","date":"2025-12-06","time":"02:13:11"},{"task":"memory_phase","broad_category":"I","image_png":"I_Gabbro_08.png","image_id":56,"category_name":"Gabbro","category":4,"distinct_rating":3.02,"distinct_type":"Bottom","rt":null,"stimulus":"Stimuli_Rocks480/I_Gabbro_08.png","response":null,"trial_type":"image-keyboard-response","trial_index":50,"plugin_version":"2.1.0","time_elapsed":396288,"subject_id":"88856","group":"Group1","full_date":"2025-12-06T02:13:11.024Z","date":"2025-12-06","time":"02:13:11"},{"rt":null,"stimulus":"<p style=\"font-size: 50px; margin: 0; text-align: center;\">+</p>","response":null,"trial_type":"html-keyboard-response","trial_index":51,"plugin_version":"2.1.0","time_elapsed":397308,"subject_id":"88856","group":"Group1","full_date":"2025-12-06T02:13:11.024Z","date":"2025-12-06","time":"02:13:11"},{"task":"memory_phase","broad_category":"I","image_png":"I_Andesite_10.png","image_id":10,"category_name":"Andesite","category":1,"distinct_rating":3.15,"distinct_type":"Bottom","rt":null,"stimulus":"Stimuli_Rocks480/I_Andesite_10.png","response":null,"trial_type":"image-keyboard-response","trial_index":52,"plugin_version":"2.1.0","time_elapsed":399828,"subject_id":"88856","group":"Group1","full_date":"2025-12-06T02:13:11.024Z","date":"2025-12-06","time":"02:13:11"},{"rt":null,"stimulus":"<p style=\"font-size: 50px; margin: 0; text-align: center;\">+</p>","response":null,"trial_type":"html-keyboard-response","trial_index":53,"plugin_version":"2.1.0","time_elapsed":400848,"subject_id":"88856","group":"Group1","full_date":"2025-12-06T02:13:11.024Z","date":"2025-12-06","time":"02:13:11"},{"task":"memory_phase","broad_category":"I","image_png":"I_Pumice_12.png","image_id":140,"category_name":"Pumice","category":9,"distinct_rating":2.97,"distinct_type":"Bottom","rt":null,"stimulus":"Stimuli_Rocks480/I_Pumice_12.png","response":null,"trial_type":"image-keyboard-response","trial_index":54,"plugin_version":"2.1.0","time_elapsed":403368,"subject_id":"88856","group":"Group1","full_date":"2025-12-06T02:13:11.024Z","date":"2025-12-06","time":"02:13:11"},{"rt":2531,"stimulus":"<p style=\"max-width: 760px; margin: auto; font-size: 35px; line-height: 1.5;\">Press SPACE to continue study phase</p>","response":" ","trial_type":"html-keyboard-response","trial_index":55,"plugin_version":"2.1.0","time_elapsed":405902,"subject_id":"88856","group":"Group1","full_date":"2025-12-06T02:13:11.024Z","date":"2025-12-06","time":"02:13:11"},{"rt":null,"stimulus":"<p style=\"font-size: 50px; margin: 0; text-align: center;\">+</p>","response":null,"trial_type":"html-keyboard-response","trial_index":56,"plugin_version":"2.1.0","time_elapsed":406905,"subject_id":"88856","group":"Group1","full_date":"2025-12-06T02:13:11.024Z","date":"2025-12-06","time":"02:13:11"},{"task":"memory_phase","broad_category":"M","image_png":"M_Slate_15.png","image_id":319,"category_name":"Slate","category":20,"distinct_rating":2.13,"distinct_type":"Bottom","rt":null,"stimulus":"Stimuli_Rocks480/M_Slate_15.png","response":null,"trial_type":"image-keyboard-response","trial_index":57,"plugin_version":"2.1.0","time_elapsed":409417,"subject_id":"88856","group":"Group1","full_date":"2025-12-06T02:13:11.024Z","date":"2025-12-06","time":"02:13:11"},{"rt":null,"stimulus":"<p style=\"font-size: 50px; margin: 0; text-align: center;\">+</p>","response":null,"trial_type":"html-keyboard-response","trial_index":58,"plugin_version":"2.1.0","time_elapsed":410420,"subject_id":"88856","group":"Group1","full_date":"2025-12-06T02:13:11.024Z","date":"2025-12-06","time":"02:13:11"},{"task":"memory_phase","broad_category":"S","image_png":"S_Dolomite_14.png","image_id":398,"category_name":"Dolomite","category":25,"distinct_rating":1.43,"distinct_type":"Bottom","rt":null,"stimulus":"Stimuli_Rocks480/S_Dolomite_14.png","response":null,"trial_type":"image-keyboard-response","trial_index":59,"plugin_version":"2.1.0","time_elapsed":412936,"subject_id":"88856","group":"Group1","full_date":"2025-12-06T02:13:11.024Z","date":"2025-12-06","time":"02:13:11"},{"rt":null,"stimulus":"<p style=\"font-size: 50px; margin: 0; text-align: center;\">+</p>","response":null,"trial_type":"html-keyboard-response","trial_index":60,"plugin_version":"2.1.0","time_elapsed":413939,"subject_id":"88856","group":"Group1","full_date":"2025-12-06T02:13:11.024Z","date":"2025-12-06","time":"02:13:11"},{"task":"memory_phase","broad_category":"S","image_png":"S_Chert_10.png","image_id":362,"category_name":"Chert","category":23,"distinct_rating":7.17,"distinct_type":"Top","rt":null,"stimulus":"Stimuli_Rocks480/S_Chert_10.png","response":null,"trial_type":"image-keyboard-response","trial_index":61,"plugin_version":"2.1.0","time_elapsed":416454,"subject_id":"88856","group":"Group1","full_date":"2025-12-06T02:13:11.024Z","date":"2025-12-06","time":"02:13:11"},{"rt":null,"stimulus":"<p style=\"font-size: 50px; margin: 0; text-align: center;\">+</p>","response":null,"trial_type":"html-keyboard-response","trial_index":62,"plugin_version":"2.1.0","time_elapsed":417457,"subject_id":"88856","group":"Group1","full_date":"2025-12-06T02:13:11.024Z","date":"2025-12-06","time":"02:13:11"},{"task":"memory_phase","broad_category":"I","image_png":"I_Obsidian_05.png","image_id":85,"category_name":"Obsidian","category":6,"distinct_rating":7.32,"distinct_type":"Top","rt":null,"stimulus":"Stimuli_Rocks480/I_Obsidian_05.png","response":null,"trial_type":"image-keyboard-response","trial_index":63,"plugin_version":"2.1.0","time_elapsed":419974,"subject_id":"88856","group":"Group1","full_date":"2025-12-06T02:13:11.024Z","date":"2025-12-06","time":"02:13:11"},{"rt":null,"stimulus":"<p style=\"font-size: 50px; margin: 0; text-align: center;\">+</p>","response":null,"trial_type":"html-keyboard-response","trial_index":64,"plugin_version":"2.1.0","time_elapsed":420977,"subject_id":"88856","group":"Group1","full_date":"2025-12-06T02:13:11.024Z","date":"2025-12-06","time":"02:13:11"},{"task":"memory_phase","broad_category":"S","image_png":"S_Dolomite_13.png","image_id":397,"category_name":"Dolomite","category":25,"distinct_rating":1.77,"distinct_type":"Bottom","rt":null,"stimulus":"Stimuli_Rocks480/S_Dolomite_13.png","response":null,"trial_type":"image-keyboard-response","trial_index":65,"plugin_version":"2.1.0","time_elapsed":423493,"subject_id":"88856","group":"Group1","full_date":"2025-12-06T02:13:11.024Z","date":"2025-12-06","time":"02:13:11"},{"rt":null,"stimulus":"<p style=\"font-size: 50px; margin: 0; text-align: center;\">+</p>","response":null,"trial_type":"html-keyboard-response","trial_index":66,"plugin_version":"2.1.0","time_elapsed":424517,"subject_id":"88856","group":"Group1","full_date":"2025-12-06T02:13:11.024Z","date":"2025-12-06","time":"02:13:11"},{"task":"memory_phase","broad_category":"I","image_png":"I_Basalt_09.png","image_id":25,"category_name":"Basalt","category":2,"distinct_rating":1.89,"distinct_type":"Bottom","rt":null,"stimulus":"Stimuli_Rocks480/I_Basalt_09.png","response":null,"trial_type":"image-keyboard-response","trial_index":67,"plugin_version":"2.1.0","time_elapsed":427038,"subject_id":"88856","group":"Group1","full_date":"2025-12-06T02:13:11.024Z","date":"2025-12-06","time":"02:13:11"},{"rt":null,"stimulus":"<p style=\"font-size: 50px; margin: 0; text-align: center;\">+</p>","response":null,"trial_type":"html-keyboard-response","trial_index":68,"plugin_version":"2.1.0","time_elapsed":428058,"subject_id":"88856","group":"Group1","full_date":"2025-12-06T02:13:11.024Z","date":"2025-12-06","time":"02:13:11"},{"task":"memory_phase","broad_category":"M","image_png":"M_Slate_11.png","image_id":315,"category_name":"Slate","category":20,"distinct_rating":2.75,"distinct_type":"Bottom","rt":null,"stimulus":"Stimuli_Rocks480/M_Slate_11.png","response":null,"trial_type":"image-keyboard-response","trial_index":69,"plugin_version":"2.1.0","time_elapsed":430578,"subject_id":"88856","group":"Group1","full_date":"2025-12-06T02:13:11.024Z","date":"2025-12-06","time":"02:13:11"},{"rt":null,"stimulus":"<p style=\"font-size: 50px; margin: 0; text-align: center;\">+</p>","response":null,"trial_type":"html-keyboard-response","trial_index":70,"plugin_version":"2.1.0","time_elapsed":431598,"subject_id":"88856","group":"Group1","full_date":"2025-12-06T02:13:11.024Z","date":"2025-12-06","time":"02:13:11"},{"task":"memory_phase","broad_category":"S","image_png":"S_Rock Salt_01.png","image_id":433,"category_name":"Rock Salt","category":28,"distinct_rating":7.18,"distinct_type":"Top","rt":null,"stimulus":"Stimuli_Rocks480/S_Rock Salt_01.png","response":null,"trial_type":"image-keyboard-response","trial_index":71,"plugin_version":"2.1.0","time_elapsed":434117,"subject_id":"88856","group":"Group1","full_date":"2025-12-06T02:13:11.024Z","date":"2025-12-06","time":"02:13:11"},{"rt":null,"stimulus":"<p style=\"font-size: 50px; margin: 0; text-align: center;\">+</p>","response":null,"trial_type":"html-keyboard-response","trial_index":72,"plugin_version":"2.1.0","time_elapsed":435137,"subject_id":"88856","group":"Group1","full_date":"2025-12-06T02:13:11.024Z","date":"2025-12-06","time":"02:13:11"},{"task":"memory_phase","broad_category":"I","image_png":"I_Andesite_08.png","image_id":8,"category_name":"Andesite","category":1,"distinct_rating":1.95,"distinct_type":"Bottom","rt":null,"stimulus":"Stimuli_Rocks480/I_Andesite_08.png","response":null,"trial_type":"image-keyboard-response","trial_index":73,"plugin_version":"2.1.0","time_elapsed":437657,"subject_id":"88856","group":"Group1","full_date":"2025-12-06T02:13:11.024Z","date":"2025-12-06","time":"02:13:11"},{"rt":null,"stimulus":"<p style=\"font-size: 50px; margin: 0; text-align: center;\">+</p>","response":null,"trial_type":"html-keyboard-response","trial_index":74,"plugin_version":"2.1.0","time_elapsed":438677,"subject_id":"88856","group":"Group1","full_date":"2025-12-06T02:13:11.024Z","date":"2025-12-06","time":"02:13:11"},{"task":"memory_phase","broad_category":"I","image_png":"I_Pumice_11.png","image_id":139,"category_name":"Pumice","category":9,"distinct_rating":1.74,"distinct_type":"Bottom","rt":null,"stimulus":"Stimuli_Rocks480/I_Pumice_11.png","response":null,"trial_type":"image-keyboard-response","trial_index":75,"plugin_version":"2.1.0","time_elapsed":441198,"subject_id":"88856","group":"Group1","full_date":"2025-12-06T02:13:11.024Z","date":"2025-12-06","time":"02:13:11"},{"rt":null,"stimulus":"<p style=\"font-size: 50px; margin: 0; text-align: center;\">+</p>","response":null,"trial_type":"html-keyboard-response","trial_index":76,"plugin_version":"2.1.0","time_elapsed":442217,"subject_id":"88856","group":"Group1","full_date":"2025-12-06T02:13:11.024Z","date":"2025-12-06","time":"02:13:11"},{"task":"memory_phase","broad_category":"S","image_png":"S_Shale_12.png","image_id":476,"category_name":"Shale","category":30,"distinct_rating":2.48,"distinct_type":"Bottom","rt":null,"stimulus":"Stimuli_Rocks480/S_Shale_12.png","response":null,"trial_type":"image-keyboard-response","trial_index":77,"plugin_version":"2.1.0","time_elapsed":444738,"subject_id":"88856","group":"Group1","full_date":"2025-12-06T02:13:11.024Z","date":"2025-12-06","time":"02:13:11"},{"rt":null,"stimulus":"<p style=\"font-size: 50px; margin: 0; text-align: center;\">+</p>","response":null,"trial_type":"html-keyboard-response","trial_index":78,"plugin_version":"2.1.0","time_elapsed":445757,"subject_id":"88856","group":"Group1","full_date":"2025-12-06T02:13:11.024Z","date":"2025-12-06","time":"02:13:11"},{"task":"memory_phase","broad_category":"M","image_png":"M_Phyllite_10.png","image_id":266,"category_name":"Phyllite","category":17,"distinct_rating":2.6,"distinct_type":"Bottom","rt":null,"stimulus":"Stimuli_Rocks480/M_Phyllite_10.png","response":null,"trial_type":"image-keyboard-response","trial_index":79,"plugin_version":"2.1.0","time_elapsed":448277,"subject_id":"88856","group":"Group1","full_date":"2025-12-06T02:13:11.024Z","date":"2025-12-06","time":"02:13:11"},{"rt":null,"stimulus":"<p style=\"font-size: 50px; margin: 0; text-align: center;\">+</p>","response":null,"trial_type":"html-keyboard-response","trial_index":80,"plugin_version":"2.1.0","time_elapsed":449297,"subject_id":"88856","group":"Group1","full_date":"2025-12-06T02:13:11.024Z","date":"2025-12-06","time":"02:13:11"},{"task":"memory_phase","broad_category":"I","image_png":"I_Pegmatite_10.png","image_id":106,"category_name":"Pegmatite","category":7,"distinct_rating":7.66,"distinct_type":"Top","rt":null,"stimulus":"Stimuli_Rocks480/I_Pegmatite_10.png","response":null,"trial_type":"image-keyboard-response","trial_index":81,"plugin_version":"2.1.0","time_elapsed":451817,"subject_id":"88856","group":"Group1","full_date":"2025-12-06T02:13:11.024Z","date":"2025-12-06","time":"02:13:11"},{"rt":null,"stimulus":"<p style=\"font-size: 50px; margin: 0; text-align: center;\">+</p>","response":null,"trial_type":"html-keyboard-response","trial_index":82,"plugin_version":"2.1.0","time_elapsed":452837,"subject_id":"88856","group":"Group1","full_date":"2025-12-06T02:13:11.024Z","date":"2025-12-06","time":"02:13:11"},{"task":"memory_phase","broad_category":"M","image_png":"M_Marble_06.png","image_id":230,"category_name":"Marble","category":15,"distinct_rating":3.4,"distinct_type":"Bottom","rt":null,"stimulus":"Stimuli_Rocks480/M_Marble_06.png","response":null,"trial_type":"image-keyboard-response","trial_index":83,"plugin_version":"2.1.0","time_elapsed":455357,"subject_id":"88856","group":"Group1","full_date":"2025-12-06T02:13:11.024Z","date":"2025-12-06","time":"02:13:11"},{"rt":null,"stimulus":"<p style=\"font-size: 50px; margin: 0; text-align: center;\">+</p>","response":null,"trial_type":"html-keyboard-response","trial_index":84,"plugin_version":"2.1.0","time_elapsed":456377,"subject_id":"88856","group":"Group1","full_date":"2025-12-06T02:13:11.024Z","date":"2025-12-06","time":"02:13:11"},{"task":"memory_phase","broad_category":"M","image_png":"M_Phyllite_03.png","image_id":259,"category_name":"Phyllite","category":17,"distinct_rating":2.5,"distinct_type":"Bottom","rt":null,"stimulus":"Stimuli_Rocks480/M_Phyllite_03.png","response":null,"trial_type":"image-keyboard-response","trial_index":85,"plugin_version":"2.1.0","time_elapsed":458897,"subject_id":"88856","group":"Group1","full_date":"2025-12-06T02:13:11.024Z","date":"2025-12-06","time":"02:13:11"},{"rt":null,"stimulus":"<p style=\"font-size: 50px; margin: 0; text-align: center;\">+</p>","response":null,"trial_type":"html-keyboard-response","trial_index":86,"plugin_version":"2.1.0","time_elapsed":459916,"subject_id":"88856","group":"Group1","full_date":"2025-12-06T02:13:11.024Z","date":"2025-12-06","time":"02:13:11"},{"task":"memory_phase","broad_category":"M","image_png":"M_Phyllite_07.png","image_id":263,"category_name":"Phyllite","category":17,"distinct_rating":2.59,"distinct_type":"Bottom","rt":null,"stimulus":"Stimuli_Rocks480/M_Phyllite_07.png","response":null,"trial_type":"image-keyboard-response","trial_index":87,"plugin_version":"2.1.0","time_elapsed":462437,"subject_id":"88856","group":"Group1","full_date":"2025-12-06T02:13:11.024Z","date":"2025-12-06","time":"02:13:11"},{"rt":null,"stimulus":"<p style=\"font-size: 50px; margin: 0; text-align: center;\">+</p>","response":null,"trial_type":"html-keyboard-response","trial_index":88,"plugin_version":"2.1.0","time_elapsed":463457,"subject_id":"88856","group":"Group1","full_date":"2025-12-06T02:13:11.024Z","date":"2025-12-06","time":"02:13:11"},{"task":"memory_phase","broad_category":"S","image_png":"S_Rock Gypsum_04.png","image_id":420,"category_name":"Rock Gypsum","category":27,"distinct_rating":7.61,"distinct_type":"Top","rt":null,"stimulus":"Stimuli_Rocks480/S_Rock Gypsum_04.png","response":null,"trial_type":"image-keyboard-response","trial_index":89,"plugin_version":"2.1.0","time_elapsed":465977,"subject_id":"88856","group":"Group1","full_date":"2025-12-06T02:13:11.024Z","date":"2025-12-06","time":"02:13:11"},{"rt":null,"stimulus":"<p style=\"font-size: 50px; margin: 0; text-align: center;\">+</p>","response":null,"trial_type":"html-keyboard-response","trial_index":90,"plugin_version":"2.1.0","time_elapsed":466996,"subject_id":"88856","group":"Group1","full_date":"2025-12-06T02:13:11.024Z","date":"2025-12-06","time":"02:13:11"},{"task":"memory_phase","broad_category":"I","image_png":"I_Diorite_03.png","image_id":35,"category_name":"Diorite","category":3,"distinct_rating":3.14,"distinct_type":"Bottom","rt":null,"stimulus":"Stimuli_Rocks480/I_Diorite_03.png","response":null,"trial_type":"image-keyboard-response","trial_index":91,"plugin_version":"2.1.0","time_elapsed":469516,"subject_id":"88856","group":"Group1","full_date":"2025-12-06T02:13:11.024Z","date":"2025-12-06","time":"02:13:11"},{"rt":null,"stimulus":"<p style=\"font-size: 50px; margin: 0; text-align: center;\">+</p>","response":null,"trial_type":"html-keyboard-response","trial_index":92,"plugin_version":"2.1.0","time_elapsed":470537,"subject_id":"88856","group":"Group1","full_date":"2025-12-06T02:13:11.024Z","date":"2025-12-06","time":"02:13:11"},{"task":"memory_phase","broad_category":"I","image_png":"I_Pumice_08.png","image_id":136,"category_name":"Pumice","category":9,"distinct_rating":3.1,"distinct_type":"Bottom","rt":null,"stimulus":"Stimuli_Rocks480/I_Pumice_08.png","response":null,"trial_type":"image-keyboard-response","trial_index":93,"plugin_version":"2.1.0","time_elapsed":473057,"subject_id":"88856","group":"Group1","full_date":"2025-12-06T02:13:11.024Z","date":"2025-12-06","time":"02:13:11"},{"rt":null,"stimulus":"<p style=\"font-size: 50px; margin: 0; text-align: center;\">+</p>","response":null,"trial_type":"html-keyboard-response","trial_index":94,"plugin_version":"2.1.0","time_elapsed":474077,"subject_id":"88856","group":"Group1","full_date":"2025-12-06T02:13:11.024Z","date":"2025-12-06","time":"02:13:11"},{"task":"memory_phase","broad_category":"M","image_png":"M_Gneiss_06.png","image_id":198,"category_name":"Gneiss","category":13,"distinct_rating":2.65,"distinct_type":"Bottom","rt":null,"stimulus":"Stimuli_Rocks480/M_Gneiss_06.png","response":null,"trial_type":"image-keyboard-response","trial_index":95,"plugin_version":"2.1.0","time_elapsed":476597,"subject_id":"88856","group":"Group1","full_date":"2025-12-06T02:13:11.024Z","date":"2025-12-06","time":"02:13:11"},{"rt":null,"stimulus":"<p style=\"font-size: 50px; margin: 0; text-align: center;\">+</p>","response":null,"trial_type":"html-keyboard-response","trial_index":96,"plugin_version":"2.1.0","time_elapsed":477616,"subject_id":"88856","group":"Group1","full_date":"2025-12-06T02:13:11.024Z","date":"2025-12-06","time":"02:13:11"},{"task":"memory_phase","broad_category":"I","image_png":"I_Diorite_04.png","image_id":36,"category_name":"Diorite","category":3,"distinct_rating":2.98,"distinct_type":"Bottom","rt":null,"stimulus":"Stimuli_Rocks480/I_Diorite_04.png","response":null,"trial_type":"image-keyboard-response","trial_index":97,"plugin_version":"2.1.0","time_elapsed":480137,"subject_id":"88856","group":"Group1","full_date":"2025-12-06T02:13:11.024Z","date":"2025-12-06","time":"02:13:11"},{"rt":null,"stimulus":"<p style=\"font-size: 50px; margin: 0; text-align: center;\">+</p>","response":null,"trial_type":"html-keyboard-response","trial_index":98,"plugin_version":"2.1.0","time_elapsed":481156,"subject_id":"88856","group":"Group1","full_date":"2025-12-06T02:13:11.024Z","date":"2025-12-06","time":"02:13:11"},{"task":"memory_phase","broad_category":"M","image_png":"M_Slate_03.png","image_id":307,"category_name":"Slate","category":20,"distinct_rating":1.87,"distinct_type":"Bottom","rt":null,"stimulus":"Stimuli_Rocks480/M_Slate_03.png","response":null,"trial_type":"image-keyboard-response","trial_index":99,"plugin_version":"2.1.0","time_elapsed":483677,"subject_id":"88856","group":"Group1","full_date":"2025-12-06T02:13:11.024Z","date":"2025-12-06","time":"02:13:11"},{"rt":null,"stimulus":"<p style=\"font-size: 50px; margin: 0; text-align: center;\">+</p>","response":null,"trial_type":"html-keyboard-response","trial_index":100,"plugin_version":"2.1.0","time_elapsed":484697,"subject_id":"88856","group":"Group1","full_date":"2025-12-06T02:13:11.024Z","date":"2025-12-06","time":"02:13:11"},{"task":"memory_phase","broad_category":"I","image_png":"I_Basalt_02.png","image_id":18,"category_name":"Basalt","category":2,"distinct_rating":1.84,"distinct_type":"Bottom","rt":null,"stimulus":"Stimuli_Rocks480/I_Basalt_02.png","response":null,"trial_type":"image-keyboard-response","trial_index":101,"plugin_version":"2.1.0","time_elapsed":487216,"subject_id":"88856","group":"Group1","full_date":"2025-12-06T02:13:11.024Z","date":"2025-12-06","time":"02:13:11"},{"rt":null,"stimulus":"<p style=\"font-size: 50px; margin: 0; text-align: center;\">+</p>","response":null,"trial_type":"html-keyboard-response","trial_index":102,"plugin_version":"2.1.0","time_elapsed":488237,"subject_id":"88856","group":"Group1","full_date":"2025-12-06T02:13:11.024Z","date":"2025-12-06","time":"02:13:11"},{"task":"memory_phase","broad_category":"M","image_png":"M_Quartzite_08.png","image_id":280,"category_name":"Quartzite","category":18,"distinct_rating":2.15,"distinct_type":"Bottom","rt":null,"stimulus":"Stimuli_Rocks480/M_Quartzite_08.png","response":null,"trial_type":"image-keyboard-response","trial_index":103,"plugin_version":"2.1.0","time_elapsed":490757,"subject_id":"88856","group":"Group1","full_date":"2025-12-06T02:13:11.024Z","date":"2025-12-06","time":"02:13:11"},{"rt":null,"stimulus":"<p style=\"font-size: 50px; margin: 0; text-align: center;\">+</p>","response":null,"trial_type":"html-keyboard-response","trial_index":104,"plugin_version":"2.1.0","time_elapsed":491777,"subject_id":"88856","group":"Group1","full_date":"2025-12-06T02:13:11.024Z","date":"2025-12-06","time":"02:13:11"},{"task":"memory_phase","broad_category":"M","image_png":"M_Marble_16.png","image_id":240,"category_name":"Marble","category":15,"distinct_rating":2.57,"distinct_type":"Bottom","rt":null,"stimulus":"Stimuli_Rocks480/M_Marble_16.png","response":null,"trial_type":"image-keyboard-response","trial_index":105,"plugin_version":"2.1.0","time_elapsed":494298,"subject_id":"88856","group":"Group1","full_date":"2025-12-06T02:13:11.024Z","date":"2025-12-06","time":"02:13:11"},{"rt":17096,"stimulus":"<p style=\"max-width: 760px; margin: auto; font-size: 35px; line-height: 1.5;\">You have completed 1 study phase. Now, we'll show you all the images again 2 more times.<br><br>Press SPACE to continue</p>","response":" ","trial_type":"html-keyboard-response","trial_index":106,"plugin_version":"2.1.0","time_elapsed":511395,"subject_id":"88856","group":"Group1","full_date":"2025-12-06T02:13:11.024Z","date":"2025-12-06","time":"02:13:11"},{"rt":null,"stimulus":"<p style=\"font-size: 50px; margin: 0; text-align: center;\">+</p>","response":null,"trial_type":"html-keyboard-response","trial_index":107,"plugin_version":"2.1.0","time_elapsed":512398,"subject_id":"88856","group":"Group1","full_date":"2025-12-06T02:13:11.024Z","date":"2025-12-06","time":"02:13:11"},{"task":"memory_phase","broad_category":"S","image_png":"S_Dolomite_14.png","image_id":398,"category_name":"Dolomite","category":25,"distinct_rating":1.43,"distinct_type":"Bottom","rt":null,"stimulus":"Stimuli_Rocks480/S_Dolomite_14.png","response":null,"trial_type":"image-keyboard-response","trial_index":108,"plugin_version":"2.1.0","time_elapsed":514901,"subject_id":"88856","group":"Group1","full_date":"2025-12-06T02:13:11.024Z","date":"2025-12-06","time":"02:13:11"},{"rt":null,"stimulus":"<p style=\"font-size: 50px; margin: 0; text-align: center;\">+</p>","response":null,"trial_type":"html-keyboard-response","trial_index":109,"plugin_version":"2.1.0","time_elapsed":515904,"subject_id":"88856","group":"Group1","full_date":"2025-12-06T02:13:11.024Z","date":"2025-12-06","time":"02:13:11"},{"task":"memory_phase","broad_category":"I","image_png":"I_Basalt_09.png","image_id":25,"category_name":"Basalt","category":2,"distinct_rating":1.89,"distinct_type":"Bottom","rt":null,"stimulus":"Stimuli_Rocks480/I_Basalt_09.png","response":null,"trial_type":"image-keyboard-response","trial_index":110,"plugin_version":"2.1.0","time_elapsed":518406,"subject_id":"88856","group":"Group1","full_date":"2025-12-06T02:13:11.024Z","date":"2025-12-06","time":"02:13:11"},{"rt":null,"stimulus":"<p style=\"font-size: 50px; margin: 0; text-align: center;\">+</p>","response":null,"trial_type":"html-keyboard-response","trial_index":111,"plugin_version":"2.1.0","time_elapsed":519409,"subject_id":"88856","group":"Group1","full_date":"2025-12-06T02:13:11.024Z","date":"2025-12-06","time":"02:13:11"},{"task":"memory_phase","broad_category":"M","image_png":"M_Phyllite_07.png","image_id":263,"category_name":"Phyllite","category":17,"distinct_rating":2.59,"distinct_type":"Bottom","rt":null,"stimulus":"Stimuli_Rocks480/M_Phyllite_07.png","response":null,"trial_type":"image-keyboard-response","trial_index":112,"plugin_version":"2.1.0","time_elapsed":521912,"subject_id":"88856","group":"Group1","full_date":"2025-12-06T02:13:11.024Z","date":"2025-12-06","time":"02:13:11"},{"rt":null,"stimulus":"<p style=\"font-size: 50px; margin: 0; text-align: center;\">+</p>","response":null,"trial_type":"html-keyboard-response","trial_index":113,"plugin_version":"2.1.0","time_elapsed":522914,"subject_id":"88856","group":"Group1","full_date":"2025-12-06T02:13:11.024Z","date":"2025-12-06","time":"02:13:11"},{"task":"memory_phase","broad_category":"I","image_png":"I_Obsidian_05.png","image_id":85,"category_name":"Obsidian","category":6,"distinct_rating":7.32,"distinct_type":"Top","rt":null,"stimulus":"Stimuli_Rocks480/I_Obsidian_05.png","response":null,"trial_type":"image-keyboard-response","trial_index":114,"plugin_version":"2.1.0","time_elapsed":525417,"subject_id":"88856","group":"Group1","full_date":"2025-12-06T02:13:11.024Z","date":"2025-12-06","time":"02:13:11"},{"rt":null,"stimulus":"<p style=\"font-size: 50px; margin: 0; text-align: center;\">+</p>","response":null,"trial_type":"html-keyboard-response","trial_index":115,"plugin_version":"2.1.0","time_elapsed":526420,"subject_id":"88856","group":"Group1","full_date":"2025-12-06T02:13:11.024Z","date":"2025-12-06","time":"02:13:11"},{"task":"memory_phase","broad_category":"M","image_png":"M_Quartzite_08.png","image_id":280,"category_name":"Quartzite","category":18,"distinct_rating":2.15,"distinct_type":"Bottom","rt":null,"stimulus":"Stimuli_Rocks480/M_Quartzite_08.png","response":null,"trial_type":"image-keyboard-response","trial_index":116,"plugin_version":"2.1.0","time_elapsed":528923,"subject_id":"88856","group":"Group1","full_date":"2025-12-06T02:13:11.024Z","date":"2025-12-06","time":"02:13:11"},{"rt":null,"stimulus":"<p style=\"font-size: 50px; margin: 0; text-align: center;\">+</p>","response":null,"trial_type":"html-keyboard-response","trial_index":117,"plugin_version":"2.1.0","time_elapsed":529936,"subject_id":"88856","group":"Group1","full_date":"2025-12-06T02:13:11.024Z","date":"2025-12-06","time":"02:13:11"},{"task":"memory_phase","broad_category":"S","image_png":"S_Shale_08.png","image_id":472,"category_name":"Shale","category":30,"distinct_rating":2.55,"distinct_type":"Bottom","rt":null,"stimulus":"Stimuli_Rocks480/S_Shale_08.png","response":null,"trial_type":"image-keyboard-response","trial_index":118,"plugin_version":"2.1.0","time_elapsed":532456,"subject_id":"88856","group":"Group1","full_date":"2025-12-06T02:13:11.024Z","date":"2025-12-06","time":"02:13:11"},{"rt":null,"stimulus":"<p style=\"font-size: 50px; margin: 0; text-align: center;\">+</p>","response":null,"trial_type":"html-keyboard-response","trial_index":119,"plugin_version":"2.1.0","time_elapsed":533476,"subject_id":"88856","group":"Group1","full_date":"2025-12-06T02:13:11.024Z","date":"2025-12-06","time":"02:13:11"},{"task":"memory_phase","broad_category":"S","image_png":"S_Sandstone_15.png","image_id":463,"category_name":"Sandstone","category":29,"distinct_rating":2,"distinct_type":"Bottom","rt":null,"stimulus":"Stimuli_Rocks480/S_Sandstone_15.png","response":null,"trial_type":"image-keyboard-response","trial_index":120,"plugin_version":"2.1.0","time_elapsed":535996,"subject_id":"88856","group":"Group1","full_date":"2025-12-06T02:13:11.024Z","date":"2025-12-06","time":"02:13:11"},{"rt":null,"stimulus":"<p style=\"font-size: 50px; margin: 0; text-align: center;\">+</p>","response":null,"trial_type":"html-keyboard-response","trial_index":121,"plugin_version":"2.1.0","time_elapsed":537016,"subject_id":"88856","group":"Group1","full_date":"2025-12-06T02:13:11.024Z","date":"2025-12-06","time":"02:13:11"},{"task":"memory_phase","broad_category":"S","image_png":"S_Rock Salt_01.png","image_id":433,"category_name":"Rock Salt","category":28,"distinct_rating":7.18,"distinct_type":"Top","rt":null,"stimulus":"Stimuli_Rocks480/S_Rock Salt_01.png","response":null,"trial_type":"image-keyboard-response","trial_index":122,"plugin_version":"2.1.0","time_elapsed":539566,"subject_id":"88856","group":"Group1","full_date":"2025-12-06T02:13:11.024Z","date":"2025-12-06","time":"02:13:11"},{"rt":null,"stimulus":"<p style=\"font-size: 50px; margin: 0; text-align: center;\">+</p>","response":null,"trial_type":"html-keyboard-response","trial_index":123,"plugin_version":"2.1.0","time_elapsed":540586,"subject_id":"88856","group":"Group1","full_date":"2025-12-06T02:13:11.024Z","date":"2025-12-06","time":"02:13:11"},{"task":"memory_phase","broad_category":"M","image_png":"M_Slate_03.png","image_id":307,"category_name":"Slate","category":20,"distinct_rating":1.87,"distinct_type":"Bottom","rt":null,"stimulus":"Stimuli_Rocks480/M_Slate_03.png","response":null,"trial_type":"image-keyboard-response","trial_index":124,"plugin_version":"2.1.0","time_elapsed":543106,"subject_id":"88856","group":"Group1","full_date":"2025-12-06T02:13:11.024Z","date":"2025-12-06","time":"02:13:11"},{"rt":null,"stimulus":"<p style=\"font-size: 50px; margin: 0; text-align: center;\">+</p>","response":null,"trial_type":"html-keyboard-response","trial_index":125,"plugin_version":"2.1.0","time_elapsed":544126,"subject_id":"88856","group":"Group1","full_date":"2025-12-06T02:13:11.024Z","date":"2025-12-06","time":"02:13:11"},{"task":"memory_phase","broad_category":"M","image_png":"M_Marble_16.png","image_id":240,"category_name":"Marble","category":15,"distinct_rating":2.57,"distinct_type":"Bottom","rt":null,"stimulus":"Stimuli_Rocks480/M_Marble_16.png","response":null,"trial_type":"image-keyboard-response","trial_index":126,"plugin_version":"2.1.0","time_elapsed":546646,"subject_id":"88856","group":"Group1","full_date":"2025-12-06T02:13:11.024Z","date":"2025-12-06","time":"02:13:11"},{"rt":null,"stimulus":"<p style=\"font-size: 50px; margin: 0; text-align: center;\">+</p>","response":null,"trial_type":"html-keyboard-response","trial_index":127,"plugin_version":"2.1.0","time_elapsed":547666,"subject_id":"88856","group":"Group1","full_date":"2025-12-06T02:13:11.024Z","date":"2025-12-06","time":"02:13:11"},{"task":"memory_phase","broad_category":"M","image_png":"M_Quartzite_05.png","image_id":277,"category_name":"Quartzite","category":18,"distinct_rating":2.23,"distinct_type":"Bottom","rt":null,"stimulus":"Stimuli_Rocks480/M_Quartzite_05.png","response":null,"trial_type":"image-keyboard-response","trial_index":128,"plugin_version":"2.1.0","time_elapsed":550186,"subject_id":"88856","group":"Group1","full_date":"2025-12-06T02:13:11.024Z","date":"2025-12-06","time":"02:13:11"},{"rt":null,"stimulus":"<p style=\"font-size: 50px; margin: 0; text-align: center;\">+</p>","response":null,"trial_type":"html-keyboard-response","trial_index":129,"plugin_version":"2.1.0","time_elapsed":551206,"subject_id":"88856","group":"Group1","full_date":"2025-12-06T02:13:11.024Z","date":"2025-12-06","time":"02:13:11"},{"task":"memory_phase","broad_category":"S","image_png":"S_Dolomite_13.png","image_id":397,"category_name":"Dolomite","category":25,"distinct_rating":1.77,"distinct_type":"Bottom","rt":null,"stimulus":"Stimuli_Rocks480/S_Dolomite_13.png","response":null,"trial_type":"image-keyboard-response","trial_index":130,"plugin_version":"2.1.0","time_elapsed":553726,"subject_id":"88856","group":"Group1","full_date":"2025-12-06T02:13:11.024Z","date":"2025-12-06","time":"02:13:11"},{"rt":null,"stimulus":"<p style=\"font-size: 50px; margin: 0; text-align: center;\">+</p>","response":null,"trial_type":"html-keyboard-response","trial_index":131,"plugin_version":"2.1.0","time_elapsed":554746,"subject_id":"88856","group":"Group1","full_date":"2025-12-06T02:13:11.024Z","date":"2025-12-06","time":"02:13:11"},{"task":"memory_phase","broad_category":"M","image_png":"M_Gneiss_06.png","image_id":198,"category_name":"Gneiss","category":13,"distinct_rating":2.65,"distinct_type":"Bottom","rt":null,"stimulus":"Stimuli_Rocks480/M_Gneiss_06.png","response":null,"trial_type":"image-keyboard-response","trial_index":132,"plugin_version":"2.1.0","time_elapsed":557266,"subject_id":"88856","group":"Group1","full_date":"2025-12-06T02:13:11.024Z","date":"2025-12-06","time":"02:13:11"},{"rt":null,"stimulus":"<p style=\"font-size: 50px; margin: 0; text-align: center;\">+</p>","response":null,"trial_type":"html-keyboard-response","trial_index":133,"plugin_version":"2.1.0","time_elapsed":558285,"subject_id":"88856","group":"Group1","full_date":"2025-12-06T02:13:11.024Z","date":"2025-12-06","time":"02:13:11"},{"task":"memory_phase","broad_category":"S","image_png":"S_Sandstone_16.png","image_id":464,"category_name":"Sandstone","category":29,"distinct_rating":1.93,"distinct_type":"Bottom","rt":null,"stimulus":"Stimuli_Rocks480/S_Sandstone_16.png","response":null,"trial_type":"image-keyboard-response","trial_index":134,"plugin_version":"2.1.0","time_elapsed":560806,"subject_id":"88856","group":"Group1","full_date":"2025-12-06T02:13:11.024Z","date":"2025-12-06","time":"02:13:11"},{"rt":null,"stimulus":"<p style=\"font-size: 50px; margin: 0; text-align: center;\">+</p>","response":null,"trial_type":"html-keyboard-response","trial_index":135,"plugin_version":"2.1.0","time_elapsed":561826,"subject_id":"88856","group":"Group1","full_date":"2025-12-06T02:13:11.024Z","date":"2025-12-06","time":"02:13:11"},{"task":"memory_phase","broad_category":"M","image_png":"M_Phyllite_10.png","image_id":266,"category_name":"Phyllite","category":17,"distinct_rating":2.6,"distinct_type":"Bottom","rt":null,"stimulus":"Stimuli_Rocks480/M_Phyllite_10.png","response":null,"trial_type":"image-keyboard-response","trial_index":136,"plugin_version":"2.1.0","time_elapsed":564346,"subject_id":"88856","group":"Group1","full_date":"2025-12-06T02:13:11.024Z","date":"2025-12-06","time":"02:13:11"},{"rt":null,"stimulus":"<p style=\"font-size: 50px; margin: 0; text-align: center;\">+</p>","response":null,"trial_type":"html-keyboard-response","trial_index":137,"plugin_version":"2.1.0","time_elapsed":565366,"subject_id":"88856","group":"Group1","full_date":"2025-12-06T02:13:11.024Z","date":"2025-12-06","time":"02:13:11"},{"task":"memory_phase","broad_category":"I","image_png":"I_Rhyolite_14.png","image_id":158,"category_name":"Rhyolite","category":10,"distinct_rating":2.59,"distinct_type":"Bottom","rt":null,"stimulus":"Stimuli_Rocks480/I_Rhyolite_14.png","response":null,"trial_type":"image-keyboard-response","trial_index":138,"plugin_version":"2.1.0","time_elapsed":567886,"subject_id":"88856","group":"Group1","full_date":"2025-12-06T02:13:11.024Z","date":"2025-12-06","time":"02:13:11"},{"rt":null,"stimulus":"<p style=\"font-size: 50px; margin: 0; text-align: center;\">+</p>","response":null,"trial_type":"html-keyboard-response","trial_index":139,"plugin_version":"2.1.0","time_elapsed":568906,"subject_id":"88856","group":"Group1","full_date":"2025-12-06T02:13:11.024Z","date":"2025-12-06","time":"02:13:11"},{"task":"memory_phase","broad_category":"M","image_png":"M_Phyllite_03.png","image_id":259,"category_name":"Phyllite","category":17,"distinct_rating":2.5,"distinct_type":"Bottom","rt":null,"stimulus":"Stimuli_Rocks480/M_Phyllite_03.png","response":null,"trial_type":"image-keyboard-response","trial_index":140,"plugin_version":"2.1.0","time_elapsed":571426,"subject_id":"88856","group":"Group1","full_date":"2025-12-06T02:13:11.024Z","date":"2025-12-06","time":"02:13:11"},{"rt":null,"stimulus":"<p style=\"font-size: 50px; margin: 0; text-align: center;\">+</p>","response":null,"trial_type":"html-keyboard-response","trial_index":141,"plugin_version":"2.1.0","time_elapsed":572446,"subject_id":"88856","group":"Group1","full_date":"2025-12-06T02:13:11.024Z","date":"2025-12-06","time":"02:13:11"},{"task":"memory_phase","broad_category":"I","image_png":"I_Andesite_06.png","image_id":6,"category_name":"Andesite","category":1,"distinct_rating":3.17,"distinct_type":"Bottom","rt":null,"stimulus":"Stimuli_Rocks480/I_Andesite_06.png","response":null,"trial_type":"image-keyboard-response","trial_index":142,"plugin_version":"2.1.0","time_elapsed":574966,"subject_id":"88856","group":"Group1","full_date":"2025-12-06T02:13:11.024Z","date":"2025-12-06","time":"02:13:11"},{"rt":null,"stimulus":"<p style=\"font-size: 50px; margin: 0; text-align: center;\">+</p>","response":null,"trial_type":"html-keyboard-response","trial_index":143,"plugin_version":"2.1.0","time_elapsed":575985,"subject_id":"88856","group":"Group1","full_date":"2025-12-06T02:13:11.024Z","date":"2025-12-06","time":"02:13:11"},{"task":"memory_phase","broad_category":"I","image_png":"I_Gabbro_16.png","image_id":64,"category_name":"Gabbro","category":4,"distinct_rating":2.52,"distinct_type":"Bottom","rt":null,"stimulus":"Stimuli_Rocks480/I_Gabbro_16.png","response":null,"trial_type":"image-keyboard-response","trial_index":144,"plugin_version":"2.1.0","time_elapsed":578506,"subject_id":"88856","group":"Group1","full_date":"2025-12-06T02:13:11.024Z","date":"2025-12-06","time":"02:13:11"},{"rt":null,"stimulus":"<p style=\"font-size: 50px; margin: 0; text-align: center;\">+</p>","response":null,"trial_type":"html-keyboard-response","trial_index":145,"plugin_version":"2.1.0","time_elapsed":579525,"subject_id":"88856","group":"Group1","full_date":"2025-12-06T02:13:11.024Z","date":"2025-12-06","time":"02:13:11"},{"task":"memory_phase","broad_category":"I","image_png":"I_Pegmatite_10.png","image_id":106,"category_name":"Pegmatite","category":7,"distinct_rating":7.66,"distinct_type":"Top","rt":null,"stimulus":"Stimuli_Rocks480/I_Pegmatite_10.png","response":null,"trial_type":"image-keyboard-response","trial_index":146,"plugin_version":"2.1.0","time_elapsed":582046,"subject_id":"88856","group":"Group1","full_date":"2025-12-06T02:13:11.024Z","date":"2025-12-06","time":"02:13:11"},{"rt":null,"stimulus":"<p style=\"font-size: 50px; margin: 0; text-align: center;\">+</p>","response":null,"trial_type":"html-keyboard-response","trial_index":147,"plugin_version":"2.1.0","time_elapsed":583065,"subject_id":"88856","group":"Group1","full_date":"2025-12-06T02:13:11.024Z","date":"2025-12-06","time":"02:13:11"},{"task":"memory_phase","broad_category":"M","image_png":"M_Slate_15.png","image_id":319,"category_name":"Slate","category":20,"distinct_rating":2.13,"distinct_type":"Bottom","rt":null,"stimulus":"Stimuli_Rocks480/M_Slate_15.png","response":null,"trial_type":"image-keyboard-response","trial_index":148,"plugin_version":"2.1.0","time_elapsed":585585,"subject_id":"88856","group":"Group1","full_date":"2025-12-06T02:13:11.024Z","date":"2025-12-06","time":"02:13:11"},{"rt":null,"stimulus":"<p style=\"font-size: 50px; margin: 0; text-align: center;\">+</p>","response":null,"trial_type":"html-keyboard-response","trial_index":149,"plugin_version":"2.1.0","time_elapsed":586605,"subject_id":"88856","group":"Group1","full_date":"2025-12-06T02:13:11.024Z","date":"2025-12-06","time":"02:13:11"},{"task":"memory_phase","broad_category":"I","image_png":"I_Pumice_12.png","image_id":140,"category_name":"Pumice","category":9,"distinct_rating":2.97,"distinct_type":"Bottom","rt":null,"stimulus":"Stimuli_Rocks480/I_Pumice_12.png","response":null,"trial_type":"image-keyboard-response","trial_index":150,"plugin_version":"2.1.0","time_elapsed":589126,"subject_id":"88856","group":"Group1","full_date":"2025-12-06T02:13:11.024Z","date":"2025-12-06","time":"02:13:11"},{"rt":null,"stimulus":"<p style=\"font-size: 50px; margin: 0; text-align: center;\">+</p>","response":null,"trial_type":"html-keyboard-response","trial_index":151,"plugin_version":"2.1.0","time_elapsed":590145,"subject_id":"88856","group":"Group1","full_date":"2025-12-06T02:13:11.024Z","date":"2025-12-06","time":"02:13:11"},{"task":"memory_phase","broad_category":"M","image_png":"M_Quartzite_13.png","image_id":285,"category_name":"Quartzite","category":18,"distinct_rating":2.27,"distinct_type":"Bottom","rt":null,"stimulus":"Stimuli_Rocks480/M_Quartzite_13.png","response":null,"trial_type":"image-keyboard-response","trial_index":152,"plugin_version":"2.1.0","time_elapsed":592666,"subject_id":"88856","group":"Group1","full_date":"2025-12-06T02:13:11.024Z","date":"2025-12-06","time":"02:13:11"},{"rt":null,"stimulus":"<p style=\"font-size: 50px; margin: 0; text-align: center;\">+</p>","response":null,"trial_type":"html-keyboard-response","trial_index":153,"plugin_version":"2.1.0","time_elapsed":593685,"subject_id":"88856","group":"Group1","full_date":"2025-12-06T02:13:11.024Z","date":"2025-12-06","time":"02:13:11"},{"task":"memory_phase","broad_category":"I","image_png":"I_Pumice_11.png","image_id":139,"category_name":"Pumice","category":9,"distinct_rating":1.74,"distinct_type":"Bottom","rt":null,"stimulus":"Stimuli_Rocks480/I_Pumice_11.png","response":null,"trial_type":"image-keyboard-response","trial_index":154,"plugin_version":"2.1.0","time_elapsed":596206,"subject_id":"88856","group":"Group1","full_date":"2025-12-06T02:13:11.024Z","date":"2025-12-06","time":"02:13:11"},{"rt":null,"stimulus":"<p style=\"font-size: 50px; margin: 0; text-align: center;\">+</p>","response":null,"trial_type":"html-keyboard-response","trial_index":155,"plugin_version":"2.1.0","time_elapsed":597225,"subject_id":"88856","group":"Group1","full_date":"2025-12-06T02:13:11.024Z","date":"2025-12-06","time":"02:13:11"},{"task":"memory_phase","broad_category":"S","image_png":"S_Dolomite_12.png","image_id":396,"category_name":"Dolomite","category":25,"distinct_rating":1.85,"distinct_type":"Bottom","rt":null,"stimulus":"Stimuli_Rocks480/S_Dolomite_12.png","response":null,"trial_type":"image-keyboard-response","trial_index":156,"plugin_version":"2.1.0","time_elapsed":599745,"subject_id":"88856","group":"Group1","full_date":"2025-12-06T02:13:11.024Z","date":"2025-12-06","time":"02:13:11"},{"rt":24832,"stimulus":"<p style=\"max-width: 760px; margin: auto; font-size: 35px; line-height: 1.5;\">Press SPACE to continue study phase</p>","response":" ","trial_type":"html-keyboard-response","trial_index":157,"plugin_version":"2.1.0","time_elapsed":624578,"subject_id":"88856","group":"Group1","full_date":"2025-12-06T02:13:11.024Z","date":"2025-12-06","time":"02:13:11"},{"rt":null,"stimulus":"<p style=\"font-size: 50px; margin: 0; text-align: center;\">+</p>","response":null,"trial_type":"html-keyboard-response","trial_index":158,"plugin_version":"2.1.0","time_elapsed":625580,"subject_id":"88856","group":"Group1","full_date":"2025-12-06T02:13:11.024Z","date":"2025-12-06","time":"02:13:11"},{"task":"memory_phase","broad_category":"M","image_png":"M_Gneiss_05.png","image_id":197,"category_name":"Gneiss","category":13,"distinct_rating":2.97,"distinct_type":"Bottom","rt":null,"stimulus":"Stimuli_Rocks480/M_Gneiss_05.png","response":null,"trial_type":"image-keyboard-response","trial_index":159,"plugin_version":"2.1.0","time_elapsed":628105,"subject_id":"88856","group":"Group1","full_date":"2025-12-06T02:13:11.024Z","date":"2025-12-06","time":"02:13:11"},{"rt":null,"stimulus":"<p style=\"font-size: 50px; margin: 0; text-align: center;\">+</p>","response":null,"trial_type":"html-keyboard-response","trial_index":160,"plugin_version":"2.1.0","time_elapsed":629108,"subject_id":"88856","group":"Group1","full_date":"2025-12-06T02:13:11.024Z","date":"2025-12-06","time":"02:13:11"},{"task":"memory_phase","broad_category":"M","image_png":"M_Gneiss_13.png","image_id":205,"category_name":"Gneiss","category":13,"distinct_rating":3.26,"distinct_type":"Bottom","rt":null,"stimulus":"Stimuli_Rocks480/M_Gneiss_13.png","response":null,"trial_type":"image-keyboard-response","trial_index":161,"plugin_version":"2.1.0","time_elapsed":631621,"subject_id":"88856","group":"Group1","full_date":"2025-12-06T02:13:11.024Z","date":"2025-12-06","time":"02:13:11"},{"rt":null,"stimulus":"<p style=\"font-size: 50px; margin: 0; text-align: center;\">+</p>","response":null,"trial_type":"html-keyboard-response","trial_index":162,"plugin_version":"2.1.0","time_elapsed":632623,"subject_id":"88856","group":"Group1","full_date":"2025-12-06T02:13:11.024Z","date":"2025-12-06","time":"02:13:11"},{"task":"memory_phase","broad_category":"I","image_png":"I_Basalt_01.png","image_id":17,"category_name":"Basalt","category":2,"distinct_rating":1.92,"distinct_type":"Bottom","rt":null,"stimulus":"Stimuli_Rocks480/I_Basalt_01.png","response":null,"trial_type":"image-keyboard-response","trial_index":163,"plugin_version":"2.1.0","time_elapsed":635143,"subject_id":"88856","group":"Group1","full_date":"2025-12-06T02:13:11.024Z","date":"2025-12-06","time":"02:13:11"},{"rt":null,"stimulus":"<p style=\"font-size: 50px; margin: 0; text-align: center;\">+</p>","response":null,"trial_type":"html-keyboard-response","trial_index":164,"plugin_version":"2.1.0","time_elapsed":636146,"subject_id":"88856","group":"Group1","full_date":"2025-12-06T02:13:11.024Z","date":"2025-12-06","time":"02:13:11"},{"task":"memory_phase","broad_category":"M","image_png":"M_Marble_04.png","image_id":228,"category_name":"Marble","category":15,"distinct_rating":3.15,"distinct_type":"Bottom","rt":null,"stimulus":"Stimuli_Rocks480/M_Marble_04.png","response":null,"trial_type":"image-keyboard-response","trial_index":165,"plugin_version":"2.1.0","time_elapsed":638662,"subject_id":"88856","group":"Group1","full_date":"2025-12-06T02:13:11.024Z","date":"2025-12-06","time":"02:13:11"},{"rt":null,"stimulus":"<p style=\"font-size: 50px; margin: 0; text-align: center;\">+</p>","response":null,"trial_type":"html-keyboard-response","trial_index":166,"plugin_version":"2.1.0","time_elapsed":639664,"subject_id":"88856","group":"Group1","full_date":"2025-12-06T02:13:11.024Z","date":"2025-12-06","time":"02:13:11"},{"task":"memory_phase","broad_category":"S","image_png":"S_Chert_10.png","image_id":362,"category_name":"Chert","category":23,"distinct_rating":7.17,"distinct_type":"Top","rt":null,"stimulus":"Stimuli_Rocks480/S_Chert_10.png","response":null,"trial_type":"image-keyboard-response","trial_index":167,"plugin_version":"2.1.0","time_elapsed":642180,"subject_id":"88856","group":"Group1","full_date":"2025-12-06T02:13:11.024Z","date":"2025-12-06","time":"02:13:11"},{"rt":null,"stimulus":"<p style=\"font-size: 50px; margin: 0; text-align: center;\">+</p>","response":null,"trial_type":"html-keyboard-response","trial_index":168,"plugin_version":"2.1.0","time_elapsed":643184,"subject_id":"88856","group":"Group1","full_date":"2025-12-06T02:13:11.024Z","date":"2025-12-06","time":"02:13:11"},{"task":"memory_phase","broad_category":"I","image_png":"I_Pumice_08.png","image_id":136,"category_name":"Pumice","category":9,"distinct_rating":3.1,"distinct_type":"Bottom","rt":null,"stimulus":"Stimuli_Rocks480/I_Pumice_08.png","response":null,"trial_type":"image-keyboard-response","trial_index":169,"plugin_version":"2.1.0","time_elapsed":645704,"subject_id":"88856","group":"Group1","full_date":"2025-12-06T02:13:11.024Z","date":"2025-12-06","time":"02:13:11"},{"rt":null,"stimulus":"<p style=\"font-size: 50px; margin: 0; text-align: center;\">+</p>","response":null,"trial_type":"html-keyboard-response","trial_index":170,"plugin_version":"2.1.0","time_elapsed":646724,"subject_id":"88856","group":"Group1","full_date":"2025-12-06T02:13:11.024Z","date":"2025-12-06","time":"02:13:11"},{"task":"memory_phase","broad_category":"S","image_png":"S_Breccia_11.png","image_id":347,"category_name":"Breccia","category":22,"distinct_rating":6.7,"distinct_type":"Top","rt":null,"stimulus":"Stimuli_Rocks480/S_Breccia_11.png","response":null,"trial_type":"image-keyboard-response","trial_index":171,"plugin_version":"2.1.0","time_elapsed":649275,"subject_id":"88856","group":"Group1","full_date":"2025-12-06T02:13:11.024Z","date":"2025-12-06","time":"02:13:11"},{"rt":null,"stimulus":"<p style=\"font-size: 50px; margin: 0; text-align: center;\">+</p>","response":null,"trial_type":"html-keyboard-response","trial_index":172,"plugin_version":"2.1.0","time_elapsed":650294,"subject_id":"88856","group":"Group1","full_date":"2025-12-06T02:13:11.024Z","date":"2025-12-06","time":"02:13:11"},{"task":"memory_phase","broad_category":"I","image_png":"I_Diorite_03.png","image_id":35,"category_name":"Diorite","category":3,"distinct_rating":3.14,"distinct_type":"Bottom","rt":null,"stimulus":"Stimuli_Rocks480/I_Diorite_03.png","response":null,"trial_type":"image-keyboard-response","trial_index":173,"plugin_version":"2.1.0","time_elapsed":652845,"subject_id":"88856","group":"Group1","full_date":"2025-12-06T02:13:11.024Z","date":"2025-12-06","time":"02:13:11"},{"rt":null,"stimulus":"<p style=\"font-size: 50px; margin: 0; text-align: center;\">+</p>","response":null,"trial_type":"html-keyboard-response","trial_index":174,"plugin_version":"2.1.0","time_elapsed":653864,"subject_id":"88856","group":"Group1","full_date":"2025-12-06T02:13:11.024Z","date":"2025-12-06","time":"02:13:11"},{"task":"memory_phase","broad_category":"I","image_png":"I_Diorite_04.png","image_id":36,"category_name":"Diorite","category":3,"distinct_rating":2.98,"distinct_type":"Bottom","rt":null,"stimulus":"Stimuli_Rocks480/I_Diorite_04.png","response":null,"trial_type":"image-keyboard-response","trial_index":175,"plugin_version":"2.1.0","time_elapsed":656385,"subject_id":"88856","group":"Group1","full_date":"2025-12-06T02:13:11.024Z","date":"2025-12-06","time":"02:13:11"},{"rt":null,"stimulus":"<p style=\"font-size: 50px; margin: 0; text-align: center;\">+</p>","response":null,"trial_type":"html-keyboard-response","trial_index":176,"plugin_version":"2.1.0","time_elapsed":657404,"subject_id":"88856","group":"Group1","full_date":"2025-12-06T02:13:11.024Z","date":"2025-12-06","time":"02:13:11"},{"task":"memory_phase","broad_category":"M","image_png":"M_Slate_11.png","image_id":315,"category_name":"Slate","category":20,"distinct_rating":2.75,"distinct_type":"Bottom","rt":null,"stimulus":"Stimuli_Rocks480/M_Slate_11.png","response":null,"trial_type":"image-keyboard-response","trial_index":177,"plugin_version":"2.1.0","time_elapsed":659924,"subject_id":"88856","group":"Group1","full_date":"2025-12-06T02:13:11.024Z","date":"2025-12-06","time":"02:13:11"},{"rt":null,"stimulus":"<p style=\"font-size: 50px; margin: 0; text-align: center;\">+</p>","response":null,"trial_type":"html-keyboard-response","trial_index":178,"plugin_version":"2.1.0","time_elapsed":660944,"subject_id":"88856","group":"Group1","full_date":"2025-12-06T02:13:11.024Z","date":"2025-12-06","time":"02:13:11"},{"task":"memory_phase","broad_category":"S","image_png":"S_Conglomerate_05.png","image_id":373,"category_name":"Conglomerate","category":24,"distinct_rating":7.32,"distinct_type":"Top","rt":null,"stimulus":"Stimuli_Rocks480/S_Conglomerate_05.png","response":null,"trial_type":"image-keyboard-response","trial_index":179,"plugin_version":"2.1.0","time_elapsed":663464,"subject_id":"88856","group":"Group1","full_date":"2025-12-06T02:13:11.024Z","date":"2025-12-06","time":"02:13:11"},{"rt":null,"stimulus":"<p style=\"font-size: 50px; margin: 0; text-align: center;\">+</p>","response":null,"trial_type":"html-keyboard-response","trial_index":180,"plugin_version":"2.1.0","time_elapsed":664484,"subject_id":"88856","group":"Group1","full_date":"2025-12-06T02:13:11.024Z","date":"2025-12-06","time":"02:13:11"},{"task":"memory_phase","broad_category":"I","image_png":"I_Andesite_08.png","image_id":8,"category_name":"Andesite","category":1,"distinct_rating":1.95,"distinct_type":"Bottom","rt":null,"stimulus":"Stimuli_Rocks480/I_Andesite_08.png","response":null,"trial_type":"image-keyboard-response","trial_index":181,"plugin_version":"2.1.0","time_elapsed":667004,"subject_id":"88856","group":"Group1","full_date":"2025-12-06T02:13:11.024Z","date":"2025-12-06","time":"02:13:11"},{"rt":null,"stimulus":"<p style=\"font-size: 50px; margin: 0; text-align: center;\">+</p>","response":null,"trial_type":"html-keyboard-response","trial_index":182,"plugin_version":"2.1.0","time_elapsed":668024,"subject_id":"88856","group":"Group1","full_date":"2025-12-06T02:13:11.024Z","date":"2025-12-06","time":"02:13:11"},{"task":"memory_phase","broad_category":"I","image_png":"I_Diorite_05.png","image_id":37,"category_name":"Diorite","category":3,"distinct_rating":3.08,"distinct_type":"Bottom","rt":null,"stimulus":"Stimuli_Rocks480/I_Diorite_05.png","response":null,"trial_type":"image-keyboard-response","trial_index":183,"plugin_version":"2.1.0","time_elapsed":670544,"subject_id":"88856","group":"Group1","full_date":"2025-12-06T02:13:11.024Z","date":"2025-12-06","time":"02:13:11"},{"rt":null,"stimulus":"<p style=\"font-size: 50px; margin: 0; text-align: center;\">+</p>","response":null,"trial_type":"html-keyboard-response","trial_index":184,"plugin_version":"2.1.0","time_elapsed":671564,"subject_id":"88856","group":"Group1","full_date":"2025-12-06T02:13:11.024Z","date":"2025-12-06","time":"02:13:11"},{"task":"memory_phase","broad_category":"S","image_png":"S_Shale_12.png","image_id":476,"category_name":"Shale","category":30,"distinct_rating":2.48,"distinct_type":"Bottom","rt":null,"stimulus":"Stimuli_Rocks480/S_Shale_12.png","response":null,"trial_type":"image-keyboard-response","trial_index":185,"plugin_version":"2.1.0","time_elapsed":674084,"subject_id":"88856","group":"Group1","full_date":"2025-12-06T02:13:11.024Z","date":"2025-12-06","time":"02:13:11"},{"rt":null,"stimulus":"<p style=\"font-size: 50px; margin: 0; text-align: center;\">+</p>","response":null,"trial_type":"html-keyboard-response","trial_index":186,"plugin_version":"2.1.0","time_elapsed":675103,"subject_id":"88856","group":"Group1","full_date":"2025-12-06T02:13:11.024Z","date":"2025-12-06","time":"02:13:11"},{"task":"memory_phase","broad_category":"I","image_png":"I_Pegmatite_16.png","image_id":112,"category_name":"Pegmatite","category":7,"distinct_rating":7.03,"distinct_type":"Top","rt":null,"stimulus":"Stimuli_Rocks480/I_Pegmatite_16.png","response":null,"trial_type":"image-keyboard-response","trial_index":187,"plugin_version":"2.1.0","time_elapsed":677624,"subject_id":"88856","group":"Group1","full_date":"2025-12-06T02:13:11.024Z","date":"2025-12-06","time":"02:13:11"},{"rt":null,"stimulus":"<p style=\"font-size: 50px; margin: 0; text-align: center;\">+</p>","response":null,"trial_type":"html-keyboard-response","trial_index":188,"plugin_version":"2.1.0","time_elapsed":678644,"subject_id":"88856","group":"Group1","full_date":"2025-12-06T02:13:11.024Z","date":"2025-12-06","time":"02:13:11"},{"task":"memory_phase","broad_category":"I","image_png":"I_Gabbro_11.png","image_id":59,"category_name":"Gabbro","category":4,"distinct_rating":1.99,"distinct_type":"Bottom","rt":null,"stimulus":"Stimuli_Rocks480/I_Gabbro_11.png","response":null,"trial_type":"image-keyboard-response","trial_index":189,"plugin_version":"2.1.0","time_elapsed":681164,"subject_id":"88856","group":"Group1","full_date":"2025-12-06T02:13:11.024Z","date":"2025-12-06","time":"02:13:11"},{"rt":null,"stimulus":"<p style=\"font-size: 50px; margin: 0; text-align: center;\">+</p>","response":null,"trial_type":"html-keyboard-response","trial_index":190,"plugin_version":"2.1.0","time_elapsed":682184,"subject_id":"88856","group":"Group1","full_date":"2025-12-06T02:13:11.024Z","date":"2025-12-06","time":"02:13:11"},{"task":"memory_phase","broad_category":"I","image_png":"I_Gabbro_08.png","image_id":56,"category_name":"Gabbro","category":4,"distinct_rating":3.02,"distinct_type":"Bottom","rt":null,"stimulus":"Stimuli_Rocks480/I_Gabbro_08.png","response":null,"trial_type":"image-keyboard-response","trial_index":191,"plugin_version":"2.1.0","time_elapsed":684704,"subject_id":"88856","group":"Group1","full_date":"2025-12-06T02:13:11.024Z","date":"2025-12-06","time":"02:13:11"},{"rt":null,"stimulus":"<p style=\"font-size: 50px; margin: 0; text-align: center;\">+</p>","response":null,"trial_type":"html-keyboard-response","trial_index":192,"plugin_version":"2.1.0","time_elapsed":685724,"subject_id":"88856","group":"Group1","full_date":"2025-12-06T02:13:11.024Z","date":"2025-12-06","time":"02:13:11"},{"task":"memory_phase","broad_category":"S","image_png":"S_Shale_01.png","image_id":465,"category_name":"Shale","category":30,"distinct_rating":2.7,"distinct_type":"Bottom","rt":null,"stimulus":"Stimuli_Rocks480/S_Shale_01.png","response":null,"trial_type":"image-keyboard-response","trial_index":193,"plugin_version":"2.1.0","time_elapsed":688244,"subject_id":"88856","group":"Group1","full_date":"2025-12-06T02:13:11.024Z","date":"2025-12-06","time":"02:13:11"},{"rt":null,"stimulus":"<p style=\"font-size: 50px; margin: 0; text-align: center;\">+</p>","response":null,"trial_type":"html-keyboard-response","trial_index":194,"plugin_version":"2.1.0","time_elapsed":689264,"subject_id":"88856","group":"Group1","full_date":"2025-12-06T02:13:11.024Z","date":"2025-12-06","time":"02:13:11"},{"task":"memory_phase","broad_category":"I","image_png":"I_Basalt_02.png","image_id":18,"category_name":"Basalt","category":2,"distinct_rating":1.84,"distinct_type":"Bottom","rt":null,"stimulus":"Stimuli_Rocks480/I_Basalt_02.png","response":null,"trial_type":"image-keyboard-response","trial_index":195,"plugin_version":"2.1.0","time_elapsed":691784,"subject_id":"88856","group":"Group1","full_date":"2025-12-06T02:13:11.024Z","date":"2025-12-06","time":"02:13:11"},{"rt":null,"stimulus":"<p style=\"font-size: 50px; margin: 0; text-align: center;\">+</p>","response":null,"trial_type":"html-keyboard-response","trial_index":196,"plugin_version":"2.1.0","time_elapsed":692804,"subject_id":"88856","group":"Group1","full_date":"2025-12-06T02:13:11.024Z","date":"2025-12-06","time":"02:13:11"},{"task":"memory_phase","broad_category":"M","image_png":"M_Marble_06.png","image_id":230,"category_name":"Marble","category":15,"distinct_rating":3.4,"distinct_type":"Bottom","rt":null,"stimulus":"Stimuli_Rocks480/M_Marble_06.png","response":null,"trial_type":"image-keyboard-response","trial_index":197,"plugin_version":"2.1.0","time_elapsed":695324,"subject_id":"88856","group":"Group1","full_date":"2025-12-06T02:13:11.024Z","date":"2025-12-06","time":"02:13:11"},{"rt":null,"stimulus":"<p style=\"font-size: 50px; margin: 0; text-align: center;\">+</p>","response":null,"trial_type":"html-keyboard-response","trial_index":198,"plugin_version":"2.1.0","time_elapsed":696344,"subject_id":"88856","group":"Group1","full_date":"2025-12-06T02:13:11.024Z","date":"2025-12-06","time":"02:13:11"},{"task":"memory_phase","broad_category":"I","image_png":"I_Rhyolite_11.png","image_id":155,"category_name":"Rhyolite","category":10,"distinct_rating":1.73,"distinct_type":"Bottom","rt":null,"stimulus":"Stimuli_Rocks480/I_Rhyolite_11.png","response":null,"trial_type":"image-keyboard-response","trial_index":199,"plugin_version":"2.1.0","time_elapsed":698864,"subject_id":"88856","group":"Group1","full_date":"2025-12-06T02:13:11.024Z","date":"2025-12-06","time":"02:13:11"},{"rt":null,"stimulus":"<p style=\"font-size: 50px; margin: 0; text-align: center;\">+</p>","response":null,"trial_type":"html-keyboard-response","trial_index":200,"plugin_version":"2.1.0","time_elapsed":699884,"subject_id":"88856","group":"Group1","full_date":"2025-12-06T02:13:11.024Z","date":"2025-12-06","time":"02:13:11"},{"task":"memory_phase","broad_category":"I","image_png":"I_Andesite_10.png","image_id":10,"category_name":"Andesite","category":1,"distinct_rating":3.15,"distinct_type":"Bottom","rt":null,"stimulus":"Stimuli_Rocks480/I_Andesite_10.png","response":null,"trial_type":"image-keyboard-response","trial_index":201,"plugin_version":"2.1.0","time_elapsed":702403,"subject_id":"88856","group":"Group1","full_date":"2025-12-06T02:13:11.024Z","date":"2025-12-06","time":"02:13:11"},{"rt":null,"stimulus":"<p style=\"font-size: 50px; margin: 0; text-align: center;\">+</p>","response":null,"trial_type":"html-keyboard-response","trial_index":202,"plugin_version":"2.1.0","time_elapsed":703424,"subject_id":"88856","group":"Group1","full_date":"2025-12-06T02:13:11.024Z","date":"2025-12-06","time":"02:13:11"},{"task":"memory_phase","broad_category":"S","image_png":"S_Rock Gypsum_04.png","image_id":420,"category_name":"Rock Gypsum","category":27,"distinct_rating":7.61,"distinct_type":"Top","rt":null,"stimulus":"Stimuli_Rocks480/S_Rock Gypsum_04.png","response":null,"trial_type":"image-keyboard-response","trial_index":203,"plugin_version":"2.1.0","time_elapsed":705945,"subject_id":"88856","group":"Group1","full_date":"2025-12-06T02:13:11.024Z","date":"2025-12-06","time":"02:13:11"},{"rt":null,"stimulus":"<p style=\"font-size: 50px; margin: 0; text-align: center;\">+</p>","response":null,"trial_type":"html-keyboard-response","trial_index":204,"plugin_version":"2.1.0","time_elapsed":706964,"subject_id":"88856","group":"Group1","full_date":"2025-12-06T02:13:11.024Z","date":"2025-12-06","time":"02:13:11"},{"task":"memory_phase","broad_category":"S","image_png":"S_Sandstone_03.png","image_id":451,"category_name":"Sandstone","category":29,"distinct_rating":1.86,"distinct_type":"Bottom","rt":null,"stimulus":"Stimuli_Rocks480/S_Sandstone_03.png","response":null,"trial_type":"image-keyboard-response","trial_index":205,"plugin_version":"2.1.0","time_elapsed":709484,"subject_id":"88856","group":"Group1","full_date":"2025-12-06T02:13:11.024Z","date":"2025-12-06","time":"02:13:11"},{"rt":null,"stimulus":"<p style=\"font-size: 50px; margin: 0; text-align: center;\">+</p>","response":null,"trial_type":"html-keyboard-response","trial_index":206,"plugin_version":"2.1.0","time_elapsed":710503,"subject_id":"88856","group":"Group1","full_date":"2025-12-06T02:13:11.024Z","date":"2025-12-06","time":"02:13:11"},{"task":"memory_phase","broad_category":"I","image_png":"I_Rhyolite_16.png","image_id":160,"category_name":"Rhyolite","category":10,"distinct_rating":2.19,"distinct_type":"Bottom","rt":null,"stimulus":"Stimuli_Rocks480/I_Rhyolite_16.png","response":null,"trial_type":"image-keyboard-response","trial_index":207,"plugin_version":"2.1.0","time_elapsed":713024,"subject_id":"88856","group":"Group1","full_date":"2025-12-06T02:13:11.024Z","date":"2025-12-06","time":"02:13:11"},{"rt":2595,"stimulus":"<p style=\"max-width: 760px; margin: auto; font-size: 35px; line-height: 1.5;\">You have completed 2 study phases. Now, we'll show you all the images again 1 more time.<br><br>Press SPACE to continue</p>","response":" ","trial_type":"html-keyboard-response","trial_index":208,"plugin_version":"2.1.0","time_elapsed":715621,"subject_id":"88856","group":"Group1","full_date":"2025-12-06T02:13:11.024Z","date":"2025-12-06","time":"02:13:11"},{"rt":null,"stimulus":"<p style=\"font-size: 50px; margin: 0; text-align: center;\">+</p>","response":null,"trial_type":"html-keyboard-response","trial_index":209,"plugin_version":"2.1.0","time_elapsed":716624,"subject_id":"88856","group":"Group1","full_date":"2025-12-06T02:13:11.024Z","date":"2025-12-06","time":"02:13:11"},{"task":"memory_phase","broad_category":"I","image_png":"I_Diorite_05.png","image_id":37,"category_name":"Diorite","category":3,"distinct_rating":3.08,"distinct_type":"Bottom","rt":null,"stimulus":"Stimuli_Rocks480/I_Diorite_05.png","response":null,"trial_type":"image-keyboard-response","trial_index":210,"plugin_version":"2.1.0","time_elapsed":719127,"subject_id":"88856","group":"Group1","full_date":"2025-12-06T02:13:11.024Z","date":"2025-12-06","time":"02:13:11"},{"rt":null,"stimulus":"<p style=\"font-size: 50px; margin: 0; text-align: center;\">+</p>","response":null,"trial_type":"html-keyboard-response","trial_index":211,"plugin_version":"2.1.0","time_elapsed":720130,"subject_id":"88856","group":"Group1","full_date":"2025-12-06T02:13:11.024Z","date":"2025-12-06","time":"02:13:11"},{"task":"memory_phase","broad_category":"I","image_png":"I_Andesite_06.png","image_id":6,"category_name":"Andesite","category":1,"distinct_rating":3.17,"distinct_type":"Bottom","rt":null,"stimulus":"Stimuli_Rocks480/I_Andesite_06.png","response":null,"trial_type":"image-keyboard-response","trial_index":212,"plugin_version":"2.1.0","time_elapsed":722649,"subject_id":"88856","group":"Group1","full_date":"2025-12-06T02:13:11.024Z","date":"2025-12-06","time":"02:13:11"},{"rt":null,"stimulus":"<p style=\"font-size: 50px; margin: 0; text-align: center;\">+</p>","response":null,"trial_type":"html-keyboard-response","trial_index":213,"plugin_version":"2.1.0","time_elapsed":723651,"subject_id":"88856","group":"Group1","full_date":"2025-12-06T02:13:11.024Z","date":"2025-12-06","time":"02:13:11"},{"task":"memory_phase","broad_category":"I","image_png":"I_Pumice_12.png","image_id":140,"category_name":"Pumice","category":9,"distinct_rating":2.97,"distinct_type":"Bottom","rt":null,"stimulus":"Stimuli_Rocks480/I_Pumice_12.png","response":null,"trial_type":"image-keyboard-response","trial_index":214,"plugin_version":"2.1.0","time_elapsed":726167,"subject_id":"88856","group":"Group1","full_date":"2025-12-06T02:13:11.024Z","date":"2025-12-06","time":"02:13:11"},{"rt":null,"stimulus":"<p style=\"font-size: 50px; margin: 0; text-align: center;\">+</p>","response":null,"trial_type":"html-keyboard-response","trial_index":215,"plugin_version":"2.1.0","time_elapsed":727169,"subject_id":"88856","group":"Group1","full_date":"2025-12-06T02:13:11.024Z","date":"2025-12-06","time":"02:13:11"},{"task":"memory_phase","broad_category":"S","image_png":"S_Shale_12.png","image_id":476,"category_name":"Shale","category":30,"distinct_rating":2.48,"distinct_type":"Bottom","rt":null,"stimulus":"Stimuli_Rocks480/S_Shale_12.png","response":null,"trial_type":"image-keyboard-response","trial_index":216,"plugin_version":"2.1.0","time_elapsed":729688,"subject_id":"88856","group":"Group1","full_date":"2025-12-06T02:13:11.024Z","date":"2025-12-06","time":"02:13:11"},{"rt":null,"stimulus":"<p style=\"font-size: 50px; margin: 0; text-align: center;\">+</p>","response":null,"trial_type":"html-keyboard-response","trial_index":217,"plugin_version":"2.1.0","time_elapsed":730690,"subject_id":"88856","group":"Group1","full_date":"2025-12-06T02:13:11.024Z","date":"2025-12-06","time":"02:13:11"},{"task":"memory_phase","broad_category":"I","image_png":"I_Andesite_08.png","image_id":8,"category_name":"Andesite","category":1,"distinct_rating":1.95,"distinct_type":"Bottom","rt":null,"stimulus":"Stimuli_Rocks480/I_Andesite_08.png","response":null,"trial_type":"image-keyboard-response","trial_index":218,"plugin_version":"2.1.0","time_elapsed":733208,"subject_id":"88856","group":"Group1","full_date":"2025-12-06T02:13:11.024Z","date":"2025-12-06","time":"02:13:11"},{"rt":null,"stimulus":"<p style=\"font-size: 50px; margin: 0; text-align: center;\">+</p>","response":null,"trial_type":"html-keyboard-response","trial_index":219,"plugin_version":"2.1.0","time_elapsed":734233,"subject_id":"88856","group":"Group1","full_date":"2025-12-06T02:13:11.024Z","date":"2025-12-06","time":"02:13:11"},{"task":"memory_phase","broad_category":"M","image_png":"M_Phyllite_10.png","image_id":266,"category_name":"Phyllite","category":17,"distinct_rating":2.6,"distinct_type":"Bottom","rt":null,"stimulus":"Stimuli_Rocks480/M_Phyllite_10.png","response":null,"trial_type":"image-keyboard-response","trial_index":220,"plugin_version":"2.1.0","time_elapsed":736753,"subject_id":"88856","group":"Group1","full_date":"2025-12-06T02:13:11.024Z","date":"2025-12-06","time":"02:13:11"},{"rt":null,"stimulus":"<p style=\"font-size: 50px; margin: 0; text-align: center;\">+</p>","response":null,"trial_type":"html-keyboard-response","trial_index":221,"plugin_version":"2.1.0","time_elapsed":737773,"subject_id":"88856","group":"Group1","full_date":"2025-12-06T02:13:11.024Z","date":"2025-12-06","time":"02:13:11"},{"task":"memory_phase","broad_category":"M","image_png":"M_Slate_11.png","image_id":315,"category_name":"Slate","category":20,"distinct_rating":2.75,"distinct_type":"Bottom","rt":null,"stimulus":"Stimuli_Rocks480/M_Slate_11.png","response":null,"trial_type":"image-keyboard-response","trial_index":222,"plugin_version":"2.1.0","time_elapsed":740293,"subject_id":"88856","group":"Group1","full_date":"2025-12-06T02:13:11.024Z","date":"2025-12-06","time":"02:13:11"},{"rt":null,"stimulus":"<p style=\"font-size: 50px; margin: 0; text-align: center;\">+</p>","response":null,"trial_type":"html-keyboard-response","trial_index":223,"plugin_version":"2.1.0","time_elapsed":741313,"subject_id":"88856","group":"Group1","full_date":"2025-12-06T02:13:11.024Z","date":"2025-12-06","time":"02:13:11"},{"task":"memory_phase","broad_category":"M","image_png":"M_Slate_15.png","image_id":319,"category_name":"Slate","category":20,"distinct_rating":2.13,"distinct_type":"Bottom","rt":null,"stimulus":"Stimuli_Rocks480/M_Slate_15.png","response":null,"trial_type":"image-keyboard-response","trial_index":224,"plugin_version":"2.1.0","time_elapsed":743833,"subject_id":"88856","group":"Group1","full_date":"2025-12-06T02:13:11.024Z","date":"2025-12-06","time":"02:13:11"},{"rt":null,"stimulus":"<p style=\"font-size: 50px; margin: 0; text-align: center;\">+</p>","response":null,"trial_type":"html-keyboard-response","trial_index":225,"plugin_version":"2.1.0","time_elapsed":744852,"subject_id":"88856","group":"Group1","full_date":"2025-12-06T02:13:11.024Z","date":"2025-12-06","time":"02:13:11"},{"task":"memory_phase","broad_category":"I","image_png":"I_Basalt_02.png","image_id":18,"category_name":"Basalt","category":2,"distinct_rating":1.84,"distinct_type":"Bottom","rt":null,"stimulus":"Stimuli_Rocks480/I_Basalt_02.png","response":null,"trial_type":"image-keyboard-response","trial_index":226,"plugin_version":"2.1.0","time_elapsed":747373,"subject_id":"88856","group":"Group1","full_date":"2025-12-06T02:13:11.024Z","date":"2025-12-06","time":"02:13:11"},{"rt":null,"stimulus":"<p style=\"font-size: 50px; margin: 0; text-align: center;\">+</p>","response":null,"trial_type":"html-keyboard-response","trial_index":227,"plugin_version":"2.1.0","time_elapsed":748393,"subject_id":"88856","group":"Group1","full_date":"2025-12-06T02:13:11.024Z","date":"2025-12-06","time":"02:13:11"},{"task":"memory_phase","broad_category":"S","image_png":"S_Shale_08.png","image_id":472,"category_name":"Shale","category":30,"distinct_rating":2.55,"distinct_type":"Bottom","rt":null,"stimulus":"Stimuli_Rocks480/S_Shale_08.png","response":null,"trial_type":"image-keyboard-response","trial_index":228,"plugin_version":"2.1.0","time_elapsed":750913,"subject_id":"88856","group":"Group1","full_date":"2025-12-06T02:13:11.024Z","date":"2025-12-06","time":"02:13:11"},{"rt":null,"stimulus":"<p style=\"font-size: 50px; margin: 0; text-align: center;\">+</p>","response":null,"trial_type":"html-keyboard-response","trial_index":229,"plugin_version":"2.1.0","time_elapsed":751932,"subject_id":"88856","group":"Group1","full_date":"2025-12-06T02:13:11.024Z","date":"2025-12-06","time":"02:13:11"},{"task":"memory_phase","broad_category":"S","image_png":"S_Dolomite_13.png","image_id":397,"category_name":"Dolomite","category":25,"distinct_rating":1.77,"distinct_type":"Bottom","rt":null,"stimulus":"Stimuli_Rocks480/S_Dolomite_13.png","response":null,"trial_type":"image-keyboard-response","trial_index":230,"plugin_version":"2.1.0","time_elapsed":754453,"subject_id":"88856","group":"Group1","full_date":"2025-12-06T02:13:11.024Z","date":"2025-12-06","time":"02:13:11"},{"rt":null,"stimulus":"<p style=\"font-size: 50px; margin: 0; text-align: center;\">+</p>","response":null,"trial_type":"html-keyboard-response","trial_index":231,"plugin_version":"2.1.0","time_elapsed":755473,"subject_id":"88856","group":"Group1","full_date":"2025-12-06T02:13:11.024Z","date":"2025-12-06","time":"02:13:11"},{"task":"memory_phase","broad_category":"M","image_png":"M_Gneiss_13.png","image_id":205,"category_name":"Gneiss","category":13,"distinct_rating":3.26,"distinct_type":"Bottom","rt":null,"stimulus":"Stimuli_Rocks480/M_Gneiss_13.png","response":null,"trial_type":"image-keyboard-response","trial_index":232,"plugin_version":"2.1.0","time_elapsed":757993,"subject_id":"88856","group":"Group1","full_date":"2025-12-06T02:13:11.024Z","date":"2025-12-06","time":"02:13:11"},{"rt":null,"stimulus":"<p style=\"font-size: 50px; margin: 0; text-align: center;\">+</p>","response":null,"trial_type":"html-keyboard-response","trial_index":233,"plugin_version":"2.1.0","time_elapsed":759013,"subject_id":"88856","group":"Group1","full_date":"2025-12-06T02:13:11.024Z","date":"2025-12-06","time":"02:13:11"},{"task":"memory_phase","broad_category":"S","image_png":"S_Dolomite_12.png","image_id":396,"category_name":"Dolomite","category":25,"distinct_rating":1.85,"distinct_type":"Bottom","rt":null,"stimulus":"Stimuli_Rocks480/S_Dolomite_12.png","response":null,"trial_type":"image-keyboard-response","trial_index":234,"plugin_version":"2.1.0","time_elapsed":761533,"subject_id":"88856","group":"Group1","full_date":"2025-12-06T02:13:11.024Z","date":"2025-12-06","time":"02:13:11"},{"rt":null,"stimulus":"<p style=\"font-size: 50px; margin: 0; text-align: center;\">+</p>","response":null,"trial_type":"html-keyboard-response","trial_index":235,"plugin_version":"2.1.0","time_elapsed":762552,"subject_id":"88856","group":"Group1","full_date":"2025-12-06T02:13:11.024Z","date":"2025-12-06","time":"02:13:11"},{"task":"memory_phase","broad_category":"M","image_png":"M_Gneiss_05.png","image_id":197,"category_name":"Gneiss","category":13,"distinct_rating":2.97,"distinct_type":"Bottom","rt":null,"stimulus":"Stimuli_Rocks480/M_Gneiss_05.png","response":null,"trial_type":"image-keyboard-response","trial_index":236,"plugin_version":"2.1.0","time_elapsed":765102,"subject_id":"88856","group":"Group1","full_date":"2025-12-06T02:13:11.024Z","date":"2025-12-06","time":"02:13:11"},{"rt":null,"stimulus":"<p style=\"font-size: 50px; margin: 0; text-align: center;\">+</p>","response":null,"trial_type":"html-keyboard-response","trial_index":237,"plugin_version":"2.1.0","time_elapsed":766123,"subject_id":"88856","group":"Group1","full_date":"2025-12-06T02:13:11.024Z","date":"2025-12-06","time":"02:13:11"},{"task":"memory_phase","broad_category":"M","image_png":"M_Gneiss_06.png","image_id":198,"category_name":"Gneiss","category":13,"distinct_rating":2.65,"distinct_type":"Bottom","rt":null,"stimulus":"Stimuli_Rocks480/M_Gneiss_06.png","response":null,"trial_type":"image-keyboard-response","trial_index":238,"plugin_version":"2.1.0","time_elapsed":768643,"subject_id":"88856","group":"Group1","full_date":"2025-12-06T02:13:11.024Z","date":"2025-12-06","time":"02:13:11"},{"rt":null,"stimulus":"<p style=\"font-size: 50px; margin: 0; text-align: center;\">+</p>","response":null,"trial_type":"html-keyboard-response","trial_index":239,"plugin_version":"2.1.0","time_elapsed":769663,"subject_id":"88856","group":"Group1","full_date":"2025-12-06T02:13:11.024Z","date":"2025-12-06","time":"02:13:11"},{"task":"memory_phase","broad_category":"I","image_png":"I_Pegmatite_10.png","image_id":106,"category_name":"Pegmatite","category":7,"distinct_rating":7.66,"distinct_type":"Top","rt":null,"stimulus":"Stimuli_Rocks480/I_Pegmatite_10.png","response":null,"trial_type":"image-keyboard-response","trial_index":240,"plugin_version":"2.1.0","time_elapsed":772183,"subject_id":"88856","group":"Group1","full_date":"2025-12-06T02:13:11.024Z","date":"2025-12-06","time":"02:13:11"},{"rt":null,"stimulus":"<p style=\"font-size: 50px; margin: 0; text-align: center;\">+</p>","response":null,"trial_type":"html-keyboard-response","trial_index":241,"plugin_version":"2.1.0","time_elapsed":773202,"subject_id":"88856","group":"Group1","full_date":"2025-12-06T02:13:11.024Z","date":"2025-12-06","time":"02:13:11"},{"task":"memory_phase","broad_category":"M","image_png":"M_Marble_04.png","image_id":228,"category_name":"Marble","category":15,"distinct_rating":3.15,"distinct_type":"Bottom","rt":null,"stimulus":"Stimuli_Rocks480/M_Marble_04.png","response":null,"trial_type":"image-keyboard-response","trial_index":242,"plugin_version":"2.1.0","time_elapsed":775723,"subject_id":"88856","group":"Group1","full_date":"2025-12-06T02:13:11.024Z","date":"2025-12-06","time":"02:13:11"},{"rt":null,"stimulus":"<p style=\"font-size: 50px; margin: 0; text-align: center;\">+</p>","response":null,"trial_type":"html-keyboard-response","trial_index":243,"plugin_version":"2.1.0","time_elapsed":776743,"subject_id":"88856","group":"Group1","full_date":"2025-12-06T02:13:11.024Z","date":"2025-12-06","time":"02:13:11"},{"task":"memory_phase","broad_category":"I","image_png":"I_Pumice_08.png","image_id":136,"category_name":"Pumice","category":9,"distinct_rating":3.1,"distinct_type":"Bottom","rt":null,"stimulus":"Stimuli_Rocks480/I_Pumice_08.png","response":null,"trial_type":"image-keyboard-response","trial_index":244,"plugin_version":"2.1.0","time_elapsed":779263,"subject_id":"88856","group":"Group1","full_date":"2025-12-06T02:13:11.024Z","date":"2025-12-06","time":"02:13:11"},{"rt":null,"stimulus":"<p style=\"font-size: 50px; margin: 0; text-align: center;\">+</p>","response":null,"trial_type":"html-keyboard-response","trial_index":245,"plugin_version":"2.1.0","time_elapsed":780283,"subject_id":"88856","group":"Group1","full_date":"2025-12-06T02:13:11.024Z","date":"2025-12-06","time":"02:13:11"},{"task":"memory_phase","broad_category":"I","image_png":"I_Rhyolite_16.png","image_id":160,"category_name":"Rhyolite","category":10,"distinct_rating":2.19,"distinct_type":"Bottom","rt":null,"stimulus":"Stimuli_Rocks480/I_Rhyolite_16.png","response":null,"trial_type":"image-keyboard-response","trial_index":246,"plugin_version":"2.1.0","time_elapsed":782803,"subject_id":"88856","group":"Group1","full_date":"2025-12-06T02:13:11.024Z","date":"2025-12-06","time":"02:13:11"},{"rt":null,"stimulus":"<p style=\"font-size: 50px; margin: 0; text-align: center;\">+</p>","response":null,"trial_type":"html-keyboard-response","trial_index":247,"plugin_version":"2.1.0","time_elapsed":783823,"subject_id":"88856","group":"Group1","full_date":"2025-12-06T02:13:11.024Z","date":"2025-12-06","time":"02:13:11"},{"task":"memory_phase","broad_category":"S","image_png":"S_Sandstone_15.png","image_id":463,"category_name":"Sandstone","category":29,"distinct_rating":2,"distinct_type":"Bottom","rt":null,"stimulus":"Stimuli_Rocks480/S_Sandstone_15.png","response":null,"trial_type":"image-keyboard-response","trial_index":248,"plugin_version":"2.1.0","time_elapsed":786343,"subject_id":"8885