[{"width":1454,"height":745,"webaudio":true,"browser":"chrome","browser_version":"139.0.0","mobile":false,"os":"Mac OS","fullscreen":true,"vsync_rate":57.3,"webcam":true,"microphone":true,"trial_type":"browser-check","trial_index":0,"plugin_version":"2.1.0","time_elapsed":1109,"subject_id":"87472","group":"Group1","full_date":"2025-12-10T04:04:09.448Z","date":"2025-12-10","time":"04:04:09"},{"success":true,"timeout":false,"failed_images":[],"failed_audio":[],"failed_video":[],"trial_type":"preload","trial_index":1,"plugin_version":"2.1.0","time_elapsed":17905,"subject_id":"87472","group":"Group1","full_date":"2025-12-10T04:04:09.448Z","date":"2025-12-10","time":"04:04:09"},{"rt":178647,"url":"SONA_consent_memorability.html","trial_type":"external-html","trial_index":2,"plugin_version":"2.1.0","time_elapsed":196689,"subject_id":"87472","group":"Group1","full_date":"2025-12-10T04:04:09.448Z","date":"2025-12-10","time":"04:04:09"},{"success":true,"rt":1763,"trial_type":"fullscreen","trial_index":3,"plugin_version":"2.1.0","time_elapsed":199456,"subject_id":"87472","group":"Group1","full_date":"2025-12-10T04:04:09.448Z","date":"2025-12-10","time":"04:04:09"},{"rt":12379,"stimulus":"<div style=\"max-width: 760px; margin: auto; font-size: 20px; line-height: 1.5;\">\n      <h1 style=\"text-align:center; font-size: 30px;\">Instructions</h1>\n      <p>\n        Welcome to the study on <b>visual memory</b>. This experiment consists of <b>two phases</b>: \n        a <b>study phase</b> and a <b>test phase</b>.\n      </p>\n      <p>\n        In the study phase, you will see a series of rock images along with their category labels.\n        The images will appear one at a time.\n        <b>Your task</b> is to learn the categories to which the rock images belong \n        and to remember each image as accurately as possible.\n      </p> \n      <p>\n        Note that we will repeat the study phase <b>3 times</b>, \n        so you will have multiple opportunities to see and remember each image.\n      </p>\n      <p>\n        After the study phase, <b>your memory will be tested</b>. \n        Additional instructions for the test phase will be provided at that time.\n      </p>\n      <p>\n        If your computer has multiple <b>language settings</b> (e.g., English and another language),\n        please make sure it is set to English before starting.\n      </p>\n      <p>\n        You can track your progress using the <b>completion bar</b> at the top of the screen. \n        Please note that the bar will refresh when the test phase begins \n        to give you an accurate sense of your progress in both phases.\n      </p> \n      <p>\n        Press the button below when you are ready to begin.\n      </p>\n    </div>","response":0,"trial_type":"html-button-response","trial_index":4,"plugin_version":"2.1.0","time_elapsed":211838,"subject_id":"87472","group":"Group1","full_date":"2025-12-10T04:04:09.448Z","date":"2025-12-10","time":"04:04:09"},{"rt":null,"stimulus":"<p style=\"font-size: 50px; margin: 0; text-align: center;\">+</p>","response":null,"trial_type":"html-keyboard-response","trial_index":5,"plugin_version":"2.1.0","time_elapsed":212843,"subject_id":"87472","group":"Group1","full_date":"2025-12-10T04:04:09.448Z","date":"2025-12-10","time":"04:04:09"},{"task":"memory_phase","broad_category":"I","image_png":"I_Pumice_11.png","image_id":139,"category_name":"Pumice","category":9,"distinct_rating":1.74,"distinct_type":"Bottom","rt":null,"stimulus":"Stimuli_Rocks480/I_Pumice_11.png","response":null,"trial_type":"image-keyboard-response","trial_index":6,"plugin_version":"2.1.0","time_elapsed":215349,"subject_id":"87472","group":"Group1","full_date":"2025-12-10T04:04:09.448Z","date":"2025-12-10","time":"04:04:09"},{"rt":null,"stimulus":"<p style=\"font-size: 50px; margin: 0; text-align: center;\">+</p>","response":null,"trial_type":"html-keyboard-response","trial_index":7,"plugin_version":"2.1.0","time_elapsed":216352,"subject_id":"87472","group":"Group1","full_date":"2025-12-10T04:04:09.448Z","date":"2025-12-10","time":"04:04:09"},{"task":"memory_phase","broad_category":"I","image_png":"I_Diorite_03.png","image_id":35,"category_name":"Diorite","category":3,"distinct_rating":3.14,"distinct_type":"Bottom","rt":null,"stimulus":"Stimuli_Rocks480/I_Diorite_03.png","response":null,"trial_type":"image-keyboard-response","trial_index":8,"plugin_version":"2.1.0","time_elapsed":218856,"subject_id":"87472","group":"Group1","full_date":"2025-12-10T04:04:09.448Z","date":"2025-12-10","time":"04:04:09"},{"rt":null,"stimulus":"<p style=\"font-size: 50px; margin: 0; text-align: center;\">+</p>","response":null,"trial_type":"html-keyboard-response","trial_index":9,"plugin_version":"2.1.0","time_elapsed":219860,"subject_id":"87472","group":"Group1","full_date":"2025-12-10T04:04:09.448Z","date":"2025-12-10","time":"04:04:09"},{"task":"memory_phase","broad_category":"S","image_png":"S_Rock Gypsum_04.png","image_id":420,"category_name":"Rock Gypsum","category":27,"distinct_rating":7.61,"distinct_type":"Top","rt":null,"stimulus":"Stimuli_Rocks480/S_Rock Gypsum_04.png","response":null,"trial_type":"image-keyboard-response","trial_index":10,"plugin_version":"2.1.0","time_elapsed":222364,"subject_id":"87472","group":"Group1","full_date":"2025-12-10T04:04:09.448Z","date":"2025-12-10","time":"04:04:09"},{"rt":null,"stimulus":"<p style=\"font-size: 50px; margin: 0; text-align: center;\">+</p>","response":null,"trial_type":"html-keyboard-response","trial_index":11,"plugin_version":"2.1.0","time_elapsed":223367,"subject_id":"87472","group":"Group1","full_date":"2025-12-10T04:04:09.448Z","date":"2025-12-10","time":"04:04:09"},{"task":"memory_phase","broad_category":"I","image_png":"I_Rhyolite_16.png","image_id":160,"category_name":"Rhyolite","category":10,"distinct_rating":2.19,"distinct_type":"Bottom","rt":null,"stimulus":"Stimuli_Rocks480/I_Rhyolite_16.png","response":null,"trial_type":"image-keyboard-response","trial_index":12,"plugin_version":"2.1.0","time_elapsed":225871,"subject_id":"87472","group":"Group1","full_date":"2025-12-10T04:04:09.448Z","date":"2025-12-10","time":"04:04:09"},{"rt":null,"stimulus":"<p style=\"font-size: 50px; margin: 0; text-align: center;\">+</p>","response":null,"trial_type":"html-keyboard-response","trial_index":13,"plugin_version":"2.1.0","time_elapsed":226874,"subject_id":"87472","group":"Group1","full_date":"2025-12-10T04:04:09.448Z","date":"2025-12-10","time":"04:04:09"},{"task":"memory_phase","broad_category":"S","image_png":"S_Conglomerate_05.png","image_id":373,"category_name":"Conglomerate","category":24,"distinct_rating":7.32,"distinct_type":"Top","rt":null,"stimulus":"Stimuli_Rocks480/S_Conglomerate_05.png","response":null,"trial_type":"image-keyboard-response","trial_index":14,"plugin_version":"2.1.0","time_elapsed":229378,"subject_id":"87472","group":"Group1","full_date":"2025-12-10T04:04:09.448Z","date":"2025-12-10","time":"04:04:09"},{"rt":null,"stimulus":"<p style=\"font-size: 50px; margin: 0; text-align: center;\">+</p>","response":null,"trial_type":"html-keyboard-response","trial_index":15,"plugin_version":"2.1.0","time_elapsed":230381,"subject_id":"87472","group":"Group1","full_date":"2025-12-10T04:04:09.448Z","date":"2025-12-10","time":"04:04:09"},{"task":"memory_phase","broad_category":"I","image_png":"I_Pegmatite_10.png","image_id":106,"category_name":"Pegmatite","category":7,"distinct_rating":7.66,"distinct_type":"Top","rt":null,"stimulus":"Stimuli_Rocks480/I_Pegmatite_10.png","response":null,"trial_type":"image-keyboard-response","trial_index":16,"plugin_version":"2.1.0","time_elapsed":232886,"subject_id":"87472","group":"Group1","full_date":"2025-12-10T04:04:09.448Z","date":"2025-12-10","time":"04:04:09"},{"rt":null,"stimulus":"<p style=\"font-size: 50px; margin: 0; text-align: center;\">+</p>","response":null,"trial_type":"html-keyboard-response","trial_index":17,"plugin_version":"2.1.0","time_elapsed":233888,"subject_id":"87472","group":"Group1","full_date":"2025-12-10T04:04:09.448Z","date":"2025-12-10","time":"04:04:09"},{"task":"memory_phase","broad_category":"I","image_png":"I_Diorite_05.png","image_id":37,"category_name":"Diorite","category":3,"distinct_rating":3.08,"distinct_type":"Bottom","rt":null,"stimulus":"Stimuli_Rocks480/I_Diorite_05.png","response":null,"trial_type":"image-keyboard-response","trial_index":18,"plugin_version":"2.1.0","time_elapsed":236393,"subject_id":"87472","group":"Group1","full_date":"2025-12-10T04:04:09.448Z","date":"2025-12-10","time":"04:04:09"},{"rt":null,"stimulus":"<p style=\"font-size: 50px; margin: 0; text-align: center;\">+</p>","response":null,"trial_type":"html-keyboard-response","trial_index":19,"plugin_version":"2.1.0","time_elapsed":237396,"subject_id":"87472","group":"Group1","full_date":"2025-12-10T04:04:09.448Z","date":"2025-12-10","time":"04:04:09"},{"task":"memory_phase","broad_category":"S","image_png":"S_Sandstone_15.png","image_id":463,"category_name":"Sandstone","category":29,"distinct_rating":2,"distinct_type":"Bottom","rt":null,"stimulus":"Stimuli_Rocks480/S_Sandstone_15.png","response":null,"trial_type":"image-keyboard-response","trial_index":20,"plugin_version":"2.1.0","time_elapsed":239900,"subject_id":"87472","group":"Group1","full_date":"2025-12-10T04:04:09.448Z","date":"2025-12-10","time":"04:04:09"},{"rt":null,"stimulus":"<p style=\"font-size: 50px; margin: 0; text-align: center;\">+</p>","response":null,"trial_type":"html-keyboard-response","trial_index":21,"plugin_version":"2.1.0","time_elapsed":240903,"subject_id":"87472","group":"Group1","full_date":"2025-12-10T04:04:09.448Z","date":"2025-12-10","time":"04:04:09"},{"task":"memory_phase","broad_category":"S","image_png":"S_Dolomite_13.png","image_id":397,"category_name":"Dolomite","category":25,"distinct_rating":1.77,"distinct_type":"Bottom","rt":null,"stimulus":"Stimuli_Rocks480/S_Dolomite_13.png","response":null,"trial_type":"image-keyboard-response","trial_index":22,"plugin_version":"2.1.0","time_elapsed":243406,"subject_id":"87472","group":"Group1","full_date":"2025-12-10T04:04:09.448Z","date":"2025-12-10","time":"04:04:09"},{"rt":null,"stimulus":"<p style=\"font-size: 50px; margin: 0; text-align: center;\">+</p>","response":null,"trial_type":"html-keyboard-response","trial_index":23,"plugin_version":"2.1.0","time_elapsed":244409,"subject_id":"87472","group":"Group1","full_date":"2025-12-10T04:04:09.448Z","date":"2025-12-10","time":"04:04:09"},{"task":"memory_phase","broad_category":"I","image_png":"I_Rhyolite_14.png","image_id":158,"category_name":"Rhyolite","category":10,"distinct_rating":2.59,"distinct_type":"Bottom","rt":null,"stimulus":"Stimuli_Rocks480/I_Rhyolite_14.png","response":null,"trial_type":"image-keyboard-response","trial_index":24,"plugin_version":"2.1.0","time_elapsed":246913,"subject_id":"87472","group":"Group1","full_date":"2025-12-10T04:04:09.448Z","date":"2025-12-10","time":"04:04:09"},{"rt":null,"stimulus":"<p style=\"font-size: 50px; margin: 0; text-align: center;\">+</p>","response":null,"trial_type":"html-keyboard-response","trial_index":25,"plugin_version":"2.1.0","time_elapsed":247915,"subject_id":"87472","group":"Group1","full_date":"2025-12-10T04:04:09.448Z","date":"2025-12-10","time":"04:04:09"},{"task":"memory_phase","broad_category":"I","image_png":"I_Andesite_10.png","image_id":10,"category_name":"Andesite","category":1,"distinct_rating":3.15,"distinct_type":"Bottom","rt":null,"stimulus":"Stimuli_Rocks480/I_Andesite_10.png","response":null,"trial_type":"image-keyboard-response","trial_index":26,"plugin_version":"2.1.0","time_elapsed":250420,"subject_id":"87472","group":"Group1","full_date":"2025-12-10T04:04:09.448Z","date":"2025-12-10","time":"04:04:09"},{"rt":null,"stimulus":"<p style=\"font-size: 50px; margin: 0; text-align: center;\">+</p>","response":null,"trial_type":"html-keyboard-response","trial_index":27,"plugin_version":"2.1.0","time_elapsed":251423,"subject_id":"87472","group":"Group1","full_date":"2025-12-10T04:04:09.448Z","date":"2025-12-10","time":"04:04:09"},{"task":"memory_phase","broad_category":"I","image_png":"I_Andesite_06.png","image_id":6,"category_name":"Andesite","category":1,"distinct_rating":3.17,"distinct_type":"Bottom","rt":null,"stimulus":"Stimuli_Rocks480/I_Andesite_06.png","response":null,"trial_type":"image-keyboard-response","trial_index":28,"plugin_version":"2.1.0","time_elapsed":253927,"subject_id":"87472","group":"Group1","full_date":"2025-12-10T04:04:09.448Z","date":"2025-12-10","time":"04:04:09"},{"rt":null,"stimulus":"<p style=\"font-size: 50px; margin: 0; text-align: center;\">+</p>","response":null,"trial_type":"html-keyboard-response","trial_index":29,"plugin_version":"2.1.0","time_elapsed":254929,"subject_id":"87472","group":"Group1","full_date":"2025-12-10T04:04:09.448Z","date":"2025-12-10","time":"04:04:09"},{"task":"memory_phase","broad_category":"I","image_png":"I_Obsidian_05.png","image_id":85,"category_name":"Obsidian","category":6,"distinct_rating":7.32,"distinct_type":"Top","rt":null,"stimulus":"Stimuli_Rocks480/I_Obsidian_05.png","response":null,"trial_type":"image-keyboard-response","trial_index":30,"plugin_version":"2.1.0","time_elapsed":257434,"subject_id":"87472","group":"Group1","full_date":"2025-12-10T04:04:09.448Z","date":"2025-12-10","time":"04:04:09"},{"rt":null,"stimulus":"<p style=\"font-size: 50px; margin: 0; text-align: center;\">+</p>","response":null,"trial_type":"html-keyboard-response","trial_index":31,"plugin_version":"2.1.0","time_elapsed":258437,"subject_id":"87472","group":"Group1","full_date":"2025-12-10T04:04:09.448Z","date":"2025-12-10","time":"04:04:09"},{"task":"memory_phase","broad_category":"M","image_png":"M_Quartzite_05.png","image_id":277,"category_name":"Quartzite","category":18,"distinct_rating":2.23,"distinct_type":"Bottom","rt":null,"stimulus":"Stimuli_Rocks480/M_Quartzite_05.png","response":null,"trial_type":"image-keyboard-response","trial_index":32,"plugin_version":"2.1.0","time_elapsed":260941,"subject_id":"87472","group":"Group1","full_date":"2025-12-10T04:04:09.448Z","date":"2025-12-10","time":"04:04:09"},{"rt":null,"stimulus":"<p style=\"font-size: 50px; margin: 0; text-align: center;\">+</p>","response":null,"trial_type":"html-keyboard-response","trial_index":33,"plugin_version":"2.1.0","time_elapsed":261944,"subject_id":"87472","group":"Group1","full_date":"2025-12-10T04:04:09.448Z","date":"2025-12-10","time":"04:04:09"},{"task":"memory_phase","broad_category":"M","image_png":"M_Quartzite_13.png","image_id":285,"category_name":"Quartzite","category":18,"distinct_rating":2.27,"distinct_type":"Bottom","rt":null,"stimulus":"Stimuli_Rocks480/M_Quartzite_13.png","response":null,"trial_type":"image-keyboard-response","trial_index":34,"plugin_version":"2.1.0","time_elapsed":264447,"subject_id":"87472","group":"Group1","full_date":"2025-12-10T04:04:09.448Z","date":"2025-12-10","time":"04:04:09"},{"rt":null,"stimulus":"<p style=\"font-size: 50px; margin: 0; text-align: center;\">+</p>","response":null,"trial_type":"html-keyboard-response","trial_index":35,"plugin_version":"2.1.0","time_elapsed":265450,"subject_id":"87472","group":"Group1","full_date":"2025-12-10T04:04:09.448Z","date":"2025-12-10","time":"04:04:09"},{"task":"memory_phase","broad_category":"S","image_png":"S_Shale_12.png","image_id":476,"category_name":"Shale","category":30,"distinct_rating":2.48,"distinct_type":"Bottom","rt":null,"stimulus":"Stimuli_Rocks480/S_Shale_12.png","response":null,"trial_type":"image-keyboard-response","trial_index":36,"plugin_version":"2.1.0","time_elapsed":267954,"subject_id":"87472","group":"Group1","full_date":"2025-12-10T04:04:09.448Z","date":"2025-12-10","time":"04:04:09"},{"rt":null,"stimulus":"<p style=\"font-size: 50px; margin: 0; text-align: center;\">+</p>","response":null,"trial_type":"html-keyboard-response","trial_index":37,"plugin_version":"2.1.0","time_elapsed":268957,"subject_id":"87472","group":"Group1","full_date":"2025-12-10T04:04:09.448Z","date":"2025-12-10","time":"04:04:09"},{"task":"memory_phase","broad_category":"I","image_png":"I_Andesite_08.png","image_id":8,"category_name":"Andesite","category":1,"distinct_rating":1.95,"distinct_type":"Bottom","rt":null,"stimulus":"Stimuli_Rocks480/I_Andesite_08.png","response":null,"trial_type":"image-keyboard-response","trial_index":38,"plugin_version":"2.1.0","time_elapsed":271461,"subject_id":"87472","group":"Group1","full_date":"2025-12-10T04:04:09.448Z","date":"2025-12-10","time":"04:04:09"},{"rt":null,"stimulus":"<p style=\"font-size: 50px; margin: 0; text-align: center;\">+</p>","response":null,"trial_type":"html-keyboard-response","trial_index":39,"plugin_version":"2.1.0","time_elapsed":272463,"subject_id":"87472","group":"Group1","full_date":"2025-12-10T04:04:09.448Z","date":"2025-12-10","time":"04:04:09"},{"task":"memory_phase","broad_category":"I","image_png":"I_Gabbro_16.png","image_id":64,"category_name":"Gabbro","category":4,"distinct_rating":2.52,"distinct_type":"Bottom","rt":null,"stimulus":"Stimuli_Rocks480/I_Gabbro_16.png","response":null,"trial_type":"image-keyboard-response","trial_index":40,"plugin_version":"2.1.0","time_elapsed":274967,"subject_id":"87472","group":"Group1","full_date":"2025-12-10T04:04:09.448Z","date":"2025-12-10","time":"04:04:09"},{"rt":null,"stimulus":"<p style=\"font-size: 50px; margin: 0; text-align: center;\">+</p>","response":null,"trial_type":"html-keyboard-response","trial_index":41,"plugin_version":"2.1.0","time_elapsed":275970,"subject_id":"87472","group":"Group1","full_date":"2025-12-10T04:04:09.448Z","date":"2025-12-10","time":"04:04:09"},{"task":"memory_phase","broad_category":"I","image_png":"I_Basalt_02.png","image_id":18,"category_name":"Basalt","category":2,"distinct_rating":1.84,"distinct_type":"Bottom","rt":null,"stimulus":"Stimuli_Rocks480/I_Basalt_02.png","response":null,"trial_type":"image-keyboard-response","trial_index":42,"plugin_version":"2.1.0","time_elapsed":278475,"subject_id":"87472","group":"Group1","full_date":"2025-12-10T04:04:09.448Z","date":"2025-12-10","time":"04:04:09"},{"rt":null,"stimulus":"<p style=\"font-size: 50px; margin: 0; text-align: center;\">+</p>","response":null,"trial_type":"html-keyboard-response","trial_index":43,"plugin_version":"2.1.0","time_elapsed":279478,"subject_id":"87472","group":"Group1","full_date":"2025-12-10T04:04:09.448Z","date":"2025-12-10","time":"04:04:09"},{"task":"memory_phase","broad_category":"S","image_png":"S_Rock Salt_01.png","image_id":433,"category_name":"Rock Salt","category":28,"distinct_rating":7.18,"distinct_type":"Top","rt":null,"stimulus":"Stimuli_Rocks480/S_Rock Salt_01.png","response":null,"trial_type":"image-keyboard-response","trial_index":44,"plugin_version":"2.1.0","time_elapsed":281982,"subject_id":"87472","group":"Group1","full_date":"2025-12-10T04:04:09.448Z","date":"2025-12-10","time":"04:04:09"},{"rt":null,"stimulus":"<p style=\"font-size: 50px; margin: 0; text-align: center;\">+</p>","response":null,"trial_type":"html-keyboard-response","trial_index":45,"plugin_version":"2.1.0","time_elapsed":282985,"subject_id":"87472","group":"Group1","full_date":"2025-12-10T04:04:09.448Z","date":"2025-12-10","time":"04:04:09"},{"task":"memory_phase","broad_category":"I","image_png":"I_Rhyolite_11.png","image_id":155,"category_name":"Rhyolite","category":10,"distinct_rating":1.73,"distinct_type":"Bottom","rt":null,"stimulus":"Stimuli_Rocks480/I_Rhyolite_11.png","response":null,"trial_type":"image-keyboard-response","trial_index":46,"plugin_version":"2.1.0","time_elapsed":285488,"subject_id":"87472","group":"Group1","full_date":"2025-12-10T04:04:09.448Z","date":"2025-12-10","time":"04:04:09"},{"rt":null,"stimulus":"<p style=\"font-size: 50px; margin: 0; text-align: center;\">+</p>","response":null,"trial_type":"html-keyboard-response","trial_index":47,"plugin_version":"2.1.0","time_elapsed":286491,"subject_id":"87472","group":"Group1","full_date":"2025-12-10T04:04:09.448Z","date":"2025-12-10","time":"04:04:09"},{"task":"memory_phase","broad_category":"M","image_png":"M_Slate_03.png","image_id":307,"category_name":"Slate","category":20,"distinct_rating":1.87,"distinct_type":"Bottom","rt":null,"stimulus":"Stimuli_Rocks480/M_Slate_03.png","response":null,"trial_type":"image-keyboard-response","trial_index":48,"plugin_version":"2.1.0","time_elapsed":288995,"subject_id":"87472","group":"Group1","full_date":"2025-12-10T04:04:09.448Z","date":"2025-12-10","time":"04:04:09"},{"rt":null,"stimulus":"<p style=\"font-size: 50px; margin: 0; text-align: center;\">+</p>","response":null,"trial_type":"html-keyboard-response","trial_index":49,"plugin_version":"2.1.0","time_elapsed":289998,"subject_id":"87472","group":"Group1","full_date":"2025-12-10T04:04:09.448Z","date":"2025-12-10","time":"04:04:09"},{"task":"memory_phase","broad_category":"I","image_png":"I_Diorite_04.png","image_id":36,"category_name":"Diorite","category":3,"distinct_rating":2.98,"distinct_type":"Bottom","rt":null,"stimulus":"Stimuli_Rocks480/I_Diorite_04.png","response":null,"trial_type":"image-keyboard-response","trial_index":50,"plugin_version":"2.1.0","time_elapsed":292502,"subject_id":"87472","group":"Group1","full_date":"2025-12-10T04:04:09.448Z","date":"2025-12-10","time":"04:04:09"},{"rt":null,"stimulus":"<p style=\"font-size: 50px; margin: 0; text-align: center;\">+</p>","response":null,"trial_type":"html-keyboard-response","trial_index":51,"plugin_version":"2.1.0","time_elapsed":293504,"subject_id":"87472","group":"Group1","full_date":"2025-12-10T04:04:09.448Z","date":"2025-12-10","time":"04:04:09"},{"task":"memory_phase","broad_category":"M","image_png":"M_Phyllite_07.png","image_id":263,"category_name":"Phyllite","category":17,"distinct_rating":2.59,"distinct_type":"Bottom","rt":null,"stimulus":"Stimuli_Rocks480/M_Phyllite_07.png","response":null,"trial_type":"image-keyboard-response","trial_index":52,"plugin_version":"2.1.0","time_elapsed":296008,"subject_id":"87472","group":"Group1","full_date":"2025-12-10T04:04:09.448Z","date":"2025-12-10","time":"04:04:09"},{"rt":null,"stimulus":"<p style=\"font-size: 50px; margin: 0; text-align: center;\">+</p>","response":null,"trial_type":"html-keyboard-response","trial_index":53,"plugin_version":"2.1.0","time_elapsed":297010,"subject_id":"87472","group":"Group1","full_date":"2025-12-10T04:04:09.448Z","date":"2025-12-10","time":"04:04:09"},{"task":"memory_phase","broad_category":"M","image_png":"M_Gneiss_13.png","image_id":205,"category_name":"Gneiss","category":13,"distinct_rating":3.26,"distinct_type":"Bottom","rt":null,"stimulus":"Stimuli_Rocks480/M_Gneiss_13.png","response":null,"trial_type":"image-keyboard-response","trial_index":54,"plugin_version":"2.1.0","time_elapsed":299513,"subject_id":"87472","group":"Group1","full_date":"2025-12-10T04:04:09.448Z","date":"2025-12-10","time":"04:04:09"},{"rt":2826,"stimulus":"<p style=\"max-width: 760px; margin: auto; font-size: 35px; line-height: 1.5;\">Press SPACE to continue study phase</p>","response":" ","trial_type":"html-keyboard-response","trial_index":55,"plugin_version":"2.1.0","time_elapsed":302342,"subject_id":"87472","group":"Group1","full_date":"2025-12-10T04:04:09.448Z","date":"2025-12-10","time":"04:04:09"},{"rt":null,"stimulus":"<p style=\"font-size: 50px; margin: 0; text-align: center;\">+</p>","response":null,"trial_type":"html-keyboard-response","trial_index":56,"plugin_version":"2.1.0","time_elapsed":303345,"subject_id":"87472","group":"Group1","full_date":"2025-12-10T04:04:09.448Z","date":"2025-12-10","time":"04:04:09"},{"task":"memory_phase","broad_category":"M","image_png":"M_Gneiss_06.png","image_id":198,"category_name":"Gneiss","category":13,"distinct_rating":2.65,"distinct_type":"Bottom","rt":null,"stimulus":"Stimuli_Rocks480/M_Gneiss_06.png","response":null,"trial_type":"image-keyboard-response","trial_index":57,"plugin_version":"2.1.0","time_elapsed":305849,"subject_id":"87472","group":"Group1","full_date":"2025-12-10T04:04:09.448Z","date":"2025-12-10","time":"04:04:09"},{"rt":null,"stimulus":"<p style=\"font-size: 50px; margin: 0; text-align: center;\">+</p>","response":null,"trial_type":"html-keyboard-response","trial_index":58,"plugin_version":"2.1.0","time_elapsed":306852,"subject_id":"87472","group":"Group1","full_date":"2025-12-10T04:04:09.448Z","date":"2025-12-10","time":"04:04:09"},{"task":"memory_phase","broad_category":"M","image_png":"M_Gneiss_05.png","image_id":197,"category_name":"Gneiss","category":13,"distinct_rating":2.97,"distinct_type":"Bottom","rt":null,"stimulus":"Stimuli_Rocks480/M_Gneiss_05.png","response":null,"trial_type":"image-keyboard-response","trial_index":59,"plugin_version":"2.1.0","time_elapsed":309356,"subject_id":"87472","group":"Group1","full_date":"2025-12-10T04:04:09.448Z","date":"2025-12-10","time":"04:04:09"},{"rt":null,"stimulus":"<p style=\"font-size: 50px; margin: 0; text-align: center;\">+</p>","response":null,"trial_type":"html-keyboard-response","trial_index":60,"plugin_version":"2.1.0","time_elapsed":310359,"subject_id":"87472","group":"Group1","full_date":"2025-12-10T04:04:09.448Z","date":"2025-12-10","time":"04:04:09"},{"task":"memory_phase","broad_category":"I","image_png":"I_Gabbro_11.png","image_id":59,"category_name":"Gabbro","category":4,"distinct_rating":1.99,"distinct_type":"Bottom","rt":null,"stimulus":"Stimuli_Rocks480/I_Gabbro_11.png","response":null,"trial_type":"image-keyboard-response","trial_index":61,"plugin_version":"2.1.0","time_elapsed":312863,"subject_id":"87472","group":"Group1","full_date":"2025-12-10T04:04:09.448Z","date":"2025-12-10","time":"04:04:09"},{"rt":null,"stimulus":"<p style=\"font-size: 50px; margin: 0; text-align: center;\">+</p>","response":null,"trial_type":"html-keyboard-response","trial_index":62,"plugin_version":"2.1.0","time_elapsed":313866,"subject_id":"87472","group":"Group1","full_date":"2025-12-10T04:04:09.448Z","date":"2025-12-10","time":"04:04:09"},{"task":"memory_phase","broad_category":"M","image_png":"M_Marble_16.png","image_id":240,"category_name":"Marble","category":15,"distinct_rating":2.57,"distinct_type":"Bottom","rt":null,"stimulus":"Stimuli_Rocks480/M_Marble_16.png","response":null,"trial_type":"image-keyboard-response","trial_index":63,"plugin_version":"2.1.0","time_elapsed":316369,"subject_id":"87472","group":"Group1","full_date":"2025-12-10T04:04:09.448Z","date":"2025-12-10","time":"04:04:09"},{"rt":null,"stimulus":"<p style=\"font-size: 50px; margin: 0; text-align: center;\">+</p>","response":null,"trial_type":"html-keyboard-response","trial_index":64,"plugin_version":"2.1.0","time_elapsed":317372,"subject_id":"87472","group":"Group1","full_date":"2025-12-10T04:04:09.448Z","date":"2025-12-10","time":"04:04:09"},{"task":"memory_phase","broad_category":"S","image_png":"S_Dolomite_14.png","image_id":398,"category_name":"Dolomite","category":25,"distinct_rating":1.43,"distinct_type":"Bottom","rt":null,"stimulus":"Stimuli_Rocks480/S_Dolomite_14.png","response":null,"trial_type":"image-keyboard-response","trial_index":65,"plugin_version":"2.1.0","time_elapsed":319876,"subject_id":"87472","group":"Group1","full_date":"2025-12-10T04:04:09.448Z","date":"2025-12-10","time":"04:04:09"},{"rt":null,"stimulus":"<p style=\"font-size: 50px; margin: 0; text-align: center;\">+</p>","response":null,"trial_type":"html-keyboard-response","trial_index":66,"plugin_version":"2.1.0","time_elapsed":320879,"subject_id":"87472","group":"Group1","full_date":"2025-12-10T04:04:09.448Z","date":"2025-12-10","time":"04:04:09"},{"task":"memory_phase","broad_category":"M","image_png":"M_Quartzite_08.png","image_id":280,"category_name":"Quartzite","category":18,"distinct_rating":2.15,"distinct_type":"Bottom","rt":null,"stimulus":"Stimuli_Rocks480/M_Quartzite_08.png","response":null,"trial_type":"image-keyboard-response","trial_index":67,"plugin_version":"2.1.0","time_elapsed":323383,"subject_id":"87472","group":"Group1","full_date":"2025-12-10T04:04:09.448Z","date":"2025-12-10","time":"04:04:09"},{"rt":null,"stimulus":"<p style=\"font-size: 50px; margin: 0; text-align: center;\">+</p>","response":null,"trial_type":"html-keyboard-response","trial_index":68,"plugin_version":"2.1.0","time_elapsed":324385,"subject_id":"87472","group":"Group1","full_date":"2025-12-10T04:04:09.448Z","date":"2025-12-10","time":"04:04:09"},{"task":"memory_phase","broad_category":"I","image_png":"I_Pegmatite_16.png","image_id":112,"category_name":"Pegmatite","category":7,"distinct_rating":7.03,"distinct_type":"Top","rt":null,"stimulus":"Stimuli_Rocks480/I_Pegmatite_16.png","response":null,"trial_type":"image-keyboard-response","trial_index":69,"plugin_version":"2.1.0","time_elapsed":326890,"subject_id":"87472","group":"Group1","full_date":"2025-12-10T04:04:09.448Z","date":"2025-12-10","time":"04:04:09"},{"rt":null,"stimulus":"<p style=\"font-size: 50px; margin: 0; text-align: center;\">+</p>","response":null,"trial_type":"html-keyboard-response","trial_index":70,"plugin_version":"2.1.0","time_elapsed":327892,"subject_id":"87472","group":"Group1","full_date":"2025-12-10T04:04:09.448Z","date":"2025-12-10","time":"04:04:09"},{"task":"memory_phase","broad_category":"I","image_png":"I_Gabbro_08.png","image_id":56,"category_name":"Gabbro","category":4,"distinct_rating":3.02,"distinct_type":"Bottom","rt":null,"stimulus":"Stimuli_Rocks480/I_Gabbro_08.png","response":null,"trial_type":"image-keyboard-response","trial_index":71,"plugin_version":"2.1.0","time_elapsed":330396,"subject_id":"87472","group":"Group1","full_date":"2025-12-10T04:04:09.448Z","date":"2025-12-10","time":"04:04:09"},{"rt":null,"stimulus":"<p style=\"font-size: 50px; margin: 0; text-align: center;\">+</p>","response":null,"trial_type":"html-keyboard-response","trial_index":72,"plugin_version":"2.1.0","time_elapsed":331399,"subject_id":"87472","group":"Group1","full_date":"2025-12-10T04:04:09.448Z","date":"2025-12-10","time":"04:04:09"},{"task":"memory_phase","broad_category":"S","image_png":"S_Breccia_11.png","image_id":347,"category_name":"Breccia","category":22,"distinct_rating":6.7,"distinct_type":"Top","rt":null,"stimulus":"Stimuli_Rocks480/S_Breccia_11.png","response":null,"trial_type":"image-keyboard-response","trial_index":73,"plugin_version":"2.1.0","time_elapsed":333902,"subject_id":"87472","group":"Group1","full_date":"2025-12-10T04:04:09.448Z","date":"2025-12-10","time":"04:04:09"},{"rt":null,"stimulus":"<p style=\"font-size: 50px; margin: 0; text-align: center;\">+</p>","response":null,"trial_type":"html-keyboard-response","trial_index":74,"plugin_version":"2.1.0","time_elapsed":334905,"subject_id":"87472","group":"Group1","full_date":"2025-12-10T04:04:09.448Z","date":"2025-12-10","time":"04:04:09"},{"task":"memory_phase","broad_category":"M","image_png":"M_Slate_15.png","image_id":319,"category_name":"Slate","category":20,"distinct_rating":2.13,"distinct_type":"Bottom","rt":null,"stimulus":"Stimuli_Rocks480/M_Slate_15.png","response":null,"trial_type":"image-keyboard-response","trial_index":75,"plugin_version":"2.1.0","time_elapsed":337408,"subject_id":"87472","group":"Group1","full_date":"2025-12-10T04:04:09.448Z","date":"2025-12-10","time":"04:04:09"},{"rt":null,"stimulus":"<p style=\"font-size: 50px; margin: 0; text-align: center;\">+</p>","response":null,"trial_type":"html-keyboard-response","trial_index":76,"plugin_version":"2.1.0","time_elapsed":338411,"subject_id":"87472","group":"Group1","full_date":"2025-12-10T04:04:09.448Z","date":"2025-12-10","time":"04:04:09"},{"task":"memory_phase","broad_category":"I","image_png":"I_Pumice_12.png","image_id":140,"category_name":"Pumice","category":9,"distinct_rating":2.97,"distinct_type":"Bottom","rt":null,"stimulus":"Stimuli_Rocks480/I_Pumice_12.png","response":null,"trial_type":"image-keyboard-response","trial_index":77,"plugin_version":"2.1.0","time_elapsed":340915,"subject_id":"87472","group":"Group1","full_date":"2025-12-10T04:04:09.448Z","date":"2025-12-10","time":"04:04:09"},{"rt":null,"stimulus":"<p style=\"font-size: 50px; margin: 0; text-align: center;\">+</p>","response":null,"trial_type":"html-keyboard-response","trial_index":78,"plugin_version":"2.1.0","time_elapsed":341917,"subject_id":"87472","group":"Group1","full_date":"2025-12-10T04:04:09.448Z","date":"2025-12-10","time":"04:04:09"},{"task":"memory_phase","broad_category":"M","image_png":"M_Phyllite_10.png","image_id":266,"category_name":"Phyllite","category":17,"distinct_rating":2.6,"distinct_type":"Bottom","rt":null,"stimulus":"Stimuli_Rocks480/M_Phyllite_10.png","response":null,"trial_type":"image-keyboard-response","trial_index":79,"plugin_version":"2.1.0","time_elapsed":344421,"subject_id":"87472","group":"Group1","full_date":"2025-12-10T04:04:09.448Z","date":"2025-12-10","time":"04:04:09"},{"rt":null,"stimulus":"<p style=\"font-size: 50px; margin: 0; text-align: center;\">+</p>","response":null,"trial_type":"html-keyboard-response","trial_index":80,"plugin_version":"2.1.0","time_elapsed":345424,"subject_id":"87472","group":"Group1","full_date":"2025-12-10T04:04:09.448Z","date":"2025-12-10","time":"04:04:09"},{"task":"memory_phase","broad_category":"I","image_png":"I_Pumice_08.png","image_id":136,"category_name":"Pumice","category":9,"distinct_rating":3.1,"distinct_type":"Bottom","rt":null,"stimulus":"Stimuli_Rocks480/I_Pumice_08.png","response":null,"trial_type":"image-keyboard-response","trial_index":81,"plugin_version":"2.1.0","time_elapsed":347927,"subject_id":"87472","group":"Group1","full_date":"2025-12-10T04:04:09.448Z","date":"2025-12-10","time":"04:04:09"},{"rt":null,"stimulus":"<p style=\"font-size: 50px; margin: 0; text-align: center;\">+</p>","response":null,"trial_type":"html-keyboard-response","trial_index":82,"plugin_version":"2.1.0","time_elapsed":348930,"subject_id":"87472","group":"Group1","full_date":"2025-12-10T04:04:09.448Z","date":"2025-12-10","time":"04:04:09"},{"task":"memory_phase","broad_category":"M","image_png":"M_Marble_06.png","image_id":230,"category_name":"Marble","category":15,"distinct_rating":3.4,"distinct_type":"Bottom","rt":null,"stimulus":"Stimuli_Rocks480/M_Marble_06.png","response":null,"trial_type":"image-keyboard-response","trial_index":83,"plugin_version":"2.1.0","time_elapsed":351433,"subject_id":"87472","group":"Group1","full_date":"2025-12-10T04:04:09.448Z","date":"2025-12-10","time":"04:04:09"},{"rt":null,"stimulus":"<p style=\"font-size: 50px; margin: 0; text-align: center;\">+</p>","response":null,"trial_type":"html-keyboard-response","trial_index":84,"plugin_version":"2.1.0","time_elapsed":352436,"subject_id":"87472","group":"Group1","full_date":"2025-12-10T04:04:09.448Z","date":"2025-12-10","time":"04:04:09"},{"task":"memory_phase","broad_category":"S","image_png":"S_Dolomite_12.png","image_id":396,"category_name":"Dolomite","category":25,"distinct_rating":1.85,"distinct_type":"Bottom","rt":null,"stimulus":"Stimuli_Rocks480/S_Dolomite_12.png","response":null,"trial_type":"image-keyboard-response","trial_index":85,"plugin_version":"2.1.0","time_elapsed":354939,"subject_id":"87472","group":"Group1","full_date":"2025-12-10T04:04:09.448Z","date":"2025-12-10","time":"04:04:09"},{"rt":null,"stimulus":"<p style=\"font-size: 50px; margin: 0; text-align: center;\">+</p>","response":null,"trial_type":"html-keyboard-response","trial_index":86,"plugin_version":"2.1.0","time_elapsed":355942,"subject_id":"87472","group":"Group1","full_date":"2025-12-10T04:04:09.448Z","date":"2025-12-10","time":"04:04:09"},{"task":"memory_phase","broad_category":"I","image_png":"I_Basalt_09.png","image_id":25,"category_name":"Basalt","category":2,"distinct_rating":1.89,"distinct_type":"Bottom","rt":null,"stimulus":"Stimuli_Rocks480/I_Basalt_09.png","response":null,"trial_type":"image-keyboard-response","trial_index":87,"plugin_version":"2.1.0","time_elapsed":358445,"subject_id":"87472","group":"Group1","full_date":"2025-12-10T04:04:09.448Z","date":"2025-12-10","time":"04:04:09"},{"rt":null,"stimulus":"<p style=\"font-size: 50px; margin: 0; text-align: center;\">+</p>","response":null,"trial_type":"html-keyboard-response","trial_index":88,"plugin_version":"2.1.0","time_elapsed":359448,"subject_id":"87472","group":"Group1","full_date":"2025-12-10T04:04:09.448Z","date":"2025-12-10","time":"04:04:09"},{"task":"memory_phase","broad_category":"S","image_png":"S_Shale_01.png","image_id":465,"category_name":"Shale","category":30,"distinct_rating":2.7,"distinct_type":"Bottom","rt":null,"stimulus":"Stimuli_Rocks480/S_Shale_01.png","response":null,"trial_type":"image-keyboard-response","trial_index":89,"plugin_version":"2.1.0","time_elapsed":361952,"subject_id":"87472","group":"Group1","full_date":"2025-12-10T04:04:09.448Z","date":"2025-12-10","time":"04:04:09"},{"rt":null,"stimulus":"<p style=\"font-size: 50px; margin: 0; text-align: center;\">+</p>","response":null,"trial_type":"html-keyboard-response","trial_index":90,"plugin_version":"2.1.0","time_elapsed":362954,"subject_id":"87472","group":"Group1","full_date":"2025-12-10T04:04:09.448Z","date":"2025-12-10","time":"04:04:09"},{"task":"memory_phase","broad_category":"M","image_png":"M_Phyllite_03.png","image_id":259,"category_name":"Phyllite","category":17,"distinct_rating":2.5,"distinct_type":"Bottom","rt":null,"stimulus":"Stimuli_Rocks480/M_Phyllite_03.png","response":null,"trial_type":"image-keyboard-response","trial_index":91,"plugin_version":"2.1.0","time_elapsed":365458,"subject_id":"87472","group":"Group1","full_date":"2025-12-10T04:04:09.448Z","date":"2025-12-10","time":"04:04:09"},{"rt":null,"stimulus":"<p style=\"font-size: 50px; margin: 0; text-align: center;\">+</p>","response":null,"trial_type":"html-keyboard-response","trial_index":92,"plugin_version":"2.1.0","time_elapsed":366460,"subject_id":"87472","group":"Group1","full_date":"2025-12-10T04:04:09.448Z","date":"2025-12-10","time":"04:04:09"},{"task":"memory_phase","broad_category":"S","image_png":"S_Sandstone_03.png","image_id":451,"category_name":"Sandstone","category":29,"distinct_rating":1.86,"distinct_type":"Bottom","rt":null,"stimulus":"Stimuli_Rocks480/S_Sandstone_03.png","response":null,"trial_type":"image-keyboard-response","trial_index":93,"plugin_version":"2.1.0","time_elapsed":368963,"subject_id":"87472","group":"Group1","full_date":"2025-12-10T04:04:09.448Z","date":"2025-12-10","time":"04:04:09"},{"rt":null,"stimulus":"<p style=\"font-size: 50px; margin: 0; text-align: center;\">+</p>","response":null,"trial_type":"html-keyboard-response","trial_index":94,"plugin_version":"2.1.0","time_elapsed":369966,"subject_id":"87472","group":"Group1","full_date":"2025-12-10T04:04:09.448Z","date":"2025-12-10","time":"04:04:09"},{"task":"memory_phase","broad_category":"S","image_png":"S_Sandstone_16.png","image_id":464,"category_name":"Sandstone","category":29,"distinct_rating":1.93,"distinct_type":"Bottom","rt":null,"stimulus":"Stimuli_Rocks480/S_Sandstone_16.png","response":null,"trial_type":"image-keyboard-response","trial_index":95,"plugin_version":"2.1.0","time_elapsed":372470,"subject_id":"87472","group":"Group1","full_date":"2025-12-10T04:04:09.448Z","date":"2025-12-10","time":"04:04:09"},{"rt":null,"stimulus":"<p style=\"font-size: 50px; margin: 0; text-align: center;\">+</p>","response":null,"trial_type":"html-keyboard-response","trial_index":96,"plugin_version":"2.1.0","time_elapsed":373473,"subject_id":"87472","group":"Group1","full_date":"2025-12-10T04:04:09.448Z","date":"2025-12-10","time":"04:04:09"},{"task":"memory_phase","broad_category":"I","image_png":"I_Basalt_01.png","image_id":17,"category_name":"Basalt","category":2,"distinct_rating":1.92,"distinct_type":"Bottom","rt":null,"stimulus":"Stimuli_Rocks480/I_Basalt_01.png","response":null,"trial_type":"image-keyboard-response","trial_index":97,"plugin_version":"2.1.0","time_elapsed":375976,"subject_id":"87472","group":"Group1","full_date":"2025-12-10T04:04:09.448Z","date":"2025-12-10","time":"04:04:09"},{"rt":null,"stimulus":"<p style=\"font-size: 50px; margin: 0; text-align: center;\">+</p>","response":null,"trial_type":"html-keyboard-response","trial_index":98,"plugin_version":"2.1.0","time_elapsed":376979,"subject_id":"87472","group":"Group1","full_date":"2025-12-10T04:04:09.448Z","date":"2025-12-10","time":"04:04:09"},{"task":"memory_phase","broad_category":"S","image_png":"S_Shale_08.png","image_id":472,"category_name":"Shale","category":30,"distinct_rating":2.55,"distinct_type":"Bottom","rt":null,"stimulus":"Stimuli_Rocks480/S_Shale_08.png","response":null,"trial_type":"image-keyboard-response","trial_index":99,"plugin_version":"2.1.0","time_elapsed":379483,"subject_id":"87472","group":"Group1","full_date":"2025-12-10T04:04:09.448Z","date":"2025-12-10","time":"04:04:09"},{"rt":null,"stimulus":"<p style=\"font-size: 50px; margin: 0; text-align: center;\">+</p>","response":null,"trial_type":"html-keyboard-response","trial_index":100,"plugin_version":"2.1.0","time_elapsed":380486,"subject_id":"87472","group":"Group1","full_date":"2025-12-10T04:04:09.448Z","date":"2025-12-10","time":"04:04:09"},{"task":"memory_phase","broad_category":"M","image_png":"M_Marble_04.png","image_id":228,"category_name":"Marble","category":15,"distinct_rating":3.15,"distinct_type":"Bottom","rt":null,"stimulus":"Stimuli_Rocks480/M_Marble_04.png","response":null,"trial_type":"image-keyboard-response","trial_index":101,"plugin_version":"2.1.0","time_elapsed":382989,"subject_id":"87472","group":"Group1","full_date":"2025-12-10T04:04:09.448Z","date":"2025-12-10","time":"04:04:09"},{"rt":null,"stimulus":"<p style=\"font-size: 50px; margin: 0; text-align: center;\">+</p>","response":null,"trial_type":"html-keyboard-response","trial_index":102,"plugin_version":"2.1.0","time_elapsed":383991,"subject_id":"87472","group":"Group1","full_date":"2025-12-10T04:04:09.448Z","date":"2025-12-10","time":"04:04:09"},{"task":"memory_phase","broad_category":"M","image_png":"M_Slate_11.png","image_id":315,"category_name":"Slate","category":20,"distinct_rating":2.75,"distinct_type":"Bottom","rt":null,"stimulus":"Stimuli_Rocks480/M_Slate_11.png","response":null,"trial_type":"image-keyboard-response","trial_index":103,"plugin_version":"2.1.0","time_elapsed":386495,"subject_id":"87472","group":"Group1","full_date":"2025-12-10T04:04:09.448Z","date":"2025-12-10","time":"04:04:09"},{"rt":null,"stimulus":"<p style=\"font-size: 50px; margin: 0; text-align: center;\">+</p>","response":null,"trial_type":"html-keyboard-response","trial_index":104,"plugin_version":"2.1.0","time_elapsed":387498,"subject_id":"87472","group":"Group1","full_date":"2025-12-10T04:04:09.448Z","date":"2025-12-10","time":"04:04:09"},{"task":"memory_phase","broad_category":"S","image_png":"S_Chert_10.png","image_id":362,"category_name":"Chert","category":23,"distinct_rating":7.17,"distinct_type":"Top","rt":null,"stimulus":"Stimuli_Rocks480/S_Chert_10.png","response":null,"trial_type":"image-keyboard-response","trial_index":105,"plugin_version":"2.1.0","time_elapsed":390001,"subject_id":"87472","group":"Group1","full_date":"2025-12-10T04:04:09.448Z","date":"2025-12-10","time":"04:04:09"},{"rt":12803,"stimulus":"<p style=\"max-width: 760px; margin: auto; font-size: 35px; line-height: 1.5;\">You have completed 1 study phase. Now, we'll show you all the images again 2 more times.<br><br>Press SPACE to continue</p>","response":" ","trial_type":"html-keyboard-response","trial_index":106,"plugin_version":"2.1.0","time_elapsed":402805,"subject_id":"87472","group":"Group1","full_date":"2025-12-10T04:04:09.448Z","date":"2025-12-10","time":"04:04:09"},{"rt":null,"stimulus":"<p style=\"font-size: 50px; margin: 0; text-align: center;\">+</p>","response":null,"trial_type":"html-keyboard-response","trial_index":107,"plugin_version":"2.1.0","time_elapsed":403808,"subject_id":"87472","group":"Group1","full_date":"2025-12-10T04:04:09.448Z","date":"2025-12-10","time":"04:04:09"},{"task":"memory_phase","broad_category":"I","image_png":"I_Basalt_01.png","image_id":17,"category_name":"Basalt","category":2,"distinct_rating":1.92,"distinct_type":"Bottom","rt":null,"stimulus":"Stimuli_Rocks480/I_Basalt_01.png","response":null,"trial_type":"image-keyboard-response","trial_index":108,"plugin_version":"2.1.0","time_elapsed":406312,"subject_id":"87472","group":"Group1","full_date":"2025-12-10T04:04:09.448Z","date":"2025-12-10","time":"04:04:09"},{"rt":null,"stimulus":"<p style=\"font-size: 50px; margin: 0; text-align: center;\">+</p>","response":null,"trial_type":"html-keyboard-response","trial_index":109,"plugin_version":"2.1.0","time_elapsed":407315,"subject_id":"87472","group":"Group1","full_date":"2025-12-10T04:04:09.448Z","date":"2025-12-10","time":"04:04:09"},{"task":"memory_phase","broad_category":"I","image_png":"I_Pegmatite_10.png","image_id":106,"category_name":"Pegmatite","category":7,"distinct_rating":7.66,"distinct_type":"Top","rt":null,"stimulus":"Stimuli_Rocks480/I_Pegmatite_10.png","response":null,"trial_type":"image-keyboard-response","trial_index":110,"plugin_version":"2.1.0","time_elapsed":409819,"subject_id":"87472","group":"Group1","full_date":"2025-12-10T04:04:09.448Z","date":"2025-12-10","time":"04:04:09"},{"rt":null,"stimulus":"<p style=\"font-size: 50px; margin: 0; text-align: center;\">+</p>","response":null,"trial_type":"html-keyboard-response","trial_index":111,"plugin_version":"2.1.0","time_elapsed":410821,"subject_id":"87472","group":"Group1","full_date":"2025-12-10T04:04:09.448Z","date":"2025-12-10","time":"04:04:09"},{"task":"memory_phase","broad_category":"S","image_png":"S_Conglomerate_05.png","image_id":373,"category_name":"Conglomerate","category":24,"distinct_rating":7.32,"distinct_type":"Top","rt":null,"stimulus":"Stimuli_Rocks480/S_Conglomerate_05.png","response":null,"trial_type":"image-keyboard-response","trial_index":112,"plugin_version":"2.1.0","time_elapsed":413326,"subject_id":"87472","group":"Group1","full_date":"2025-12-10T04:04:09.448Z","date":"2025-12-10","time":"04:04:09"},{"rt":null,"stimulus":"<p style=\"font-size: 50px; margin: 0; text-align: center;\">+</p>","response":null,"trial_type":"html-keyboard-response","trial_index":113,"plugin_version":"2.1.0","time_elapsed":414328,"subject_id":"87472","group":"Group1","full_date":"2025-12-10T04:04:09.448Z","date":"2025-12-10","time":"04:04:09"},{"task":"memory_phase","broad_category":"S","image_png":"S_Rock Gypsum_04.png","image_id":420,"category_name":"Rock Gypsum","category":27,"distinct_rating":7.61,"distinct_type":"Top","rt":null,"stimulus":"Stimuli_Rocks480/S_Rock Gypsum_04.png","response":null,"trial_type":"image-keyboard-response","trial_index":114,"plugin_version":"2.1.0","time_elapsed":416832,"subject_id":"87472","group":"Group1","full_date":"2025-12-10T04:04:09.448Z","date":"2025-12-10","time":"04:04:09"},{"rt":null,"stimulus":"<p style=\"font-size: 50px; margin: 0; text-align: center;\">+</p>","response":null,"trial_type":"html-keyboard-response","trial_index":115,"plugin_version":"2.1.0","time_elapsed":417834,"subject_id":"87472","group":"Group1","full_date":"2025-12-10T04:04:09.448Z","date":"2025-12-10","time":"04:04:09"},{"task":"memory_phase","broad_category":"S","image_png":"S_Dolomite_12.png","image_id":396,"category_name":"Dolomite","category":25,"distinct_rating":1.85,"distinct_type":"Bottom","rt":null,"stimulus":"Stimuli_Rocks480/S_Dolomite_12.png","response":null,"trial_type":"image-keyboard-response","trial_index":116,"plugin_version":"2.1.0","time_elapsed":420338,"subject_id":"87472","group":"Group1","full_date":"2025-12-10T04:04:09.448Z","date":"2025-12-10","time":"04:04:09"},{"rt":null,"stimulus":"<p style=\"font-size: 50px; margin: 0; text-align: center;\">+</p>","response":null,"trial_type":"html-keyboard-response","trial_index":117,"plugin_version":"2.1.0","time_elapsed":421340,"subject_id":"87472","group":"Group1","full_date":"2025-12-10T04:04:09.448Z","date":"2025-12-10","time":"04:04:09"},{"task":"memory_phase","broad_category":"S","image_png":"S_Dolomite_13.png","image_id":397,"category_name":"Dolomite","category":25,"distinct_rating":1.77,"distinct_type":"Bottom","rt":null,"stimulus":"Stimuli_Rocks480/S_Dolomite_13.png","response":null,"trial_type":"image-keyboard-response","trial_index":118,"plugin_version":"2.1.0","time_elapsed":423844,"subject_id":"87472","group":"Group1","full_date":"2025-12-10T04:04:09.448Z","date":"2025-12-10","time":"04:04:09"},{"rt":null,"stimulus":"<p style=\"font-size: 50px; margin: 0; text-align: center;\">+</p>","response":null,"trial_type":"html-keyboard-response","trial_index":119,"plugin_version":"2.1.0","time_elapsed":424846,"subject_id":"87472","group":"Group1","full_date":"2025-12-10T04:04:09.448Z","date":"2025-12-10","time":"04:04:09"},{"task":"memory_phase","broad_category":"M","image_png":"M_Gneiss_13.png","image_id":205,"category_name":"Gneiss","category":13,"distinct_rating":3.26,"distinct_type":"Bottom","rt":null,"stimulus":"Stimuli_Rocks480/M_Gneiss_13.png","response":null,"trial_type":"image-keyboard-response","trial_index":120,"plugin_version":"2.1.0","time_elapsed":427350,"subject_id":"87472","group":"Group1","full_date":"2025-12-10T04:04:09.448Z","date":"2025-12-10","time":"04:04:09"},{"rt":null,"stimulus":"<p style=\"font-size: 50px; margin: 0; text-align: center;\">+</p>","response":null,"trial_type":"html-keyboard-response","trial_index":121,"plugin_version":"2.1.0","time_elapsed":428352,"subject_id":"87472","group":"Group1","full_date":"2025-12-10T04:04:09.448Z","date":"2025-12-10","time":"04:04:09"},{"task":"memory_phase","broad_category":"M","image_png":"M_Quartzite_13.png","image_id":285,"category_name":"Quartzite","category":18,"distinct_rating":2.27,"distinct_type":"Bottom","rt":null,"stimulus":"Stimuli_Rocks480/M_Quartzite_13.png","response":null,"trial_type":"image-keyboard-response","trial_index":122,"plugin_version":"2.1.0","time_elapsed":430856,"subject_id":"87472","group":"Group1","full_date":"2025-12-10T04:04:09.448Z","date":"2025-12-10","time":"04:04:09"},{"rt":null,"stimulus":"<p style=\"font-size: 50px; margin: 0; text-align: center;\">+</p>","response":null,"trial_type":"html-keyboard-response","trial_index":123,"plugin_version":"2.1.0","time_elapsed":431859,"subject_id":"87472","group":"Group1","full_date":"2025-12-10T04:04:09.448Z","date":"2025-12-10","time":"04:04:09"},{"task":"memory_phase","broad_category":"I","image_png":"I_Rhyolite_14.png","image_id":158,"category_name":"Rhyolite","category":10,"distinct_rating":2.59,"distinct_type":"Bottom","rt":null,"stimulus":"Stimuli_Rocks480/I_Rhyolite_14.png","response":null,"trial_type":"image-keyboard-response","trial_index":124,"plugin_version":"2.1.0","time_elapsed":434362,"subject_id":"87472","group":"Group1","full_date":"2025-12-10T04:04:09.448Z","date":"2025-12-10","time":"04:04:09"},{"rt":null,"stimulus":"<p style=\"font-size: 50px; margin: 0; text-align: center;\">+</p>","response":null,"trial_type":"html-keyboard-response","trial_index":125,"plugin_version":"2.1.0","time_elapsed":435365,"subject_id":"87472","group":"Group1","full_date":"2025-12-10T04:04:09.448Z","date":"2025-12-10","time":"04:04:09"},{"task":"memory_phase","broad_category":"I","image_png":"I_Diorite_05.png","image_id":37,"category_name":"Diorite","category":3,"distinct_rating":3.08,"distinct_type":"Bottom","rt":null,"stimulus":"Stimuli_Rocks480/I_Diorite_05.png","response":null,"trial_type":"image-keyboard-response","trial_index":126,"plugin_version":"2.1.0","time_elapsed":437869,"subject_id":"87472","group":"Group1","full_date":"2025-12-10T04:04:09.448Z","date":"2025-12-10","time":"04:04:09"},{"rt":null,"stimulus":"<p style=\"font-size: 50px; margin: 0; text-align: center;\">+</p>","response":null,"trial_type":"html-keyboard-response","trial_index":127,"plugin_version":"2.1.0","time_elapsed":438871,"subject_id":"87472","group":"Group1","full_date":"2025-12-10T04:04:09.448Z","date":"2025-12-10","time":"04:04:09"},{"task":"memory_phase","broad_category":"M","image_png":"M_Quartzite_08.png","image_id":280,"category_name":"Quartzite","category":18,"distinct_rating":2.15,"distinct_type":"Bottom","rt":null,"stimulus":"Stimuli_Rocks480/M_Quartzite_08.png","response":null,"trial_type":"image-keyboard-response","trial_index":128,"plugin_version":"2.1.0","time_elapsed":441375,"subject_id":"87472","group":"Group1","full_date":"2025-12-10T04:04:09.448Z","date":"2025-12-10","time":"04:04:09"},{"rt":null,"stimulus":"<p style=\"font-size: 50px; margin: 0; text-align: center;\">+</p>","response":null,"trial_type":"html-keyboard-response","trial_index":129,"plugin_version":"2.1.0","time_elapsed":442377,"subject_id":"87472","group":"Group1","full_date":"2025-12-10T04:04:09.448Z","date":"2025-12-10","time":"04:04:09"},{"task":"memory_phase","broad_category":"I","image_png":"I_Pegmatite_16.png","image_id":112,"category_name":"Pegmatite","category":7,"distinct_rating":7.03,"distinct_type":"Top","rt":null,"stimulus":"Stimuli_Rocks480/I_Pegmatite_16.png","response":null,"trial_type":"image-keyboard-response","trial_index":130,"plugin_version":"2.1.0","time_elapsed":444881,"subject_id":"87472","group":"Group1","full_date":"2025-12-10T04:04:09.448Z","date":"2025-12-10","time":"04:04:09"},{"rt":null,"stimulus":"<p style=\"font-size: 50px; margin: 0; text-align: center;\">+</p>","response":null,"trial_type":"html-keyboard-response","trial_index":131,"plugin_version":"2.1.0","time_elapsed":445884,"subject_id":"87472","group":"Group1","full_date":"2025-12-10T04:04:09.448Z","date":"2025-12-10","time":"04:04:09"},{"task":"memory_phase","broad_category":"M","image_png":"M_Slate_15.png","image_id":319,"category_name":"Slate","category":20,"distinct_rating":2.13,"distinct_type":"Bottom","rt":null,"stimulus":"Stimuli_Rocks480/M_Slate_15.png","response":null,"trial_type":"image-keyboard-response","trial_index":132,"plugin_version":"2.1.0","time_elapsed":448388,"subject_id":"87472","group":"Group1","full_date":"2025-12-10T04:04:09.448Z","date":"2025-12-10","time":"04:04:09"},{"rt":null,"stimulus":"<p style=\"font-size: 50px; margin: 0; text-align: center;\">+</p>","response":null,"trial_type":"html-keyboard-response","trial_index":133,"plugin_version":"2.1.0","time_elapsed":449391,"subject_id":"87472","group":"Group1","full_date":"2025-12-10T04:04:09.448Z","date":"2025-12-10","time":"04:04:09"},{"task":"memory_phase","broad_category":"S","image_png":"S_Dolomite_14.png","image_id":398,"category_name":"Dolomite","category":25,"distinct_rating":1.43,"distinct_type":"Bottom","rt":null,"stimulus":"Stimuli_Rocks480/S_Dolomite_14.png","response":null,"trial_type":"image-keyboard-response","trial_index":134,"plugin_version":"2.1.0","time_elapsed":451894,"subject_id":"87472","group":"Group1","full_date":"2025-12-10T04:04:09.448Z","date":"2025-12-10","time":"04:04:09"},{"rt":null,"stimulus":"<p style=\"font-size: 50px; margin: 0; text-align: center;\">+</p>","response":null,"trial_type":"html-keyboard-response","trial_index":135,"plugin_version":"2.1.0","time_elapsed":452897,"subject_id":"87472","group":"Group1","full_date":"2025-12-10T04:04:09.448Z","date":"2025-12-10","time":"04:04:09"},{"task":"memory_phase","broad_category":"I","image_png":"I_Basalt_02.png","image_id":18,"category_name":"Basalt","category":2,"distinct_rating":1.84,"distinct_type":"Bottom","rt":null,"stimulus":"Stimuli_Rocks480/I_Basalt_02.png","response":null,"trial_type":"image-keyboard-response","trial_index":136,"plugin_version":"2.1.0","time_elapsed":455400,"subject_id":"87472","group":"Group1","full_date":"2025-12-10T04:04:09.448Z","date":"2025-12-10","time":"04:04:09"},{"rt":null,"stimulus":"<p style=\"font-size: 50px; margin: 0; text-align: center;\">+</p>","response":null,"trial_type":"html-keyboard-response","trial_index":137,"plugin_version":"2.1.0","time_elapsed":456403,"subject_id":"87472","group":"Group1","full_date":"2025-12-10T04:04:09.448Z","date":"2025-12-10","time":"04:04:09"},{"task":"memory_phase","broad_category":"M","image_png":"M_Phyllite_07.png","image_id":263,"category_name":"Phyllite","category":17,"distinct_rating":2.59,"distinct_type":"Bottom","rt":null,"stimulus":"Stimuli_Rocks480/M_Phyllite_07.png","response":null,"trial_type":"image-keyboard-response","trial_index":138,"plugin_version":"2.1.0","time_elapsed":458906,"subject_id":"87472","group":"Group1","full_date":"2025-12-10T04:04:09.448Z","date":"2025-12-10","time":"04:04:09"},{"rt":null,"stimulus":"<p style=\"font-size: 50px; margin: 0; text-align: center;\">+</p>","response":null,"trial_type":"html-keyboard-response","trial_index":139,"plugin_version":"2.1.0","time_elapsed":459908,"subject_id":"87472","group":"Group1","full_date":"2025-12-10T04:04:09.448Z","date":"2025-12-10","time":"04:04:09"},{"task":"memory_phase","broad_category":"M","image_png":"M_Marble_16.png","image_id":240,"category_name":"Marble","category":15,"distinct_rating":2.57,"distinct_type":"Bottom","rt":null,"stimulus":"Stimuli_Rocks480/M_Marble_16.png","response":null,"trial_type":"image-keyboard-response","trial_index":140,"plugin_version":"2.1.0","time_elapsed":462412,"subject_id":"87472","group":"Group1","full_date":"2025-12-10T04:04:09.448Z","date":"2025-12-10","time":"04:04:09"},{"rt":null,"stimulus":"<p style=\"font-size: 50px; margin: 0; text-align: center;\">+</p>","response":null,"trial_type":"html-keyboard-response","trial_index":141,"plugin_version":"2.1.0","time_elapsed":463415,"subject_id":"87472","group":"Group1","full_date":"2025-12-10T04:04:09.448Z","date":"2025-12-10","time":"04:04:09"},{"task":"memory_phase","broad_category":"M","image_png":"M_Marble_04.png","image_id":228,"category_name":"Marble","category":15,"distinct_rating":3.15,"distinct_type":"Bottom","rt":null,"stimulus":"Stimuli_Rocks480/M_Marble_04.png","response":null,"trial_type":"image-keyboard-response","trial_index":142,"plugin_version":"2.1.0","time_elapsed":465919,"subject_id":"87472","group":"Group1","full_date":"2025-12-10T04:04:09.448Z","date":"2025-12-10","time":"04:04:09"},{"rt":null,"stimulus":"<p style=\"font-size: 50px; margin: 0; text-align: center;\">+</p>","response":null,"trial_type":"html-keyboard-response","trial_index":143,"plugin_version":"2.1.0","time_elapsed":466922,"subject_id":"87472","group":"Group1","full_date":"2025-12-10T04:04:09.448Z","date":"2025-12-10","time":"04:04:09"},{"task":"memory_phase","broad_category":"I","image_png":"I_Rhyolite_16.png","image_id":160,"category_name":"Rhyolite","category":10,"distinct_rating":2.19,"distinct_type":"Bottom","rt":null,"stimulus":"Stimuli_Rocks480/I_Rhyolite_16.png","response":null,"trial_type":"image-keyboard-response","trial_index":144,"plugin_version":"2.1.0","time_elapsed":469425,"subject_id":"87472","group":"Group1","full_date":"2025-12-10T04:04:09.448Z","date":"2025-12-10","time":"04:04:09"},{"rt":null,"stimulus":"<p style=\"font-size: 50px; margin: 0; text-align: center;\">+</p>","response":null,"trial_type":"html-keyboard-response","trial_index":145,"plugin_version":"2.1.0","time_elapsed":470428,"subject_id":"87472","group":"Group1","full_date":"2025-12-10T04:04:09.448Z","date":"2025-12-10","time":"04:04:09"},{"task":"memory_phase","broad_category":"I","image_png":"I_Andesite_06.png","image_id":6,"category_name":"Andesite","category":1,"distinct_rating":3.17,"distinct_type":"Bottom","rt":null,"stimulus":"Stimuli_Rocks480/I_Andesite_06.png","response":null,"trial_type":"image-keyboard-response","trial_index":146,"plugin_version":"2.1.0","time_elapsed":472931,"subject_id":"87472","group":"Group1","full_date":"2025-12-10T04:04:09.448Z","date":"2025-12-10","time":"04:04:09"},{"rt":null,"stimulus":"<p style=\"font-size: 50px; margin: 0; text-align: center;\">+</p>","response":null,"trial_type":"html-keyboard-response","trial_index":147,"plugin_version":"2.1.0","time_elapsed":473934,"subject_id":"87472","group":"Group1","full_date":"2025-12-10T04:04:09.448Z","date":"2025-12-10","time":"04:04:09"},{"task":"memory_phase","broad_category":"I","image_png":"I_Obsidian_05.png","image_id":85,"category_name":"Obsidian","category":6,"distinct_rating":7.32,"distinct_type":"Top","rt":null,"stimulus":"Stimuli_Rocks480/I_Obsidian_05.png","response":null,"trial_type":"image-keyboard-response","trial_index":148,"plugin_version":"2.1.0","time_elapsed":476437,"subject_id":"87472","group":"Group1","full_date":"2025-12-10T04:04:09.448Z","date":"2025-12-10","time":"04:04:09"},{"rt":null,"stimulus":"<p style=\"font-size: 50px; margin: 0; text-align: center;\">+</p>","response":null,"trial_type":"html-keyboard-response","trial_index":149,"plugin_version":"2.1.0","time_elapsed":477440,"subject_id":"87472","group":"Group1","full_date":"2025-12-10T04:04:09.448Z","date":"2025-12-10","time":"04:04:09"},{"task":"memory_phase","broad_category":"M","image_png":"M_Phyllite_03.png","image_id":259,"category_name":"Phyllite","category":17,"distinct_rating":2.5,"distinct_type":"Bottom","rt":null,"stimulus":"Stimuli_Rocks480/M_Phyllite_03.png","response":null,"trial_type":"image-keyboard-response","trial_index":150,"plugin_version":"2.1.0","time_elapsed":479944,"subject_id":"87472","group":"Group1","full_date":"2025-12-10T04:04:09.448Z","date":"2025-12-10","time":"04:04:09"},{"rt":null,"stimulus":"<p style=\"font-size: 50px; margin: 0; text-align: center;\">+</p>","response":null,"trial_type":"html-keyboard-response","trial_index":151,"plugin_version":"2.1.0","time_elapsed":480947,"subject_id":"87472","group":"Group1","full_date":"2025-12-10T04:04:09.448Z","date":"2025-12-10","time":"04:04:09"},{"task":"memory_phase","broad_category":"S","image_png":"S_Chert_10.png","image_id":362,"category_name":"Chert","category":23,"distinct_rating":7.17,"distinct_type":"Top","rt":null,"stimulus":"Stimuli_Rocks480/S_Chert_10.png","response":null,"trial_type":"image-keyboard-response","trial_index":152,"plugin_version":"2.1.0","time_elapsed":483450,"subject_id":"87472","group":"Group1","full_date":"2025-12-10T04:04:09.448Z","date":"2025-12-10","time":"04:04:09"},{"rt":null,"stimulus":"<p style=\"font-size: 50px; margin: 0; text-align: center;\">+</p>","response":null,"trial_type":"html-keyboard-response","trial_index":153,"plugin_version":"2.1.0","time_elapsed":484453,"subject_id":"87472","group":"Group1","full_date":"2025-12-10T04:04:09.448Z","date":"2025-12-10","time":"04:04:09"},{"task":"memory_phase","broad_category":"I","image_png":"I_Pumice_12.png","image_id":140,"category_name":"Pumice","category":9,"distinct_rating":2.97,"distinct_type":"Bottom","rt":null,"stimulus":"Stimuli_Rocks480/I_Pumice_12.png","response":null,"trial_type":"image-keyboard-response","trial_index":154,"plugin_version":"2.1.0","time_elapsed":486956,"subject_id":"87472","group":"Group1","full_date":"2025-12-10T04:04:09.448Z","date":"2025-12-10","time":"04:04:09"},{"rt":null,"stimulus":"<p style=\"font-size: 50px; margin: 0; text-align: center;\">+</p>","response":null,"trial_type":"html-keyboard-response","trial_index":155,"plugin_version":"2.1.0","time_elapsed":487959,"subject_id":"87472","group":"Group1","full_date":"2025-12-10T04:04:09.448Z","date":"2025-12-10","time":"04:04:09"},{"task":"memory_phase","broad_category":"M","image_png":"M_Gneiss_06.png","image_id":198,"category_name":"Gneiss","category":13,"distinct_rating":2.65,"distinct_type":"Bottom","rt":null,"stimulus":"Stimuli_Rocks480/M_Gneiss_06.png","response":null,"trial_type":"image-keyboard-response","trial_index":156,"plugin_version":"2.1.0","time_elapsed":490463,"subject_id":"87472","group":"Group1","full_date":"2025-12-10T04:04:09.448Z","date":"2025-12-10","time":"04:04:09"},{"rt":3397,"stimulus":"<p style=\"max-width: 760px; margin: auto; font-size: 35px; line-height: 1.5;\">Press SPACE to continue study phase</p>","response":" ","trial_type":"html-keyboard-response","trial_index":157,"plugin_version":"2.1.0","time_elapsed":493861,"subject_id":"87472","group":"Group1","full_date":"2025-12-10T04:04:09.448Z","date":"2025-12-10","time":"04:04:09"},{"rt":null,"stimulus":"<p style=\"font-size: 50px; margin: 0; text-align: center;\">+</p>","response":null,"trial_type":"html-keyboard-response","trial_index":158,"plugin_version":"2.1.0","time_elapsed":494864,"subject_id":"87472","group":"Group1","full_date":"2025-12-10T04:04:09.448Z","date":"2025-12-10","time":"04:04:09"},{"task":"memory_phase","broad_category":"I","image_png":"I_Andesite_08.png","image_id":8,"category_name":"Andesite","category":1,"distinct_rating":1.95,"distinct_type":"Bottom","rt":null,"stimulus":"Stimuli_Rocks480/I_Andesite_08.png","response":null,"trial_type":"image-keyboard-response","trial_index":159,"plugin_version":"2.1.0","time_elapsed":497368,"subject_id":"87472","group":"Group1","full_date":"2025-12-10T04:04:09.448Z","date":"2025-12-10","time":"04:04:09"},{"rt":null,"stimulus":"<p style=\"font-size: 50px; margin: 0; text-align: center;\">+</p>","response":null,"trial_type":"html-keyboard-response","trial_index":160,"plugin_version":"2.1.0","time_elapsed":498370,"subject_id":"87472","group":"Group1","full_date":"2025-12-10T04:04:09.448Z","date":"2025-12-10","time":"04:04:09"},{"task":"memory_phase","broad_category":"I","image_png":"I_Rhyolite_11.png","image_id":155,"category_name":"Rhyolite","category":10,"distinct_rating":1.73,"distinct_type":"Bottom","rt":null,"stimulus":"Stimuli_Rocks480/I_Rhyolite_11.png","response":null,"trial_type":"image-keyboard-response","trial_index":161,"plugin_version":"2.1.0","time_elapsed":500873,"subject_id":"87472","group":"Group1","full_date":"2025-12-10T04:04:09.448Z","date":"2025-12-10","time":"04:04:09"},{"rt":null,"stimulus":"<p style=\"font-size: 50px; margin: 0; text-align: center;\">+</p>","response":null,"trial_type":"html-keyboard-response","trial_index":162,"plugin_version":"2.1.0","time_elapsed":501875,"subject_id":"87472","group":"Group1","full_date":"2025-12-10T04:04:09.448Z","date":"2025-12-10","time":"04:04:09"},{"task":"memory_phase","broad_category":"M","image_png":"M_Slate_11.png","image_id":315,"category_name":"Slate","category":20,"distinct_rating":2.75,"distinct_type":"Bottom","rt":null,"stimulus":"Stimuli_Rocks480/M_Slate_11.png","response":null,"trial_type":"image-keyboard-response","trial_index":163,"plugin_version":"2.1.0","time_elapsed":504379,"subject_id":"87472","group":"Group1","full_date":"2025-12-10T04:04:09.448Z","date":"2025-12-10","time":"04:04:09"},{"rt":null,"stimulus":"<p style=\"font-size: 50px; margin: 0; text-align: center;\">+</p>","response":null,"trial_type":"html-keyboard-response","trial_index":164,"plugin_version":"2.1.0","time_elapsed":505381,"subject_id":"87472","group":"Group1","full_date":"2025-12-10T04:04:09.448Z","date":"2025-12-10","time":"04:04:09"},{"task":"memory_phase","broad_category":"M","image_png":"M_Slate_03.png","image_id":307,"category_name":"Slate","category":20,"distinct_rating":1.87,"distinct_type":"Bottom","rt":null,"stimulus":"Stimuli_Rocks480/M_Slate_03.png","response":null,"trial_type":"image-keyboard-response","trial_index":165,"plugin_version":"2.1.0","time_elapsed":507885,"subject_id":"87472","group":"Group1","full_date":"2025-12-10T04:04:09.448Z","date":"2025-12-10","time":"04:04:09"},{"rt":null,"stimulus":"<p style=\"font-size: 50px; margin: 0; text-align: center;\">+</p>","response":null,"trial_type":"html-keyboard-response","trial_index":166,"plugin_version":"2.1.0","time_elapsed":508888,"subject_id":"87472","group":"Group1","full_date":"2025-12-10T04:04:09.448Z","date":"2025-12-10","time":"04:04:09"},{"task":"memory_phase","broad_category":"I","image_png":"I_Gabbro_16.png","image_id":64,"category_name":"Gabbro","category":4,"distinct_rating":2.52,"distinct_type":"Bottom","rt":null,"stimulus":"Stimuli_Rocks480/I_Gabbro_16.png","response":null,"trial_type":"image-keyboard-response","trial_index":167,"plugin_version":"2.1.0","time_elapsed":511392,"subject_id":"87472","group":"Group1","full_date":"2025-12-10T04:04:09.448Z","date":"2025-12-10","time":"04:04:09"},{"rt":null,"stimulus":"<p style=\"font-size: 50px; margin: 0; text-align: center;\">+</p>","response":null,"trial_type":"html-keyboard-response","trial_index":168,"plugin_version":"2.1.0","time_elapsed":512394,"subject_id":"87472","group":"Group1","full_date":"2025-12-10T04:04:09.448Z","date":"2025-12-10","time":"04:04:09"},{"task":"memory_phase","broad_category":"S","image_png":"S_Shale_08.png","image_id":472,"category_name":"Shale","category":30,"distinct_rating":2.55,"distinct_type":"Bottom","rt":null,"stimulus":"Stimuli_Rocks480/S_Shale_08.png","response":null,"trial_type":"image-keyboard-response","trial_index":169,"plugin_version":"2.1.0","time_elapsed":514898,"subject_id":"87472","group":"Group1","full_date":"2025-12-10T04:04:09.448Z","date":"2025-12-10","time":"04:04:09"},{"rt":null,"stimulus":"<p style=\"font-size: 50px; margin: 0; text-align: center;\">+</p>","response":null,"trial_type":"html-keyboard-response","trial_index":170,"plugin_version":"2.1.0","time_elapsed":515901,"subject_id":"87472","group":"Group1","full_date":"2025-12-10T04:04:09.448Z","date":"2025-12-10","time":"04:04:09"},{"task":"memory_phase","broad_category":"S","image_png":"S_Shale_01.png","image_id":465,"category_name":"Shale","category":30,"distinct_rating":2.7,"distinct_type":"Bottom","rt":null,"stimulus":"Stimuli_Rocks480/S_Shale_01.png","response":null,"trial_type":"image-keyboard-response","trial_index":171,"plugin_version":"2.1.0","time_elapsed":518405,"subject_id":"87472","group":"Group1","full_date":"2025-12-10T04:04:09.448Z","date":"2025-12-10","time":"04:04:09"},{"rt":null,"stimulus":"<p style=\"font-size: 50px; margin: 0; text-align: center;\">+</p>","response":null,"trial_type":"html-keyboard-response","trial_index":172,"plugin_version":"2.1.0","time_elapsed":519408,"subject_id":"87472","group":"Group1","full_date":"2025-12-10T04:04:09.448Z","date":"2025-12-10","time":"04:04:09"},{"task":"memory_phase","broad_category":"S","image_png":"S_Sandstone_03.png","image_id":451,"category_name":"Sandstone","category":29,"distinct_rating":1.86,"distinct_type":"Bottom","rt":null,"stimulus":"Stimuli_Rocks480/S_Sandstone_03.png","response":null,"trial_type":"image-keyboard-response","trial_index":173,"plugin_version":"2.1.0","time_elapsed":521912,"subject_id":"87472","group":"Group1","full_date":"2025-12-10T04:04:09.448Z","date":"2025-12-10","time":"04:04:09"},{"rt":null,"stimulus":"<p style=\"font-size: 50px; margin: 0; text-align: center;\">+</p>","response":null,"trial_type":"html-keyboard-response","trial_index":174,"plugin_version":"2.1.0","time_elapsed":522915,"subject_id":"87472","group":"Group1","full_date":"2025-12-10T04:04:09.448Z","date":"2025-12-10","time":"04:04:09"},{"task":"memory_phase","broad_category":"I","image_png":"I_Diorite_03.png","image_id":35,"category_name":"Diorite","category":3,"distinct_rating":3.14,"distinct_type":"Bottom","rt":null,"stimulus":"Stimuli_Rocks480/I_Diorite_03.png","response":null,"trial_type":"image-keyboard-response","trial_index":175,"plugin_version":"2.1.0","time_elapsed":525418,"subject_id":"87472","group":"Group1","full_date":"2025-12-10T04:04:09.448Z","date":"2025-12-10","time":"04:04:09"},{"rt":null,"stimulus":"<p style=\"font-size: 50px; margin: 0; text-align: center;\">+</p>","response":null,"trial_type":"html-keyboard-response","trial_index":176,"plugin_version":"2.1.0","time_elapsed":526421,"subject_id":"87472","group":"Group1","full_date":"2025-12-10T04:04:09.448Z","date":"2025-12-10","time":"04:04:09"},{"task":"memory_phase","broad_category":"I","image_png":"I_Diorite_04.png","image_id":36,"category_name":"Diorite","category":3,"distinct_rating":2.98,"distinct_type":"Bottom","rt":null,"stimulus":"Stimuli_Rocks480/I_Diorite_04.png","response":null,"trial_type":"image-keyboard-response","trial_index":177,"plugin_version":"2.1.0","time_elapsed":529001,"subject_id":"87472","group":"Group1","full_date":"2025-12-10T04:04:09.448Z","date":"2025-12-10","time":"04:04:09"},{"rt":null,"stimulus":"<p style=\"font-size: 50px; margin: 0; text-align: center;\">+</p>","response":null,"trial_type":"html-keyboard-response","trial_index":178,"plugin_version":"2.1.0","time_elapsed":530004,"subject_id":"87472","group":"Group1","full_date":"2025-12-10T04:04:09.448Z","date":"2025-12-10","time":"04:04:09"},{"task":"memory_phase","broad_category":"M","image_png":"M_Gneiss_05.png","image_id":197,"category_name":"Gneiss","category":13,"distinct_rating":2.97,"distinct_type":"Bottom","rt":null,"stimulus":"Stimuli_Rocks480/M_Gneiss_05.png","response":null,"trial_type":"image-keyboard-response","trial_index":179,"plugin_version":"2.1.0","time_elapsed":532508,"subject_id":"87472","group":"Group1","full_date":"2025-12-10T04:04:09.448Z","date":"2025-12-10","time":"04:04:09"},{"rt":null,"stimulus":"<p style=\"font-size: 50px; margin: 0; text-align: center;\">+</p>","response":null,"trial_type":"html-keyboard-response","trial_index":180,"plugin_version":"2.1.0","time_elapsed":533511,"subject_id":"87472","group":"Group1","full_date":"2025-12-10T04:04:09.448Z","date":"2025-12-10","time":"04:04:09"},{"task":"memory_phase","broad_category":"S","image_png":"S_Shale_12.png","image_id":476,"category_name":"Shale","category":30,"distinct_rating":2.48,"distinct_type":"Bottom","rt":null,"stimulus":"Stimuli_Rocks480/S_Shale_12.png","response":null,"trial_type":"image-keyboard-response","trial_index":181,"plugin_version":"2.1.0","time_elapsed":536014,"subject_id":"87472","group":"Group1","full_date":"2025-12-10T04:04:09.448Z","date":"2025-12-10","time":"04:04:09"},{"rt":null,"stimulus":"<p style=\"font-size: 50px; margin: 0; text-align: center;\">+</p>","response":null,"trial_type":"html-keyboard-response","trial_index":182,"plugin_version":"2.1.0","time_elapsed":537016,"subject_id":"87472","group":"Group1","full_date":"2025-12-10T04:04:09.448Z","date":"2025-12-10","time":"04:04:09"},{"task":"memory_phase","broad_category":"M","image_png":"M_Quartzite_05.png","image_id":277,"category_name":"Quartzite","category":18,"distinct_rating":2.23,"distinct_type":"Bottom","rt":null,"stimulus":"Stimuli_Rocks480/M_Quartzite_05.png","response":null,"trial_type":"image-keyboard-response","trial_index":183,"plugin_version":"2.1.0","time_elapsed":539520,"subject_id":"87472","group":"Group1","full_date":"2025-12-10T04:04:09.448Z","date":"2025-12-10","time":"04:04:09"},{"rt":null,"stimulus":"<p style=\"font-size: 50px; margin: 0; text-align: center;\">+</p>","response":null,"trial_type":"html-keyboard-response","trial_index":184,"plugin_version":"2.1.0","time_elapsed":540523,"subject_id":"87472","group":"Group1","full_date":"2025-12-10T04:04:09.448Z","date":"2025-12-10","time":"04:04:09"},{"task":"memory_phase","broad_category":"I","image_png":"I_Basalt_09.png","image_id":25,"category_name":"Basalt","category":2,"distinct_rating":1.89,"distinct_type":"Bottom","rt":null,"stimulus":"Stimuli_Rocks480/I_Basalt_09.png","response":null,"trial_type":"image-keyboard-response","trial_index":185,"plugin_version":"2.1.0","time_elapsed":543026,"subject_id":"87472","group":"Group1","full_date":"2025-12-10T04:04:09.448Z","date":"2025-12-10","time":"04:04:09"},{"rt":null,"stimulus":"<p style=\"font-size: 50px; margin: 0; text-align: center;\">+</p>","response":null,"trial_type":"html-keyboard-response","trial_index":186,"plugin_version":"2.1.0","time_elapsed":544029,"subject_id":"87472","group":"Group1","full_date":"2025-12-10T04:04:09.448Z","date":"2025-12-10","time":"04:04:09"},{"task":"memory_phase","broad_category":"S","image_png":"S_Rock Salt_01.png","image_id":433,"category_name":"Rock Salt","category":28,"distinct_rating":7.18,"distinct_type":"Top","rt":null,"stimulus":"Stimuli_Rocks480/S_Rock Salt_01.png","response":null,"trial_type":"image-keyboard-response","trial_index":187,"plugin_version":"2.1.0","time_elapsed":546533,"subject_id":"87472","group":"Group1","full_date":"2025-12-10T04:04:09.448Z","date":"2025-12-10","time":"04:04:09"},{"rt":null,"stimulus":"<p style=\"font-size: 50px; margin: 0; text-align: center;\">+</p>","response":null,"trial_type":"html-keyboard-response","trial_index":188,"plugin_version":"2.1.0","time_elapsed":547536,"subject_id":"87472","group":"Group1","full_date":"2025-12-10T04:04:09.448Z","date":"2025-12-10","time":"04:04:09"},{"task":"memory_phase","broad_category":"S","image_png":"S_Sandstone_15.png","image_id":463,"category_name":"Sandstone","category":29,"distinct_rating":2,"distinct_type":"Bottom","rt":null,"stimulus":"Stimuli_Rocks480/S_Sandstone_15.png","response":null,"trial_type":"image-keyboard-response","trial_index":189,"plugin_version":"2.1.0","time_elapsed":550040,"subject_id":"87472","group":"Group1","full_date":"2025-12-10T04:04:09.448Z","date":"2025-12-10","time":"04:04:09"},{"rt":null,"stimulus":"<p style=\"font-size: 50px; margin: 0; text-align: center;\">+</p>","response":null,"trial_type":"html-keyboard-response","trial_index":190,"plugin_version":"2.1.0","time_elapsed":551042,"subject_id":"87472","group":"Group1","full_date":"2025-12-10T04:04:09.448Z","date":"2025-12-10","time":"04:04:09"},{"task":"memory_phase","broad_category":"I","image_png":"I_Andesite_10.png","image_id":10,"category_name":"Andesite","category":1,"distinct_rating":3.15,"distinct_type":"Bottom","rt":null,"stimulus":"Stimuli_Rocks480/I_Andesite_10.png","response":null,"trial_type":"image-keyboard-response","trial_index":191,"plugin_version":"2.1.0","time_elapsed":553546,"subject_id":"87472","group":"Group1","full_date":"2025-12-10T04:04:09.448Z","date":"2025-12-10","time":"04:04:09"},{"rt":null,"stimulus":"<p style=\"font-size: 50px; margin: 0; text-align: center;\">+</p>","response":null,"trial_type":"html-keyboard-response","trial_index":192,"plugin_version":"2.1.0","time_elapsed":554549,"subject_id":"87472","group":"Group1","full_date":"2025-12-10T04:04:09.448Z","date":"2025-12-10","time":"04:04:09"},{"task":"memory_phase","broad_category":"M","image_png":"M_Marble_06.png","image_id":230,"category_name":"Marble","category":15,"distinct_rating":3.4,"distinct_type":"Bottom","rt":null,"stimulus":"Stimuli_Rocks480/M_Marble_06.png","response":null,"trial_type":"image-keyboard-response","trial_index":193,"plugin_version":"2.1.0","time_elapsed":557052,"subject_id":"87472","group":"Group1","full_date":"2025-12-10T04:04:09.448Z","date":"2025-12-10","time":"04:04:09"},{"rt":null,"stimulus":"<p style=\"font-size: 50px; margin: 0; text-align: center;\">+</p>","response":null,"trial_type":"html-keyboard-response","trial_index":194,"plugin_version":"2.1.0","time_elapsed":558055,"subject_id":"87472","group":"Group1","full_date":"2025-12-10T04:04:09.448Z","date":"2025-12-10","time":"04:04:09"},{"task":"memory_phase","broad_category":"S","image_png":"S_Breccia_11.png","image_id":347,"category_name":"Breccia","category":22,"distinct_rating":6.7,"distinct_type":"Top","rt":null,"stimulus":"Stimuli_Rocks480/S_Breccia_11.png","response":null,"trial_type":"image-keyboard-response","trial_index":195,"plugin_version":"2.1.0","time_elapsed":560559,"subject_id":"87472","group":"Group1","full_date":"2025-12-10T04:04:09.448Z","date":"2025-12-10","time":"04:04:09"},{"rt":null,"stimulus":"<p style=\"font-size: 50px; margin: 0; text-align: center;\">+</p>","response":null,"trial_type":"html-keyboard-response","trial_index":196,"plugin_version":"2.1.0","time_elapsed":561562,"subject_id":"87472","group":"Group1","full_date":"2025-12-10T04:04:09.448Z","date":"2025-12-10","time":"04:04:09"},{"task":"memory_phase","broad_category":"S","image_png":"S_Sandstone_16.png","image_id":464,"category_name":"Sandstone","category":29,"distinct_rating":1.93,"distinct_type":"Bottom","rt":null,"stimulus":"Stimuli_Rocks480/S_Sandstone_16.png","response":null,"trial_type":"image-keyboard-response","trial_index":197,"plugin_version":"2.1.0","time_elapsed":564065,"subject_id":"87472","group":"Group1","full_date":"2025-12-10T04:04:09.448Z","date":"2025-12-10","time":"04:04:09"},{"rt":null,"stimulus":"<p style=\"font-size: 50px; margin: 0; text-align: center;\">+</p>","response":null,"trial_type":"html-keyboard-response","trial_index":198,"plugin_version":"2.1.0","time_elapsed":565067,"subject_id":"87472","group":"Group1","full_date":"2025-12-10T04:04:09.448Z","date":"2025-12-10","time":"04:04:09"},{"task":"memory_phase","broad_category":"I","image_png":"I_Pumice_08.png","image_id":136,"category_name":"Pumice","category":9,"distinct_rating":3.1,"distinct_type":"Bottom","rt":null,"stimulus":"Stimuli_Rocks480/I_Pumice_08.png","response":null,"trial_type":"image-keyboard-response","trial_index":199,"plugin_version":"2.1.0","time_elapsed":567570,"subject_id":"87472","group":"Group1","full_date":"2025-12-10T04:04:09.448Z","date":"2025-12-10","time":"04:04:09"},{"rt":null,"stimulus":"<p style=\"font-size: 50px; margin: 0; text-align: center;\">+</p>","response":null,"trial_type":"html-keyboard-response","trial_index":200,"plugin_version":"2.1.0","time_elapsed":568572,"subject_id":"87472","group":"Group1","full_date":"2025-12-10T04:04:09.448Z","date":"2025-12-10","time":"04:04:09"},{"task":"memory_phase","broad_category":"I","image_png":"I_Pumice_11.png","image_id":139,"category_name":"Pumice","category":9,"distinct_rating":1.74,"distinct_type":"Bottom","rt":null,"stimulus":"Stimuli_Rocks480/I_Pumice_11.png","response":null,"trial_type":"image-keyboard-response","trial_index":201,"plugin_version":"2.1.0","time_elapsed":571076,"subject_id":"87472","group":"Group1","full_date":"2025-12-10T04:04:09.448Z","date":"2025-12-10","time":"04:04:09"},{"rt":null,"stimulus":"<p style=\"font-size: 50px; margin: 0; text-align: center;\">+</p>","response":null,"trial_type":"html-keyboard-response","trial_index":202,"plugin_version":"2.1.0","time_elapsed":572078,"subject_id":"87472","group":"Group1","full_date":"2025-12-10T04:04:09.448Z","date":"2025-12-10","time":"04:04:09"},{"task":"memory_phase","broad_category":"I","image_png":"I_Gabbro_11.png","image_id":59,"category_name":"Gabbro","category":4,"distinct_rating":1.99,"distinct_type":"Bottom","rt":null,"stimulus":"Stimuli_Rocks480/I_Gabbro_11.png","response":null,"trial_type":"image-keyboard-response","trial_index":203,"plugin_version":"2.1.0","time_elapsed":574581,"subject_id":"87472","group":"Group1","full_date":"2025-12-10T04:04:09.448Z","date":"2025-12-10","time":"04:04:09"},{"rt":null,"stimulus":"<p style=\"font-size: 50px; margin: 0; text-align: center;\">+</p>","response":null,"trial_type":"html-keyboard-response","trial_index":204,"plugin_version":"2.1.0","time_elapsed":575584,"subject_id":"87472","group":"Group1","full_date":"2025-12-10T04:04:09.448Z","date":"2025-12-10","time":"04:04:09"},{"task":"memory_phase","broad_category":"M","image_png":"M_Phyllite_10.png","image_id":266,"category_name":"Phyllite","category":17,"distinct_rating":2.6,"distinct_type":"Bottom","rt":null,"stimulus":"Stimuli_Rocks480/M_Phyllite_10.png","response":null,"trial_type":"image-keyboard-response","trial_index":205,"plugin_version":"2.1.0","time_elapsed":578088,"subject_id":"87472","group":"Group1","full_date":"2025-12-10T04:04:09.448Z","date":"2025-12-10","time":"04:04:09"},{"rt":null,"stimulus":"<p style=\"font-size: 50px; margin: 0; text-align: center;\">+</p>","response":null,"trial_type":"html-keyboard-response","trial_index":206,"plugin_version":"2.1.0","time_elapsed":579091,"subject_id":"87472","group":"Group1","full_date":"2025-12-10T04:04:09.448Z","date":"2025-12-10","time":"04:04:09"},{"task":"memory_phase","broad_category":"I","image_png":"I_Gabbro_08.png","image_id":56,"category_name":"Gabbro","category":4,"distinct_rating":3.02,"distinct_type":"Bottom","rt":null,"stimulus":"Stimuli_Rocks480/I_Gabbro_08.png","response":null,"trial_type":"image-keyboard-response","trial_index":207,"plugin_version":"2.1.0","time_elapsed":581595,"subject_id":"87472","group":"Group1","full_date":"2025-12-10T04:04:09.448Z","date":"2025-12-10","time":"04:04:09"},{"rt":11625,"stimulus":"<p style=\"max-width: 760px; margin: auto; font-size: 35px; line-height: 1.5;\">You have completed 2 study phases. Now, we'll show you all the images again 1 more time.<br><br>Press SPACE to continue</p>","response":" ","trial_type":"html-keyboard-response","trial_index":208,"plugin_version":"2.1.0","time_elapsed":593221,"subject_id":"87472","group":"Group1","full_date":"2025-12-10T04:04:09.448Z","date":"2025-12-10","time":"04:04:09"},{"rt":null,"stimulus":"<p style=\"font-size: 50px; margin: 0; text-align: center;\">+</p>","response":null,"trial_type":"html-keyboard-response","trial_index":209,"plugin_version":"2.1.0","time_elapsed":594224,"subject_id":"87472","group":"Group1","full_date":"2025-12-10T04:04:09.448Z","date":"2025-12-10","time":"04:04:09"},{"task":"memory_phase","broad_category":"I","image_png":"I_Diorite_05.png","image_id":37,"category_name":"Diorite","category":3,"distinct_rating":3.08,"distinct_type":"Bottom","rt":null,"stimulus":"Stimuli_Rocks480/I_Diorite_05.png","response":null,"trial_type":"image-keyboard-response","trial_index":210,"plugin_version":"2.1.0","time_elapsed":596728,"subject_id":"87472","group":"Group1","full_date":"2025-12-10T04:04:09.448Z","date":"2025-12-10","time":"04:04:09"},{"rt":null,"stimulus":"<p style=\"font-size: 50px; margin: 0; text-align: center;\">+</p>","response":null,"trial_type":"html-keyboard-response","trial_index":211,"plugin_version":"2.1.0","time_elapsed":597730,"subject_id":"87472","group":"Group1","full_date":"2025-12-10T04:04:09.448Z","date":"2025-12-10","time":"04:04:09"},{"task":"memory_phase","broad_category":"S","image_png":"S_Chert_10.png","image_id":362,"category_name":"Chert","category":23,"distinct_rating":7.17,"distinct_type":"Top","rt":null,"stimulus":"Stimuli_Rocks480/S_Chert_10.png","response":null,"trial_type":"image-keyboard-response","trial_index":212,"plugin_version":"2.1.0","time_elapsed":600234,"subject_id":"87472","group":"Group1","full_date":"2025-12-10T04:04:09.448Z","date":"2025-12-10","time":"04:04:09"},{"rt":null,"stimulus":"<p style=\"font-size: 50px; margin: 0; text-align: center;\">+</p>","response":null,"trial_type":"html-keyboard-response","trial_index":213,"plugin_version":"2.1.0","time_elapsed":601237,"subject_id":"87472","group":"Group1","full_date":"2025-12-10T04:04:09.448Z","date":"2025-12-10","time":"04:04:09"},{"task":"memory_phase","broad_category":"S","image_png":"S_Dolomite_13.png","image_id":397,"category_name":"Dolomite","category":25,"distinct_rating":1.77,"distinct_type":"Bottom","rt":null,"stimulus":"Stimuli_Rocks480/S_Dolomite_13.png","response":null,"trial_type":"image-keyboard-response","trial_index":214,"plugin_version":"2.1.0","time_elapsed":603741,"subject_id":"87472","group":"Group1","full_date":"2025-12-10T04:04:09.448Z","date":"2025-12-10","time":"04:04:09"},{"rt":null,"stimulus":"<p style=\"font-size: 50px; margin: 0; text-align: center;\">+</p>","response":null,"trial_type":"html-keyboard-response","trial_index":215,"plugin_version":"2.1.0","time_elapsed":604743,"subject_id":"87472","group":"Group1","full_date":"2025-12-10T04:04:09.448Z","date":"2025-12-10","time":"04:04:09"},{"task":"memory_phase","broad_category":"M","image_png":"M_Slate_15.png","image_id":319,"category_name":"Slate","category":20,"distinct_rating":2.13,"distinct_type":"Bottom","rt":null,"stimulus":"Stimuli_Rocks480/M_Slate_15.png","response":null,"trial_type":"image-keyboard-response","trial_index":216,"plugin_version":"2.1.0","time_elapsed":607247,"subject_id":"87472","group":"Group1","full_date":"2025-12-10T04:04:09.448Z","date":"2025-12-10","time":"04:04:09"},{"rt":null,"stimulus":"<p style=\"font-size: 50px; margin: 0; text-align: center;\">+</p>","response":null,"trial_type":"html-keyboard-response","trial_index":217,"plugin_version":"2.1.0","time_elapsed":608249,"subject_id":"87472","group":"Group1","full_date":"2025-12-10T04:04:09.448Z","date":"2025-12-10","time":"04:04:09"},{"task":"memory_phase","broad_category":"I","image_png":"I_Basalt_02.png","image_id":18,"category_name":"Basalt","category":2,"distinct_rating":1.84,"distinct_type":"Bottom","rt":null,"stimulus":"Stimuli_Rocks480/I_Basalt_02.png","response":null,"trial_type":"image-keyboard-response","trial_index":218,"plugin_version":"2.1.0","time_elapsed":610753,"subject_id":"87472","group":"Group1","full_date":"2025-12-10T04:04:09.448Z","date":"2025-12-10","time":"04:04:09"},{"rt":null,"stimulus":"<p style=\"font-size: 50px; margin: 0; text-align: center;\">+</p>","response":null,"trial_type":"html-keyboard-response","trial_index":219,"plugin_version":"2.1.0","time_elapsed":611756,"subject_id":"87472","group":"Group1","full_date":"2025-12-10T04:04:09.448Z","date":"2025-12-10","time":"04:04:09"},{"task":"memory_phase","broad_category":"S","image_png":"S_Sandstone_03.png","image_id":451,"category_name":"Sandstone","category":29,"distinct_rating":1.86,"distinct_type":"Bottom","rt":null,"stimulus":"Stimuli_Rocks480/S_Sandstone_03.png","response":null,"trial_type":"image-keyboard-response","trial_index":220,"plugin_version":"2.1.0","time_elapsed":614259,"subject_id":"87472","group":"Group1","full_date":"2025-12-10T04:04:09.448Z","date":"2025-12-10","time":"04:04:09"},{"rt":null,"stimulus":"<p style=\"font-size: 50px; margin: 0; text-align: center;\">+</p>","response":null,"trial_type":"html-keyboard-response","trial_index":221,"plugin_version":"2.1.0","time_elapsed":615261,"subject_id":"87472","group":"Group1","full_date":"2025-12-10T04:04:09.448Z","date":"2025-12-10","time":"04:04:09"},{"task":"memory_phase","broad_category":"M","image_png":"M_Quartzite_08.png","image_id":280,"category_name":"Quartzite","category":18,"distinct_rating":2.15,"distinct_type":"Bottom","rt":null,"stimulus":"Stimuli_Rocks480/M_Quartzite_08.png","response":null,"trial_type":"image-keyboard-response","trial_index":222,"plugin_version":"2.1.0","time_elapsed":617764,"subject_id":"87472","group":"Group1","full_date":"2025-12-10T04:04:09.448Z","date":"2025-12-10","time":"04:04:09"},{"rt":null,"stimulus":"<p style=\"font-size: 50px; margin: 0; text-align: center;\">+</p>","response":null,"trial_type":"html-keyboard-response","trial_index":223,"plugin_version":"2.1.0","time_elapsed":618767,"subject_id":"87472","group":"Group1","full_date":"2025-12-10T04:04:09.448Z","date":"2025-12-10","time":"04:04:09"},{"task":"memory_phase","broad_category":"S","image_png":"S_Dolomite_12.png","image_id":396,"category_name":"Dolomite","category":25,"distinct_rating":1.85,"distinct_type":"Bottom","rt":null,"stimulus":"Stimuli_Rocks480/S_Dolomite_12.png","response":null,"trial_type":"image-keyboard-response","trial_index":224,"plugin_version":"2.1.0","time_elapsed":621270,"subject_id":"87472","group":"Group1","full_date":"2025-12-10T04:04:09.448Z","date":"2025-12-10","time":"04:04:09"},{"rt":null,"stimulus":"<p style=\"font-size: 50px; margin: 0; text-align: center;\">+</p>","response":null,"trial_type":"html-keyboard-response","trial_index":225,"plugin_version":"2.1.0","time_elapsed":622273,"subject_id":"87472","group":"Group1","full_date":"2025-12-10T04:04:09.448Z","date":"2025-12-10","time":"04:04:09"},{"task":"memory_phase","broad_category":"M","image_png":"M_Quartzite_05.png","image_id":277,"category_name":"Quartzite","category":18,"distinct_rating":2.23,"distinct_type":"Bottom","rt":null,"stimulus":"Stimuli_Rocks480/M_Quartzite_05.png","response":null,"trial_type":"image-keyboard-response","trial_index":226,"plugin_version":"2.1.0","time_elapsed":624777,"subject_id":"87472","group":"Group1","full_date":"2025-12-10T04:04:09.448Z","date":"2025-12-10","time":"04:04:09"},{"rt":null,"stimulus":"<p style=\"font-size: 50px; margin: 0; text-align: center;\">+</p>","response":null,"trial_type":"html-keyboard-response","trial_index":227,"plugin_version":"2.1.0","time_elapsed":625779,"subject_id":"87472","group":"Group1","full_date":"2025-12-10T04:04:09.448Z","date":"2025-12-10","time":"04:04:09"},{"task":"memory_phase","broad_category":"M","image_png":"M_Phyllite_03.png","image_id":259,"category_name":"Phyllite","category":17,"distinct_rating":2.5,"distinct_type":"Bottom","rt":null,"stimulus":"Stimuli_Rocks480/M_Phyllite_03.png","response":null,"trial_type":"image-keyboard-response","trial_index":228,"plugin_version":"2.1.0","time_elapsed":628283,"subject_id":"87472","group":"Group1","full_date":"2025-12-10T04:04:09.448Z","date":"2025-12-10","time":"04:04:09"},{"rt":null,"stimulus":"<p style=\"font-size: 50px; margin: 0; text-align: center;\">+</p>","response":null,"trial_type":"html-keyboard-response","trial_index":229,"plugin_version":"2.1.0","time_elapsed":629285,"subject_id":"87472","group":"Group1","full_date":"2025-12-10T04:04:09.448Z","date":"2025-12-10","time":"04:04:09"},{"task":"memory_phase","broad_category":"I","image_png":"I_Basalt_09.png","image_id":25,"category_name":"Basalt","category":2,"distinct_rating":1.89,"distinct_type":"Bottom","rt":null,"stimulus":"Stimuli_Rocks480/I_Basalt_09.png","response":null,"trial_type":"image-keyboard-response","trial_index":230,"plugin_version":"2.1.0","time_elapsed":631789,"subject_id":"87472","group":"Group1","full_date":"2025-12-10T04:04:09.448Z","date":"2025-12-10","time":"04:04:09"},{"rt":null,"stimulus":"<p style=\"font-size: 50px; margin: 0; text-align: center;\">+</p>","response":null,"trial_type":"html-keyboard-response","trial_index":231,"plugin_version":"2.1.0","time_elapsed":632792,"subject_id":"87472","group":"Group1","full_date":"2025-12-10T04:04:09.448Z","date":"2025-12-10","time":"04:04:09"},{"task":"memory_phase","broad_category":"I","image_png":"I_Basalt_01.png","image_id":17,"category_name":"Basalt","category":2,"distinct_rating":1.92,"distinct_type":"Bottom","rt":null,"stimulus":"Stimuli_Rocks480/I_Basalt_01.png","response":null,"trial_type":"image-keyboard-response","trial_index":232,"plugin_version":"2.1.0","time_elapsed":635295,"subject_id":"87472","group":"Group1","full_date":"2025-12-10T04:04:09.448Z","date":"2025-12-10","time":"04:04:09"},{"rt":null,"stimulus":"<p style=\"font-size: 50px; margin: 0; text-align: center;\">+</p>","response":null,"trial_type":"html-keyboard-response","trial_index":233,"plugin_version":"2.1.0","time_elapsed":636298,"subject_id":"87472","group":"Group1","full_date":"2025-12-10T04:04:09.448Z","date":"2025-12-10","time":"04:04:09"},{"task":"memory_phase","broad_category":"I","image_png":"I_Rhyolite_11.png","image_id":155,"category_name":"Rhyolite","category":10,"distinct_rating":1.73,"distinct_type":"Bottom","rt":null,"stimulus":"Stimuli_Rocks480/I_Rhyolite_11.png","response":null,"trial_type":"image-keyboard-response","trial_index":234,"plugin_version":"2.1.0","time_elapsed":638802,"subject_id":"87472","group":"Group1","full_date":"2025-12-10T04:04:09.448Z","date":"2025-12-10","time":"04:04:09"},{"rt":null,"stimulus":"<p style=\"font-size: 50px; margin: 0; text-align: center;\">+</p>","response":null,"trial_type":"html-keyboard-response","trial_index":235,"plugin_version":"2.1.0","time_elapsed":639805,"subject_id":"87472","group":"Group1","full_date":"2025-12-10T04:04:09.448Z","date":"2025-12-10","time":"04:04:09"},{"task":"memory_phase","broad_category":"I","image_png":"I_Gabbro_11.png","image_id":59,"category_name":"Gabbro","category":4,"distinct_rating":1.99,"distinct_type":"Bottom","rt":null,"stimulus":"Stimuli_Rocks480/I_Gabbro_11.png","response":null,"trial_type":"image-keyboard-response","trial_index":236,"plugin_version":"2.1.0","time_elapsed":642308,"subject_id":"87472","group":"Group1","full_date":"2025-12-10T04:04:09.448Z","date":"2025-12-10","time":"04:04:09"},{"rt":null,"stimulus":"<p style=\"font-size: 50px; margin: 0; text-align: center;\">+</p>","response":null,"trial_type":"html-keyboard-response","trial_index":237,"plugin_version":"2.1.0","time_elapsed":643311,"subject_id":"87472","group":"Group1","full_date":"2025-12-10T04:04:09.448Z","date":"2025-12-10","time":"04:04:09"},{"task":"memory_phase","broad_category":"I","image_png":"I_Pumice_12.png","image_id":140,"category_name":"Pumice","category":9,"distinct_rating":2.97,"distinct_type":"Bottom","rt":null,"stimulus":"Stimuli_Rocks480/I_Pumice_12.png","response":null,"trial_type":"image-keyboard-response","trial_index":238,"plugin_version":"2.1.0","time_elapsed":645815,"subject_id":"87472","group":"Group1","full_date":"2025-12-10T04:04:09.448Z","date":"2025-12-10","time":"04:04:09"},{"rt":null,"stimulus":"<p style=\"font-size: 50px; margin: 0; text-align: center;\">+</p>","response":null,"trial_type":"html-keyboard-response","trial_index":239,"plugin_version":"2.1.0","time_elapsed":646817,"subject_id":"87472","group":"Group1","full_date":"2025-12-10T04:04:09.448Z","date":"2025-12-10","time":"04:04:09"},{"task":"memory_phase","broad_category":"I","image_png":"I_Gabbro_16.png","image_id":64,"category_name":"Gabbro","category":4,"distinct_rating":2.52,"distinct_type":"Bottom","rt":null,"stimulus":"Stimuli_Rocks480/I_Gabbro_16.png","response":null,"trial_type":"image-keyboard-response","trial_index":240,"plugin_version":"2.1.0","time_elapsed":649321,"subject_id":"87472","group":"Group1","full_date":"2025-12-10T04:04:09.448Z","date":"2025-12-10","time":"04:04:09"},{"rt":null,"stimulus":"<p style=\"font-size: 50px; margin: 0; text-align: center;\">+</p>","response":null,"trial_type":"html-keyboard-response","trial_index":241,"plugin_version":"2.1.0","time_elapsed":650323,"subject_id":"87472","group":"Group1","full_date":"2025-12-10T04:04:09.448Z","date":"2025-12-10","time":"04:04:09"},{"task":"memory_phase","broad_category":"S","image_png":"S_Shale_12.png","image_id":476,"category_name":"Shale","category":30,"distinct_rating":2.48,"distinct_type":"Bottom","rt":null,"stimulus":"Stimuli_Rocks480/S_Shale_12.png","response":null,"trial_type":"image-keyboard-response","trial_index":242,"plugin_version":"2.1.0","time_elapsed":652827,"subject_id":"87472","group":"Group1","full_date":"2025-12-10T04:04:09.448Z","date":"2025-12-10","time":"04:04:09"},{"rt":null,"stimulus":"<p style=\"font-size: 50px; margin: 0; text-align: center;\">+</p>","response":null,"trial_type":"html-keyboard-response","trial_index":243,"plugin_version":"2.1.0","time_elapsed":653829,"subject_id":"87472","group":"Group1","full_date":"2025-12-10T04:04:09.448Z","date":"2025-12-10","time":"04:04:09"},{"task":"memory_phase","broad_category":"I","image_png":"I_Pegmatite_10.png","image_id":106,"category_name":"Pegmatite","category":7,"distinct_rating":7.66,"distinct_type":"Top","rt":null,"stimulus":"Stimuli_Rocks480/I_Pegmatite_10.png","response":null,"trial_type":"image-keyboard-response","trial_index":244,"plugin_version":"2.1.0","time_elapsed":656333,"subject_id":"87472","group":"Group1","full_date":"2025-12-10T04:04:09.448Z","date":"2025-12-10","time":"04:04:09"},{"rt":null,"stimulus":"<p style=\"font-size: 50px; margin: 0; text-align: center;\">+</p>","response":null,"trial_type":"html-keyboard-response","trial_index":245,"plugin_version":"2.1.0","time_elapsed":657336,"subject_id":"87472","group":"Group1","full_date":"2025-12-10T04:04:09.448Z","date":"2025-12-10","time":"04:04:09"},{"task":"memory_phase","broad_category":"S","image_png":"S_Rock Gypsum_04.png","image_id":420,"category_name":"Rock Gypsum","category":27,"distinct_rating":7.61,"distinct_type":"Top","rt":null,"stimulus":"Stimuli_Rocks480/S_Rock Gypsum_04.png","response":null,"trial_type":"image-keyboard-response","trial_index":246,"plugin_version":"2.1.0","time_elapsed":659839,"subject_id":"87472","group":"Group1","full_date":"2025-12-10T04:04:09.448Z","date":"2025-12-10","time":"04:04:09"},{"rt":null,"stimulus":"<p style=\"font-size: 50px; margin: 0; text-align: center;\">+</p>","response":null,"trial_type":"html-keyboard-response","trial_index":247,"plugin_version":"2.1.0","time_elapsed":660842,"subject_id":"87472","group":"Group1","full_date":"2025-12-10T04:04:09.448Z","date":"2025-12-10","time":"04:04:09"},{"task":"memory_phase","broad_category":"I","image_png":"I_Pegmatite_16.png","image_id":112,"category_name":"Pegmatite","category":7,"distinct_rating":7.03,"distinct_type":"Top","rt":null,"stimulus":"Stimuli_Rocks480/I_Pegmatite_16.png","response":null,"trial_type":"image-keyboard-response","trial_index":248,"plugin_version":"2.1.0","time_elap