[{"width":952,"height":826,"webaudio":true,"browser":"chrome","browser_version":"142.0.0","mobile":false,"os":"Windows 10","fullscreen":true,"vsync_rate":60.39,"webcam":true,"microphone":true,"trial_type":"browser-check","trial_index":0,"plugin_version":"2.1.0","time_elapsed":1004,"subject_id":"90166","group":"Group1","full_date":"2025-11-21T00:17:59.188Z","date":"2025-11-21","time":"00:17:59"},{"success":true,"timeout":false,"failed_images":[],"failed_audio":[],"failed_video":[],"trial_type":"preload","trial_index":1,"plugin_version":"2.1.0","time_elapsed":2705,"subject_id":"90166","group":"Group1","full_date":"2025-11-21T00:17:59.188Z","date":"2025-11-21","time":"00:17:59"},{"rt":541806,"url":"SONA_consent_memorability.html","trial_type":"external-html","trial_index":2,"plugin_version":"2.1.0","time_elapsed":544645,"subject_id":"90166","group":"Group1","full_date":"2025-11-21T00:17:59.188Z","date":"2025-11-21","time":"00:17:59"},{"success":true,"rt":25748,"trial_type":"fullscreen","trial_index":3,"plugin_version":"2.1.0","time_elapsed":571401,"subject_id":"90166","group":"Group1","full_date":"2025-11-21T00:17:59.188Z","date":"2025-11-21","time":"00:17:59"},{"rt":164321,"stimulus":"<div style=\"max-width: 760px; margin: auto; font-size: 20px; line-height: 1.5;\">\n      <h1 style=\"text-align:center; font-size: 30px;\">Instructions</h1>\n      <p>\n        Welcome to the study on <b>visual memory</b>. This experiment consists of <b>two phases</b>: \n        a <b>study phase</b> and a <b>test phase</b>.\n      </p>\n      <p>\n        In the study phase, you will see a series of rock images along with their category labels.\n        The images will appear one at a time.\n        <b>Your task</b> is to learn the categories to which the rock images belong \n        and to remember each image as accurately as possible.\n      </p> \n      <p>\n        Note that we will repeat the study phase <b>3 times</b>, \n        so you will have multiple opportunities to see and remember each image.\n      </p>\n      <p>\n        After the study phase, <b>your memory will be tested</b>. \n        Additional instructions for the test phase will be provided at that time.\n      </p>\n      <p>\n        If your computer has multiple <b>language settings</b> (e.g., English and another language),\n        please make sure it is set to English before starting.\n      </p>\n      <p>\n        You can track your progress using the <b>completion bar</b> at the top of the screen. \n        Please note that the bar will refresh when the test phase begins \n        to give you an accurate sense of your progress in both phases.\n      </p> \n      <p>\n        Press the button below when you are ready to begin.\n      </p>\n    </div>","response":0,"trial_type":"html-button-response","trial_index":4,"plugin_version":"2.1.0","time_elapsed":735725,"subject_id":"90166","group":"Group1","full_date":"2025-11-21T00:17:59.188Z","date":"2025-11-21","time":"00:17:59"},{"rt":null,"stimulus":"<p style=\"font-size: 50px; margin: 0; text-align: center;\">+</p>","response":null,"trial_type":"html-keyboard-response","trial_index":5,"plugin_version":"2.1.0","time_elapsed":736731,"subject_id":"90166","group":"Group1","full_date":"2025-11-21T00:17:59.188Z","date":"2025-11-21","time":"00:17:59"},{"task":"memory_phase","broad_category":"M","image_png":"M_Gneiss_05.png","image_id":197,"category_name":"Gneiss","category":13,"distinct_rating":2.97,"distinct_type":"Bottom","rt":null,"stimulus":"Stimuli_Rocks480/M_Gneiss_05.png","response":null,"trial_type":"image-keyboard-response","trial_index":6,"plugin_version":"2.1.0","time_elapsed":739240,"subject_id":"90166","group":"Group1","full_date":"2025-11-21T00:17:59.188Z","date":"2025-11-21","time":"00:17:59"},{"rt":null,"stimulus":"<p style=\"font-size: 50px; margin: 0; text-align: center;\">+</p>","response":null,"trial_type":"html-keyboard-response","trial_index":7,"plugin_version":"2.1.0","time_elapsed":740253,"subject_id":"90166","group":"Group1","full_date":"2025-11-21T00:17:59.188Z","date":"2025-11-21","time":"00:17:59"},{"task":"memory_phase","broad_category":"S","image_png":"S_Shale_12.png","image_id":476,"category_name":"Shale","category":30,"distinct_rating":2.48,"distinct_type":"Bottom","rt":null,"stimulus":"Stimuli_Rocks480/S_Shale_12.png","response":null,"trial_type":"image-keyboard-response","trial_index":8,"plugin_version":"2.1.0","time_elapsed":742763,"subject_id":"90166","group":"Group1","full_date":"2025-11-21T00:17:59.188Z","date":"2025-11-21","time":"00:17:59"},{"rt":null,"stimulus":"<p style=\"font-size: 50px; margin: 0; text-align: center;\">+</p>","response":null,"trial_type":"html-keyboard-response","trial_index":9,"plugin_version":"2.1.0","time_elapsed":743767,"subject_id":"90166","group":"Group1","full_date":"2025-11-21T00:17:59.188Z","date":"2025-11-21","time":"00:17:59"},{"task":"memory_phase","broad_category":"S","image_png":"S_Shale_01.png","image_id":465,"category_name":"Shale","category":30,"distinct_rating":2.7,"distinct_type":"Bottom","rt":null,"stimulus":"Stimuli_Rocks480/S_Shale_01.png","response":null,"trial_type":"image-keyboard-response","trial_index":10,"plugin_version":"2.1.0","time_elapsed":746280,"subject_id":"90166","group":"Group1","full_date":"2025-11-21T00:17:59.188Z","date":"2025-11-21","time":"00:17:59"},{"rt":null,"stimulus":"<p style=\"font-size: 50px; margin: 0; text-align: center;\">+</p>","response":null,"trial_type":"html-keyboard-response","trial_index":11,"plugin_version":"2.1.0","time_elapsed":747284,"subject_id":"90166","group":"Group1","full_date":"2025-11-21T00:17:59.188Z","date":"2025-11-21","time":"00:17:59"},{"task":"memory_phase","broad_category":"I","image_png":"I_Rhyolite_14.png","image_id":158,"category_name":"Rhyolite","category":10,"distinct_rating":2.59,"distinct_type":"Bottom","rt":null,"stimulus":"Stimuli_Rocks480/I_Rhyolite_14.png","response":null,"trial_type":"image-keyboard-response","trial_index":12,"plugin_version":"2.1.0","time_elapsed":749799,"subject_id":"90166","group":"Group1","full_date":"2025-11-21T00:17:59.188Z","date":"2025-11-21","time":"00:17:59"},{"rt":null,"stimulus":"<p style=\"font-size: 50px; margin: 0; text-align: center;\">+</p>","response":null,"trial_type":"html-keyboard-response","trial_index":13,"plugin_version":"2.1.0","time_elapsed":750810,"subject_id":"90166","group":"Group1","full_date":"2025-11-21T00:17:59.188Z","date":"2025-11-21","time":"00:17:59"},{"task":"memory_phase","broad_category":"I","image_png":"I_Basalt_01.png","image_id":17,"category_name":"Basalt","category":2,"distinct_rating":1.92,"distinct_type":"Bottom","rt":null,"stimulus":"Stimuli_Rocks480/I_Basalt_01.png","response":null,"trial_type":"image-keyboard-response","trial_index":14,"plugin_version":"2.1.0","time_elapsed":753317,"subject_id":"90166","group":"Group1","full_date":"2025-11-21T00:17:59.188Z","date":"2025-11-21","time":"00:17:59"},{"rt":null,"stimulus":"<p style=\"font-size: 50px; margin: 0; text-align: center;\">+</p>","response":null,"trial_type":"html-keyboard-response","trial_index":15,"plugin_version":"2.1.0","time_elapsed":754322,"subject_id":"90166","group":"Group1","full_date":"2025-11-21T00:17:59.188Z","date":"2025-11-21","time":"00:17:59"},{"task":"memory_phase","broad_category":"S","image_png":"S_Dolomite_13.png","image_id":397,"category_name":"Dolomite","category":25,"distinct_rating":1.77,"distinct_type":"Bottom","rt":null,"stimulus":"Stimuli_Rocks480/S_Dolomite_13.png","response":null,"trial_type":"image-keyboard-response","trial_index":16,"plugin_version":"2.1.0","time_elapsed":756829,"subject_id":"90166","group":"Group1","full_date":"2025-11-21T00:17:59.188Z","date":"2025-11-21","time":"00:17:59"},{"rt":null,"stimulus":"<p style=\"font-size: 50px; margin: 0; text-align: center;\">+</p>","response":null,"trial_type":"html-keyboard-response","trial_index":17,"plugin_version":"2.1.0","time_elapsed":757843,"subject_id":"90166","group":"Group1","full_date":"2025-11-21T00:17:59.188Z","date":"2025-11-21","time":"00:17:59"},{"task":"memory_phase","broad_category":"I","image_png":"I_Rhyolite_16.png","image_id":160,"category_name":"Rhyolite","category":10,"distinct_rating":2.19,"distinct_type":"Bottom","rt":null,"stimulus":"Stimuli_Rocks480/I_Rhyolite_16.png","response":null,"trial_type":"image-keyboard-response","trial_index":18,"plugin_version":"2.1.0","time_elapsed":760353,"subject_id":"90166","group":"Group1","full_date":"2025-11-21T00:17:59.188Z","date":"2025-11-21","time":"00:17:59"},{"rt":null,"stimulus":"<p style=\"font-size: 50px; margin: 0; text-align: center;\">+</p>","response":null,"trial_type":"html-keyboard-response","trial_index":19,"plugin_version":"2.1.0","time_elapsed":761356,"subject_id":"90166","group":"Group1","full_date":"2025-11-21T00:17:59.188Z","date":"2025-11-21","time":"00:17:59"},{"task":"memory_phase","broad_category":"M","image_png":"M_Slate_15.png","image_id":319,"category_name":"Slate","category":20,"distinct_rating":2.13,"distinct_type":"Bottom","rt":null,"stimulus":"Stimuli_Rocks480/M_Slate_15.png","response":null,"trial_type":"image-keyboard-response","trial_index":20,"plugin_version":"2.1.0","time_elapsed":763862,"subject_id":"90166","group":"Group1","full_date":"2025-11-21T00:17:59.188Z","date":"2025-11-21","time":"00:17:59"},{"rt":null,"stimulus":"<p style=\"font-size: 50px; margin: 0; text-align: center;\">+</p>","response":null,"trial_type":"html-keyboard-response","trial_index":21,"plugin_version":"2.1.0","time_elapsed":764880,"subject_id":"90166","group":"Group1","full_date":"2025-11-21T00:17:59.188Z","date":"2025-11-21","time":"00:17:59"},{"task":"memory_phase","broad_category":"M","image_png":"M_Marble_06.png","image_id":230,"category_name":"Marble","category":15,"distinct_rating":3.4,"distinct_type":"Bottom","rt":null,"stimulus":"Stimuli_Rocks480/M_Marble_06.png","response":null,"trial_type":"image-keyboard-response","trial_index":22,"plugin_version":"2.1.0","time_elapsed":767394,"subject_id":"90166","group":"Group1","full_date":"2025-11-21T00:17:59.188Z","date":"2025-11-21","time":"00:17:59"},{"rt":null,"stimulus":"<p style=\"font-size: 50px; margin: 0; text-align: center;\">+</p>","response":null,"trial_type":"html-keyboard-response","trial_index":23,"plugin_version":"2.1.0","time_elapsed":768404,"subject_id":"90166","group":"Group1","full_date":"2025-11-21T00:17:59.188Z","date":"2025-11-21","time":"00:17:59"},{"task":"memory_phase","broad_category":"I","image_png":"I_Pumice_11.png","image_id":139,"category_name":"Pumice","category":9,"distinct_rating":1.74,"distinct_type":"Bottom","rt":null,"stimulus":"Stimuli_Rocks480/I_Pumice_11.png","response":null,"trial_type":"image-keyboard-response","trial_index":24,"plugin_version":"2.1.0","time_elapsed":770917,"subject_id":"90166","group":"Group1","full_date":"2025-11-21T00:17:59.188Z","date":"2025-11-21","time":"00:17:59"},{"rt":null,"stimulus":"<p style=\"font-size: 50px; margin: 0; text-align: center;\">+</p>","response":null,"trial_type":"html-keyboard-response","trial_index":25,"plugin_version":"2.1.0","time_elapsed":771927,"subject_id":"90166","group":"Group1","full_date":"2025-11-21T00:17:59.188Z","date":"2025-11-21","time":"00:17:59"},{"task":"memory_phase","broad_category":"I","image_png":"I_Pegmatite_16.png","image_id":112,"category_name":"Pegmatite","category":7,"distinct_rating":7.03,"distinct_type":"Top","rt":null,"stimulus":"Stimuli_Rocks480/I_Pegmatite_16.png","response":null,"trial_type":"image-keyboard-response","trial_index":26,"plugin_version":"2.1.0","time_elapsed":774431,"subject_id":"90166","group":"Group1","full_date":"2025-11-21T00:17:59.188Z","date":"2025-11-21","time":"00:17:59"},{"rt":null,"stimulus":"<p style=\"font-size: 50px; margin: 0; text-align: center;\">+</p>","response":null,"trial_type":"html-keyboard-response","trial_index":27,"plugin_version":"2.1.0","time_elapsed":775444,"subject_id":"90166","group":"Group1","full_date":"2025-11-21T00:17:59.188Z","date":"2025-11-21","time":"00:17:59"},{"task":"memory_phase","broad_category":"I","image_png":"I_Diorite_03.png","image_id":35,"category_name":"Diorite","category":3,"distinct_rating":3.14,"distinct_type":"Bottom","rt":null,"stimulus":"Stimuli_Rocks480/I_Diorite_03.png","response":null,"trial_type":"image-keyboard-response","trial_index":28,"plugin_version":"2.1.0","time_elapsed":777960,"subject_id":"90166","group":"Group1","full_date":"2025-11-21T00:17:59.188Z","date":"2025-11-21","time":"00:17:59"},{"rt":null,"stimulus":"<p style=\"font-size: 50px; margin: 0; text-align: center;\">+</p>","response":null,"trial_type":"html-keyboard-response","trial_index":29,"plugin_version":"2.1.0","time_elapsed":778977,"subject_id":"90166","group":"Group1","full_date":"2025-11-21T00:17:59.188Z","date":"2025-11-21","time":"00:17:59"},{"task":"memory_phase","broad_category":"S","image_png":"S_Shale_08.png","image_id":472,"category_name":"Shale","category":30,"distinct_rating":2.55,"distinct_type":"Bottom","rt":null,"stimulus":"Stimuli_Rocks480/S_Shale_08.png","response":null,"trial_type":"image-keyboard-response","trial_index":30,"plugin_version":"2.1.0","time_elapsed":781483,"subject_id":"90166","group":"Group1","full_date":"2025-11-21T00:17:59.188Z","date":"2025-11-21","time":"00:17:59"},{"rt":null,"stimulus":"<p style=\"font-size: 50px; margin: 0; text-align: center;\">+</p>","response":null,"trial_type":"html-keyboard-response","trial_index":31,"plugin_version":"2.1.0","time_elapsed":782493,"subject_id":"90166","group":"Group1","full_date":"2025-11-21T00:17:59.188Z","date":"2025-11-21","time":"00:17:59"},{"task":"memory_phase","broad_category":"I","image_png":"I_Pumice_12.png","image_id":140,"category_name":"Pumice","category":9,"distinct_rating":2.97,"distinct_type":"Bottom","rt":null,"stimulus":"Stimuli_Rocks480/I_Pumice_12.png","response":null,"trial_type":"image-keyboard-response","trial_index":32,"plugin_version":"2.1.0","time_elapsed":785002,"subject_id":"90166","group":"Group1","full_date":"2025-11-21T00:17:59.188Z","date":"2025-11-21","time":"00:17:59"},{"rt":null,"stimulus":"<p style=\"font-size: 50px; margin: 0; text-align: center;\">+</p>","response":null,"trial_type":"html-keyboard-response","trial_index":33,"plugin_version":"2.1.0","time_elapsed":786008,"subject_id":"90166","group":"Group1","full_date":"2025-11-21T00:17:59.188Z","date":"2025-11-21","time":"00:17:59"},{"task":"memory_phase","broad_category":"I","image_png":"I_Pumice_08.png","image_id":136,"category_name":"Pumice","category":9,"distinct_rating":3.1,"distinct_type":"Bottom","rt":null,"stimulus":"Stimuli_Rocks480/I_Pumice_08.png","response":null,"trial_type":"image-keyboard-response","trial_index":34,"plugin_version":"2.1.0","time_elapsed":788527,"subject_id":"90166","group":"Group1","full_date":"2025-11-21T00:17:59.188Z","date":"2025-11-21","time":"00:17:59"},{"rt":null,"stimulus":"<p style=\"font-size: 50px; margin: 0; text-align: center;\">+</p>","response":null,"trial_type":"html-keyboard-response","trial_index":35,"plugin_version":"2.1.0","time_elapsed":789544,"subject_id":"90166","group":"Group1","full_date":"2025-11-21T00:17:59.188Z","date":"2025-11-21","time":"00:17:59"},{"task":"memory_phase","broad_category":"I","image_png":"I_Rhyolite_11.png","image_id":155,"category_name":"Rhyolite","category":10,"distinct_rating":1.73,"distinct_type":"Bottom","rt":null,"stimulus":"Stimuli_Rocks480/I_Rhyolite_11.png","response":null,"trial_type":"image-keyboard-response","trial_index":36,"plugin_version":"2.1.0","time_elapsed":792060,"subject_id":"90166","group":"Group1","full_date":"2025-11-21T00:17:59.188Z","date":"2025-11-21","time":"00:17:59"},{"rt":null,"stimulus":"<p style=\"font-size: 50px; margin: 0; text-align: center;\">+</p>","response":null,"trial_type":"html-keyboard-response","trial_index":37,"plugin_version":"2.1.0","time_elapsed":793068,"subject_id":"90166","group":"Group1","full_date":"2025-11-21T00:17:59.188Z","date":"2025-11-21","time":"00:17:59"},{"task":"memory_phase","broad_category":"M","image_png":"M_Quartzite_13.png","image_id":285,"category_name":"Quartzite","category":18,"distinct_rating":2.27,"distinct_type":"Bottom","rt":null,"stimulus":"Stimuli_Rocks480/M_Quartzite_13.png","response":null,"trial_type":"image-keyboard-response","trial_index":38,"plugin_version":"2.1.0","time_elapsed":795582,"subject_id":"90166","group":"Group1","full_date":"2025-11-21T00:17:59.188Z","date":"2025-11-21","time":"00:17:59"},{"rt":null,"stimulus":"<p style=\"font-size: 50px; margin: 0; text-align: center;\">+</p>","response":null,"trial_type":"html-keyboard-response","trial_index":39,"plugin_version":"2.1.0","time_elapsed":796592,"subject_id":"90166","group":"Group1","full_date":"2025-11-21T00:17:59.188Z","date":"2025-11-21","time":"00:17:59"},{"task":"memory_phase","broad_category":"I","image_png":"I_Diorite_04.png","image_id":36,"category_name":"Diorite","category":3,"distinct_rating":2.98,"distinct_type":"Bottom","rt":null,"stimulus":"Stimuli_Rocks480/I_Diorite_04.png","response":null,"trial_type":"image-keyboard-response","trial_index":40,"plugin_version":"2.1.0","time_elapsed":799104,"subject_id":"90166","group":"Group1","full_date":"2025-11-21T00:17:59.188Z","date":"2025-11-21","time":"00:17:59"},{"rt":null,"stimulus":"<p style=\"font-size: 50px; margin: 0; text-align: center;\">+</p>","response":null,"trial_type":"html-keyboard-response","trial_index":41,"plugin_version":"2.1.0","time_elapsed":800111,"subject_id":"90166","group":"Group1","full_date":"2025-11-21T00:17:59.188Z","date":"2025-11-21","time":"00:17:59"},{"task":"memory_phase","broad_category":"M","image_png":"M_Quartzite_05.png","image_id":277,"category_name":"Quartzite","category":18,"distinct_rating":2.23,"distinct_type":"Bottom","rt":null,"stimulus":"Stimuli_Rocks480/M_Quartzite_05.png","response":null,"trial_type":"image-keyboard-response","trial_index":42,"plugin_version":"2.1.0","time_elapsed":802622,"subject_id":"90166","group":"Group1","full_date":"2025-11-21T00:17:59.188Z","date":"2025-11-21","time":"00:17:59"},{"rt":null,"stimulus":"<p style=\"font-size: 50px; margin: 0; text-align: center;\">+</p>","response":null,"trial_type":"html-keyboard-response","trial_index":43,"plugin_version":"2.1.0","time_elapsed":803639,"subject_id":"90166","group":"Group1","full_date":"2025-11-21T00:17:59.188Z","date":"2025-11-21","time":"00:17:59"},{"task":"memory_phase","broad_category":"S","image_png":"S_Sandstone_16.png","image_id":464,"category_name":"Sandstone","category":29,"distinct_rating":1.93,"distinct_type":"Bottom","rt":null,"stimulus":"Stimuli_Rocks480/S_Sandstone_16.png","response":null,"trial_type":"image-keyboard-response","trial_index":44,"plugin_version":"2.1.0","time_elapsed":806146,"subject_id":"90166","group":"Group1","full_date":"2025-11-21T00:17:59.188Z","date":"2025-11-21","time":"00:17:59"},{"rt":null,"stimulus":"<p style=\"font-size: 50px; margin: 0; text-align: center;\">+</p>","response":null,"trial_type":"html-keyboard-response","trial_index":45,"plugin_version":"2.1.0","time_elapsed":807158,"subject_id":"90166","group":"Group1","full_date":"2025-11-21T00:17:59.188Z","date":"2025-11-21","time":"00:17:59"},{"task":"memory_phase","broad_category":"S","image_png":"S_Sandstone_15.png","image_id":463,"category_name":"Sandstone","category":29,"distinct_rating":2,"distinct_type":"Bottom","rt":null,"stimulus":"Stimuli_Rocks480/S_Sandstone_15.png","response":null,"trial_type":"image-keyboard-response","trial_index":46,"plugin_version":"2.1.0","time_elapsed":809671,"subject_id":"90166","group":"Group1","full_date":"2025-11-21T00:17:59.188Z","date":"2025-11-21","time":"00:17:59"},{"rt":null,"stimulus":"<p style=\"font-size: 50px; margin: 0; text-align: center;\">+</p>","response":null,"trial_type":"html-keyboard-response","trial_index":47,"plugin_version":"2.1.0","time_elapsed":810681,"subject_id":"90166","group":"Group1","full_date":"2025-11-21T00:17:59.188Z","date":"2025-11-21","time":"00:17:59"},{"task":"memory_phase","broad_category":"M","image_png":"M_Quartzite_08.png","image_id":280,"category_name":"Quartzite","category":18,"distinct_rating":2.15,"distinct_type":"Bottom","rt":null,"stimulus":"Stimuli_Rocks480/M_Quartzite_08.png","response":null,"trial_type":"image-keyboard-response","trial_index":48,"plugin_version":"2.1.0","time_elapsed":813190,"subject_id":"90166","group":"Group1","full_date":"2025-11-21T00:17:59.188Z","date":"2025-11-21","time":"00:17:59"},{"rt":null,"stimulus":"<p style=\"font-size: 50px; margin: 0; text-align: center;\">+</p>","response":null,"trial_type":"html-keyboard-response","trial_index":49,"plugin_version":"2.1.0","time_elapsed":814197,"subject_id":"90166","group":"Group1","full_date":"2025-11-21T00:17:59.188Z","date":"2025-11-21","time":"00:17:59"},{"task":"memory_phase","broad_category":"S","image_png":"S_Breccia_11.png","image_id":347,"category_name":"Breccia","category":22,"distinct_rating":6.7,"distinct_type":"Top","rt":null,"stimulus":"Stimuli_Rocks480/S_Breccia_11.png","response":null,"trial_type":"image-keyboard-response","trial_index":50,"plugin_version":"2.1.0","time_elapsed":816710,"subject_id":"90166","group":"Group1","full_date":"2025-11-21T00:17:59.188Z","date":"2025-11-21","time":"00:17:59"},{"rt":null,"stimulus":"<p style=\"font-size: 50px; margin: 0; text-align: center;\">+</p>","response":null,"trial_type":"html-keyboard-response","trial_index":51,"plugin_version":"2.1.0","time_elapsed":817714,"subject_id":"90166","group":"Group1","full_date":"2025-11-21T00:17:59.188Z","date":"2025-11-21","time":"00:17:59"},{"task":"memory_phase","broad_category":"M","image_png":"M_Phyllite_07.png","image_id":263,"category_name":"Phyllite","category":17,"distinct_rating":2.59,"distinct_type":"Bottom","rt":null,"stimulus":"Stimuli_Rocks480/M_Phyllite_07.png","response":null,"trial_type":"image-keyboard-response","trial_index":52,"plugin_version":"2.1.0","time_elapsed":820230,"subject_id":"90166","group":"Group1","full_date":"2025-11-21T00:17:59.188Z","date":"2025-11-21","time":"00:17:59"},{"rt":null,"stimulus":"<p style=\"font-size: 50px; margin: 0; text-align: center;\">+</p>","response":null,"trial_type":"html-keyboard-response","trial_index":53,"plugin_version":"2.1.0","time_elapsed":821249,"subject_id":"90166","group":"Group1","full_date":"2025-11-21T00:17:59.188Z","date":"2025-11-21","time":"00:17:59"},{"task":"memory_phase","broad_category":"I","image_png":"I_Andesite_08.png","image_id":8,"category_name":"Andesite","category":1,"distinct_rating":1.95,"distinct_type":"Bottom","rt":null,"stimulus":"Stimuli_Rocks480/I_Andesite_08.png","response":null,"trial_type":"image-keyboard-response","trial_index":54,"plugin_version":"2.1.0","time_elapsed":823761,"subject_id":"90166","group":"Group1","full_date":"2025-11-21T00:17:59.188Z","date":"2025-11-21","time":"00:17:59"},{"rt":1453,"stimulus":"<p style=\"max-width: 760px; margin: auto; font-size: 35px; line-height: 1.5;\">Press SPACE to continue study phase</p>","response":" ","trial_type":"html-keyboard-response","trial_index":55,"plugin_version":"2.1.0","time_elapsed":825217,"subject_id":"90166","group":"Group1","full_date":"2025-11-21T00:17:59.188Z","date":"2025-11-21","time":"00:17:59"},{"rt":null,"stimulus":"<p style=\"font-size: 50px; margin: 0; text-align: center;\">+</p>","response":null,"trial_type":"html-keyboard-response","trial_index":56,"plugin_version":"2.1.0","time_elapsed":826221,"subject_id":"90166","group":"Group1","full_date":"2025-11-21T00:17:59.188Z","date":"2025-11-21","time":"00:17:59"},{"task":"memory_phase","broad_category":"S","image_png":"S_Rock Gypsum_04.png","image_id":420,"category_name":"Rock Gypsum","category":27,"distinct_rating":7.61,"distinct_type":"Top","rt":null,"stimulus":"Stimuli_Rocks480/S_Rock Gypsum_04.png","response":null,"trial_type":"image-keyboard-response","trial_index":57,"plugin_version":"2.1.0","time_elapsed":828729,"subject_id":"90166","group":"Group1","full_date":"2025-11-21T00:17:59.188Z","date":"2025-11-21","time":"00:17:59"},{"rt":null,"stimulus":"<p style=\"font-size: 50px; margin: 0; text-align: center;\">+</p>","response":null,"trial_type":"html-keyboard-response","trial_index":58,"plugin_version":"2.1.0","time_elapsed":829743,"subject_id":"90166","group":"Group1","full_date":"2025-11-21T00:17:59.188Z","date":"2025-11-21","time":"00:17:59"},{"task":"memory_phase","broad_category":"I","image_png":"I_Basalt_02.png","image_id":18,"category_name":"Basalt","category":2,"distinct_rating":1.84,"distinct_type":"Bottom","rt":null,"stimulus":"Stimuli_Rocks480/I_Basalt_02.png","response":null,"trial_type":"image-keyboard-response","trial_index":59,"plugin_version":"2.1.0","time_elapsed":832253,"subject_id":"90166","group":"Group1","full_date":"2025-11-21T00:17:59.188Z","date":"2025-11-21","time":"00:17:59"},{"rt":null,"stimulus":"<p style=\"font-size: 50px; margin: 0; text-align: center;\">+</p>","response":null,"trial_type":"html-keyboard-response","trial_index":60,"plugin_version":"2.1.0","time_elapsed":833267,"subject_id":"90166","group":"Group1","full_date":"2025-11-21T00:17:59.188Z","date":"2025-11-21","time":"00:17:59"},{"task":"memory_phase","broad_category":"S","image_png":"S_Conglomerate_05.png","image_id":373,"category_name":"Conglomerate","category":24,"distinct_rating":7.32,"distinct_type":"Top","rt":null,"stimulus":"Stimuli_Rocks480/S_Conglomerate_05.png","response":null,"trial_type":"image-keyboard-response","trial_index":61,"plugin_version":"2.1.0","time_elapsed":835776,"subject_id":"90166","group":"Group1","full_date":"2025-11-21T00:17:59.188Z","date":"2025-11-21","time":"00:17:59"},{"rt":null,"stimulus":"<p style=\"font-size: 50px; margin: 0; text-align: center;\">+</p>","response":null,"trial_type":"html-keyboard-response","trial_index":62,"plugin_version":"2.1.0","time_elapsed":836780,"subject_id":"90166","group":"Group1","full_date":"2025-11-21T00:17:59.188Z","date":"2025-11-21","time":"00:17:59"},{"task":"memory_phase","broad_category":"S","image_png":"S_Rock Salt_01.png","image_id":433,"category_name":"Rock Salt","category":28,"distinct_rating":7.18,"distinct_type":"Top","rt":null,"stimulus":"Stimuli_Rocks480/S_Rock Salt_01.png","response":null,"trial_type":"image-keyboard-response","trial_index":63,"plugin_version":"2.1.0","time_elapsed":839300,"subject_id":"90166","group":"Group1","full_date":"2025-11-21T00:17:59.188Z","date":"2025-11-21","time":"00:17:59"},{"rt":null,"stimulus":"<p style=\"font-size: 50px; margin: 0; text-align: center;\">+</p>","response":null,"trial_type":"html-keyboard-response","trial_index":64,"plugin_version":"2.1.0","time_elapsed":840305,"subject_id":"90166","group":"Group1","full_date":"2025-11-21T00:17:59.188Z","date":"2025-11-21","time":"00:17:59"},{"task":"memory_phase","broad_category":"M","image_png":"M_Marble_16.png","image_id":240,"category_name":"Marble","category":15,"distinct_rating":2.57,"distinct_type":"Bottom","rt":null,"stimulus":"Stimuli_Rocks480/M_Marble_16.png","response":null,"trial_type":"image-keyboard-response","trial_index":65,"plugin_version":"2.1.0","time_elapsed":842817,"subject_id":"90166","group":"Group1","full_date":"2025-11-21T00:17:59.188Z","date":"2025-11-21","time":"00:17:59"},{"rt":null,"stimulus":"<p style=\"font-size: 50px; margin: 0; text-align: center;\">+</p>","response":null,"trial_type":"html-keyboard-response","trial_index":66,"plugin_version":"2.1.0","time_elapsed":843822,"subject_id":"90166","group":"Group1","full_date":"2025-11-21T00:17:59.188Z","date":"2025-11-21","time":"00:17:59"},{"task":"memory_phase","broad_category":"M","image_png":"M_Phyllite_03.png","image_id":259,"category_name":"Phyllite","category":17,"distinct_rating":2.5,"distinct_type":"Bottom","rt":null,"stimulus":"Stimuli_Rocks480/M_Phyllite_03.png","response":null,"trial_type":"image-keyboard-response","trial_index":67,"plugin_version":"2.1.0","time_elapsed":846327,"subject_id":"90166","group":"Group1","full_date":"2025-11-21T00:17:59.188Z","date":"2025-11-21","time":"00:17:59"},{"rt":null,"stimulus":"<p style=\"font-size: 50px; margin: 0; text-align: center;\">+</p>","response":null,"trial_type":"html-keyboard-response","trial_index":68,"plugin_version":"2.1.0","time_elapsed":847338,"subject_id":"90166","group":"Group1","full_date":"2025-11-21T00:17:59.188Z","date":"2025-11-21","time":"00:17:59"},{"task":"memory_phase","broad_category":"I","image_png":"I_Gabbro_11.png","image_id":59,"category_name":"Gabbro","category":4,"distinct_rating":1.99,"distinct_type":"Bottom","rt":null,"stimulus":"Stimuli_Rocks480/I_Gabbro_11.png","response":null,"trial_type":"image-keyboard-response","trial_index":69,"plugin_version":"2.1.0","time_elapsed":849846,"subject_id":"90166","group":"Group1","full_date":"2025-11-21T00:17:59.188Z","date":"2025-11-21","time":"00:17:59"},{"rt":null,"stimulus":"<p style=\"font-size: 50px; margin: 0; text-align: center;\">+</p>","response":null,"trial_type":"html-keyboard-response","trial_index":70,"plugin_version":"2.1.0","time_elapsed":850852,"subject_id":"90166","group":"Group1","full_date":"2025-11-21T00:17:59.188Z","date":"2025-11-21","time":"00:17:59"},{"task":"memory_phase","broad_category":"I","image_png":"I_Diorite_05.png","image_id":37,"category_name":"Diorite","category":3,"distinct_rating":3.08,"distinct_type":"Bottom","rt":null,"stimulus":"Stimuli_Rocks480/I_Diorite_05.png","response":null,"trial_type":"image-keyboard-response","trial_index":71,"plugin_version":"2.1.0","time_elapsed":853356,"subject_id":"90166","group":"Group1","full_date":"2025-11-21T00:17:59.188Z","date":"2025-11-21","time":"00:17:59"},{"rt":null,"stimulus":"<p style=\"font-size: 50px; margin: 0; text-align: center;\">+</p>","response":null,"trial_type":"html-keyboard-response","trial_index":72,"plugin_version":"2.1.0","time_elapsed":854371,"subject_id":"90166","group":"Group1","full_date":"2025-11-21T00:17:59.188Z","date":"2025-11-21","time":"00:17:59"},{"task":"memory_phase","broad_category":"I","image_png":"I_Gabbro_08.png","image_id":56,"category_name":"Gabbro","category":4,"distinct_rating":3.02,"distinct_type":"Bottom","rt":null,"stimulus":"Stimuli_Rocks480/I_Gabbro_08.png","response":null,"trial_type":"image-keyboard-response","trial_index":73,"plugin_version":"2.1.0","time_elapsed":856877,"subject_id":"90166","group":"Group1","full_date":"2025-11-21T00:17:59.188Z","date":"2025-11-21","time":"00:17:59"},{"rt":null,"stimulus":"<p style=\"font-size: 50px; margin: 0; text-align: center;\">+</p>","response":null,"trial_type":"html-keyboard-response","trial_index":74,"plugin_version":"2.1.0","time_elapsed":857887,"subject_id":"90166","group":"Group1","full_date":"2025-11-21T00:17:59.188Z","date":"2025-11-21","time":"00:17:59"},{"task":"memory_phase","broad_category":"I","image_png":"I_Gabbro_16.png","image_id":64,"category_name":"Gabbro","category":4,"distinct_rating":2.52,"distinct_type":"Bottom","rt":null,"stimulus":"Stimuli_Rocks480/I_Gabbro_16.png","response":null,"trial_type":"image-keyboard-response","trial_index":75,"plugin_version":"2.1.0","time_elapsed":860402,"subject_id":"90166","group":"Group1","full_date":"2025-11-21T00:17:59.188Z","date":"2025-11-21","time":"00:17:59"},{"rt":null,"stimulus":"<p style=\"font-size: 50px; margin: 0; text-align: center;\">+</p>","response":null,"trial_type":"html-keyboard-response","trial_index":76,"plugin_version":"2.1.0","time_elapsed":861411,"subject_id":"90166","group":"Group1","full_date":"2025-11-21T00:17:59.188Z","date":"2025-11-21","time":"00:17:59"},{"task":"memory_phase","broad_category":"S","image_png":"S_Dolomite_14.png","image_id":398,"category_name":"Dolomite","category":25,"distinct_rating":1.43,"distinct_type":"Bottom","rt":null,"stimulus":"Stimuli_Rocks480/S_Dolomite_14.png","response":null,"trial_type":"image-keyboard-response","trial_index":77,"plugin_version":"2.1.0","time_elapsed":863922,"subject_id":"90166","group":"Group1","full_date":"2025-11-21T00:17:59.188Z","date":"2025-11-21","time":"00:17:59"},{"rt":null,"stimulus":"<p style=\"font-size: 50px; margin: 0; text-align: center;\">+</p>","response":null,"trial_type":"html-keyboard-response","trial_index":78,"plugin_version":"2.1.0","time_elapsed":864932,"subject_id":"90166","group":"Group1","full_date":"2025-11-21T00:17:59.188Z","date":"2025-11-21","time":"00:17:59"},{"task":"memory_phase","broad_category":"S","image_png":"S_Dolomite_12.png","image_id":396,"category_name":"Dolomite","category":25,"distinct_rating":1.85,"distinct_type":"Bottom","rt":null,"stimulus":"Stimuli_Rocks480/S_Dolomite_12.png","response":null,"trial_type":"image-keyboard-response","trial_index":79,"plugin_version":"2.1.0","time_elapsed":867442,"subject_id":"90166","group":"Group1","full_date":"2025-11-21T00:17:59.188Z","date":"2025-11-21","time":"00:17:59"},{"rt":null,"stimulus":"<p style=\"font-size: 50px; margin: 0; text-align: center;\">+</p>","response":null,"trial_type":"html-keyboard-response","trial_index":80,"plugin_version":"2.1.0","time_elapsed":868451,"subject_id":"90166","group":"Group1","full_date":"2025-11-21T00:17:59.188Z","date":"2025-11-21","time":"00:17:59"},{"task":"memory_phase","broad_category":"I","image_png":"I_Pegmatite_10.png","image_id":106,"category_name":"Pegmatite","category":7,"distinct_rating":7.66,"distinct_type":"Top","rt":null,"stimulus":"Stimuli_Rocks480/I_Pegmatite_10.png","response":null,"trial_type":"image-keyboard-response","trial_index":81,"plugin_version":"2.1.0","time_elapsed":870960,"subject_id":"90166","group":"Group1","full_date":"2025-11-21T00:17:59.188Z","date":"2025-11-21","time":"00:17:59"},{"rt":null,"stimulus":"<p style=\"font-size: 50px; margin: 0; text-align: center;\">+</p>","response":null,"trial_type":"html-keyboard-response","trial_index":82,"plugin_version":"2.1.0","time_elapsed":871977,"subject_id":"90166","group":"Group1","full_date":"2025-11-21T00:17:59.188Z","date":"2025-11-21","time":"00:17:59"},{"task":"memory_phase","broad_category":"M","image_png":"M_Slate_11.png","image_id":315,"category_name":"Slate","category":20,"distinct_rating":2.75,"distinct_type":"Bottom","rt":null,"stimulus":"Stimuli_Rocks480/M_Slate_11.png","response":null,"trial_type":"image-keyboard-response","trial_index":83,"plugin_version":"2.1.0","time_elapsed":874485,"subject_id":"90166","group":"Group1","full_date":"2025-11-21T00:17:59.188Z","date":"2025-11-21","time":"00:17:59"},{"rt":null,"stimulus":"<p style=\"font-size: 50px; margin: 0; text-align: center;\">+</p>","response":null,"trial_type":"html-keyboard-response","trial_index":84,"plugin_version":"2.1.0","time_elapsed":875505,"subject_id":"90166","group":"Group1","full_date":"2025-11-21T00:17:59.188Z","date":"2025-11-21","time":"00:17:59"},{"task":"memory_phase","broad_category":"S","image_png":"S_Sandstone_03.png","image_id":451,"category_name":"Sandstone","category":29,"distinct_rating":1.86,"distinct_type":"Bottom","rt":null,"stimulus":"Stimuli_Rocks480/S_Sandstone_03.png","response":null,"trial_type":"image-keyboard-response","trial_index":85,"plugin_version":"2.1.0","time_elapsed":878018,"subject_id":"90166","group":"Group1","full_date":"2025-11-21T00:17:59.188Z","date":"2025-11-21","time":"00:17:59"},{"rt":null,"stimulus":"<p style=\"font-size: 50px; margin: 0; text-align: center;\">+</p>","response":null,"trial_type":"html-keyboard-response","trial_index":86,"plugin_version":"2.1.0","time_elapsed":879027,"subject_id":"90166","group":"Group1","full_date":"2025-11-21T00:17:59.188Z","date":"2025-11-21","time":"00:17:59"},{"task":"memory_phase","broad_category":"I","image_png":"I_Obsidian_05.png","image_id":85,"category_name":"Obsidian","category":6,"distinct_rating":7.32,"distinct_type":"Top","rt":null,"stimulus":"Stimuli_Rocks480/I_Obsidian_05.png","response":null,"trial_type":"image-keyboard-response","trial_index":87,"plugin_version":"2.1.0","time_elapsed":881545,"subject_id":"90166","group":"Group1","full_date":"2025-11-21T00:17:59.188Z","date":"2025-11-21","time":"00:17:59"},{"rt":null,"stimulus":"<p style=\"font-size: 50px; margin: 0; text-align: center;\">+</p>","response":null,"trial_type":"html-keyboard-response","trial_index":88,"plugin_version":"2.1.0","time_elapsed":882555,"subject_id":"90166","group":"Group1","full_date":"2025-11-21T00:17:59.188Z","date":"2025-11-21","time":"00:17:59"},{"task":"memory_phase","broad_category":"M","image_png":"M_Gneiss_06.png","image_id":198,"category_name":"Gneiss","category":13,"distinct_rating":2.65,"distinct_type":"Bottom","rt":null,"stimulus":"Stimuli_Rocks480/M_Gneiss_06.png","response":null,"trial_type":"image-keyboard-response","trial_index":89,"plugin_version":"2.1.0","time_elapsed":885061,"subject_id":"90166","group":"Group1","full_date":"2025-11-21T00:17:59.188Z","date":"2025-11-21","time":"00:17:59"},{"rt":null,"stimulus":"<p style=\"font-size: 50px; margin: 0; text-align: center;\">+</p>","response":null,"trial_type":"html-keyboard-response","trial_index":90,"plugin_version":"2.1.0","time_elapsed":886068,"subject_id":"90166","group":"Group1","full_date":"2025-11-21T00:17:59.188Z","date":"2025-11-21","time":"00:17:59"},{"task":"memory_phase","broad_category":"I","image_png":"I_Basalt_09.png","image_id":25,"category_name":"Basalt","category":2,"distinct_rating":1.89,"distinct_type":"Bottom","rt":null,"stimulus":"Stimuli_Rocks480/I_Basalt_09.png","response":null,"trial_type":"image-keyboard-response","trial_index":91,"plugin_version":"2.1.0","time_elapsed":888575,"subject_id":"90166","group":"Group1","full_date":"2025-11-21T00:17:59.188Z","date":"2025-11-21","time":"00:17:59"},{"rt":null,"stimulus":"<p style=\"font-size: 50px; margin: 0; text-align: center;\">+</p>","response":null,"trial_type":"html-keyboard-response","trial_index":92,"plugin_version":"2.1.0","time_elapsed":889582,"subject_id":"90166","group":"Group1","full_date":"2025-11-21T00:17:59.188Z","date":"2025-11-21","time":"00:17:59"},{"task":"memory_phase","broad_category":"M","image_png":"M_Slate_03.png","image_id":307,"category_name":"Slate","category":20,"distinct_rating":1.87,"distinct_type":"Bottom","rt":null,"stimulus":"Stimuli_Rocks480/M_Slate_03.png","response":null,"trial_type":"image-keyboard-response","trial_index":93,"plugin_version":"2.1.0","time_elapsed":892088,"subject_id":"90166","group":"Group1","full_date":"2025-11-21T00:17:59.188Z","date":"2025-11-21","time":"00:17:59"},{"rt":null,"stimulus":"<p style=\"font-size: 50px; margin: 0; text-align: center;\">+</p>","response":null,"trial_type":"html-keyboard-response","trial_index":94,"plugin_version":"2.1.0","time_elapsed":893093,"subject_id":"90166","group":"Group1","full_date":"2025-11-21T00:17:59.188Z","date":"2025-11-21","time":"00:17:59"},{"task":"memory_phase","broad_category":"M","image_png":"M_Gneiss_13.png","image_id":205,"category_name":"Gneiss","category":13,"distinct_rating":3.26,"distinct_type":"Bottom","rt":null,"stimulus":"Stimuli_Rocks480/M_Gneiss_13.png","response":null,"trial_type":"image-keyboard-response","trial_index":95,"plugin_version":"2.1.0","time_elapsed":895605,"subject_id":"90166","group":"Group1","full_date":"2025-11-21T00:17:59.188Z","date":"2025-11-21","time":"00:17:59"},{"rt":null,"stimulus":"<p style=\"font-size: 50px; margin: 0; text-align: center;\">+</p>","response":null,"trial_type":"html-keyboard-response","trial_index":96,"plugin_version":"2.1.0","time_elapsed":896611,"subject_id":"90166","group":"Group1","full_date":"2025-11-21T00:17:59.188Z","date":"2025-11-21","time":"00:17:59"},{"task":"memory_phase","broad_category":"M","image_png":"M_Phyllite_10.png","image_id":266,"category_name":"Phyllite","category":17,"distinct_rating":2.6,"distinct_type":"Bottom","rt":null,"stimulus":"Stimuli_Rocks480/M_Phyllite_10.png","response":null,"trial_type":"image-keyboard-response","trial_index":97,"plugin_version":"2.1.0","time_elapsed":899118,"subject_id":"90166","group":"Group1","full_date":"2025-11-21T00:17:59.188Z","date":"2025-11-21","time":"00:17:59"},{"rt":null,"stimulus":"<p style=\"font-size: 50px; margin: 0; text-align: center;\">+</p>","response":null,"trial_type":"html-keyboard-response","trial_index":98,"plugin_version":"2.1.0","time_elapsed":900123,"subject_id":"90166","group":"Group1","full_date":"2025-11-21T00:17:59.188Z","date":"2025-11-21","time":"00:17:59"},{"task":"memory_phase","broad_category":"M","image_png":"M_Marble_04.png","image_id":228,"category_name":"Marble","category":15,"distinct_rating":3.15,"distinct_type":"Bottom","rt":null,"stimulus":"Stimuli_Rocks480/M_Marble_04.png","response":null,"trial_type":"image-keyboard-response","trial_index":99,"plugin_version":"2.1.0","time_elapsed":902629,"subject_id":"90166","group":"Group1","full_date":"2025-11-21T00:17:59.188Z","date":"2025-11-21","time":"00:17:59"},{"rt":null,"stimulus":"<p style=\"font-size: 50px; margin: 0; text-align: center;\">+</p>","response":null,"trial_type":"html-keyboard-response","trial_index":100,"plugin_version":"2.1.0","time_elapsed":903637,"subject_id":"90166","group":"Group1","full_date":"2025-11-21T00:17:59.188Z","date":"2025-11-21","time":"00:17:59"},{"task":"memory_phase","broad_category":"I","image_png":"I_Andesite_10.png","image_id":10,"category_name":"Andesite","category":1,"distinct_rating":3.15,"distinct_type":"Bottom","rt":null,"stimulus":"Stimuli_Rocks480/I_Andesite_10.png","response":null,"trial_type":"image-keyboard-response","trial_index":101,"plugin_version":"2.1.0","time_elapsed":906153,"subject_id":"90166","group":"Group1","full_date":"2025-11-21T00:17:59.188Z","date":"2025-11-21","time":"00:17:59"},{"rt":null,"stimulus":"<p style=\"font-size: 50px; margin: 0; text-align: center;\">+</p>","response":null,"trial_type":"html-keyboard-response","trial_index":102,"plugin_version":"2.1.0","time_elapsed":907158,"subject_id":"90166","group":"Group1","full_date":"2025-11-21T00:17:59.188Z","date":"2025-11-21","time":"00:17:59"},{"task":"memory_phase","broad_category":"I","image_png":"I_Andesite_06.png","image_id":6,"category_name":"Andesite","category":1,"distinct_rating":3.17,"distinct_type":"Bottom","rt":null,"stimulus":"Stimuli_Rocks480/I_Andesite_06.png","response":null,"trial_type":"image-keyboard-response","trial_index":103,"plugin_version":"2.1.0","time_elapsed":909665,"subject_id":"90166","group":"Group1","full_date":"2025-11-21T00:17:59.188Z","date":"2025-11-21","time":"00:17:59"},{"rt":null,"stimulus":"<p style=\"font-size: 50px; margin: 0; text-align: center;\">+</p>","response":null,"trial_type":"html-keyboard-response","trial_index":104,"plugin_version":"2.1.0","time_elapsed":910677,"subject_id":"90166","group":"Group1","full_date":"2025-11-21T00:17:59.188Z","date":"2025-11-21","time":"00:17:59"},{"task":"memory_phase","broad_category":"S","image_png":"S_Chert_10.png","image_id":362,"category_name":"Chert","category":23,"distinct_rating":7.17,"distinct_type":"Top","rt":null,"stimulus":"Stimuli_Rocks480/S_Chert_10.png","response":null,"trial_type":"image-keyboard-response","trial_index":105,"plugin_version":"2.1.0","time_elapsed":913186,"subject_id":"90166","group":"Group1","full_date":"2025-11-21T00:17:59.188Z","date":"2025-11-21","time":"00:17:59"},{"rt":22386,"stimulus":"<p style=\"max-width: 760px; margin: auto; font-size: 35px; line-height: 1.5;\">You have completed 1 study phase. Now, we'll show you all the images again 2 more times.<br><br>Press SPACE to continue</p>","response":" ","trial_type":"html-keyboard-response","trial_index":106,"plugin_version":"2.1.0","time_elapsed":935574,"subject_id":"90166","group":"Group1","full_date":"2025-11-21T00:17:59.188Z","date":"2025-11-21","time":"00:17:59"},{"rt":null,"stimulus":"<p style=\"font-size: 50px; margin: 0; text-align: center;\">+</p>","response":null,"trial_type":"html-keyboard-response","trial_index":107,"plugin_version":"2.1.0","time_elapsed":936593,"subject_id":"90166","group":"Group1","full_date":"2025-11-21T00:17:59.188Z","date":"2025-11-21","time":"00:17:59"},{"task":"memory_phase","broad_category":"M","image_png":"M_Gneiss_06.png","image_id":198,"category_name":"Gneiss","category":13,"distinct_rating":2.65,"distinct_type":"Bottom","rt":null,"stimulus":"Stimuli_Rocks480/M_Gneiss_06.png","response":null,"trial_type":"image-keyboard-response","trial_index":108,"plugin_version":"2.1.0","time_elapsed":939105,"subject_id":"90166","group":"Group1","full_date":"2025-11-21T00:17:59.188Z","date":"2025-11-21","time":"00:17:59"},{"rt":null,"stimulus":"<p style=\"font-size: 50px; margin: 0; text-align: center;\">+</p>","response":null,"trial_type":"html-keyboard-response","trial_index":109,"plugin_version":"2.1.0","time_elapsed":940112,"subject_id":"90166","group":"Group1","full_date":"2025-11-21T00:17:59.188Z","date":"2025-11-21","time":"00:17:59"},{"task":"memory_phase","broad_category":"S","image_png":"S_Shale_08.png","image_id":472,"category_name":"Shale","category":30,"distinct_rating":2.55,"distinct_type":"Bottom","rt":null,"stimulus":"Stimuli_Rocks480/S_Shale_08.png","response":null,"trial_type":"image-keyboard-response","trial_index":110,"plugin_version":"2.1.0","time_elapsed":942624,"subject_id":"90166","group":"Group1","full_date":"2025-11-21T00:17:59.188Z","date":"2025-11-21","time":"00:17:59"},{"rt":null,"stimulus":"<p style=\"font-size: 50px; margin: 0; text-align: center;\">+</p>","response":null,"trial_type":"html-keyboard-response","trial_index":111,"plugin_version":"2.1.0","time_elapsed":943634,"subject_id":"90166","group":"Group1","full_date":"2025-11-21T00:17:59.188Z","date":"2025-11-21","time":"00:17:59"},{"task":"memory_phase","broad_category":"I","image_png":"I_Basalt_02.png","image_id":18,"category_name":"Basalt","category":2,"distinct_rating":1.84,"distinct_type":"Bottom","rt":null,"stimulus":"Stimuli_Rocks480/I_Basalt_02.png","response":null,"trial_type":"image-keyboard-response","trial_index":112,"plugin_version":"2.1.0","time_elapsed":946139,"subject_id":"90166","group":"Group1","full_date":"2025-11-21T00:17:59.188Z","date":"2025-11-21","time":"00:17:59"},{"rt":null,"stimulus":"<p style=\"font-size: 50px; margin: 0; text-align: center;\">+</p>","response":null,"trial_type":"html-keyboard-response","trial_index":113,"plugin_version":"2.1.0","time_elapsed":947148,"subject_id":"90166","group":"Group1","full_date":"2025-11-21T00:17:59.188Z","date":"2025-11-21","time":"00:17:59"},{"task":"memory_phase","broad_category":"M","image_png":"M_Marble_16.png","image_id":240,"category_name":"Marble","category":15,"distinct_rating":2.57,"distinct_type":"Bottom","rt":null,"stimulus":"Stimuli_Rocks480/M_Marble_16.png","response":null,"trial_type":"image-keyboard-response","trial_index":114,"plugin_version":"2.1.0","time_elapsed":949660,"subject_id":"90166","group":"Group1","full_date":"2025-11-21T00:17:59.188Z","date":"2025-11-21","time":"00:17:59"},{"rt":null,"stimulus":"<p style=\"font-size: 50px; margin: 0; text-align: center;\">+</p>","response":null,"trial_type":"html-keyboard-response","trial_index":115,"plugin_version":"2.1.0","time_elapsed":950668,"subject_id":"90166","group":"Group1","full_date":"2025-11-21T00:17:59.188Z","date":"2025-11-21","time":"00:17:59"},{"task":"memory_phase","broad_category":"S","image_png":"S_Shale_01.png","image_id":465,"category_name":"Shale","category":30,"distinct_rating":2.7,"distinct_type":"Bottom","rt":null,"stimulus":"Stimuli_Rocks480/S_Shale_01.png","response":null,"trial_type":"image-keyboard-response","trial_index":116,"plugin_version":"2.1.0","time_elapsed":953177,"subject_id":"90166","group":"Group1","full_date":"2025-11-21T00:17:59.188Z","date":"2025-11-21","time":"00:17:59"},{"rt":null,"stimulus":"<p style=\"font-size: 50px; margin: 0; text-align: center;\">+</p>","response":null,"trial_type":"html-keyboard-response","trial_index":117,"plugin_version":"2.1.0","time_elapsed":954184,"subject_id":"90166","group":"Group1","full_date":"2025-11-21T00:17:59.188Z","date":"2025-11-21","time":"00:17:59"},{"task":"memory_phase","broad_category":"I","image_png":"I_Diorite_04.png","image_id":36,"category_name":"Diorite","category":3,"distinct_rating":2.98,"distinct_type":"Bottom","rt":null,"stimulus":"Stimuli_Rocks480/I_Diorite_04.png","response":null,"trial_type":"image-keyboard-response","trial_index":118,"plugin_version":"2.1.0","time_elapsed":956697,"subject_id":"90166","group":"Group1","full_date":"2025-11-21T00:17:59.188Z","date":"2025-11-21","time":"00:17:59"},{"rt":null,"stimulus":"<p style=\"font-size: 50px; margin: 0; text-align: center;\">+</p>","response":null,"trial_type":"html-keyboard-response","trial_index":119,"plugin_version":"2.1.0","time_elapsed":957708,"subject_id":"90166","group":"Group1","full_date":"2025-11-21T00:17:59.188Z","date":"2025-11-21","time":"00:17:59"},{"task":"memory_phase","broad_category":"I","image_png":"I_Basalt_01.png","image_id":17,"category_name":"Basalt","category":2,"distinct_rating":1.92,"distinct_type":"Bottom","rt":null,"stimulus":"Stimuli_Rocks480/I_Basalt_01.png","response":null,"trial_type":"image-keyboard-response","trial_index":120,"plugin_version":"2.1.0","time_elapsed":960225,"subject_id":"90166","group":"Group1","full_date":"2025-11-21T00:17:59.188Z","date":"2025-11-21","time":"00:17:59"},{"rt":null,"stimulus":"<p style=\"font-size: 50px; margin: 0; text-align: center;\">+</p>","response":null,"trial_type":"html-keyboard-response","trial_index":121,"plugin_version":"2.1.0","time_elapsed":961236,"subject_id":"90166","group":"Group1","full_date":"2025-11-21T00:17:59.188Z","date":"2025-11-21","time":"00:17:59"},{"task":"memory_phase","broad_category":"M","image_png":"M_Slate_11.png","image_id":315,"category_name":"Slate","category":20,"distinct_rating":2.75,"distinct_type":"Bottom","rt":null,"stimulus":"Stimuli_Rocks480/M_Slate_11.png","response":null,"trial_type":"image-keyboard-response","trial_index":122,"plugin_version":"2.1.0","time_elapsed":963742,"subject_id":"90166","group":"Group1","full_date":"2025-11-21T00:17:59.188Z","date":"2025-11-21","time":"00:17:59"},{"rt":null,"stimulus":"<p style=\"font-size: 50px; margin: 0; text-align: center;\">+</p>","response":null,"trial_type":"html-keyboard-response","trial_index":123,"plugin_version":"2.1.0","time_elapsed":964754,"subject_id":"90166","group":"Group1","full_date":"2025-11-21T00:17:59.188Z","date":"2025-11-21","time":"00:17:59"},{"task":"memory_phase","broad_category":"S","image_png":"S_Dolomite_12.png","image_id":396,"category_name":"Dolomite","category":25,"distinct_rating":1.85,"distinct_type":"Bottom","rt":null,"stimulus":"Stimuli_Rocks480/S_Dolomite_12.png","response":null,"trial_type":"image-keyboard-response","trial_index":124,"plugin_version":"2.1.0","time_elapsed":967271,"subject_id":"90166","group":"Group1","full_date":"2025-11-21T00:17:59.188Z","date":"2025-11-21","time":"00:17:59"},{"rt":null,"stimulus":"<p style=\"font-size: 50px; margin: 0; text-align: center;\">+</p>","response":null,"trial_type":"html-keyboard-response","trial_index":125,"plugin_version":"2.1.0","time_elapsed":968279,"subject_id":"90166","group":"Group1","full_date":"2025-11-21T00:17:59.188Z","date":"2025-11-21","time":"00:17:59"},{"task":"memory_phase","broad_category":"I","image_png":"I_Pumice_08.png","image_id":136,"category_name":"Pumice","category":9,"distinct_rating":3.1,"distinct_type":"Bottom","rt":null,"stimulus":"Stimuli_Rocks480/I_Pumice_08.png","response":null,"trial_type":"image-keyboard-response","trial_index":126,"plugin_version":"2.1.0","time_elapsed":970790,"subject_id":"90166","group":"Group1","full_date":"2025-11-21T00:17:59.188Z","date":"2025-11-21","time":"00:17:59"},{"rt":null,"stimulus":"<p style=\"font-size: 50px; margin: 0; text-align: center;\">+</p>","response":null,"trial_type":"html-keyboard-response","trial_index":127,"plugin_version":"2.1.0","time_elapsed":971803,"subject_id":"90166","group":"Group1","full_date":"2025-11-21T00:17:59.188Z","date":"2025-11-21","time":"00:17:59"},{"task":"memory_phase","broad_category":"I","image_png":"I_Pegmatite_16.png","image_id":112,"category_name":"Pegmatite","category":7,"distinct_rating":7.03,"distinct_type":"Top","rt":null,"stimulus":"Stimuli_Rocks480/I_Pegmatite_16.png","response":null,"trial_type":"image-keyboard-response","trial_index":128,"plugin_version":"2.1.0","time_elapsed":974309,"subject_id":"90166","group":"Group1","full_date":"2025-11-21T00:17:59.188Z","date":"2025-11-21","time":"00:17:59"},{"rt":null,"stimulus":"<p style=\"font-size: 50px; margin: 0; text-align: center;\">+</p>","response":null,"trial_type":"html-keyboard-response","trial_index":129,"plugin_version":"2.1.0","time_elapsed":975317,"subject_id":"90166","group":"Group1","full_date":"2025-11-21T00:17:59.188Z","date":"2025-11-21","time":"00:17:59"},{"task":"memory_phase","broad_category":"M","image_png":"M_Phyllite_10.png","image_id":266,"category_name":"Phyllite","category":17,"distinct_rating":2.6,"distinct_type":"Bottom","rt":null,"stimulus":"Stimuli_Rocks480/M_Phyllite_10.png","response":null,"trial_type":"image-keyboard-response","trial_index":130,"plugin_version":"2.1.0","time_elapsed":977835,"subject_id":"90166","group":"Group1","full_date":"2025-11-21T00:17:59.188Z","date":"2025-11-21","time":"00:17:59"},{"rt":null,"stimulus":"<p style=\"font-size: 50px; margin: 0; text-align: center;\">+</p>","response":null,"trial_type":"html-keyboard-response","trial_index":131,"plugin_version":"2.1.0","time_elapsed":978843,"subject_id":"90166","group":"Group1","full_date":"2025-11-21T00:17:59.188Z","date":"2025-11-21","time":"00:17:59"},{"task":"memory_phase","broad_category":"I","image_png":"I_Andesite_06.png","image_id":6,"category_name":"Andesite","category":1,"distinct_rating":3.17,"distinct_type":"Bottom","rt":null,"stimulus":"Stimuli_Rocks480/I_Andesite_06.png","response":null,"trial_type":"image-keyboard-response","trial_index":132,"plugin_version":"2.1.0","time_elapsed":981353,"subject_id":"90166","group":"Group1","full_date":"2025-11-21T00:17:59.188Z","date":"2025-11-21","time":"00:17:59"},{"rt":null,"stimulus":"<p style=\"font-size: 50px; margin: 0; text-align: center;\">+</p>","response":null,"trial_type":"html-keyboard-response","trial_index":133,"plugin_version":"2.1.0","time_elapsed":982362,"subject_id":"90166","group":"Group1","full_date":"2025-11-21T00:17:59.188Z","date":"2025-11-21","time":"00:17:59"},{"task":"memory_phase","broad_category":"M","image_png":"M_Phyllite_07.png","image_id":263,"category_name":"Phyllite","category":17,"distinct_rating":2.59,"distinct_type":"Bottom","rt":null,"stimulus":"Stimuli_Rocks480/M_Phyllite_07.png","response":null,"trial_type":"image-keyboard-response","trial_index":134,"plugin_version":"2.1.0","time_elapsed":984873,"subject_id":"90166","group":"Group1","full_date":"2025-11-21T00:17:59.188Z","date":"2025-11-21","time":"00:17:59"},{"rt":null,"stimulus":"<p style=\"font-size: 50px; margin: 0; text-align: center;\">+</p>","response":null,"trial_type":"html-keyboard-response","trial_index":135,"plugin_version":"2.1.0","time_elapsed":985876,"subject_id":"90166","group":"Group1","full_date":"2025-11-21T00:17:59.188Z","date":"2025-11-21","time":"00:17:59"},{"task":"memory_phase","broad_category":"M","image_png":"M_Phyllite_03.png","image_id":259,"category_name":"Phyllite","category":17,"distinct_rating":2.5,"distinct_type":"Bottom","rt":null,"stimulus":"Stimuli_Rocks480/M_Phyllite_03.png","response":null,"trial_type":"image-keyboard-response","trial_index":136,"plugin_version":"2.1.0","time_elapsed":988386,"subject_id":"90166","group":"Group1","full_date":"2025-11-21T00:17:59.188Z","date":"2025-11-21","time":"00:17:59"},{"rt":null,"stimulus":"<p style=\"font-size: 50px; margin: 0; text-align: center;\">+</p>","response":null,"trial_type":"html-keyboard-response","trial_index":137,"plugin_version":"2.1.0","time_elapsed":989400,"subject_id":"90166","group":"Group1","full_date":"2025-11-21T00:17:59.188Z","date":"2025-11-21","time":"00:17:59"},{"task":"memory_phase","broad_category":"S","image_png":"S_Breccia_11.png","image_id":347,"category_name":"Breccia","category":22,"distinct_rating":6.7,"distinct_type":"Top","rt":null,"stimulus":"Stimuli_Rocks480/S_Breccia_11.png","response":null,"trial_type":"image-keyboard-response","trial_index":138,"plugin_version":"2.1.0","time_elapsed":991918,"subject_id":"90166","group":"Group1","full_date":"2025-11-21T00:17:59.188Z","date":"2025-11-21","time":"00:17:59"},{"rt":null,"stimulus":"<p style=\"font-size: 50px; margin: 0; text-align: center;\">+</p>","response":null,"trial_type":"html-keyboard-response","trial_index":139,"plugin_version":"2.1.0","time_elapsed":992926,"subject_id":"90166","group":"Group1","full_date":"2025-11-21T00:17:59.188Z","date":"2025-11-21","time":"00:17:59"},{"task":"memory_phase","broad_category":"I","image_png":"I_Pegmatite_10.png","image_id":106,"category_name":"Pegmatite","category":7,"distinct_rating":7.66,"distinct_type":"Top","rt":null,"stimulus":"Stimuli_Rocks480/I_Pegmatite_10.png","response":null,"trial_type":"image-keyboard-response","trial_index":140,"plugin_version":"2.1.0","time_elapsed":995430,"subject_id":"90166","group":"Group1","full_date":"2025-11-21T00:17:59.188Z","date":"2025-11-21","time":"00:17:59"},{"rt":null,"stimulus":"<p style=\"font-size: 50px; margin: 0; text-align: center;\">+</p>","response":null,"trial_type":"html-keyboard-response","trial_index":141,"plugin_version":"2.1.0","time_elapsed":996437,"subject_id":"90166","group":"Group1","full_date":"2025-11-21T00:17:59.188Z","date":"2025-11-21","time":"00:17:59"},{"task":"memory_phase","broad_category":"S","image_png":"S_Shale_12.png","image_id":476,"category_name":"Shale","category":30,"distinct_rating":2.48,"distinct_type":"Bottom","rt":null,"stimulus":"Stimuli_Rocks480/S_Shale_12.png","response":null,"trial_type":"image-keyboard-response","trial_index":142,"plugin_version":"2.1.0","time_elapsed":998942,"subject_id":"90166","group":"Group1","full_date":"2025-11-21T00:17:59.188Z","date":"2025-11-21","time":"00:17:59"},{"rt":null,"stimulus":"<p style=\"font-size: 50px; margin: 0; text-align: center;\">+</p>","response":null,"trial_type":"html-keyboard-response","trial_index":143,"plugin_version":"2.1.0","time_elapsed":999952,"subject_id":"90166","group":"Group1","full_date":"2025-11-21T00:17:59.188Z","date":"2025-11-21","time":"00:17:59"},{"task":"memory_phase","broad_category":"S","image_png":"S_Sandstone_15.png","image_id":463,"category_name":"Sandstone","category":29,"distinct_rating":2,"distinct_type":"Bottom","rt":null,"stimulus":"Stimuli_Rocks480/S_Sandstone_15.png","response":null,"trial_type":"image-keyboard-response","trial_index":144,"plugin_version":"2.1.0","time_elapsed":1002468,"subject_id":"90166","group":"Group1","full_date":"2025-11-21T00:17:59.188Z","date":"2025-11-21","time":"00:17:59"},{"rt":null,"stimulus":"<p style=\"font-size: 50px; margin: 0; text-align: center;\">+</p>","response":null,"trial_type":"html-keyboard-response","trial_index":145,"plugin_version":"2.1.0","time_elapsed":1003480,"subject_id":"90166","group":"Group1","full_date":"2025-11-21T00:17:59.188Z","date":"2025-11-21","time":"00:17:59"},{"task":"memory_phase","broad_category":"M","image_png":"M_Marble_04.png","image_id":228,"category_name":"Marble","category":15,"distinct_rating":3.15,"distinct_type":"Bottom","rt":null,"stimulus":"Stimuli_Rocks480/M_Marble_04.png","response":null,"trial_type":"image-keyboard-response","trial_index":146,"plugin_version":"2.1.0","time_elapsed":1005985,"subject_id":"90166","group":"Group1","full_date":"2025-11-21T00:17:59.188Z","date":"2025-11-21","time":"00:17:59"},{"rt":null,"stimulus":"<p style=\"font-size: 50px; margin: 0; text-align: center;\">+</p>","response":null,"trial_type":"html-keyboard-response","trial_index":147,"plugin_version":"2.1.0","time_elapsed":1006991,"subject_id":"90166","group":"Group1","full_date":"2025-11-21T00:17:59.188Z","date":"2025-11-21","time":"00:17:59"},{"task":"memory_phase","broad_category":"M","image_png":"M_Quartzite_13.png","image_id":285,"category_name":"Quartzite","category":18,"distinct_rating":2.27,"distinct_type":"Bottom","rt":null,"stimulus":"Stimuli_Rocks480/M_Quartzite_13.png","response":null,"trial_type":"image-keyboard-response","trial_index":148,"plugin_version":"2.1.0","time_elapsed":1009503,"subject_id":"90166","group":"Group1","full_date":"2025-11-21T00:17:59.188Z","date":"2025-11-21","time":"00:17:59"},{"rt":null,"stimulus":"<p style=\"font-size: 50px; margin: 0; text-align: center;\">+</p>","response":null,"trial_type":"html-keyboard-response","trial_index":149,"plugin_version":"2.1.0","time_elapsed":1010514,"subject_id":"90166","group":"Group1","full_date":"2025-11-21T00:17:59.188Z","date":"2025-11-21","time":"00:17:59"},{"task":"memory_phase","broad_category":"S","image_png":"S_Sandstone_03.png","image_id":451,"category_name":"Sandstone","category":29,"distinct_rating":1.86,"distinct_type":"Bottom","rt":null,"stimulus":"Stimuli_Rocks480/S_Sandstone_03.png","response":null,"trial_type":"image-keyboard-response","trial_index":150,"plugin_version":"2.1.0","time_elapsed":1013031,"subject_id":"90166","group":"Group1","full_date":"2025-11-21T00:17:59.188Z","date":"2025-11-21","time":"00:17:59"},{"rt":null,"stimulus":"<p style=\"font-size: 50px; margin: 0; text-align: center;\">+</p>","response":null,"trial_type":"html-keyboard-response","trial_index":151,"plugin_version":"2.1.0","time_elapsed":1014046,"subject_id":"90166","group":"Group1","full_date":"2025-11-21T00:17:59.188Z","date":"2025-11-21","time":"00:17:59"},{"task":"memory_phase","broad_category":"I","image_png":"I_Diorite_05.png","image_id":37,"category_name":"Diorite","category":3,"distinct_rating":3.08,"distinct_type":"Bottom","rt":null,"stimulus":"Stimuli_Rocks480/I_Diorite_05.png","response":null,"trial_type":"image-keyboard-response","trial_index":152,"plugin_version":"2.1.0","time_elapsed":1016552,"subject_id":"90166","group":"Group1","full_date":"2025-11-21T00:17:59.188Z","date":"2025-11-21","time":"00:17:59"},{"rt":null,"stimulus":"<p style=\"font-size: 50px; margin: 0; text-align: center;\">+</p>","response":null,"trial_type":"html-keyboard-response","trial_index":153,"plugin_version":"2.1.0","time_elapsed":1017556,"subject_id":"90166","group":"Group1","full_date":"2025-11-21T00:17:59.188Z","date":"2025-11-21","time":"00:17:59"},{"task":"memory_phase","broad_category":"M","image_png":"M_Slate_03.png","image_id":307,"category_name":"Slate","category":20,"distinct_rating":1.87,"distinct_type":"Bottom","rt":null,"stimulus":"Stimuli_Rocks480/M_Slate_03.png","response":null,"trial_type":"image-keyboard-response","trial_index":154,"plugin_version":"2.1.0","time_elapsed":1020072,"subject_id":"90166","group":"Group1","full_date":"2025-11-21T00:17:59.188Z","date":"2025-11-21","time":"00:17:59"},{"rt":null,"stimulus":"<p style=\"font-size: 50px; margin: 0; text-align: center;\">+</p>","response":null,"trial_type":"html-keyboard-response","trial_index":155,"plugin_version":"2.1.0","time_elapsed":1021082,"subject_id":"90166","group":"Group1","full_date":"2025-11-21T00:17:59.188Z","date":"2025-11-21","time":"00:17:59"},{"task":"memory_phase","broad_category":"I","image_png":"I_Obsidian_05.png","image_id":85,"category_name":"Obsidian","category":6,"distinct_rating":7.32,"distinct_type":"Top","rt":null,"stimulus":"Stimuli_Rocks480/I_Obsidian_05.png","response":null,"trial_type":"image-keyboard-response","trial_index":156,"plugin_version":"2.1.0","time_elapsed":1023591,"subject_id":"90166","group":"Group1","full_date":"2025-11-21T00:17:59.188Z","date":"2025-11-21","time":"00:17:59"},{"rt":1727,"stimulus":"<p style=\"max-width: 760px; margin: auto; font-size: 35px; line-height: 1.5;\">Press SPACE to continue study phase</p>","response":" ","trial_type":"html-keyboard-response","trial_index":157,"plugin_version":"2.1.0","time_elapsed":1025320,"subject_id":"90166","group":"Group1","full_date":"2025-11-21T00:17:59.188Z","date":"2025-11-21","time":"00:17:59"},{"rt":null,"stimulus":"<p style=\"font-size: 50px; margin: 0; text-align: center;\">+</p>","response":null,"trial_type":"html-keyboard-response","trial_index":158,"plugin_version":"2.1.0","time_elapsed":1026335,"subject_id":"90166","group":"Group1","full_date":"2025-11-21T00:17:59.188Z","date":"2025-11-21","time":"00:17:59"},{"task":"memory_phase","broad_category":"I","image_png":"I_Gabbro_08.png","image_id":56,"category_name":"Gabbro","category":4,"distinct_rating":3.02,"distinct_type":"Bottom","rt":null,"stimulus":"Stimuli_Rocks480/I_Gabbro_08.png","response":null,"trial_type":"image-keyboard-response","trial_index":159,"plugin_version":"2.1.0","time_elapsed":1028845,"subject_id":"90166","group":"Group1","full_date":"2025-11-21T00:17:59.188Z","date":"2025-11-21","time":"00:17:59"},{"rt":null,"stimulus":"<p style=\"font-size: 50px; margin: 0; text-align: center;\">+</p>","response":null,"trial_type":"html-keyboard-response","trial_index":160,"plugin_version":"2.1.0","time_elapsed":1029860,"subject_id":"90166","group":"Group1","full_date":"2025-11-21T00:17:59.188Z","date":"2025-11-21","time":"00:17:59"},{"task":"memory_phase","broad_category":"S","image_png":"S_Sandstone_16.png","image_id":464,"category_name":"Sandstone","category":29,"distinct_rating":1.93,"distinct_type":"Bottom","rt":null,"stimulus":"Stimuli_Rocks480/S_Sandstone_16.png","response":null,"trial_type":"image-keyboard-response","trial_index":161,"plugin_version":"2.1.0","time_elapsed":1032379,"subject_id":"90166","group":"Group1","full_date":"2025-11-21T00:17:59.188Z","date":"2025-11-21","time":"00:17:59"},{"rt":null,"stimulus":"<p style=\"font-size: 50px; margin: 0; text-align: center;\">+</p>","response":null,"trial_type":"html-keyboard-response","trial_index":162,"plugin_version":"2.1.0","time_elapsed":1033393,"subject_id":"90166","group":"Group1","full_date":"2025-11-21T00:17:59.188Z","date":"2025-11-21","time":"00:17:59"},{"task":"memory_phase","broad_category":"S","image_png":"S_Rock Gypsum_04.png","image_id":420,"category_name":"Rock Gypsum","category":27,"distinct_rating":7.61,"distinct_type":"Top","rt":null,"stimulus":"Stimuli_Rocks480/S_Rock Gypsum_04.png","response":null,"trial_type":"image-keyboard-response","trial_index":163,"plugin_version":"2.1.0","time_elapsed":1035911,"subject_id":"90166","group":"Group1","full_date":"2025-11-21T00:17:59.188Z","date":"2025-11-21","time":"00:17:59"},{"rt":null,"stimulus":"<p style=\"font-size: 50px; margin: 0; text-align: center;\">+</p>","response":null,"trial_type":"html-keyboard-response","trial_index":164,"plugin_version":"2.1.0","time_elapsed":1036917,"subject_id":"90166","group":"Group1","full_date":"2025-11-21T00:17:59.188Z","date":"2025-11-21","time":"00:17:59"},{"task":"memory_phase","broad_category":"M","image_png":"M_Gneiss_05.png","image_id":197,"category_name":"Gneiss","category":13,"distinct_rating":2.97,"distinct_type":"Bottom","rt":null,"stimulus":"Stimuli_Rocks480/M_Gneiss_05.png","response":null,"trial_type":"image-keyboard-response","trial_index":165,"plugin_version":"2.1.0","time_elapsed":1039422,"subject_id":"90166","group":"Group1","full_date":"2025-11-21T00:17:59.188Z","date":"2025-11-21","time":"00:17:59"},{"rt":null,"stimulus":"<p style=\"font-size: 50px; margin: 0; text-align: center;\">+</p>","response":null,"trial_type":"html-keyboard-response","trial_index":166,"plugin_version":"2.1.0","time_elapsed":1040435,"subject_id":"90166","group":"Group1","full_date":"2025-11-21T00:17:59.188Z","date":"2025-11-21","time":"00:17:59"},{"task":"memory_phase","broad_category":"S","image_png":"S_Dolomite_13.png","image_id":397,"category_name":"Dolomite","category":25,"distinct_rating":1.77,"distinct_type":"Bottom","rt":null,"stimulus":"Stimuli_Rocks480/S_Dolomite_13.png","response":null,"trial_type":"image-keyboard-response","trial_index":167,"plugin_version":"2.1.0","time_elapsed":1042943,"subject_id":"90166","group":"Group1","full_date":"2025-11-21T00:17:59.188Z","date":"2025-11-21","time":"00:17:59"},{"rt":null,"stimulus":"<p style=\"font-size: 50px; margin: 0; text-align: center;\">+</p>","response":null,"trial_type":"html-keyboard-response","trial_index":168,"plugin_version":"2.1.0","time_elapsed":1043952,"subject_id":"90166","group":"Group1","full_date":"2025-11-21T00:17:59.188Z","date":"2025-11-21","time":"00:17:59"},{"task":"memory_phase","broad_category":"S","image_png":"S_Rock Salt_01.png","image_id":433,"category_name":"Rock Salt","category":28,"distinct_rating":7.18,"distinct_type":"Top","rt":null,"stimulus":"Stimuli_Rocks480/S_Rock Salt_01.png","response":null,"trial_type":"image-keyboard-response","trial_index":169,"plugin_version":"2.1.0","time_elapsed":1046458,"subject_id":"90166","group":"Group1","full_date":"2025-11-21T00:17:59.188Z","date":"2025-11-21","time":"00:17:59"},{"rt":null,"stimulus":"<p style=\"font-size: 50px; margin: 0; text-align: center;\">+</p>","response":null,"trial_type":"html-keyboard-response","trial_index":170,"plugin_version":"2.1.0","time_elapsed":1047475,"subject_id":"90166","group":"Group1","full_date":"2025-11-21T00:17:59.188Z","date":"2025-11-21","time":"00:17:59"},{"task":"memory_phase","broad_category":"I","image_png":"I_Basalt_09.png","image_id":25,"category_name":"Basalt","category":2,"distinct_rating":1.89,"distinct_type":"Bottom","rt":null,"stimulus":"Stimuli_Rocks480/I_Basalt_09.png","response":null,"trial_type":"image-keyboard-response","trial_index":171,"plugin_version":"2.1.0","time_elapsed":1049985,"subject_id":"90166","group":"Group1","full_date":"2025-11-21T00:17:59.188Z","date":"2025-11-21","time":"00:17:59"},{"rt":null,"stimulus":"<p style=\"font-size: 50px; margin: 0; text-align: center;\">+</p>","response":null,"trial_type":"html-keyboard-response","trial_index":172,"plugin_version":"2.1.0","time_elapsed":1050991,"subject_id":"90166","group":"Group1","full_date":"2025-11-21T00:17:59.188Z","date":"2025-11-21","time":"00:17:59"},{"task":"memory_phase","broad_category":"I","image_png":"I_Rhyolite_14.png","image_id":158,"category_name":"Rhyolite","category":10,"distinct_rating":2.59,"distinct_type":"Bottom","rt":null,"stimulus":"Stimuli_Rocks480/I_Rhyolite_14.png","response":null,"trial_type":"image-keyboard-response","trial_index":173,"plugin_version":"2.1.0","time_elapsed":1053500,"subject_id":"90166","group":"Group1","full_date":"2025-11-21T00:17:59.188Z","date":"2025-11-21","time":"00:17:59"},{"rt":null,"stimulus":"<p style=\"font-size: 50px; margin: 0; text-align: center;\">+</p>","response":null,"trial_type":"html-keyboard-response","trial_index":174,"plugin_version":"2.1.0","time_elapsed":1054507,"subject_id":"90166","group":"Group1","full_date":"2025-11-21T00:17:59.188Z","date":"2025-11-21","time":"00:17:59"},{"task":"memory_phase","broad_category":"I","image_png":"I_Pumice_12.png","image_id":140,"category_name":"Pumice","category":9,"distinct_rating":2.97,"distinct_type":"Bottom","rt":null,"stimulus":"Stimuli_Rocks480/I_Pumice_12.png","response":null,"trial_type":"image-keyboard-response","trial_index":175,"plugin_version":"2.1.0","time_elapsed":1057019,"subject_id":"90166","group":"Group1","full_date":"2025-11-21T00:17:59.188Z","date":"2025-11-21","time":"00:17:59"},{"rt":null,"stimulus":"<p style=\"font-size: 50px; margin: 0; text-align: center;\">+</p>","response":null,"trial_type":"html-keyboard-response","trial_index":176,"plugin_version":"2.1.0","time_elapsed":1058027,"subject_id":"90166","group":"Group1","full_date":"2025-11-21T00:17:59.188Z","date":"2025-11-21","time":"00:17:59"},{"task":"memory_phase","broad_category":"I","image_png":"I_Gabbro_11.png","image_id":59,"category_name":"Gabbro","category":4,"distinct_rating":1.99,"distinct_type":"Bottom","rt":null,"stimulus":"Stimuli_Rocks480/I_Gabbro_11.png","response":null,"trial_type":"image-keyboard-response","trial_index":177,"plugin_version":"2.1.0","time_elapsed":1060532,"subject_id":"90166","group":"Group1","full_date":"2025-11-21T00:17:59.188Z","date":"2025-11-21","time":"00:17:59"},{"rt":null,"stimulus":"<p style=\"font-size: 50px; margin: 0; text-align: center;\">+</p>","response":null,"trial_type":"html-keyboard-response","trial_index":178,"plugin_version":"2.1.0","time_elapsed":1061539,"subject_id":"90166","group":"Group1","full_date":"2025-11-21T00:17:59.188Z","date":"2025-11-21","time":"00:17:59"},{"task":"memory_phase","broad_category":"I","image_png":"I_Pumice_11.png","image_id":139,"category_name":"Pumice","category":9,"distinct_rating":1.74,"distinct_type":"Bottom","rt":null,"stimulus":"Stimuli_Rocks480/I_Pumice_11.png","response":null,"trial_type":"image-keyboard-response","trial_index":179,"plugin_version":"2.1.0","time_elapsed":1064052,"subject_id":"90166","group":"Group1","full_date":"2025-11-21T00:17:59.188Z","date":"2025-11-21","time":"00:17:59"},{"rt":null,"stimulus":"<p style=\"font-size: 50px; margin: 0; text-align: center;\">+</p>","response":null,"trial_type":"html-keyboard-response","trial_index":180,"plugin_version":"2.1.0","time_elapsed":1065055,"subject_id":"90166","group":"Group1","full_date":"2025-11-21T00:17:59.188Z","date":"2025-11-21","time":"00:17:59"},{"task":"memory_phase","broad_category":"I","image_png":"I_Andesite_08.png","image_id":8,"category_name":"Andesite","category":1,"distinct_rating":1.95,"distinct_type":"Bottom","rt":null,"stimulus":"Stimuli_Rocks480/I_Andesite_08.png","response":null,"trial_type":"image-keyboard-response","trial_index":181,"plugin_version":"2.1.0","time_elapsed":1067563,"subject_id":"90166","group":"Group1","full_date":"2025-11-21T00:17:59.188Z","date":"2025-11-21","time":"00:17:59"},{"rt":null,"stimulus":"<p style=\"font-size: 50px; margin: 0; text-align: center;\">+</p>","response":null,"trial_type":"html-keyboard-response","trial_index":182,"plugin_version":"2.1.0","time_elapsed":1068571,"subject_id":"90166","group":"Group1","full_date":"2025-11-21T00:17:59.188Z","date":"2025-11-21","time":"00:17:59"},{"task":"memory_phase","broad_category":"I","image_png":"I_Andesite_10.png","image_id":10,"category_name":"Andesite","category":1,"distinct_rating":3.15,"distinct_type":"Bottom","rt":null,"stimulus":"Stimuli_Rocks480/I_Andesite_10.png","response":null,"trial_type":"image-keyboard-response","trial_index":183,"plugin_version":"2.1.0","time_elapsed":1071084,"subject_id":"90166","group":"Group1","full_date":"2025-11-21T00:17:59.188Z","date":"2025-11-21","time":"00:17:59"},{"rt":null,"stimulus":"<p style=\"font-size: 50px; margin: 0; text-align: center;\">+</p>","response":null,"trial_type":"html-keyboard-response","trial_index":184,"plugin_version":"2.1.0","time_elapsed":1072093,"subject_id":"90166","group":"Group1","full_date":"2025-11-21T00:17:59.188Z","date":"2025-11-21","time":"00:17:59"},{"task":"memory_phase","broad_category":"M","image_png":"M_Marble_06.png","image_id":230,"category_name":"Marble","category":15,"distinct_rating":3.4,"distinct_type":"Bottom","rt":null,"stimulus":"Stimuli_Rocks480/M_Marble_06.png","response":null,"trial_type":"image-keyboard-response","trial_index":185,"plugin_version":"2.1.0","time_elapsed":1074604,"subject_id":"90166","group":"Group1","full_date":"2025-11-21T00:17:59.188Z","date":"2025-11-21","time":"00:17:59"},{"rt":null,"stimulus":"<p style=\"font-size: 50px; margin: 0; text-align: center;\">+</p>","response":null,"trial_type":"html-keyboard-response","trial_index":186,"plugin_version":"2.1.0","time_elapsed":1075615,"subject_id":"90166","group":"Group1","full_date":"2025-11-21T00:17:59.188Z","date":"2025-11-21","time":"00:17:59"},{"task":"memory_phase","broad_category":"S","image_png":"S_Chert_10.png","image_id":362,"category_name":"Chert","category":23,"distinct_rating":7.17,"distinct_type":"Top","rt":null,"stimulus":"Stimuli_Rocks480/S_Chert_10.png","response":null,"trial_type":"image-keyboard-response","trial_index":187,"plugin_version":"2.1.0","time_elapsed":1078127,"subject_id":"90166","group":"Group1","full_date":"2025-11-21T00:17:59.188Z","date":"2025-11-21","time":"00:17:59"},{"rt":null,"stimulus":"<p style=\"font-size: 50px; margin: 0; text-align: center;\">+</p>","response":null,"trial_type":"html-keyboard-response","trial_index":188,"plugin_version":"2.1.0","time_elapsed":1079133,"subject_id":"90166","group":"Group1","full_date":"2025-11-21T00:17:59.188Z","date":"2025-11-21","time":"00:17:59"},{"task":"memory_phase","broad_category":"M","image_png":"M_Gneiss_13.png","image_id":205,"category_name":"Gneiss","category":13,"distinct_rating":3.26,"distinct_type":"Bottom","rt":null,"stimulus":"Stimuli_Rocks480/M_Gneiss_13.png","response":null,"trial_type":"image-keyboard-response","trial_index":189,"plugin_version":"2.1.0","time_elapsed":1081642,"subject_id":"90166","group":"Group1","full_date":"2025-11-21T00:17:59.188Z","date":"2025-11-21","time":"00:17:59"},{"rt":null,"stimulus":"<p style=\"font-size: 50px; margin: 0; text-align: center;\">+</p>","response":null,"trial_type":"html-keyboard-response","trial_index":190,"plugin_version":"2.1.0","time_elapsed":1082645,"subject_id":"90166","group":"Group1","full_date":"2025-11-21T00:17:59.188Z","date":"2025-11-21","time":"00:17:59"},{"task":"memory_phase","broad_category":"I","image_png":"I_Rhyolite_16.png","image_id":160,"category_name":"Rhyolite","category":10,"distinct_rating":2.19,"distinct_type":"Bottom","rt":null,"stimulus":"Stimuli_Rocks480/I_Rhyolite_16.png","response":null,"trial_type":"image-keyboard-response","trial_index":191,"plugin_version":"2.1.0","time_elapsed":1085156,"subject_id":"90166","group":"Group1","full_date":"2025-11-21T00:17:59.188Z","date":"2025-11-21","time":"00:17:59"},{"rt":null,"stimulus":"<p style=\"font-size: 50px; margin: 0; text-align: center;\">+</p>","response":null,"trial_type":"html-keyboard-response","trial_index":192,"plugin_version":"2.1.0","time_elapsed":1086165,"subject_id":"90166","group":"Group1","full_date":"2025-11-21T00:17:59.188Z","date":"2025-11-21","time":"00:17:59"},{"task":"memory_phase","broad_category":"M","image_png":"M_Slate_15.png","image_id":319,"category_name":"Slate","category":20,"distinct_rating":2.13,"distinct_type":"Bottom","rt":null,"stimulus":"Stimuli_Rocks480/M_Slate_15.png","response":null,"trial_type":"image-keyboard-response","trial_index":193,"plugin_version":"2.1.0","time_elapsed":1088678,"subject_id":"90166","group":"Group1","full_date":"2025-11-21T00:17:59.188Z","date":"2025-11-21","time":"00:17:59"},{"rt":null,"stimulus":"<p style=\"font-size: 50px; margin: 0; text-align: center;\">+</p>","response":null,"trial_type":"html-keyboard-response","trial_index":194,"plugin_version":"2.1.0","time_elapsed":1089688,"subject_id":"90166","group":"Group1","full_date":"2025-11-21T00:17:59.188Z","date":"2025-11-21","time":"00:17:59"},{"task":"memory_phase","broad_category":"I","image_png":"I_Diorite_03.png","image_id":35,"category_name":"Diorite","category":3,"distinct_rating":3.14,"distinct_type":"Bottom","rt":null,"stimulus":"Stimuli_Rocks480/I_Diorite_03.png","response":null,"trial_type":"image-keyboard-response","trial_index":195,"plugin_version":"2.1.0","time_elapsed":1092200,"subject_id":"90166","group":"Group1","full_date":"2025-11-21T00:17:59.188Z","date":"2025-11-21","time":"00:17:59"},{"rt":null,"stimulus":"<p style=\"font-size: 50px; margin: 0; text-align: center;\">+</p>","response":null,"trial_type":"html-keyboard-response","trial_index":196,"plugin_version":"2.1.0","time_elapsed":1093209,"subject_id":"90166","group":"Group1","full_date":"2025-11-21T00:17:59.188Z","date":"2025-11-21","time":"00:17:59"},{"task":"memory_phase","broad_category":"S","image_png":"S_Conglomerate_05.png","image_id":373,"category_name":"Conglomerate","category":24,"distinct_rating":7.32,"distinct_type":"Top","rt":null,"stimulus":"Stimuli_Rocks480/S_Conglomerate_05.png","response":null,"trial_type":"image-keyboard-response","trial_index":197,"plugin_version":"2.1.0","time_elapsed":1095716,"subject_id":"90166","group":"Group1","full_date":"2025-11-21T00:17:59.188Z","date":"2025-11-21","time":"00:17:59"},{"rt":null,"stimulus":"<p style=\"font-size: 50px; margin: 0; text-align: center;\">+</p>","response":null,"trial_type":"html-keyboard-response","trial_index":198,"plugin_version":"2.1.0","time_elapsed":1096727,"subject_id":"90166","group":"Group1","full_date":"2025-11-21T00:17:59.188Z","date":"2025-11-21","time":"00:17:59"},{"task":"memory_phase","broad_category":"I","image_png":"I_Rhyolite_11.png","image_id":155,"category_name":"Rhyolite","category":10,"distinct_rating":1.73,"distinct_type":"Bottom","rt":null,"stimulus":"Stimuli_Rocks480/I_Rhyolite_11.png","response":null,"trial_type":"image-keyboard-response","trial_index":199,"plugin_version":"2.1.0","time_elapsed":1099244,"subject_id":"90166","group":"Group1","full_date":"2025-11-21T00:17:59.188Z","date":"2025-11-21","time":"00:17:59"},{"rt":null,"stimulus":"<p style=\"font-size: 50px; margin: 0; text-align: center;\">+</p>","response":null,"trial_type":"html-keyboard-response","trial_index":200,"plugin_version":"2.1.0","time_elapsed":1100251,"subject_id":"90166","group":"Group1","full_date":"2025-11-21T00:17:59.188Z","date":"2025-11-21","time":"00:17:59"},{"task":"memory_phase","broad_category":"M","image_png":"M_Quartzite_05.png","image_id":277,"category_name":"Quartzite","category":18,"distinct_rating":2.23,"distinct_type":"Bottom","rt":null,"stimulus":"Stimuli_Rocks480/M_Quartzite_05.png","response":null,"trial_type":"image-keyboard-response","trial_index":201,"plugin_version":"2.1.0","time_elapsed":1102755,"subject_id":"90166","group":"Group1","full_date":"2025-11-21T00:17:59.188Z","date":"2025-11-21","time":"00:17:59"},{"rt":null,"stimulus":"<p style=\"font-size: 50px; margin: 0; text-align: center;\">+</p>","response":null,"trial_type":"html-keyboard-response","trial_index":202,"plugin_version":"2.1.0","time_elapsed":1103774,"subject_id":"90166","group":"Group1","full_date":"2025-11-21T00:17:59.188Z","date":"2025-11-21","time":"00:17:59"},{"task":"memory_phase","broad_category":"S","image_png":"S_Dolomite_14.png","image_id":398,"category_name":"Dolomite","category":25,"distinct_rating":1.43,"distinct_type":"Bottom","rt":null,"stimulus":"Stimuli_Rocks480/S_Dolomite_14.png","response":null,"trial_type":"image-keyboard-response","trial_index":203,"plugin_version":"2.1.0","time_elapsed":1106285,"subject_id":"90166","group":"Group1","full_date":"2025-11-21T00:17:59.188Z","date":"2025-11-21","time":"00:17:59"},{"rt":null,"stimulus":"<p style=\"font-size: 50px; margin: 0; text-align: center;\">+</p>","response":null,"trial_type":"html-keyboard-response","trial_index":204,"plugin_version":"2.1.0","time_elapsed":1107288,"subject_id":"90166","group":"Group1","full_date":"2025-11-21T00:17:59.188Z","date":"2025-11-21","time":"00:17:59"},{"task":"memory_phase","broad_category":"M","image_png":"M_Quartzite_08.png","image_id":280,"category_name":"Quartzite","category":18,"distinct_rating":2.15,"distinct_type":"Bottom","rt":null,"stimulus":"Stimuli_Rocks480/M_Quartzite_08.png","response":null,"trial_type":"image-keyboard-response","trial_index":205,"plugin_version":"2.1.0","time_elapsed":1109793,"subject_id":"90166","group":"Group1","full_date":"2025-11-21T00:17:59.188Z","date":"2025-11-21","time":"00:17:59"},{"rt":null,"stimulus":"<p style=\"font-size: 50px; margin: 0; text-align: center;\">+</p>","response":null,"trial_type":"html-keyboard-response","trial_index":206,"plugin_version":"2.1.0","time_elapsed":1110804,"subject_id":"90166","group":"Group1","full_date":"2025-11-21T00:17:59.188Z","date":"2025-11-21","time":"00:17:59"},{"task":"memory_phase","broad_category":"I","image_png":"I_Gabbro_16.png","image_id":64,"category_name":"Gabbro","category":4,"distinct_rating":2.52,"distinct_type":"Bottom","rt":null,"stimulus":"Stimuli_Rocks480/I_Gabbro_16.png","response":null,"trial_type":"image-keyboard-response","trial_index":207,"plugin_version":"2.1.0","time_elapsed":1113316,"subject_id":"90166","group":"Group1","full_date":"2025-11-21T00:17:59.188Z","date":"2025-11-21","time":"00:17:59"},{"rt":1291,"stimulus":"<p style=\"max-width: 760px; margin: auto; font-size: 35px; line-height: 1.5;\">You have completed 2 study phases. Now, we'll show you all the images again 1 more time.<br><br>Press SPACE to continue</p>","response":" ","trial_type":"html-keyboard-response","trial_index":208,"plugin_version":"2.1.0","time_elapsed":1114609,"subject_id":"90166","group":"Group1","full_date":"2025-11-21T00:17:59.188Z","date":"2025-11-21","time":"00:17:59"},{"rt":null,"stimulus":"<p style=\"font-size: 50px; margin: 0; text-align: center;\">+</p>","response":null,"trial_type":"html-keyboard-response","trial_index":209,"plugin_version":"2.1.0","time_elapsed":1115632,"subject_id":"90166","group":"Group1","full_date":"2025-11-21T00:17:59.188Z","date":"2025-11-21","time":"00:17:59"},{"task":"memory_phase","broad_category":"M","image_png":"M_Phyllite_07.png","image_id":263,"category_name":"Phyllite","category":17,"distinct_rating":2.59,"distinct_type":"Bottom","rt":null,"stimulus":"Stimuli_Rocks480/M_Phyllite_07.png","response":null,"trial_type":"image-keyboard-response","trial_index":210,"plugin_version":"2.1.0","time_elapsed":1118141,"subject_id":"90166","group":"Group1","full_date":"2025-11-21T00:17:59.188Z","date":"2025-11-21","time":"00:17:59"},{"rt":null,"stimulus":"<p style=\"font-size: 50px; margin: 0; text-align: center;\">+</p>","response":null,"trial_type":"html-keyboard-response","trial_index":211,"plugin_version":"2.1.0","time_elapsed":1119152,"subject_id":"90166","group":"Group1","full_date":"2025-11-21T00:17:59.188Z","date":"2025-11-21","time":"00:17:59"},{"task":"memory_phase","broad_category":"I","image_png":"I_Diorite_03.png","image_id":35,"category_name":"Diorite","category":3,"distinct_rating":3.14,"distinct_type":"Bottom","rt":null,"stimulus":"Stimuli_Rocks480/I_Diorite_03.png","response":null,"trial_type":"image-keyboard-response","trial_index":212,"plugin_version":"2.1.0","time_elapsed":1121660,"subject_id":"90166","group":"Group1","full_date":"2025-11-21T00:17:59.188Z","date":"2025-11-21","time":"00:17:59"},{"rt":null,"stimulus":"<p style=\"font-size: 50px; margin: 0; text-align: center;\">+</p>","response":null,"trial_type":"html-keyboard-response","trial_index":213,"plugin_version":"2.1.0","time_elapsed":1122662,"subject_id":"90166","group":"Group1","full_date":"2025-11-21T00:17:59.188Z","date":"2025-11-21","time":"00:17:59"},{"task":"memory_phase","broad_category":"I","image_png":"I_Gabbro_08.png","image_id":56,"category_name":"Gabbro","category":4,"distinct_rating":3.02,"distinct_type":"Bottom","rt":null,"stimulus":"Stimuli_Rocks480/I_Gabbro_08.png","response":null,"trial_type":"image-keyboard-response","trial_index":214,"plugin_version":"2.1.0","time_elapsed":1125171,"subject_id":"90166","group":"Group1","full_date":"2025-11-21T00:17:59.188Z","date":"2025-11-21","time":"00:17:59"},{"rt":null,"stimulus":"<p style=\"font-size: 50px; margin: 0; text-align: center;\">+</p>","response":null,"trial_type":"html-keyboard-response","trial_index":215,"plugin_version":"2.1.0","time_elapsed":1126177,"subject_id":"90166","group":"Group1","full_date":"2025-11-21T00:17:59.188Z","date":"2025-11-21","time":"00:17:59"},{"task":"memory_phase","broad_category":"M","image_png":"M_Slate_11.png","image_id":315,"category_name":"Slate","category":20,"distinct_rating":2.75,"distinct_type":"Bottom","rt":null,"stimulus":"Stimuli_Rocks480/M_Slate_11.png","response":null,"trial_type":"image-keyboard-response","trial_index":216,"plugin_version":"2.1.0","time_elapsed":1128681,"subject_id":"90166","group":"Group1","full_date":"2025-11-21T00:17:59.188Z","date":"2025-11-21","time":"00:17:59"},{"rt":null,"stimulus":"<p style=\"font-size: 50px; margin: 0; text-align: center;\">+</p>","response":null,"trial_type":"html-keyboard-response","trial_index":217,"plugin_version":"2.1.0","time_elapsed":1129696,"subject_id":"90166","group":"Group1","full_date":"2025-11-21T00:17:59.188Z","date":"2025-11-21","time":"00:17:59"},{"task":"memory_phase","broad_category":"I","image_png":"I_Pumice_11.png","image_id":139,"category_name":"Pumice","category":9,"distinct_rating":1.74,"distinct_type":"Bottom","rt":null,"stimulus":"Stimuli_Rocks480/I_Pumice_11.png","response":null,"trial_type":"image-keyboard-response","trial_index":218,"plugin_version":"2.1.0","time_elapsed":1132204,"subject_id":"90166","group":"Group1","full_date":"2025-11-21T00:17:59.188Z","date":"2025-11-21","time":"00:17:59"},{"rt":null,"stimulus":"<p style=\"font-size: 50px; margin: 0; text-align: center;\">+</p>","response":null,"trial_type":"html-keyboard-response","trial_index":219,"plugin_version":"2.1.0","time_elapsed":1133209,"subject_id":"90166","group":"Group1","full_date":"2025-11-21T00:17:59.188Z","date":"2025-11-21","time":"00:17:59"},{"task":"memory_phase","broad_category":"M","image_png":"M_Phyllite_03.png","image_id":259,"category_name":"Phyllite","category":17,"distinct_rating":2.5,"distinct_type":"Bottom","rt":null,"stimulus":"Stimuli_Rocks480/M_Phyllite_03.png","response":null,"trial_type":"image-keyboard-response","trial_index":220,"plugin_version":"2.1.0","time_elapsed":1135727,"subject_id":"90166","group":"Group1","full_date":"2025-11-21T00:17:59.188Z","date":"2025-11-21","time":"00:17:59"},{"rt":null,"stimulus":"<p style=\"font-size: 50px; margin: 0; text-align: center;\">+</p>","response":null,"trial_type":"html-keyboard-response","trial_index":221,"plugin_version":"2.1.0","time_elapsed":1136735,"subject_id":"90166","group":"Group1","full_date":"2025-11-21T00:17:59.188Z","date":"2025-11-21","time":"00:17:59"},{"task":"memory_phase","broad_category":"M","image_png":"M_Gneiss_05.png","image_id":197,"category_name":"Gneiss","category":13,"distinct_rating":2.97,"distinct_type":"Bottom","rt":null,"stimulus":"Stimuli_Rocks480/M_Gneiss_05.png","response":null,"trial_type":"image-keyboard-response","trial_index":222,"plugin_version":"2.1.0","time_elapsed":1139252,"subject_id":"90166","group":"Group1","full_date":"2025-11-21T00:17:59.188Z","date":"2025-11-21","time":"00:17:59"},{"rt":null,"stimulus":"<p style=\"font-size: 50px; margin: 0; text-align: center;\">+</p>","response":null,"trial_type":"html-keyboard-response","trial_index":223,"plugin_version":"2.1.0","time_elapsed":1140259,"subject_id":"90166","group":"Group1","full_date":"2025-11-21T00:17:59.188Z","date":"2025-11-21","time":"00:17:59"},{"task":"memory_phase","broad_category":"M","image_png":"M_Marble_16.png","image_id":240,"category_name":"Marble","category":15,"distinct_rating":2.57,"distinct_type":"Bottom","rt":null,"stimulus":"Stimuli_Rocks480/M_Marble_16.png","response":null,"trial_type":"image-keyboard-response","trial_index":224,"plugin_version":"2.1.0","time_elapsed":1142767,"subject_id":"90166","group":"Group1","full_date":"2025-11-21T00:17:59.188Z","date":"2025-11-21","time":"00:17:59"},{"rt":null,"stimulus":"<p style=\"font-size: 50px; margin: 0; text-align: center;\">+</p>","response":null,"trial_type":"html-keyboard-response","trial_index":225,"plugin_version":"2.1.0","time_elapsed":1143784,"subject_id":"90166","group":"Group1","full_date":"2025-11-21T00:17:59.188Z","date":"2025-11-21","time":"00:17:59"},{"task":"memory_phase","broad_category":"M","image_png":"M_Phyllite_10.png","image_id":266,"category_name":"Phyllite","category":17,"distinct_rating":2.6,"distinct_type":"Bottom","rt":null,"stimulus":"Stimuli_Rocks480/M_Phyllite_10.png","response":null,"trial_type":"image-keyboard-response","trial_index":226,"plugin_version":"2.1.0","time_elapsed":1146290,"subject_id":"90166","group":"Group1","full_date":"2025-11-21T00:17:59.188Z","date":"2025-11-21","time":"00:17:59"},{"rt":null,"stimulus":"<p style=\"font-size: 50px; margin: 0; text-align: center;\">+</p>","response":null,"trial_type":"html-keyboard-response","trial_index":227,"plugin_version":"2.1.0","time_elapsed":1147301,"subject_id":"90166","group":"Group1","full_date":"2025-11-21T00:17:59.188Z","date":"2025-11-21","time":"00:17:59"},{"task":"memory_phase","broad_category":"S","image_png":"S_Shale_08.png","image_id":472,"category_name":"Shale","category":30,"distinct_rating":2.55,"distinct_type":"Bottom","rt":null,"stimulus":"Stimuli_Rocks480/S_Shale_08.png","response":null,"trial_type":"image-keyboard-response","trial_index":228,"plugin_version":"2.1.0","time_elapsed":1149806,"subject_id":"90166","group":"Group1","full_date":"2025-11-21T00:17:59.188Z","date":"2025-11-21","time":"00:17:59"},{"rt":null,"stimulus":"<p style=\"font-size: 50px; margin: 0; text-align: center;\">+</p>","response":null,"trial_type":"html-keyboard-response","trial_index":229,"plugin_version":"2.1.0","time_elapsed":1150816,"subject_id":"90166","group":"Group1","full_date":"2025-11-21T00:17:59.188Z","date":"2025-11-21","time":"00:17:59"},{"task":"memory_phase","broad_category":"I","image_png":"I_Basalt_01.png","image_id":17,"category_name":"Basalt","category":2,"distinct_rating":1.92,"distinct_type":"Bottom","rt":null,"stimulus":"Stimuli_Rocks480/I_Basalt_01.png","response":null,"trial_type":"image-keyboard-response","trial_index":230,"plugin_version":"2.1.0","time_elapsed":1153328,"subject_id":"90166","group":"Group1","full_date":"2025-11-21T00:17:59.188Z","date":"2025-11-21","time":"00:17:59"},{"rt":null,"stimulus":"<p style=\"font-size: 50px; margin: 0; text-align: center;\">+</p>","response":null,"trial_type":"html-keyboard-response","trial_index":231,"plugin_version":"2.1.0","time_elapsed":1154335,"subject_id":"90166","group":"Group1","full_date":"2025-11-21T00:17:59.188Z","date":"2025-11-21","time":"00:17:59"},{"task":"memory_phase","broad_category":"I","image_png":"I_Basalt_09.png","image_id":25,"category_name":"Basalt","category":2,"distinct_rating":1.89,"distinct_type":"Bottom","rt":null,"stimulus":"Stimuli_Rocks480/I_Basalt_09.png","response":null,"trial_type":"image-keyboard-response","trial_index":232,"plugin_version":"2.1.0","time_elapsed":1156842,"subject_id":"90166","group":"Group1","full_date":"2025-11-21T00:17:59.188Z","date":"2025-11-21","time":"00:17:59"},{"rt":null,"stimulus":"<p style=\"font-size: 50px; margin: 0; text-align: center;\">+</p>","response":null,"trial_type":"html-keyboard-response","trial_index":233,"plugin_version":"2.1.0","time_elapsed":1157848,"subject_id":"90166","group":"Group1","full_date":"2025-11-21T00:17:59.188Z","date":"2025-11-21","time":"00:17:59"},{"task":"memory_phase","broad_category":"I","image_png":"I_Diorite_04.png","image_id":36,"category_name":"Diorite","category":3,"distinct_rating":2.98,"distinct_type":"Bottom","rt":null,"stimulus":"Stimuli_Rocks480/I_Diorite_04.png","response":null,"trial_type":"image-keyboard-response","trial_index":234,"plugin_version":"2.1.0","time_elapsed":1160355,"subject_id":"90166","group":"Group1","full_date":"2025-11-21T00:17:59.188Z","date":"2025-11-21","time":"00:17:59"},{"rt":null,"stimulus":"<p style=\"font-size: 50px; margin: 0; text-align: center;\">+</p>","response":null,"trial_type":"html-keyboard-response","trial_index":235,"plugin_version":"2.1.0","time_elapsed":1161365,"subject_id":"90166","group":"Group1","full_date":"2025-11-21T00:17:59.188Z","date":"2025-11-21","time":"00:17:59"},{"task":"memory_phase","broad_category":"S","image_png":"S_Rock Gypsum_04.png","image_id":420,"category_name":"Rock Gypsum","category":27,"distinct_rating":7.61,"distinct_type":"Top","rt":null,"stimulus":"Stimuli_Rocks480/S_Rock Gypsum_04.png","response":null,"trial_type":"image-keyboard-response","trial_index":236,"plugin_version":"2.1.0","time_elapsed":1163878,"subject_id":"90166","group":"Group1","full_date":"2025-11-21T00:17:59.188Z","date":"2025-11-21","time":"00:17:59"},{"rt":null,"stimulus":"<p style=\"font-size: 50px; margin: 0; text-align: center;\">+</p>","response":null,"trial_type":"html-keyboard-response","trial_index":237,"plugin_version":"2.1.0","time_elapsed":1164884,"subject_id":"90166","group":"Group1","full_date":"2025-11-21T00:17:59.188Z","date":"2025-11-21","time":"00:17:59"},{"task":"memory_phase","broad_category":"S","image_png":"S_Shale_12.png","image_id":476,"category_name":"Shale","category":30,"distinct_rating":2.48,"distinct_type":"Bottom","rt":null,"stimulus":"Stimuli_Rocks480/S_Shale_12.png","response":null,"trial_type":"image-keyboard-response","trial_index":238,"plugin_version":"2.1.0","time_elapsed":1167392,"subject_id":"90166","group":"Group1","full_date":"2025-11-21T00:17:59.188Z","date":"2025-11-21","time":"00:17:59"},{"rt":null,"stimulus":"<p style=\"font-size: 50px; margin: 0; text-align: center;\">+</p>","response":null,"trial_type":"html-keyboard-response","trial_index":239,"plugin_version":"2.1.0","time_elapsed":1168403,"subject_id":"90166","group":"Group1","full_date":"2025-11-21T00:17:59.188Z","date":"2025-11-21","time":"00:17:59"},{"task":"memory_phase","broad_category":"I","image_png":"I_Gabbro_16.png","image_id":64,"category_name":"Gabbro","category":4,"distinct_rating":2.52,"distinct_type":"Bottom","rt":null,"stimulus":"Stimuli_Rocks480/I_Gabbro_16.png","response":null,"trial_type":"image-keyboard-response","trial_index":240,"plugin_version":"2.1.0","time_elapsed":1170912,"subject_id":"90166","group":"Group1","full_date":"2025-11-21T00:17:59.188Z","date":"2025-11-21","time":"00:17:59"},{"rt":null,"stimulus":"<p style=\"font-size: 50px; margin: 0; text-align: center;\">+</p>","response":null,"trial_type":"html-keyboard-response","trial_index":241,"plugin_version":"2.1.0","time_elapsed":1171930,"subject_id":"90166","group":"Group1","full_date":"2025-11-21T00:17:59.188Z","date":"2025-11-21","time":"00:17:59"},{"task":"memory_phase","broad_category":"M","image_png":"M_Slate_15.png","image_id":319,"category_name":"Slate","category":20,"distinct_rating":2.13,"distinct_type":"Bottom","rt":null,"stimulus":"Stimuli_Rocks480/M_Slate_15.png","response":null,"trial_type":"image-keyboard-response","trial_index":242,"plugin_version":"2.1.0","time_elapsed":1174436,"subject_id":"90166","group":"Group1","full_date":"2025-11-21T00:17:59.188Z","date":"2025-11-21","time":"00:17:59"},{"rt":null,"stimulus":"<p style=\"font-size: 50px; margin: 0; text-align: center;\">+</p>","response":null,"trial_type":"html-keyboard-response","trial_index":243,"plugin_version":"2.1.0","time_elapsed":1175440,"subject_id":"90166","group":"Group1","full_date":"2025-11-21T00:17:59.188Z","date":"2025-11-21","time":"00:17:59"},{"task":"memory_phase","broad_category":"I","image_png":"I_Andesite_10.png","image_id":10,"category_name":"Andesite","category":1,"distinct_rating":3.15,"distinct_type":"Bottom","rt":null,"stimulus":"Stimuli_Rocks480/I_Andesite_10.png","response":null,"trial_type":"image-keyboard-response","trial_index":244,"plugin_version":"2.1.0","time_elapsed":1177957,"subject_id":"90166","group":"Group1","full_date":"2025-11-21T00:17:59.188Z","date":"2025-11-21","time":"00:17:59"},{"rt":null,"stimulus":"<p style=\"font-size: 50px; margin: 0; text-align: center;\">+</p>","response":null,"trial_type":"html-keyboard-response","trial_index":245,"plugin_version":"2.1.0","time_elapsed":1178964,"subject_id":"90166","group":"Group1","full_date":"2025-11-21T00:17:59.188Z","date":"2025-11-21","time":"00:17:59"},{"task":"memory_phase","broad_category":"I","image_png":"I_Pumice_12.png","image_id":140,"category_name":"Pumice","category":9,"distinct_rating":2.97,"distinct_type":"Bottom","rt":null,"stimulus":"Stimuli_Rocks480/I_Pumice_12.png","response":null,"trial_type":"image-keyboard-response","trial_index":246,"plugin_version":"2.1.0","time_elapsed":1181477,"subject_id":"90166","group":"Group1","full_date":"2025-11-21T00:17:59.188Z","date":"2025-11-21","time":"00:17:59"},{"rt":null,"stimulus":"<p style=\"font-size: 50px; margin: 0; text-align: center;\">+</p>","response":null,"trial_type":"html-keyboard-response","trial_index":247,"plugin_version":"2.1.0","time_elapsed":1182484,"subject_id":"90166","group":"Group1","full_date":"2025-11-21T00:17:59.188Z","date":"2025-11-21","time":"00:17:59"},{"task":"memory_phase","broad_category":"I","image_png":"I_Andesite_06.png","image_id":6,"category_name":"Andesite","category":1,"distinct_rating":3.17,"distinct_type":"Bottom","rt":null,"stimulus":"Stimuli_Rocks480/I_Andesite_06.png","response":null,"trial_type":"image