[{"width":1270,"height":946,"webaudio":true,"browser":"edge-chromium","browser_version":"142.0.0","mobile":false,"os":"Windows 10","fullscreen":true,"vsync_rate":100.79,"webcam":true,"microphone":true,"trial_type":"browser-check","trial_index":0,"plugin_version":"2.1.0","time_elapsed":600,"subject_id":"90279","group":"Group2","full_date":"2025-11-22T04:06:31.203Z","date":"2025-11-22","time":"04:06:31"},{"success":true,"timeout":false,"failed_images":[],"failed_audio":[],"failed_video":[],"trial_type":"preload","trial_index":1,"plugin_version":"2.1.0","time_elapsed":4686,"subject_id":"90279","group":"Group2","full_date":"2025-11-22T04:06:31.203Z","date":"2025-11-22","time":"04:06:31"},{"rt":11756,"url":"SONA_consent_memorability.html","trial_type":"external-html","trial_index":2,"plugin_version":"2.1.0","time_elapsed":16495,"subject_id":"90279","group":"Group2","full_date":"2025-11-22T04:06:31.203Z","date":"2025-11-22","time":"04:06:31"},{"success":true,"rt":2545,"trial_type":"fullscreen","trial_index":3,"plugin_version":"2.1.0","time_elapsed":20057,"subject_id":"90279","group":"Group2","full_date":"2025-11-22T04:06:31.203Z","date":"2025-11-22","time":"04:06:31"},{"rt":4248730,"stimulus":"<div style=\"max-width: 760px; margin: auto; font-size: 20px; line-height: 1.5;\">\n      <h1 style=\"text-align:center; font-size: 30px;\">Instructions</h1>\n      <p>\n        Welcome to the study on <b>visual memory</b>. This experiment consists of <b>two phases</b>: \n        a <b>study phase</b> and a <b>test phase</b>.\n      </p>\n      <p>\n        In the study phase, you will see a series of rock images along with their category labels.\n        The images will appear one at a time.\n        <b>Your task</b> is to learn the categories to which the rock images belong \n        and to remember each image as accurately as possible.\n      </p> \n      <p>\n        Note that we will repeat the study phase <b>3 times</b>, \n        so you will have multiple opportunities to see and remember each image.\n      </p>\n      <p>\n        After the study phase, <b>your memory will be tested</b>. \n        Additional instructions for the test phase will be provided at that time.\n      </p>\n      <p>\n        If your computer has multiple <b>language settings</b> (e.g., English and another language),\n        please make sure it is set to English before starting.\n      </p>\n      <p>\n        You can track your progress using the <b>completion bar</b> at the top of the screen. \n        Please note that the bar will refresh when the test phase begins \n        to give you an accurate sense of your progress in both phases.\n      </p> \n      <p>\n        Press the button below when you are ready to begin.\n      </p>\n    </div>","response":0,"trial_type":"html-button-response","trial_index":4,"plugin_version":"2.1.0","time_elapsed":4270581,"subject_id":"90279","group":"Group2","full_date":"2025-11-22T04:06:31.203Z","date":"2025-11-22","time":"04:06:31"},{"rt":null,"stimulus":"<p style=\"font-size: 50px; margin: 0; text-align: center;\">+</p>","response":null,"trial_type":"html-keyboard-response","trial_index":5,"plugin_version":"2.1.0","time_elapsed":4271590,"subject_id":"90279","group":"Group2","full_date":"2025-11-22T04:06:31.203Z","date":"2025-11-22","time":"04:06:31"},{"task":"memory_phase","broad_category":"M","image_png":"M_Slate_10.png","image_id":314,"category_name":"Slate","category":20,"distinct_rating":1.94,"distinct_type":"Bottom","rt":null,"stimulus":"Stimuli_Rocks480/M_Slate_10.png","response":null,"trial_type":"image-keyboard-response","trial_index":6,"plugin_version":"2.1.0","time_elapsed":4274108,"subject_id":"90279","group":"Group2","full_date":"2025-11-22T04:06:31.203Z","date":"2025-11-22","time":"04:06:31"},{"rt":null,"stimulus":"<p style=\"font-size: 50px; margin: 0; text-align: center;\">+</p>","response":null,"trial_type":"html-keyboard-response","trial_index":7,"plugin_version":"2.1.0","time_elapsed":4275112,"subject_id":"90279","group":"Group2","full_date":"2025-11-22T04:06:31.203Z","date":"2025-11-22","time":"04:06:31"},{"task":"memory_phase","broad_category":"I","image_png":"I_Pumice_13.png","image_id":141,"category_name":"Pumice","category":9,"distinct_rating":3.12,"distinct_type":"Bottom","rt":null,"stimulus":"Stimuli_Rocks480/I_Pumice_13.png","response":null,"trial_type":"image-keyboard-response","trial_index":8,"plugin_version":"2.1.0","time_elapsed":4277625,"subject_id":"90279","group":"Group2","full_date":"2025-11-22T04:06:31.203Z","date":"2025-11-22","time":"04:06:31"},{"rt":null,"stimulus":"<p style=\"font-size: 50px; margin: 0; text-align: center;\">+</p>","response":null,"trial_type":"html-keyboard-response","trial_index":9,"plugin_version":"2.1.0","time_elapsed":4278633,"subject_id":"90279","group":"Group2","full_date":"2025-11-22T04:06:31.203Z","date":"2025-11-22","time":"04:06:31"},{"task":"memory_phase","broad_category":"S","image_png":"S_Chert_13.png","image_id":365,"category_name":"Chert","category":23,"distinct_rating":6.57,"distinct_type":"Top","rt":null,"stimulus":"Stimuli_Rocks480/S_Chert_13.png","response":null,"trial_type":"image-keyboard-response","trial_index":10,"plugin_version":"2.1.0","time_elapsed":4281144,"subject_id":"90279","group":"Group2","full_date":"2025-11-22T04:06:31.203Z","date":"2025-11-22","time":"04:06:31"},{"rt":null,"stimulus":"<p style=\"font-size: 50px; margin: 0; text-align: center;\">+</p>","response":null,"trial_type":"html-keyboard-response","trial_index":11,"plugin_version":"2.1.0","time_elapsed":4282154,"subject_id":"90279","group":"Group2","full_date":"2025-11-22T04:06:31.203Z","date":"2025-11-22","time":"04:06:31"},{"task":"memory_phase","broad_category":"M","image_png":"M_Quartzite_12.png","image_id":284,"category_name":"Quartzite","category":18,"distinct_rating":1.92,"distinct_type":"Bottom","rt":null,"stimulus":"Stimuli_Rocks480/M_Quartzite_12.png","response":null,"trial_type":"image-keyboard-response","trial_index":12,"plugin_version":"2.1.0","time_elapsed":4284658,"subject_id":"90279","group":"Group2","full_date":"2025-11-22T04:06:31.203Z","date":"2025-11-22","time":"04:06:31"},{"rt":null,"stimulus":"<p style=\"font-size: 50px; margin: 0; text-align: center;\">+</p>","response":null,"trial_type":"html-keyboard-response","trial_index":13,"plugin_version":"2.1.0","time_elapsed":4285662,"subject_id":"90279","group":"Group2","full_date":"2025-11-22T04:06:31.203Z","date":"2025-11-22","time":"04:06:31"},{"task":"memory_phase","broad_category":"I","image_png":"I_Pumice_14.png","image_id":142,"category_name":"Pumice","category":9,"distinct_rating":3.22,"distinct_type":"Bottom","rt":null,"stimulus":"Stimuli_Rocks480/I_Pumice_14.png","response":null,"trial_type":"image-keyboard-response","trial_index":14,"plugin_version":"2.1.0","time_elapsed":4288171,"subject_id":"90279","group":"Group2","full_date":"2025-11-22T04:06:31.203Z","date":"2025-11-22","time":"04:06:31"},{"rt":null,"stimulus":"<p style=\"font-size: 50px; margin: 0; text-align: center;\">+</p>","response":null,"trial_type":"html-keyboard-response","trial_index":15,"plugin_version":"2.1.0","time_elapsed":4289184,"subject_id":"90279","group":"Group2","full_date":"2025-11-22T04:06:31.203Z","date":"2025-11-22","time":"04:06:31"},{"task":"memory_phase","broad_category":"I","image_png":"I_Rhyolite_05.png","image_id":149,"category_name":"Rhyolite","category":10,"distinct_rating":3.02,"distinct_type":"Bottom","rt":null,"stimulus":"Stimuli_Rocks480/I_Rhyolite_05.png","response":null,"trial_type":"image-keyboard-response","trial_index":16,"plugin_version":"2.1.0","time_elapsed":4291688,"subject_id":"90279","group":"Group2","full_date":"2025-11-22T04:06:31.203Z","date":"2025-11-22","time":"04:06:31"},{"rt":null,"stimulus":"<p style=\"font-size: 50px; margin: 0; text-align: center;\">+</p>","response":null,"trial_type":"html-keyboard-response","trial_index":17,"plugin_version":"2.1.0","time_elapsed":4292691,"subject_id":"90279","group":"Group2","full_date":"2025-11-22T04:06:31.203Z","date":"2025-11-22","time":"04:06:31"},{"task":"memory_phase","broad_category":"M","image_png":"M_Slate_04.png","image_id":308,"category_name":"Slate","category":20,"distinct_rating":2.2,"distinct_type":"Bottom","rt":null,"stimulus":"Stimuli_Rocks480/M_Slate_04.png","response":null,"trial_type":"image-keyboard-response","trial_index":18,"plugin_version":"2.1.0","time_elapsed":4295208,"subject_id":"90279","group":"Group2","full_date":"2025-11-22T04:06:31.203Z","date":"2025-11-22","time":"04:06:31"},{"rt":null,"stimulus":"<p style=\"font-size: 50px; margin: 0; text-align: center;\">+</p>","response":null,"trial_type":"html-keyboard-response","trial_index":19,"plugin_version":"2.1.0","time_elapsed":4296210,"subject_id":"90279","group":"Group2","full_date":"2025-11-22T04:06:31.203Z","date":"2025-11-22","time":"04:06:31"},{"task":"memory_phase","broad_category":"M","image_png":"M_Marble_02.png","image_id":226,"category_name":"Marble","category":15,"distinct_rating":3.2,"distinct_type":"Bottom","rt":null,"stimulus":"Stimuli_Rocks480/M_Marble_02.png","response":null,"trial_type":"image-keyboard-response","trial_index":20,"plugin_version":"2.1.0","time_elapsed":4298719,"subject_id":"90279","group":"Group2","full_date":"2025-11-22T04:06:31.203Z","date":"2025-11-22","time":"04:06:31"},{"rt":null,"stimulus":"<p style=\"font-size: 50px; margin: 0; text-align: center;\">+</p>","response":null,"trial_type":"html-keyboard-response","trial_index":21,"plugin_version":"2.1.0","time_elapsed":4299720,"subject_id":"90279","group":"Group2","full_date":"2025-11-22T04:06:31.203Z","date":"2025-11-22","time":"04:06:31"},{"task":"memory_phase","broad_category":"S","image_png":"S_Shale_02.png","image_id":466,"category_name":"Shale","category":30,"distinct_rating":2.9,"distinct_type":"Bottom","rt":null,"stimulus":"Stimuli_Rocks480/S_Shale_02.png","response":null,"trial_type":"image-keyboard-response","trial_index":22,"plugin_version":"2.1.0","time_elapsed":4302233,"subject_id":"90279","group":"Group2","full_date":"2025-11-22T04:06:31.203Z","date":"2025-11-22","time":"04:06:31"},{"rt":null,"stimulus":"<p style=\"font-size: 50px; margin: 0; text-align: center;\">+</p>","response":null,"trial_type":"html-keyboard-response","trial_index":23,"plugin_version":"2.1.0","time_elapsed":4303238,"subject_id":"90279","group":"Group2","full_date":"2025-11-22T04:06:31.203Z","date":"2025-11-22","time":"04:06:31"},{"task":"memory_phase","broad_category":"I","image_png":"I_Basalt_08.png","image_id":24,"category_name":"Basalt","category":2,"distinct_rating":2.31,"distinct_type":"Bottom","rt":null,"stimulus":"Stimuli_Rocks480/I_Basalt_08.png","response":null,"trial_type":"image-keyboard-response","trial_index":24,"plugin_version":"2.1.0","time_elapsed":4305748,"subject_id":"90279","group":"Group2","full_date":"2025-11-22T04:06:31.203Z","date":"2025-11-22","time":"04:06:31"},{"rt":null,"stimulus":"<p style=\"font-size: 50px; margin: 0; text-align: center;\">+</p>","response":null,"trial_type":"html-keyboard-response","trial_index":25,"plugin_version":"2.1.0","time_elapsed":4306761,"subject_id":"90279","group":"Group2","full_date":"2025-11-22T04:06:31.203Z","date":"2025-11-22","time":"04:06:31"},{"task":"memory_phase","broad_category":"M","image_png":"M_Quartzite_15.png","image_id":287,"category_name":"Quartzite","category":18,"distinct_rating":2.19,"distinct_type":"Bottom","rt":null,"stimulus":"Stimuli_Rocks480/M_Quartzite_15.png","response":null,"trial_type":"image-keyboard-response","trial_index":26,"plugin_version":"2.1.0","time_elapsed":4309264,"subject_id":"90279","group":"Group2","full_date":"2025-11-22T04:06:31.203Z","date":"2025-11-22","time":"04:06:31"},{"rt":null,"stimulus":"<p style=\"font-size: 50px; margin: 0; text-align: center;\">+</p>","response":null,"trial_type":"html-keyboard-response","trial_index":27,"plugin_version":"2.1.0","time_elapsed":4310270,"subject_id":"90279","group":"Group2","full_date":"2025-11-22T04:06:31.203Z","date":"2025-11-22","time":"04:06:31"},{"task":"memory_phase","broad_category":"I","image_png":"I_Gabbro_02.png","image_id":50,"category_name":"Gabbro","category":4,"distinct_rating":2.73,"distinct_type":"Bottom","rt":null,"stimulus":"Stimuli_Rocks480/I_Gabbro_02.png","response":null,"trial_type":"image-keyboard-response","trial_index":28,"plugin_version":"2.1.0","time_elapsed":4312772,"subject_id":"90279","group":"Group2","full_date":"2025-11-22T04:06:31.203Z","date":"2025-11-22","time":"04:06:31"},{"rt":null,"stimulus":"<p style=\"font-size: 50px; margin: 0; text-align: center;\">+</p>","response":null,"trial_type":"html-keyboard-response","trial_index":29,"plugin_version":"2.1.0","time_elapsed":4313778,"subject_id":"90279","group":"Group2","full_date":"2025-11-22T04:06:31.203Z","date":"2025-11-22","time":"04:06:31"},{"task":"memory_phase","broad_category":"I","image_png":"I_Rhyolite_10.png","image_id":154,"category_name":"Rhyolite","category":10,"distinct_rating":2.88,"distinct_type":"Bottom","rt":null,"stimulus":"Stimuli_Rocks480/I_Rhyolite_10.png","response":null,"trial_type":"image-keyboard-response","trial_index":30,"plugin_version":"2.1.0","time_elapsed":4316295,"subject_id":"90279","group":"Group2","full_date":"2025-11-22T04:06:31.203Z","date":"2025-11-22","time":"04:06:31"},{"rt":null,"stimulus":"<p style=\"font-size: 50px; margin: 0; text-align: center;\">+</p>","response":null,"trial_type":"html-keyboard-response","trial_index":31,"plugin_version":"2.1.0","time_elapsed":4317311,"subject_id":"90279","group":"Group2","full_date":"2025-11-22T04:06:31.203Z","date":"2025-11-22","time":"04:06:31"},{"task":"memory_phase","broad_category":"M","image_png":"M_Marble_03.png","image_id":227,"category_name":"Marble","category":15,"distinct_rating":2.67,"distinct_type":"Bottom","rt":null,"stimulus":"Stimuli_Rocks480/M_Marble_03.png","response":null,"trial_type":"image-keyboard-response","trial_index":32,"plugin_version":"2.1.0","time_elapsed":4319826,"subject_id":"90279","group":"Group2","full_date":"2025-11-22T04:06:31.203Z","date":"2025-11-22","time":"04:06:31"},{"rt":null,"stimulus":"<p style=\"font-size: 50px; margin: 0; text-align: center;\">+</p>","response":null,"trial_type":"html-keyboard-response","trial_index":33,"plugin_version":"2.1.0","time_elapsed":4320842,"subject_id":"90279","group":"Group2","full_date":"2025-11-22T04:06:31.203Z","date":"2025-11-22","time":"04:06:31"},{"task":"memory_phase","broad_category":"I","image_png":"I_Basalt_10.png","image_id":26,"category_name":"Basalt","category":2,"distinct_rating":2.76,"distinct_type":"Bottom","rt":null,"stimulus":"Stimuli_Rocks480/I_Basalt_10.png","response":null,"trial_type":"image-keyboard-response","trial_index":34,"plugin_version":"2.1.0","time_elapsed":4323358,"subject_id":"90279","group":"Group2","full_date":"2025-11-22T04:06:31.203Z","date":"2025-11-22","time":"04:06:31"},{"rt":null,"stimulus":"<p style=\"font-size: 50px; margin: 0; text-align: center;\">+</p>","response":null,"trial_type":"html-keyboard-response","trial_index":35,"plugin_version":"2.1.0","time_elapsed":4324361,"subject_id":"90279","group":"Group2","full_date":"2025-11-22T04:06:31.203Z","date":"2025-11-22","time":"04:06:31"},{"task":"memory_phase","broad_category":"I","image_png":"I_Diorite_01.png","image_id":33,"category_name":"Diorite","category":3,"distinct_rating":2.97,"distinct_type":"Bottom","rt":null,"stimulus":"Stimuli_Rocks480/I_Diorite_01.png","response":null,"trial_type":"image-keyboard-response","trial_index":36,"plugin_version":"2.1.0","time_elapsed":4326881,"subject_id":"90279","group":"Group2","full_date":"2025-11-22T04:06:31.203Z","date":"2025-11-22","time":"04:06:31"},{"rt":null,"stimulus":"<p style=\"font-size: 50px; margin: 0; text-align: center;\">+</p>","response":null,"trial_type":"html-keyboard-response","trial_index":37,"plugin_version":"2.1.0","time_elapsed":4327888,"subject_id":"90279","group":"Group2","full_date":"2025-11-22T04:06:31.203Z","date":"2025-11-22","time":"04:06:31"},{"task":"memory_phase","broad_category":"M","image_png":"M_Gneiss_14.png","image_id":206,"category_name":"Gneiss","category":13,"distinct_rating":3.41,"distinct_type":"Bottom","rt":null,"stimulus":"Stimuli_Rocks480/M_Gneiss_14.png","response":null,"trial_type":"image-keyboard-response","trial_index":38,"plugin_version":"2.1.0","time_elapsed":4330390,"subject_id":"90279","group":"Group2","full_date":"2025-11-22T04:06:31.203Z","date":"2025-11-22","time":"04:06:31"},{"rt":null,"stimulus":"<p style=\"font-size: 50px; margin: 0; text-align: center;\">+</p>","response":null,"trial_type":"html-keyboard-response","trial_index":39,"plugin_version":"2.1.0","time_elapsed":4331405,"subject_id":"90279","group":"Group2","full_date":"2025-11-22T04:06:31.203Z","date":"2025-11-22","time":"04:06:31"},{"task":"memory_phase","broad_category":"S","image_png":"S_Shale_07.png","image_id":471,"category_name":"Shale","category":30,"distinct_rating":2.73,"distinct_type":"Bottom","rt":null,"stimulus":"Stimuli_Rocks480/S_Shale_07.png","response":null,"trial_type":"image-keyboard-response","trial_index":40,"plugin_version":"2.1.0","time_elapsed":4333919,"subject_id":"90279","group":"Group2","full_date":"2025-11-22T04:06:31.203Z","date":"2025-11-22","time":"04:06:31"},{"rt":null,"stimulus":"<p style=\"font-size: 50px; margin: 0; text-align: center;\">+</p>","response":null,"trial_type":"html-keyboard-response","trial_index":41,"plugin_version":"2.1.0","time_elapsed":4334935,"subject_id":"90279","group":"Group2","full_date":"2025-11-22T04:06:31.203Z","date":"2025-11-22","time":"04:06:31"},{"task":"memory_phase","broad_category":"S","image_png":"S_Dolomite_16.png","image_id":400,"category_name":"Dolomite","category":25,"distinct_rating":1.71,"distinct_type":"Bottom","rt":null,"stimulus":"Stimuli_Rocks480/S_Dolomite_16.png","response":null,"trial_type":"image-keyboard-response","trial_index":42,"plugin_version":"2.1.0","time_elapsed":4337453,"subject_id":"90279","group":"Group2","full_date":"2025-11-22T04:06:31.203Z","date":"2025-11-22","time":"04:06:31"},{"rt":null,"stimulus":"<p style=\"font-size: 50px; margin: 0; text-align: center;\">+</p>","response":null,"trial_type":"html-keyboard-response","trial_index":43,"plugin_version":"2.1.0","time_elapsed":4338468,"subject_id":"90279","group":"Group2","full_date":"2025-11-22T04:06:31.203Z","date":"2025-11-22","time":"04:06:31"},{"task":"memory_phase","broad_category":"S","image_png":"S_Sandstone_11.png","image_id":459,"category_name":"Sandstone","category":29,"distinct_rating":1.82,"distinct_type":"Bottom","rt":null,"stimulus":"Stimuli_Rocks480/S_Sandstone_11.png","response":null,"trial_type":"image-keyboard-response","trial_index":44,"plugin_version":"2.1.0","time_elapsed":4340971,"subject_id":"90279","group":"Group2","full_date":"2025-11-22T04:06:31.203Z","date":"2025-11-22","time":"04:06:31"},{"rt":null,"stimulus":"<p style=\"font-size: 50px; margin: 0; text-align: center;\">+</p>","response":null,"trial_type":"html-keyboard-response","trial_index":45,"plugin_version":"2.1.0","time_elapsed":4341982,"subject_id":"90279","group":"Group2","full_date":"2025-11-22T04:06:31.203Z","date":"2025-11-22","time":"04:06:31"},{"task":"memory_phase","broad_category":"S","image_png":"S_Shale_03.png","image_id":467,"category_name":"Shale","category":30,"distinct_rating":1.95,"distinct_type":"Bottom","rt":null,"stimulus":"Stimuli_Rocks480/S_Shale_03.png","response":null,"trial_type":"image-keyboard-response","trial_index":46,"plugin_version":"2.1.0","time_elapsed":4344498,"subject_id":"90279","group":"Group2","full_date":"2025-11-22T04:06:31.203Z","date":"2025-11-22","time":"04:06:31"},{"rt":null,"stimulus":"<p style=\"font-size: 50px; margin: 0; text-align: center;\">+</p>","response":null,"trial_type":"html-keyboard-response","trial_index":47,"plugin_version":"2.1.0","time_elapsed":4345515,"subject_id":"90279","group":"Group2","full_date":"2025-11-22T04:06:31.203Z","date":"2025-11-22","time":"04:06:31"},{"task":"memory_phase","broad_category":"S","image_png":"S_Sandstone_04.png","image_id":452,"category_name":"Sandstone","category":29,"distinct_rating":1.8,"distinct_type":"Bottom","rt":null,"stimulus":"Stimuli_Rocks480/S_Sandstone_04.png","response":null,"trial_type":"image-keyboard-response","trial_index":48,"plugin_version":"2.1.0","time_elapsed":4348031,"subject_id":"90279","group":"Group2","full_date":"2025-11-22T04:06:31.203Z","date":"2025-11-22","time":"04:06:31"},{"rt":null,"stimulus":"<p style=\"font-size: 50px; margin: 0; text-align: center;\">+</p>","response":null,"trial_type":"html-keyboard-response","trial_index":49,"plugin_version":"2.1.0","time_elapsed":4349046,"subject_id":"90279","group":"Group2","full_date":"2025-11-22T04:06:31.203Z","date":"2025-11-22","time":"04:06:31"},{"task":"memory_phase","broad_category":"I","image_png":"I_Pumice_01.png","image_id":129,"category_name":"Pumice","category":9,"distinct_rating":3.25,"distinct_type":"Bottom","rt":null,"stimulus":"Stimuli_Rocks480/I_Pumice_01.png","response":null,"trial_type":"image-keyboard-response","trial_index":50,"plugin_version":"2.1.0","time_elapsed":4351562,"subject_id":"90279","group":"Group2","full_date":"2025-11-22T04:06:31.203Z","date":"2025-11-22","time":"04:06:31"},{"rt":null,"stimulus":"<p style=\"font-size: 50px; margin: 0; text-align: center;\">+</p>","response":null,"trial_type":"html-keyboard-response","trial_index":51,"plugin_version":"2.1.0","time_elapsed":4352563,"subject_id":"90279","group":"Group2","full_date":"2025-11-22T04:06:31.203Z","date":"2025-11-22","time":"04:06:31"},{"task":"memory_phase","broad_category":"I","image_png":"I_Diorite_10.png","image_id":42,"category_name":"Diorite","category":3,"distinct_rating":2.84,"distinct_type":"Bottom","rt":null,"stimulus":"Stimuli_Rocks480/I_Diorite_10.png","response":null,"trial_type":"image-keyboard-response","trial_index":52,"plugin_version":"2.1.0","time_elapsed":4355076,"subject_id":"90279","group":"Group2","full_date":"2025-11-22T04:06:31.203Z","date":"2025-11-22","time":"04:06:31"},{"rt":null,"stimulus":"<p style=\"font-size: 50px; margin: 0; text-align: center;\">+</p>","response":null,"trial_type":"html-keyboard-response","trial_index":53,"plugin_version":"2.1.0","time_elapsed":4356090,"subject_id":"90279","group":"Group2","full_date":"2025-11-22T04:06:31.203Z","date":"2025-11-22","time":"04:06:31"},{"task":"memory_phase","broad_category":"S","image_png":"S_Sandstone_08.png","image_id":456,"category_name":"Sandstone","category":29,"distinct_rating":1.5,"distinct_type":"Bottom","rt":null,"stimulus":"Stimuli_Rocks480/S_Sandstone_08.png","response":null,"trial_type":"image-keyboard-response","trial_index":54,"plugin_version":"2.1.0","time_elapsed":4358607,"subject_id":"90279","group":"Group2","full_date":"2025-11-22T04:06:31.203Z","date":"2025-11-22","time":"04:06:31"},{"rt":42819,"stimulus":"<p style=\"max-width: 760px; margin: auto; font-size: 35px; line-height: 1.5;\">Press SPACE to continue study phase</p>","response":" ","trial_type":"html-keyboard-response","trial_index":55,"plugin_version":"2.1.0","time_elapsed":4401427,"subject_id":"90279","group":"Group2","full_date":"2025-11-22T04:06:31.203Z","date":"2025-11-22","time":"04:06:31"},{"rt":null,"stimulus":"<p style=\"font-size: 50px; margin: 0; text-align: center;\">+</p>","response":null,"trial_type":"html-keyboard-response","trial_index":56,"plugin_version":"2.1.0","time_elapsed":4402434,"subject_id":"90279","group":"Group2","full_date":"2025-11-22T04:06:31.203Z","date":"2025-11-22","time":"04:06:31"},{"task":"memory_phase","broad_category":"S","image_png":"S_Rock Salt_15.png","image_id":447,"category_name":"Rock Salt","category":28,"distinct_rating":7.79,"distinct_type":"Top","rt":null,"stimulus":"Stimuli_Rocks480/S_Rock Salt_15.png","response":null,"trial_type":"image-keyboard-response","trial_index":57,"plugin_version":"2.1.0","time_elapsed":4404937,"subject_id":"90279","group":"Group2","full_date":"2025-11-22T04:06:31.203Z","date":"2025-11-22","time":"04:06:31"},{"rt":null,"stimulus":"<p style=\"font-size: 50px; margin: 0; text-align: center;\">+</p>","response":null,"trial_type":"html-keyboard-response","trial_index":58,"plugin_version":"2.1.0","time_elapsed":4405950,"subject_id":"90279","group":"Group2","full_date":"2025-11-22T04:06:31.203Z","date":"2025-11-22","time":"04:06:31"},{"task":"memory_phase","broad_category":"M","image_png":"M_Gneiss_10.png","image_id":202,"category_name":"Gneiss","category":13,"distinct_rating":3.09,"distinct_type":"Bottom","rt":null,"stimulus":"Stimuli_Rocks480/M_Gneiss_10.png","response":null,"trial_type":"image-keyboard-response","trial_index":59,"plugin_version":"2.1.0","time_elapsed":4408452,"subject_id":"90279","group":"Group2","full_date":"2025-11-22T04:06:31.203Z","date":"2025-11-22","time":"04:06:31"},{"rt":null,"stimulus":"<p style=\"font-size: 50px; margin: 0; text-align: center;\">+</p>","response":null,"trial_type":"html-keyboard-response","trial_index":60,"plugin_version":"2.1.0","time_elapsed":4409458,"subject_id":"90279","group":"Group2","full_date":"2025-11-22T04:06:31.203Z","date":"2025-11-22","time":"04:06:31"},{"task":"memory_phase","broad_category":"S","image_png":"S_Conglomerate_14.png","image_id":382,"category_name":"Conglomerate","category":24,"distinct_rating":6.86,"distinct_type":"Top","rt":null,"stimulus":"Stimuli_Rocks480/S_Conglomerate_14.png","response":null,"trial_type":"image-keyboard-response","trial_index":61,"plugin_version":"2.1.0","time_elapsed":4411960,"subject_id":"90279","group":"Group2","full_date":"2025-11-22T04:06:31.203Z","date":"2025-11-22","time":"04:06:31"},{"rt":null,"stimulus":"<p style=\"font-size: 50px; margin: 0; text-align: center;\">+</p>","response":null,"trial_type":"html-keyboard-response","trial_index":62,"plugin_version":"2.1.0","time_elapsed":4412967,"subject_id":"90279","group":"Group2","full_date":"2025-11-22T04:06:31.203Z","date":"2025-11-22","time":"04:06:31"},{"task":"memory_phase","broad_category":"I","image_png":"I_Obsidian_06.png","image_id":86,"category_name":"Obsidian","category":6,"distinct_rating":8.01,"distinct_type":"Top","rt":null,"stimulus":"Stimuli_Rocks480/I_Obsidian_06.png","response":null,"trial_type":"image-keyboard-response","trial_index":63,"plugin_version":"2.1.0","time_elapsed":4415477,"subject_id":"90279","group":"Group2","full_date":"2025-11-22T04:06:31.203Z","date":"2025-11-22","time":"04:06:31"},{"rt":null,"stimulus":"<p style=\"font-size: 50px; margin: 0; text-align: center;\">+</p>","response":null,"trial_type":"html-keyboard-response","trial_index":64,"plugin_version":"2.1.0","time_elapsed":4416480,"subject_id":"90279","group":"Group2","full_date":"2025-11-22T04:06:31.203Z","date":"2025-11-22","time":"04:06:31"},{"task":"memory_phase","broad_category":"S","image_png":"S_Dolomite_07.png","image_id":391,"category_name":"Dolomite","category":25,"distinct_rating":1.73,"distinct_type":"Bottom","rt":null,"stimulus":"Stimuli_Rocks480/S_Dolomite_07.png","response":null,"trial_type":"image-keyboard-response","trial_index":65,"plugin_version":"2.1.0","time_elapsed":4418990,"subject_id":"90279","group":"Group2","full_date":"2025-11-22T04:06:31.203Z","date":"2025-11-22","time":"04:06:31"},{"rt":null,"stimulus":"<p style=\"font-size: 50px; margin: 0; text-align: center;\">+</p>","response":null,"trial_type":"html-keyboard-response","trial_index":66,"plugin_version":"2.1.0","time_elapsed":4419992,"subject_id":"90279","group":"Group2","full_date":"2025-11-22T04:06:31.203Z","date":"2025-11-22","time":"04:06:31"},{"task":"memory_phase","broad_category":"M","image_png":"M_Gneiss_15.png","image_id":207,"category_name":"Gneiss","category":13,"distinct_rating":3.11,"distinct_type":"Bottom","rt":null,"stimulus":"Stimuli_Rocks480/M_Gneiss_15.png","response":null,"trial_type":"image-keyboard-response","trial_index":67,"plugin_version":"2.1.0","time_elapsed":4422508,"subject_id":"90279","group":"Group2","full_date":"2025-11-22T04:06:31.203Z","date":"2025-11-22","time":"04:06:31"},{"rt":null,"stimulus":"<p style=\"font-size: 50px; margin: 0; text-align: center;\">+</p>","response":null,"trial_type":"html-keyboard-response","trial_index":68,"plugin_version":"2.1.0","time_elapsed":4423512,"subject_id":"90279","group":"Group2","full_date":"2025-11-22T04:06:31.203Z","date":"2025-11-22","time":"04:06:31"},{"task":"memory_phase","broad_category":"S","image_png":"S_Rock Salt_13.png","image_id":445,"category_name":"Rock Salt","category":28,"distinct_rating":7.58,"distinct_type":"Top","rt":null,"stimulus":"Stimuli_Rocks480/S_Rock Salt_13.png","response":null,"trial_type":"image-keyboard-response","trial_index":69,"plugin_version":"2.1.0","time_elapsed":4426022,"subject_id":"90279","group":"Group2","full_date":"2025-11-22T04:06:31.203Z","date":"2025-11-22","time":"04:06:31"},{"rt":null,"stimulus":"<p style=\"font-size: 50px; margin: 0; text-align: center;\">+</p>","response":null,"trial_type":"html-keyboard-response","trial_index":70,"plugin_version":"2.1.0","time_elapsed":4427030,"subject_id":"90279","group":"Group2","full_date":"2025-11-22T04:06:31.203Z","date":"2025-11-22","time":"04:06:31"},{"task":"memory_phase","broad_category":"I","image_png":"I_Rhyolite_08.png","image_id":152,"category_name":"Rhyolite","category":10,"distinct_rating":1.38,"distinct_type":"Bottom","rt":null,"stimulus":"Stimuli_Rocks480/I_Rhyolite_08.png","response":null,"trial_type":"image-keyboard-response","trial_index":71,"plugin_version":"2.1.0","time_elapsed":4429546,"subject_id":"90279","group":"Group2","full_date":"2025-11-22T04:06:31.203Z","date":"2025-11-22","time":"04:06:31"},{"rt":null,"stimulus":"<p style=\"font-size: 50px; margin: 0; text-align: center;\">+</p>","response":null,"trial_type":"html-keyboard-response","trial_index":72,"plugin_version":"2.1.0","time_elapsed":4430568,"subject_id":"90279","group":"Group2","full_date":"2025-11-22T04:06:31.203Z","date":"2025-11-22","time":"04:06:31"},{"task":"memory_phase","broad_category":"M","image_png":"M_Phyllite_02.png","image_id":258,"category_name":"Phyllite","category":17,"distinct_rating":2.89,"distinct_type":"Bottom","rt":null,"stimulus":"Stimuli_Rocks480/M_Phyllite_02.png","response":null,"trial_type":"image-keyboard-response","trial_index":73,"plugin_version":"2.1.0","time_elapsed":4433078,"subject_id":"90279","group":"Group2","full_date":"2025-11-22T04:06:31.203Z","date":"2025-11-22","time":"04:06:31"},{"rt":null,"stimulus":"<p style=\"font-size: 50px; margin: 0; text-align: center;\">+</p>","response":null,"trial_type":"html-keyboard-response","trial_index":74,"plugin_version":"2.1.0","time_elapsed":4434092,"subject_id":"90279","group":"Group2","full_date":"2025-11-22T04:06:31.203Z","date":"2025-11-22","time":"04:06:31"},{"task":"memory_phase","broad_category":"M","image_png":"M_Phyllite_05.png","image_id":261,"category_name":"Phyllite","category":17,"distinct_rating":2.14,"distinct_type":"Bottom","rt":null,"stimulus":"Stimuli_Rocks480/M_Phyllite_05.png","response":null,"trial_type":"image-keyboard-response","trial_index":75,"plugin_version":"2.1.0","time_elapsed":4436608,"subject_id":"90279","group":"Group2","full_date":"2025-11-22T04:06:31.203Z","date":"2025-11-22","time":"04:06:31"},{"rt":null,"stimulus":"<p style=\"font-size: 50px; margin: 0; text-align: center;\">+</p>","response":null,"trial_type":"html-keyboard-response","trial_index":76,"plugin_version":"2.1.0","time_elapsed":4437624,"subject_id":"90279","group":"Group2","full_date":"2025-11-22T04:06:31.203Z","date":"2025-11-22","time":"04:06:31"},{"task":"memory_phase","broad_category":"I","image_png":"I_Gabbro_12.png","image_id":60,"category_name":"Gabbro","category":4,"distinct_rating":2.6,"distinct_type":"Bottom","rt":null,"stimulus":"Stimuli_Rocks480/I_Gabbro_12.png","response":null,"trial_type":"image-keyboard-response","trial_index":77,"plugin_version":"2.1.0","time_elapsed":4440139,"subject_id":"90279","group":"Group2","full_date":"2025-11-22T04:06:31.203Z","date":"2025-11-22","time":"04:06:31"},{"rt":null,"stimulus":"<p style=\"font-size: 50px; margin: 0; text-align: center;\">+</p>","response":null,"trial_type":"html-keyboard-response","trial_index":78,"plugin_version":"2.1.0","time_elapsed":4441155,"subject_id":"90279","group":"Group2","full_date":"2025-11-22T04:06:31.203Z","date":"2025-11-22","time":"04:06:31"},{"task":"memory_phase","broad_category":"M","image_png":"M_Quartzite_07.png","image_id":279,"category_name":"Quartzite","category":18,"distinct_rating":1.97,"distinct_type":"Bottom","rt":null,"stimulus":"Stimuli_Rocks480/M_Quartzite_07.png","response":null,"trial_type":"image-keyboard-response","trial_index":79,"plugin_version":"2.1.0","time_elapsed":4443673,"subject_id":"90279","group":"Group2","full_date":"2025-11-22T04:06:31.203Z","date":"2025-11-22","time":"04:06:31"},{"rt":null,"stimulus":"<p style=\"font-size: 50px; margin: 0; text-align: center;\">+</p>","response":null,"trial_type":"html-keyboard-response","trial_index":80,"plugin_version":"2.1.0","time_elapsed":4444687,"subject_id":"90279","group":"Group2","full_date":"2025-11-22T04:06:31.203Z","date":"2025-11-22","time":"04:06:31"},{"task":"memory_phase","broad_category":"I","image_png":"I_Andesite_09.png","image_id":9,"category_name":"Andesite","category":1,"distinct_rating":2.49,"distinct_type":"Bottom","rt":null,"stimulus":"Stimuli_Rocks480/I_Andesite_09.png","response":null,"trial_type":"image-keyboard-response","trial_index":81,"plugin_version":"2.1.0","time_elapsed":4447201,"subject_id":"90279","group":"Group2","full_date":"2025-11-22T04:06:31.203Z","date":"2025-11-22","time":"04:06:31"},{"rt":null,"stimulus":"<p style=\"font-size: 50px; margin: 0; text-align: center;\">+</p>","response":null,"trial_type":"html-keyboard-response","trial_index":82,"plugin_version":"2.1.0","time_elapsed":4448203,"subject_id":"90279","group":"Group2","full_date":"2025-11-22T04:06:31.203Z","date":"2025-11-22","time":"04:06:31"},{"task":"memory_phase","broad_category":"M","image_png":"M_Slate_14.png","image_id":318,"category_name":"Slate","category":20,"distinct_rating":2.58,"distinct_type":"Bottom","rt":null,"stimulus":"Stimuli_Rocks480/M_Slate_14.png","response":null,"trial_type":"image-keyboard-response","trial_index":83,"plugin_version":"2.1.0","time_elapsed":4450718,"subject_id":"90279","group":"Group2","full_date":"2025-11-22T04:06:31.203Z","date":"2025-11-22","time":"04:06:31"},{"rt":null,"stimulus":"<p style=\"font-size: 50px; margin: 0; text-align: center;\">+</p>","response":null,"trial_type":"html-keyboard-response","trial_index":84,"plugin_version":"2.1.0","time_elapsed":4451732,"subject_id":"90279","group":"Group2","full_date":"2025-11-22T04:06:31.203Z","date":"2025-11-22","time":"04:06:31"},{"task":"memory_phase","broad_category":"M","image_png":"M_Marble_14.png","image_id":238,"category_name":"Marble","category":15,"distinct_rating":3.31,"distinct_type":"Bottom","rt":null,"stimulus":"Stimuli_Rocks480/M_Marble_14.png","response":null,"trial_type":"image-keyboard-response","trial_index":85,"plugin_version":"2.1.0","time_elapsed":4454249,"subject_id":"90279","group":"Group2","full_date":"2025-11-22T04:06:31.203Z","date":"2025-11-22","time":"04:06:31"},{"rt":null,"stimulus":"<p style=\"font-size: 50px; margin: 0; text-align: center;\">+</p>","response":null,"trial_type":"html-keyboard-response","trial_index":86,"plugin_version":"2.1.0","time_elapsed":4455264,"subject_id":"90279","group":"Group2","full_date":"2025-11-22T04:06:31.203Z","date":"2025-11-22","time":"04:06:31"},{"task":"memory_phase","broad_category":"I","image_png":"I_Pegmatite_11.png","image_id":107,"category_name":"Pegmatite","category":7,"distinct_rating":7.11,"distinct_type":"Top","rt":null,"stimulus":"Stimuli_Rocks480/I_Pegmatite_11.png","response":null,"trial_type":"image-keyboard-response","trial_index":87,"plugin_version":"2.1.0","time_elapsed":4457780,"subject_id":"90279","group":"Group2","full_date":"2025-11-22T04:06:31.203Z","date":"2025-11-22","time":"04:06:31"},{"rt":null,"stimulus":"<p style=\"font-size: 50px; margin: 0; text-align: center;\">+</p>","response":null,"trial_type":"html-keyboard-response","trial_index":88,"plugin_version":"2.1.0","time_elapsed":4458796,"subject_id":"90279","group":"Group2","full_date":"2025-11-22T04:06:31.203Z","date":"2025-11-22","time":"04:06:31"},{"task":"memory_phase","broad_category":"I","image_png":"I_Peridotite_13.png","image_id":125,"category_name":"Peridotite","category":8,"distinct_rating":7.28,"distinct_type":"Top","rt":null,"stimulus":"Stimuli_Rocks480/I_Peridotite_13.png","response":null,"trial_type":"image-keyboard-response","trial_index":89,"plugin_version":"2.1.0","time_elapsed":4461312,"subject_id":"90279","group":"Group2","full_date":"2025-11-22T04:06:31.203Z","date":"2025-11-22","time":"04:06:31"},{"rt":null,"stimulus":"<p style=\"font-size: 50px; margin: 0; text-align: center;\">+</p>","response":null,"trial_type":"html-keyboard-response","trial_index":90,"plugin_version":"2.1.0","time_elapsed":4462327,"subject_id":"90279","group":"Group2","full_date":"2025-11-22T04:06:31.203Z","date":"2025-11-22","time":"04:06:31"},{"task":"memory_phase","broad_category":"I","image_png":"I_Pegmatite_03.png","image_id":99,"category_name":"Pegmatite","category":7,"distinct_rating":7.24,"distinct_type":"Top","rt":null,"stimulus":"Stimuli_Rocks480/I_Pegmatite_03.png","response":null,"trial_type":"image-keyboard-response","trial_index":91,"plugin_version":"2.1.0","time_elapsed":4464843,"subject_id":"90279","group":"Group2","full_date":"2025-11-22T04:06:31.203Z","date":"2025-11-22","time":"04:06:31"},{"rt":null,"stimulus":"<p style=\"font-size: 50px; margin: 0; text-align: center;\">+</p>","response":null,"trial_type":"html-keyboard-response","trial_index":92,"plugin_version":"2.1.0","time_elapsed":4465859,"subject_id":"90279","group":"Group2","full_date":"2025-11-22T04:06:31.203Z","date":"2025-11-22","time":"04:06:31"},{"task":"memory_phase","broad_category":"I","image_png":"I_Andesite_03.png","image_id":3,"category_name":"Andesite","category":1,"distinct_rating":3.17,"distinct_type":"Bottom","rt":null,"stimulus":"Stimuli_Rocks480/I_Andesite_03.png","response":null,"trial_type":"image-keyboard-response","trial_index":93,"plugin_version":"2.1.0","time_elapsed":4468373,"subject_id":"90279","group":"Group2","full_date":"2025-11-22T04:06:31.203Z","date":"2025-11-22","time":"04:06:31"},{"rt":null,"stimulus":"<p style=\"font-size: 50px; margin: 0; text-align: center;\">+</p>","response":null,"trial_type":"html-keyboard-response","trial_index":94,"plugin_version":"2.1.0","time_elapsed":4469389,"subject_id":"90279","group":"Group2","full_date":"2025-11-22T04:06:31.203Z","date":"2025-11-22","time":"04:06:31"},{"task":"memory_phase","broad_category":"I","image_png":"I_Gabbro_14.png","image_id":62,"category_name":"Gabbro","category":4,"distinct_rating":2.95,"distinct_type":"Bottom","rt":null,"stimulus":"Stimuli_Rocks480/I_Gabbro_14.png","response":null,"trial_type":"image-keyboard-response","trial_index":95,"plugin_version":"2.1.0","time_elapsed":4471905,"subject_id":"90279","group":"Group2","full_date":"2025-11-22T04:06:31.203Z","date":"2025-11-22","time":"04:06:31"},{"rt":null,"stimulus":"<p style=\"font-size: 50px; margin: 0; text-align: center;\">+</p>","response":null,"trial_type":"html-keyboard-response","trial_index":96,"plugin_version":"2.1.0","time_elapsed":4472927,"subject_id":"90279","group":"Group2","full_date":"2025-11-22T04:06:31.203Z","date":"2025-11-22","time":"04:06:31"},{"task":"memory_phase","broad_category":"S","image_png":"S_Dolomite_01.png","image_id":385,"category_name":"Dolomite","category":25,"distinct_rating":1.43,"distinct_type":"Bottom","rt":null,"stimulus":"Stimuli_Rocks480/S_Dolomite_01.png","response":null,"trial_type":"image-keyboard-response","trial_index":97,"plugin_version":"2.1.0","time_elapsed":4475438,"subject_id":"90279","group":"Group2","full_date":"2025-11-22T04:06:31.203Z","date":"2025-11-22","time":"04:06:31"},{"rt":null,"stimulus":"<p style=\"font-size: 50px; margin: 0; text-align: center;\">+</p>","response":null,"trial_type":"html-keyboard-response","trial_index":98,"plugin_version":"2.1.0","time_elapsed":4476451,"subject_id":"90279","group":"Group2","full_date":"2025-11-22T04:06:31.203Z","date":"2025-11-22","time":"04:06:31"},{"task":"memory_phase","broad_category":"I","image_png":"I_Diorite_15.png","image_id":47,"category_name":"Diorite","category":3,"distinct_rating":3.05,"distinct_type":"Bottom","rt":null,"stimulus":"Stimuli_Rocks480/I_Diorite_15.png","response":null,"trial_type":"image-keyboard-response","trial_index":99,"plugin_version":"2.1.0","time_elapsed":4478967,"subject_id":"90279","group":"Group2","full_date":"2025-11-22T04:06:31.203Z","date":"2025-11-22","time":"04:06:31"},{"rt":null,"stimulus":"<p style=\"font-size: 50px; margin: 0; text-align: center;\">+</p>","response":null,"trial_type":"html-keyboard-response","trial_index":100,"plugin_version":"2.1.0","time_elapsed":4479983,"subject_id":"90279","group":"Group2","full_date":"2025-11-22T04:06:31.203Z","date":"2025-11-22","time":"04:06:31"},{"task":"memory_phase","broad_category":"M","image_png":"M_Phyllite_13.png","image_id":269,"category_name":"Phyllite","category":17,"distinct_rating":2.8,"distinct_type":"Bottom","rt":null,"stimulus":"Stimuli_Rocks480/M_Phyllite_13.png","response":null,"trial_type":"image-keyboard-response","trial_index":101,"plugin_version":"2.1.0","time_elapsed":4482499,"subject_id":"90279","group":"Group2","full_date":"2025-11-22T04:06:31.203Z","date":"2025-11-22","time":"04:06:31"},{"rt":null,"stimulus":"<p style=\"font-size: 50px; margin: 0; text-align: center;\">+</p>","response":null,"trial_type":"html-keyboard-response","trial_index":102,"plugin_version":"2.1.0","time_elapsed":4483518,"subject_id":"90279","group":"Group2","full_date":"2025-11-22T04:06:31.203Z","date":"2025-11-22","time":"04:06:31"},{"task":"memory_phase","broad_category":"I","image_png":"I_Basalt_13.png","image_id":29,"category_name":"Basalt","category":2,"distinct_rating":2.68,"distinct_type":"Bottom","rt":null,"stimulus":"Stimuli_Rocks480/I_Basalt_13.png","response":null,"trial_type":"image-keyboard-response","trial_index":103,"plugin_version":"2.1.0","time_elapsed":4486038,"subject_id":"90279","group":"Group2","full_date":"2025-11-22T04:06:31.203Z","date":"2025-11-22","time":"04:06:31"},{"rt":null,"stimulus":"<p style=\"font-size: 50px; margin: 0; text-align: center;\">+</p>","response":null,"trial_type":"html-keyboard-response","trial_index":104,"plugin_version":"2.1.0","time_elapsed":4487045,"subject_id":"90279","group":"Group2","full_date":"2025-11-22T04:06:31.203Z","date":"2025-11-22","time":"04:06:31"},{"task":"memory_phase","broad_category":"I","image_png":"I_Andesite_04.png","image_id":4,"category_name":"Andesite","category":1,"distinct_rating":3.18,"distinct_type":"Bottom","rt":null,"stimulus":"Stimuli_Rocks480/I_Andesite_04.png","response":null,"trial_type":"image-keyboard-response","trial_index":105,"plugin_version":"2.1.0","time_elapsed":4489561,"subject_id":"90279","group":"Group2","full_date":"2025-11-22T04:06:31.203Z","date":"2025-11-22","time":"04:06:31"},{"rt":219002,"stimulus":"<p style=\"max-width: 760px; margin: auto; font-size: 35px; line-height: 1.5;\">You have completed 1 study phase. Now, we'll show you all the images again 2 more times.<br><br>Press SPACE to continue</p>","response":" ","trial_type":"html-keyboard-response","trial_index":106,"plugin_version":"2.1.0","time_elapsed":4708563,"subject_id":"90279","group":"Group2","full_date":"2025-11-22T04:06:31.203Z","date":"2025-11-22","time":"04:06:31"},{"rt":null,"stimulus":"<p style=\"font-size: 50px; margin: 0; text-align: center;\">+</p>","response":null,"trial_type":"html-keyboard-response","trial_index":107,"plugin_version":"2.1.0","time_elapsed":4709576,"subject_id":"90279","group":"Group2","full_date":"2025-11-22T04:06:31.203Z","date":"2025-11-22","time":"04:06:31"},{"task":"memory_phase","broad_category":"M","image_png":"M_Marble_02.png","image_id":226,"category_name":"Marble","category":15,"distinct_rating":3.2,"distinct_type":"Bottom","rt":null,"stimulus":"Stimuli_Rocks480/M_Marble_02.png","response":null,"trial_type":"image-keyboard-response","trial_index":108,"plugin_version":"2.1.0","time_elapsed":4712089,"subject_id":"90279","group":"Group2","full_date":"2025-11-22T04:06:31.203Z","date":"2025-11-22","time":"04:06:31"},{"rt":null,"stimulus":"<p style=\"font-size: 50px; margin: 0; text-align: center;\">+</p>","response":null,"trial_type":"html-keyboard-response","trial_index":109,"plugin_version":"2.1.0","time_elapsed":4713092,"subject_id":"90279","group":"Group2","full_date":"2025-11-22T04:06:31.203Z","date":"2025-11-22","time":"04:06:31"},{"task":"memory_phase","broad_category":"I","image_png":"I_Peridotite_13.png","image_id":125,"category_name":"Peridotite","category":8,"distinct_rating":7.28,"distinct_type":"Top","rt":null,"stimulus":"Stimuli_Rocks480/I_Peridotite_13.png","response":null,"trial_type":"image-keyboard-response","trial_index":110,"plugin_version":"2.1.0","time_elapsed":4715597,"subject_id":"90279","group":"Group2","full_date":"2025-11-22T04:06:31.203Z","date":"2025-11-22","time":"04:06:31"},{"rt":null,"stimulus":"<p style=\"font-size: 50px; margin: 0; text-align: center;\">+</p>","response":null,"trial_type":"html-keyboard-response","trial_index":111,"plugin_version":"2.1.0","time_elapsed":4716608,"subject_id":"90279","group":"Group2","full_date":"2025-11-22T04:06:31.203Z","date":"2025-11-22","time":"04:06:31"},{"task":"memory_phase","broad_category":"M","image_png":"M_Phyllite_02.png","image_id":258,"category_name":"Phyllite","category":17,"distinct_rating":2.89,"distinct_type":"Bottom","rt":null,"stimulus":"Stimuli_Rocks480/M_Phyllite_02.png","response":null,"trial_type":"image-keyboard-response","trial_index":112,"plugin_version":"2.1.0","time_elapsed":4719116,"subject_id":"90279","group":"Group2","full_date":"2025-11-22T04:06:31.203Z","date":"2025-11-22","time":"04:06:31"},{"rt":null,"stimulus":"<p style=\"font-size: 50px; margin: 0; text-align: center;\">+</p>","response":null,"trial_type":"html-keyboard-response","trial_index":113,"plugin_version":"2.1.0","time_elapsed":4720126,"subject_id":"90279","group":"Group2","full_date":"2025-11-22T04:06:31.203Z","date":"2025-11-22","time":"04:06:31"},{"task":"memory_phase","broad_category":"M","image_png":"M_Phyllite_05.png","image_id":261,"category_name":"Phyllite","category":17,"distinct_rating":2.14,"distinct_type":"Bottom","rt":null,"stimulus":"Stimuli_Rocks480/M_Phyllite_05.png","response":null,"trial_type":"image-keyboard-response","trial_index":114,"plugin_version":"2.1.0","time_elapsed":4722638,"subject_id":"90279","group":"Group2","full_date":"2025-11-22T04:06:31.203Z","date":"2025-11-22","time":"04:06:31"},{"rt":null,"stimulus":"<p style=\"font-size: 50px; margin: 0; text-align: center;\">+</p>","response":null,"trial_type":"html-keyboard-response","trial_index":115,"plugin_version":"2.1.0","time_elapsed":4723654,"subject_id":"90279","group":"Group2","full_date":"2025-11-22T04:06:31.203Z","date":"2025-11-22","time":"04:06:31"},{"task":"memory_phase","broad_category":"M","image_png":"M_Slate_14.png","image_id":318,"category_name":"Slate","category":20,"distinct_rating":2.58,"distinct_type":"Bottom","rt":null,"stimulus":"Stimuli_Rocks480/M_Slate_14.png","response":null,"trial_type":"image-keyboard-response","trial_index":116,"plugin_version":"2.1.0","time_elapsed":4726170,"subject_id":"90279","group":"Group2","full_date":"2025-11-22T04:06:31.203Z","date":"2025-11-22","time":"04:06:31"},{"rt":null,"stimulus":"<p style=\"font-size: 50px; margin: 0; text-align: center;\">+</p>","response":null,"trial_type":"html-keyboard-response","trial_index":117,"plugin_version":"2.1.0","time_elapsed":4727172,"subject_id":"90279","group":"Group2","full_date":"2025-11-22T04:06:31.203Z","date":"2025-11-22","time":"04:06:31"},{"task":"memory_phase","broad_category":"I","image_png":"I_Andesite_09.png","image_id":9,"category_name":"Andesite","category":1,"distinct_rating":2.49,"distinct_type":"Bottom","rt":null,"stimulus":"Stimuli_Rocks480/I_Andesite_09.png","response":null,"trial_type":"image-keyboard-response","trial_index":118,"plugin_version":"2.1.0","time_elapsed":4729689,"subject_id":"90279","group":"Group2","full_date":"2025-11-22T04:06:31.203Z","date":"2025-11-22","time":"04:06:31"},{"rt":null,"stimulus":"<p style=\"font-size: 50px; margin: 0; text-align: center;\">+</p>","response":null,"trial_type":"html-keyboard-response","trial_index":119,"plugin_version":"2.1.0","time_elapsed":4730707,"subject_id":"90279","group":"Group2","full_date":"2025-11-22T04:06:31.203Z","date":"2025-11-22","time":"04:06:31"},{"task":"memory_phase","broad_category":"S","image_png":"S_Shale_02.png","image_id":466,"category_name":"Shale","category":30,"distinct_rating":2.9,"distinct_type":"Bottom","rt":null,"stimulus":"Stimuli_Rocks480/S_Shale_02.png","response":null,"trial_type":"image-keyboard-response","trial_index":120,"plugin_version":"2.1.0","time_elapsed":4733218,"subject_id":"90279","group":"Group2","full_date":"2025-11-22T04:06:31.203Z","date":"2025-11-22","time":"04:06:31"},{"rt":null,"stimulus":"<p style=\"font-size: 50px; margin: 0; text-align: center;\">+</p>","response":null,"trial_type":"html-keyboard-response","trial_index":121,"plugin_version":"2.1.0","time_elapsed":4734233,"subject_id":"90279","group":"Group2","full_date":"2025-11-22T04:06:31.203Z","date":"2025-11-22","time":"04:06:31"},{"task":"memory_phase","broad_category":"I","image_png":"I_Gabbro_14.png","image_id":62,"category_name":"Gabbro","category":4,"distinct_rating":2.95,"distinct_type":"Bottom","rt":null,"stimulus":"Stimuli_Rocks480/I_Gabbro_14.png","response":null,"trial_type":"image-keyboard-response","trial_index":122,"plugin_version":"2.1.0","time_elapsed":4736748,"subject_id":"90279","group":"Group2","full_date":"2025-11-22T04:06:31.203Z","date":"2025-11-22","time":"04:06:31"},{"rt":null,"stimulus":"<p style=\"font-size: 50px; margin: 0; text-align: center;\">+</p>","response":null,"trial_type":"html-keyboard-response","trial_index":123,"plugin_version":"2.1.0","time_elapsed":4737764,"subject_id":"90279","group":"Group2","full_date":"2025-11-22T04:06:31.203Z","date":"2025-11-22","time":"04:06:31"},{"task":"memory_phase","broad_category":"S","image_png":"S_Dolomite_16.png","image_id":400,"category_name":"Dolomite","category":25,"distinct_rating":1.71,"distinct_type":"Bottom","rt":null,"stimulus":"Stimuli_Rocks480/S_Dolomite_16.png","response":null,"trial_type":"image-keyboard-response","trial_index":124,"plugin_version":"2.1.0","time_elapsed":4740280,"subject_id":"90279","group":"Group2","full_date":"2025-11-22T04:06:31.203Z","date":"2025-11-22","time":"04:06:31"},{"rt":null,"stimulus":"<p style=\"font-size: 50px; margin: 0; text-align: center;\">+</p>","response":null,"trial_type":"html-keyboard-response","trial_index":125,"plugin_version":"2.1.0","time_elapsed":4741297,"subject_id":"90279","group":"Group2","full_date":"2025-11-22T04:06:31.203Z","date":"2025-11-22","time":"04:06:31"},{"task":"memory_phase","broad_category":"I","image_png":"I_Andesite_04.png","image_id":4,"category_name":"Andesite","category":1,"distinct_rating":3.18,"distinct_type":"Bottom","rt":null,"stimulus":"Stimuli_Rocks480/I_Andesite_04.png","response":null,"trial_type":"image-keyboard-response","trial_index":126,"plugin_version":"2.1.0","time_elapsed":4743812,"subject_id":"90279","group":"Group2","full_date":"2025-11-22T04:06:31.203Z","date":"2025-11-22","time":"04:06:31"},{"rt":null,"stimulus":"<p style=\"font-size: 50px; margin: 0; text-align: center;\">+</p>","response":null,"trial_type":"html-keyboard-response","trial_index":127,"plugin_version":"2.1.0","time_elapsed":4744835,"subject_id":"90279","group":"Group2","full_date":"2025-11-22T04:06:31.203Z","date":"2025-11-22","time":"04:06:31"},{"task":"memory_phase","broad_category":"I","image_png":"I_Pumice_13.png","image_id":141,"category_name":"Pumice","category":9,"distinct_rating":3.12,"distinct_type":"Bottom","rt":null,"stimulus":"Stimuli_Rocks480/I_Pumice_13.png","response":null,"trial_type":"image-keyboard-response","trial_index":128,"plugin_version":"2.1.0","time_elapsed":4747347,"subject_id":"90279","group":"Group2","full_date":"2025-11-22T04:06:31.203Z","date":"2025-11-22","time":"04:06:31"},{"rt":null,"stimulus":"<p style=\"font-size: 50px; margin: 0; text-align: center;\">+</p>","response":null,"trial_type":"html-keyboard-response","trial_index":129,"plugin_version":"2.1.0","time_elapsed":4748356,"subject_id":"90279","group":"Group2","full_date":"2025-11-22T04:06:31.203Z","date":"2025-11-22","time":"04:06:31"},{"task":"memory_phase","broad_category":"I","image_png":"I_Pegmatite_11.png","image_id":107,"category_name":"Pegmatite","category":7,"distinct_rating":7.11,"distinct_type":"Top","rt":null,"stimulus":"Stimuli_Rocks480/I_Pegmatite_11.png","response":null,"trial_type":"image-keyboard-response","trial_index":130,"plugin_version":"2.1.0","time_elapsed":4750874,"subject_id":"90279","group":"Group2","full_date":"2025-11-22T04:06:31.203Z","date":"2025-11-22","time":"04:06:31"},{"rt":null,"stimulus":"<p style=\"font-size: 50px; margin: 0; text-align: center;\">+</p>","response":null,"trial_type":"html-keyboard-response","trial_index":131,"plugin_version":"2.1.0","time_elapsed":4751890,"subject_id":"90279","group":"Group2","full_date":"2025-11-22T04:06:31.203Z","date":"2025-11-22","time":"04:06:31"},{"task":"memory_phase","broad_category":"M","image_png":"M_Slate_04.png","image_id":308,"category_name":"Slate","category":20,"distinct_rating":2.2,"distinct_type":"Bottom","rt":null,"stimulus":"Stimuli_Rocks480/M_Slate_04.png","response":null,"trial_type":"image-keyboard-response","trial_index":132,"plugin_version":"2.1.0","time_elapsed":4754405,"subject_id":"90279","group":"Group2","full_date":"2025-11-22T04:06:31.203Z","date":"2025-11-22","time":"04:06:31"},{"rt":null,"stimulus":"<p style=\"font-size: 50px; margin: 0; text-align: center;\">+</p>","response":null,"trial_type":"html-keyboard-response","trial_index":133,"plugin_version":"2.1.0","time_elapsed":4755435,"subject_id":"90279","group":"Group2","full_date":"2025-11-22T04:06:31.203Z","date":"2025-11-22","time":"04:06:31"},{"task":"memory_phase","broad_category":"M","image_png":"M_Phyllite_13.png","image_id":269,"category_name":"Phyllite","category":17,"distinct_rating":2.8,"distinct_type":"Bottom","rt":null,"stimulus":"Stimuli_Rocks480/M_Phyllite_13.png","response":null,"trial_type":"image-keyboard-response","trial_index":134,"plugin_version":"2.1.0","time_elapsed":4757951,"subject_id":"90279","group":"Group2","full_date":"2025-11-22T04:06:31.203Z","date":"2025-11-22","time":"04:06:31"},{"rt":null,"stimulus":"<p style=\"font-size: 50px; margin: 0; text-align: center;\">+</p>","response":null,"trial_type":"html-keyboard-response","trial_index":135,"plugin_version":"2.1.0","time_elapsed":4758967,"subject_id":"90279","group":"Group2","full_date":"2025-11-22T04:06:31.203Z","date":"2025-11-22","time":"04:06:31"},{"task":"memory_phase","broad_category":"M","image_png":"M_Quartzite_15.png","image_id":287,"category_name":"Quartzite","category":18,"distinct_rating":2.19,"distinct_type":"Bottom","rt":null,"stimulus":"Stimuli_Rocks480/M_Quartzite_15.png","response":null,"trial_type":"image-keyboard-response","trial_index":136,"plugin_version":"2.1.0","time_elapsed":4761482,"subject_id":"90279","group":"Group2","full_date":"2025-11-22T04:06:31.203Z","date":"2025-11-22","time":"04:06:31"},{"rt":null,"stimulus":"<p style=\"font-size: 50px; margin: 0; text-align: center;\">+</p>","response":null,"trial_type":"html-keyboard-response","trial_index":137,"plugin_version":"2.1.0","time_elapsed":4762499,"subject_id":"90279","group":"Group2","full_date":"2025-11-22T04:06:31.203Z","date":"2025-11-22","time":"04:06:31"},{"task":"memory_phase","broad_category":"S","image_png":"S_Rock Salt_15.png","image_id":447,"category_name":"Rock Salt","category":28,"distinct_rating":7.79,"distinct_type":"Top","rt":null,"stimulus":"Stimuli_Rocks480/S_Rock Salt_15.png","response":null,"trial_type":"image-keyboard-response","trial_index":138,"plugin_version":"2.1.0","time_elapsed":4765028,"subject_id":"90279","group":"Group2","full_date":"2025-11-22T04:06:31.203Z","date":"2025-11-22","time":"04:06:31"},{"rt":null,"stimulus":"<p style=\"font-size: 50px; margin: 0; text-align: center;\">+</p>","response":null,"trial_type":"html-keyboard-response","trial_index":139,"plugin_version":"2.1.0","time_elapsed":4766044,"subject_id":"90279","group":"Group2","full_date":"2025-11-22T04:06:31.203Z","date":"2025-11-22","time":"04:06:31"},{"task":"memory_phase","broad_category":"I","image_png":"I_Obsidian_06.png","image_id":86,"category_name":"Obsidian","category":6,"distinct_rating":8.01,"distinct_type":"Top","rt":null,"stimulus":"Stimuli_Rocks480/I_Obsidian_06.png","response":null,"trial_type":"image-keyboard-response","trial_index":140,"plugin_version":"2.1.0","time_elapsed":4768561,"subject_id":"90279","group":"Group2","full_date":"2025-11-22T04:06:31.203Z","date":"2025-11-22","time":"04:06:31"},{"rt":null,"stimulus":"<p style=\"font-size: 50px; margin: 0; text-align: center;\">+</p>","response":null,"trial_type":"html-keyboard-response","trial_index":141,"plugin_version":"2.1.0","time_elapsed":4769563,"subject_id":"90279","group":"Group2","full_date":"2025-11-22T04:06:31.203Z","date":"2025-11-22","time":"04:06:31"},{"task":"memory_phase","broad_category":"S","image_png":"S_Sandstone_04.png","image_id":452,"category_name":"Sandstone","category":29,"distinct_rating":1.8,"distinct_type":"Bottom","rt":null,"stimulus":"Stimuli_Rocks480/S_Sandstone_04.png","response":null,"trial_type":"image-keyboard-response","trial_index":142,"plugin_version":"2.1.0","time_elapsed":4772076,"subject_id":"90279","group":"Group2","full_date":"2025-11-22T04:06:31.203Z","date":"2025-11-22","time":"04:06:31"},{"rt":null,"stimulus":"<p style=\"font-size: 50px; margin: 0; text-align: center;\">+</p>","response":null,"trial_type":"html-keyboard-response","trial_index":143,"plugin_version":"2.1.0","time_elapsed":4773093,"subject_id":"90279","group":"Group2","full_date":"2025-11-22T04:06:31.203Z","date":"2025-11-22","time":"04:06:31"},{"task":"memory_phase","broad_category":"M","image_png":"M_Marble_14.png","image_id":238,"category_name":"Marble","category":15,"distinct_rating":3.31,"distinct_type":"Bottom","rt":null,"stimulus":"Stimuli_Rocks480/M_Marble_14.png","response":null,"trial_type":"image-keyboard-response","trial_index":144,"plugin_version":"2.1.0","time_elapsed":4775610,"subject_id":"90279","group":"Group2","full_date":"2025-11-22T04:06:31.203Z","date":"2025-11-22","time":"04:06:31"},{"rt":null,"stimulus":"<p style=\"font-size: 50px; margin: 0; text-align: center;\">+</p>","response":null,"trial_type":"html-keyboard-response","trial_index":145,"plugin_version":"2.1.0","time_elapsed":4776622,"subject_id":"90279","group":"Group2","full_date":"2025-11-22T04:06:31.203Z","date":"2025-11-22","time":"04:06:31"},{"task":"memory_phase","broad_category":"M","image_png":"M_Gneiss_14.png","image_id":206,"category_name":"Gneiss","category":13,"distinct_rating":3.41,"distinct_type":"Bottom","rt":null,"stimulus":"Stimuli_Rocks480/M_Gneiss_14.png","response":null,"trial_type":"image-keyboard-response","trial_index":146,"plugin_version":"2.1.0","time_elapsed":4779139,"subject_id":"90279","group":"Group2","full_date":"2025-11-22T04:06:31.203Z","date":"2025-11-22","time":"04:06:31"},{"rt":null,"stimulus":"<p style=\"font-size: 50px; margin: 0; text-align: center;\">+</p>","response":null,"trial_type":"html-keyboard-response","trial_index":147,"plugin_version":"2.1.0","time_elapsed":4780155,"subject_id":"90279","group":"Group2","full_date":"2025-11-22T04:06:31.203Z","date":"2025-11-22","time":"04:06:31"},{"task":"memory_phase","broad_category":"M","image_png":"M_Gneiss_10.png","image_id":202,"category_name":"Gneiss","category":13,"distinct_rating":3.09,"distinct_type":"Bottom","rt":null,"stimulus":"Stimuli_Rocks480/M_Gneiss_10.png","response":null,"trial_type":"image-keyboard-response","trial_index":148,"plugin_version":"2.1.0","time_elapsed":4782672,"subject_id":"90279","group":"Group2","full_date":"2025-11-22T04:06:31.203Z","date":"2025-11-22","time":"04:06:31"},{"rt":null,"stimulus":"<p style=\"font-size: 50px; margin: 0; text-align: center;\">+</p>","response":null,"trial_type":"html-keyboard-response","trial_index":149,"plugin_version":"2.1.0","time_elapsed":4783690,"subject_id":"90279","group":"Group2","full_date":"2025-11-22T04:06:31.203Z","date":"2025-11-22","time":"04:06:31"},{"task":"memory_phase","broad_category":"I","image_png":"I_Rhyolite_08.png","image_id":152,"category_name":"Rhyolite","category":10,"distinct_rating":1.38,"distinct_type":"Bottom","rt":null,"stimulus":"Stimuli_Rocks480/I_Rhyolite_08.png","response":null,"trial_type":"image-keyboard-response","trial_index":150,"plugin_version":"2.1.0","time_elapsed":4786202,"subject_id":"90279","group":"Group2","full_date":"2025-11-22T04:06:31.203Z","date":"2025-11-22","time":"04:06:31"},{"rt":null,"stimulus":"<p style=\"font-size: 50px; margin: 0; text-align: center;\">+</p>","response":null,"trial_type":"html-keyboard-response","trial_index":151,"plugin_version":"2.1.0","time_elapsed":4787233,"subject_id":"90279","group":"Group2","full_date":"2025-11-22T04:06:31.203Z","date":"2025-11-22","time":"04:06:31"},{"task":"memory_phase","broad_category":"S","image_png":"S_Conglomerate_14.png","image_id":382,"category_name":"Conglomerate","category":24,"distinct_rating":6.86,"distinct_type":"Top","rt":null,"stimulus":"Stimuli_Rocks480/S_Conglomerate_14.png","response":null,"trial_type":"image-keyboard-response","trial_index":152,"plugin_version":"2.1.0","time_elapsed":4789748,"subject_id":"90279","group":"Group2","full_date":"2025-11-22T04:06:31.203Z","date":"2025-11-22","time":"04:06:31"},{"rt":null,"stimulus":"<p style=\"font-size: 50px; margin: 0; text-align: center;\">+</p>","response":null,"trial_type":"html-keyboard-response","trial_index":153,"plugin_version":"2.1.0","time_elapsed":4790764,"subject_id":"90279","group":"Group2","full_date":"2025-11-22T04:06:31.203Z","date":"2025-11-22","time":"04:06:31"},{"task":"memory_phase","broad_category":"I","image_png":"I_Basalt_08.png","image_id":24,"category_name":"Basalt","category":2,"distinct_rating":2.31,"distinct_type":"Bottom","rt":null,"stimulus":"Stimuli_Rocks480/I_Basalt_08.png","response":null,"trial_type":"image-keyboard-response","trial_index":154,"plugin_version":"2.1.0","time_elapsed":4793285,"subject_id":"90279","group":"Group2","full_date":"2025-11-22T04:06:31.203Z","date":"2025-11-22","time":"04:06:31"},{"rt":null,"stimulus":"<p style=\"font-size: 50px; margin: 0; text-align: center;\">+</p>","response":null,"trial_type":"html-keyboard-response","trial_index":155,"plugin_version":"2.1.0","time_elapsed":4794296,"subject_id":"90279","group":"Group2","full_date":"2025-11-22T04:06:31.203Z","date":"2025-11-22","time":"04:06:31"},{"task":"memory_phase","broad_category":"S","image_png":"S_Dolomite_01.png","image_id":385,"category_name":"Dolomite","category":25,"distinct_rating":1.43,"distinct_type":"Bottom","rt":null,"stimulus":"Stimuli_Rocks480/S_Dolomite_01.png","response":null,"trial_type":"image-keyboard-response","trial_index":156,"plugin_version":"2.1.0","time_elapsed":4796812,"subject_id":"90279","group":"Group2","full_date":"2025-11-22T04:06:31.203Z","date":"2025-11-22","time":"04:06:31"},{"rt":84965,"stimulus":"<p style=\"max-width: 760px; margin: auto; font-size: 35px; line-height: 1.5;\">Press SPACE to continue study phase</p>","response":" ","trial_type":"html-keyboard-response","trial_index":157,"plugin_version":"2.1.0","time_elapsed":4881777,"subject_id":"90279","group":"Group2","full_date":"2025-11-22T04:06:31.203Z","date":"2025-11-22","time":"04:06:31"},{"rt":null,"stimulus":"<p style=\"font-size: 50px; margin: 0; text-align: center;\">+</p>","response":null,"trial_type":"html-keyboard-response","trial_index":158,"plugin_version":"2.1.0","time_elapsed":4882783,"subject_id":"90279","group":"Group2","full_date":"2025-11-22T04:06:31.203Z","date":"2025-11-22","time":"04:06:31"},{"task":"memory_phase","broad_category":"I","image_png":"I_Diorite_15.png","image_id":47,"category_name":"Diorite","category":3,"distinct_rating":3.05,"distinct_type":"Bottom","rt":null,"stimulus":"Stimuli_Rocks480/I_Diorite_15.png","response":null,"trial_type":"image-keyboard-response","trial_index":159,"plugin_version":"2.1.0","time_elapsed":4885296,"subject_id":"90279","group":"Group2","full_date":"2025-11-22T04:06:31.203Z","date":"2025-11-22","time":"04:06:31"},{"rt":null,"stimulus":"<p style=\"font-size: 50px; margin: 0; text-align: center;\">+</p>","response":null,"trial_type":"html-keyboard-response","trial_index":160,"plugin_version":"2.1.0","time_elapsed":4886311,"subject_id":"90279","group":"Group2","full_date":"2025-11-22T04:06:31.203Z","date":"2025-11-22","time":"04:06:31"},{"task":"memory_phase","broad_category":"I","image_png":"I_Diorite_01.png","image_id":33,"category_name":"Diorite","category":3,"distinct_rating":2.97,"distinct_type":"Bottom","rt":null,"stimulus":"Stimuli_Rocks480/I_Diorite_01.png","response":null,"trial_type":"image-keyboard-response","trial_index":161,"plugin_version":"2.1.0","time_elapsed":4888826,"subject_id":"90279","group":"Group2","full_date":"2025-11-22T04:06:31.203Z","date":"2025-11-22","time":"04:06:31"},{"rt":null,"stimulus":"<p style=\"font-size: 50px; margin: 0; text-align: center;\">+</p>","response":null,"trial_type":"html-keyboard-response","trial_index":162,"plugin_version":"2.1.0","time_elapsed":4889856,"subject_id":"90279","group":"Group2","full_date":"2025-11-22T04:06:31.203Z","date":"2025-11-22","time":"04:06:31"},{"task":"memory_phase","broad_category":"S","image_png":"S_Sandstone_08.png","image_id":456,"category_name":"Sandstone","category":29,"distinct_rating":1.5,"distinct_type":"Bottom","rt":null,"stimulus":"Stimuli_Rocks480/S_Sandstone_08.png","response":null,"trial_type":"image-keyboard-response","trial_index":163,"plugin_version":"2.1.0","time_elapsed":4892373,"subject_id":"90279","group":"Group2","full_date":"2025-11-22T04:06:31.203Z","date":"2025-11-22","time":"04:06:31"},{"rt":null,"stimulus":"<p style=\"font-size: 50px; margin: 0; text-align: center;\">+</p>","response":null,"trial_type":"html-keyboard-response","trial_index":164,"plugin_version":"2.1.0","time_elapsed":4893389,"subject_id":"90279","group":"Group2","full_date":"2025-11-22T04:06:31.203Z","date":"2025-11-22","time":"04:06:31"},{"task":"memory_phase","broad_category":"S","image_png":"S_Sandstone_11.png","image_id":459,"category_name":"Sandstone","category":29,"distinct_rating":1.82,"distinct_type":"Bottom","rt":null,"stimulus":"Stimuli_Rocks480/S_Sandstone_11.png","response":null,"trial_type":"image-keyboard-response","trial_index":165,"plugin_version":"2.1.0","time_elapsed":4895905,"subject_id":"90279","group":"Group2","full_date":"2025-11-22T04:06:31.203Z","date":"2025-11-22","time":"04:06:31"},{"rt":null,"stimulus":"<p style=\"font-size: 50px; margin: 0; text-align: center;\">+</p>","response":null,"trial_type":"html-keyboard-response","trial_index":166,"plugin_version":"2.1.0","time_elapsed":4896921,"subject_id":"90279","group":"Group2","full_date":"2025-11-22T04:06:31.203Z","date":"2025-11-22","time":"04:06:31"},{"task":"memory_phase","broad_category":"M","image_png":"M_Marble_03.png","image_id":227,"category_name":"Marble","category":15,"distinct_rating":2.67,"distinct_type":"Bottom","rt":null,"stimulus":"Stimuli_Rocks480/M_Marble_03.png","response":null,"trial_type":"image-keyboard-response","trial_index":167,"plugin_version":"2.1.0","time_elapsed":4899438,"subject_id":"90279","group":"Group2","full_date":"2025-11-22T04:06:31.203Z","date":"2025-11-22","time":"04:06:31"},{"rt":null,"stimulus":"<p style=\"font-size: 50px; margin: 0; text-align: center;\">+</p>","response":null,"trial_type":"html-keyboard-response","trial_index":168,"plugin_version":"2.1.0","time_elapsed":4900467,"subject_id":"90279","group":"Group2","full_date":"2025-11-22T04:06:31.203Z","date":"2025-11-22","time":"04:06:31"},{"task":"memory_phase","broad_category":"I","image_png":"I_Diorite_10.png","image_id":42,"category_name":"Diorite","category":3,"distinct_rating":2.84,"distinct_type":"Bottom","rt":null,"stimulus":"Stimuli_Rocks480/I_Diorite_10.png","response":null,"trial_type":"image-keyboard-response","trial_index":169,"plugin_version":"2.1.0","time_elapsed":4902982,"subject_id":"90279","group":"Group2","full_date":"2025-11-22T04:06:31.203Z","date":"2025-11-22","time":"04:06:31"},{"rt":null,"stimulus":"<p style=\"font-size: 50px; margin: 0; text-align: center;\">+</p>","response":null,"trial_type":"html-keyboard-response","trial_index":170,"plugin_version":"2.1.0","time_elapsed":4903998,"subject_id":"90279","group":"Group2","full_date":"2025-11-22T04:06:31.203Z","date":"2025-11-22","time":"04:06:31"},{"task":"memory_phase","broad_category":"M","image_png":"M_Gneiss_15.png","image_id":207,"category_name":"Gneiss","category":13,"distinct_rating":3.11,"distinct_type":"Bottom","rt":null,"stimulus":"Stimuli_Rocks480/M_Gneiss_15.png","response":null,"trial_type":"image-keyboard-response","trial_index":171,"plugin_version":"2.1.0","time_elapsed":4906516,"subject_id":"90279","group":"Group2","full_date":"2025-11-22T04:06:31.203Z","date":"2025-11-22","time":"04:06:31"},{"rt":null,"stimulus":"<p style=\"font-size: 50px; margin: 0; text-align: center;\">+</p>","response":null,"trial_type":"html-keyboard-response","trial_index":172,"plugin_version":"2.1.0","time_elapsed":4907545,"subject_id":"90279","group":"Group2","full_date":"2025-11-22T04:06:31.203Z","date":"2025-11-22","time":"04:06:31"},{"task":"memory_phase","broad_category":"S","image_png":"S_Shale_07.png","image_id":471,"category_name":"Shale","category":30,"distinct_rating":2.73,"distinct_type":"Bottom","rt":null,"stimulus":"Stimuli_Rocks480/S_Shale_07.png","response":null,"trial_type":"image-keyboard-response","trial_index":173,"plugin_version":"2.1.0","time_elapsed":4910060,"subject_id":"90279","group":"Group2","full_date":"2025-11-22T04:06:31.203Z","date":"2025-11-22","time":"04:06:31"},{"rt":null,"stimulus":"<p style=\"font-size: 50px; margin: 0; text-align: center;\">+</p>","response":null,"trial_type":"html-keyboard-response","trial_index":174,"plugin_version":"2.1.0","time_elapsed":4911076,"subject_id":"90279","group":"Group2","full_date":"2025-11-22T04:06:31.203Z","date":"2025-11-22","time":"04:06:31"},{"task":"memory_phase","broad_category":"I","image_png":"I_Rhyolite_05.png","image_id":149,"category_name":"Rhyolite","category":10,"distinct_rating":3.02,"distinct_type":"Bottom","rt":null,"stimulus":"Stimuli_Rocks480/I_Rhyolite_05.png","response":null,"trial_type":"image-keyboard-response","trial_index":175,"plugin_version":"2.1.0","time_elapsed":4913591,"subject_id":"90279","group":"Group2","full_date":"2025-11-22T04:06:31.203Z","date":"2025-11-22","time":"04:06:31"},{"rt":null,"stimulus":"<p style=\"font-size: 50px; margin: 0; text-align: center;\">+</p>","response":null,"trial_type":"html-keyboard-response","trial_index":176,"plugin_version":"2.1.0","time_elapsed":4914608,"subject_id":"90279","group":"Group2","full_date":"2025-11-22T04:06:31.203Z","date":"2025-11-22","time":"04:06:31"},{"task":"memory_phase","broad_category":"I","image_png":"I_Pumice_01.png","image_id":129,"category_name":"Pumice","category":9,"distinct_rating":3.25,"distinct_type":"Bottom","rt":null,"stimulus":"Stimuli_Rocks480/I_Pumice_01.png","response":null,"trial_type":"image-keyboard-response","trial_index":177,"plugin_version":"2.1.0","time_elapsed":4917123,"subject_id":"90279","group":"Group2","full_date":"2025-11-22T04:06:31.203Z","date":"2025-11-22","time":"04:06:31"},{"rt":null,"stimulus":"<p style=\"font-size: 50px; margin: 0; text-align: center;\">+</p>","response":null,"trial_type":"html-keyboard-response","trial_index":178,"plugin_version":"2.1.0","time_elapsed":4918126,"subject_id":"90279","group":"Group2","full_date":"2025-11-22T04:06:31.203Z","date":"2025-11-22","time":"04:06:31"},{"task":"memory_phase","broad_category":"S","image_png":"S_Chert_13.png","image_id":365,"category_name":"Chert","category":23,"distinct_rating":6.57,"distinct_type":"Top","rt":null,"stimulus":"Stimuli_Rocks480/S_Chert_13.png","response":null,"trial_type":"image-keyboard-response","trial_index":179,"plugin_version":"2.1.0","time_elapsed":4920639,"subject_id":"90279","group":"Group2","full_date":"2025-11-22T04:06:31.203Z","date":"2025-11-22","time":"04:06:31"},{"rt":null,"stimulus":"<p style=\"font-size: 50px; margin: 0; text-align: center;\">+</p>","response":null,"trial_type":"html-keyboard-response","trial_index":180,"plugin_version":"2.1.0","time_elapsed":4921654,"subject_id":"90279","group":"Group2","full_date":"2025-11-22T04:06:31.203Z","date":"2025-11-22","time":"04:06:31"},{"task":"memory_phase","broad_category":"S","image_png":"S_Rock Salt_13.png","image_id":445,"category_name":"Rock Salt","category":28,"distinct_rating":7.58,"distinct_type":"Top","rt":null,"stimulus":"Stimuli_Rocks480/S_Rock Salt_13.png","response":null,"trial_type":"image-keyboard-response","trial_index":181,"plugin_version":"2.1.0","time_elapsed":4924170,"subject_id":"90279","group":"Group2","full_date":"2025-11-22T04:06:31.203Z","date":"2025-11-22","time":"04:06:31"},{"rt":null,"stimulus":"<p style=\"font-size: 50px; margin: 0; text-align: center;\">+</p>","response":null,"trial_type":"html-keyboard-response","trial_index":182,"plugin_version":"2.1.0","time_elapsed":4925186,"subject_id":"90279","group":"Group2","full_date":"2025-11-22T04:06:31.203Z","date":"2025-11-22","time":"04:06:31"},{"task":"memory_phase","broad_category":"I","image_png":"I_Andesite_03.png","image_id":3,"category_name":"Andesite","category":1,"distinct_rating":3.17,"distinct_type":"Bottom","rt":null,"stimulus":"Stimuli_Rocks480/I_Andesite_03.png","response":null,"trial_type":"image-keyboard-response","trial_index":183,"plugin_version":"2.1.0","time_elapsed":4927702,"subject_id":"90279","group":"Group2","full_date":"2025-11-22T04:06:31.203Z","date":"2025-11-22","time":"04:06:31"},{"rt":null,"stimulus":"<p style=\"font-size: 50px; margin: 0; text-align: center;\">+</p>","response":null,"trial_type":"html-keyboard-response","trial_index":184,"plugin_version":"2.1.0","time_elapsed":4928708,"subject_id":"90279","group":"Group2","full_date":"2025-11-22T04:06:31.203Z","date":"2025-11-22","time":"04:06:31"},{"task":"memory_phase","broad_category":"M","image_png":"M_Quartzite_07.png","image_id":279,"category_name":"Quartzite","category":18,"distinct_rating":1.97,"distinct_type":"Bottom","rt":null,"stimulus":"Stimuli_Rocks480/M_Quartzite_07.png","response":null,"trial_type":"image-keyboard-response","trial_index":185,"plugin_version":"2.1.0","time_elapsed":4931233,"subject_id":"90279","group":"Group2","full_date":"2025-11-22T04:06:31.203Z","date":"2025-11-22","time":"04:06:31"},{"rt":null,"stimulus":"<p style=\"font-size: 50px; margin: 0; text-align: center;\">+</p>","response":null,"trial_type":"html-keyboard-response","trial_index":186,"plugin_version":"2.1.0","time_elapsed":4932248,"subject_id":"90279","group":"Group2","full_date":"2025-11-22T04:06:31.203Z","date":"2025-11-22","time":"04:06:31"},{"task":"memory_phase","broad_category":"I","image_png":"I_Gabbro_02.png","image_id":50,"category_name":"Gabbro","category":4,"distinct_rating":2.73,"distinct_type":"Bottom","rt":null,"stimulus":"Stimuli_Rocks480/I_Gabbro_02.png","response":null,"trial_type":"image-keyboard-response","trial_index":187,"plugin_version":"2.1.0","time_elapsed":4934763,"subject_id":"90279","group":"Group2","full_date":"2025-11-22T04:06:31.203Z","date":"2025-11-22","time":"04:06:31"},{"rt":null,"stimulus":"<p style=\"font-size: 50px; margin: 0; text-align: center;\">+</p>","response":null,"trial_type":"html-keyboard-response","trial_index":188,"plugin_version":"2.1.0","time_elapsed":4935771,"subject_id":"90279","group":"Group2","full_date":"2025-11-22T04:06:31.203Z","date":"2025-11-22","time":"04:06:31"},{"task":"memory_phase","broad_category":"M","image_png":"M_Slate_10.png","image_id":314,"category_name":"Slate","category":20,"distinct_rating":1.94,"distinct_type":"Bottom","rt":null,"stimulus":"Stimuli_Rocks480/M_Slate_10.png","response":null,"trial_type":"image-keyboard-response","trial_index":189,"plugin_version":"2.1.0","time_elapsed":4938275,"subject_id":"90279","group":"Group2","full_date":"2025-11-22T04:06:31.203Z","date":"2025-11-22","time":"04:06:31"},{"rt":null,"stimulus":"<p style=\"font-size: 50px; margin: 0; text-align: center;\">+</p>","response":null,"trial_type":"html-keyboard-response","trial_index":190,"plugin_version":"2.1.0","time_elapsed":4939278,"subject_id":"90279","group":"Group2","full_date":"2025-11-22T04:06:31.203Z","date":"2025-11-22","time":"04:06:31"},{"task":"memory_phase","broad_category":"I","image_png":"I_Basalt_10.png","image_id":26,"category_name":"Basalt","category":2,"distinct_rating":2.76,"distinct_type":"Bottom","rt":null,"stimulus":"Stimuli_Rocks480/I_Basalt_10.png","response":null,"trial_type":"image-keyboard-response","trial_index":191,"plugin_version":"2.1.0","time_elapsed":4941786,"subject_id":"90279","group":"Group2","full_date":"2025-11-22T04:06:31.203Z","date":"2025-11-22","time":"04:06:31"},{"rt":null,"stimulus":"<p style=\"font-size: 50px; margin: 0; text-align: center;\">+</p>","response":null,"trial_type":"html-keyboard-response","trial_index":192,"plugin_version":"2.1.0","time_elapsed":4942787,"subject_id":"90279","group":"Group2","full_date":"2025-11-22T04:06:31.203Z","date":"2025-11-22","time":"04:06:31"},{"task":"memory_phase","broad_category":"I","image_png":"I_Basalt_13.png","image_id":29,"category_name":"Basalt","category":2,"distinct_rating":2.68,"distinct_type":"Bottom","rt":null,"stimulus":"Stimuli_Rocks480/I_Basalt_13.png","response":null,"trial_type":"image-keyboard-response","trial_index":193,"plugin_version":"2.1.0","time_elapsed":4945295,"subject_id":"90279","group":"Group2","full_date":"2025-11-22T04:06:31.203Z","date":"2025-11-22","time":"04:06:31"},{"rt":null,"stimulus":"<p style=\"font-size: 50px; margin: 0; text-align: center;\">+</p>","response":null,"trial_type":"html-keyboard-response","trial_index":194,"plugin_version":"2.1.0","time_elapsed":4946314,"subject_id":"90279","group":"Group2","full_date":"2025-11-22T04:06:31.203Z","date":"2025-11-22","time":"04:06:31"},{"task":"memory_phase","broad_category":"I","image_png":"I_Pumice_14.png","image_id":142,"category_name":"Pumice","category":9,"distinct_rating":3.22,"distinct_type":"Bottom","rt":null,"stimulus":"Stimuli_Rocks480/I_Pumice_14.png","response":null,"trial_type":"image-keyboard-response","trial_index":195,"plugin_version":"2.1.0","time_elapsed":4948816,"subject_id":"90279","group":"Group2","full_date":"2025-11-22T04:06:31.203Z","date":"2025-11-22","time":"04:06:31"},{"rt":null,"stimulus":"<p style=\"font-size: 50px; margin: 0; text-align: center;\">+</p>","response":null,"trial_type":"html-keyboard-response","trial_index":196,"plugin_version":"2.1.0","time_elapsed":4949826,"subject_id":"90279","group":"Group2","full_date":"2025-11-22T04:06:31.203Z","date":"2025-11-22","time":"04:06:31"},{"task":"memory_phase","broad_category":"S","image_png":"S_Dolomite_07.png","image_id":391,"category_name":"Dolomite","category":25,"distinct_rating":1.73,"distinct_type":"Bottom","rt":null,"stimulus":"Stimuli_Rocks480/S_Dolomite_07.png","response":null,"trial_type":"image-keyboard-response","trial_index":197,"plugin_version":"2.1.0","time_elapsed":4952328,"subject_id":"90279","group":"Group2","full_date":"2025-11-22T04:06:31.203Z","date":"2025-11-22","time":"04:06:31"},{"rt":null,"stimulus":"<p style=\"font-size: 50px; margin: 0; text-align: center;\">+</p>","response":null,"trial_type":"html-keyboard-response","trial_index":198,"plugin_version":"2.1.0","time_elapsed":4953330,"subject_id":"90279","group":"Group2","full_date":"2025-11-22T04:06:31.203Z","date":"2025-11-22","time":"04:06:31"},{"task":"memory_phase","broad_category":"M","image_png":"M_Quartzite_12.png","image_id":284,"category_name":"Quartzite","category":18,"distinct_rating":1.92,"distinct_type":"Bottom","rt":null,"stimulus":"Stimuli_Rocks480/M_Quartzite_12.png","response":null,"trial_type":"image-keyboard-response","trial_index":199,"plugin_version":"2.1.0","time_elapsed":4955845,"subject_id":"90279","group":"Group2","full_date":"2025-11-22T04:06:31.203Z","date":"2025-11-22","time":"04:06:31"},{"rt":null,"stimulus":"<p style=\"font-size: 50px; margin: 0; text-align: center;\">+</p>","response":null,"trial_type":"html-keyboard-response","trial_index":200,"plugin_version":"2.1.0","time_elapsed":4956856,"subject_id":"90279","group":"Group2","full_date":"2025-11-22T04:06:31.203Z","date":"2025-11-22","time":"04:06:31"},{"task":"memory_phase","broad_category":"I","image_png":"I_Gabbro_12.png","image_id":60,"category_name":"Gabbro","category":4,"distinct_rating":2.6,"distinct_type":"Bottom","rt":null,"stimulus":"Stimuli_Rocks480/I_Gabbro_12.png","response":null,"trial_type":"image-keyboard-response","trial_index":201,"plugin_version":"2.1.0","time_elapsed":4959373,"subject_id":"90279","group":"Group2","full_date":"2025-11-22T04:06:31.203Z","date":"2025-11-22","time":"04:06:31"},{"rt":null,"stimulus":"<p style=\"font-size: 50px; margin: 0; text-align: center;\">+</p>","response":null,"trial_type":"html-keyboard-response","trial_index":202,"plugin_version":"2.1.0","time_elapsed":4960389,"subject_id":"90279","group":"Group2","full_date":"2025-11-22T04:06:31.203Z","date":"2025-11-22","time":"04:06:31"},{"task":"memory_phase","broad_category":"I","image_png":"I_Rhyolite_10.png","image_id":154,"category_name":"Rhyolite","category":10,"distinct_rating":2.88,"distinct_type":"Bottom","rt":null,"stimulus":"Stimuli_Rocks480/I_Rhyolite_10.png","response":null,"trial_type":"image-keyboard-response","trial_index":203,"plugin_version":"2.1.0","time_elapsed":4962905,"subject_id":"90279","group":"Group2","full_date":"2025-11-22T04:06:31.203Z","date":"2025-11-22","time":"04:06:31"},{"rt":null,"stimulus":"<p style=\"font-size: 50px; margin: 0; text-align: center;\">+</p>","response":null,"trial_type":"html-keyboard-response","trial_index":204,"plugin_version":"2.1.0","time_elapsed":4963922,"subject_id":"90279","group":"Group2","full_date":"2025-11-22T04:06:31.203Z","date":"2025-11-22","time":"04:06:31"},{"task":"memory_phase","broad_category":"S","image_png":"S_Shale_03.png","image_id":467,"category_name":"Shale","category":30,"distinct_rating":1.95,"distinct_type":"Bottom","rt":null,"stimulus":"Stimuli_Rocks480/S_Shale_03.png","response":null,"trial_type":"image-keyboard-response","trial_index":205,"plugin_version":"2.1.0","time_elapsed":4966436,"subject_id":"90279","group":"Group2","full_date":"2025-11-22T04:06:31.203Z","date":"2025-11-22","time":"04:06:31"},{"rt":null,"stimulus":"<p style=\"font-size: 50px; margin: 0; text-align: center;\">+</p>","response":null,"trial_type":"html-keyboard-response","trial_index":206,"plugin_version":"2.1.0","time_elapsed":4967452,"subject_id":"90279","group":"Group2","full_date":"2025-11-22T04:06:31.203Z","date":"2025-11-22","time":"04:06:31"},{"task":"memory_phase","broad_category":"I","image_png":"I_Pegmatite_03.png","image_id":99,"category_name":"Pegmatite","category":7,"distinct_rating":7.24,"distinct_type":"Top","rt":null,"stimulus":"Stimuli_Rocks480/I_Pegmatite_03.png","response":null,"trial_type":"image-keyboard-response","trial_index":207,"plugin_version":"2.1.0","time_elapsed":4969965,"subject_id":"90279","group":"Group2","full_date":"2025-11-22T04:06:31.203Z","date":"2025-11-22","time":"04:06:31"},{"rt":13017,"stimulus":"<p style=\"max-width: 760px; margin: auto; font-size: 35px; line-height: 1.5;\">You have completed 2 study phases. Now, we'll show you all the images again 1 more time.<br><br>Press SPACE to continue</p>","response":" ","trial_type":"html-keyboard-response","trial_index":208,"plugin_version":"2.1.0","time_elapsed":4982983,"subject_id":"90279","group":"Group2","full_date":"2025-11-22T04:06:31.203Z","date":"2025-11-22","time":"04:06:31"},{"rt":null,"stimulus":"<p style=\"font-size: 50px; margin: 0; text-align: center;\">+</p>","response":null,"trial_type":"html-keyboard-response","trial_index":209,"plugin_version":"2.1.0","time_elapsed":4983999,"subject_id":"90279","group":"Group2","full_date":"2025-11-22T04:06:31.203Z","date":"2025-11-22","time":"04:06:31"},{"task":"memory_phase","broad_category":"I","image_png":"I_Peridotite_13.png","image_id":125,"category_name":"Peridotite","category":8,"distinct_rating":7.28,"distinct_type":"Top","rt":null,"stimulus":"Stimuli_Rocks480/I_Peridotite_13.png","response":null,"trial_type":"image-keyboard-response","trial_index":210,"plugin_version":"2.1.0","time_elapsed":4986529,"subject_id":"90279","group":"Group2","full_date":"2025-11-22T04:06:31.203Z","date":"2025-11-22","time":"04:06:31"},{"rt":null,"stimulus":"<p style=\"font-size: 50px; margin: 0; text-align: center;\">+</p>","response":null,"trial_type":"html-keyboard-response","trial_index":211,"plugin_version":"2.1.0","time_elapsed":4987545,"subject_id":"90279","group":"Group2","full_date":"2025-11-22T04:06:31.203Z","date":"2025-11-22","time":"04:06:31"},{"task":"memory_phase","broad_category":"I","image_png":"I_Gabbro_02.png","image_id":50,"category_name":"Gabbro","category":4,"distinct_rating":2.73,"distinct_type":"Bottom","rt":null,"stimulus":"Stimuli_Rocks480/I_Gabbro_02.png","response":null,"trial_type":"image-keyboard-response","trial_index":212,"plugin_version":"2.1.0","time_elapsed":4990060,"subject_id":"90279","group":"Group2","full_date":"2025-11-22T04:06:31.203Z","date":"2025-11-22","time":"04:06:31"},{"rt":null,"stimulus":"<p style=\"font-size: 50px; margin: 0; text-align: center;\">+</p>","response":null,"trial_type":"html-keyboard-response","trial_index":213,"plugin_version":"2.1.0","time_elapsed":4991077,"subject_id":"90279","group":"Group2","full_date":"2025-11-22T04:06:31.203Z","date":"2025-11-22","time":"04:06:31"},{"task":"memory_phase","broad_category":"S","image_png":"S_Sandstone_04.png","image_id":452,"category_name":"Sandstone","category":29,"distinct_rating":1.8,"distinct_type":"Bottom","rt":null,"stimulus":"Stimuli_Rocks480/S_Sandstone_04.png","response":null,"trial_type":"image-keyboard-response","trial_index":214,"plugin_version":"2.1.0","time_elapsed":4993592,"subject_id":"90279","group":"Group2","full_date":"2025-11-22T04:06:31.203Z","date":"2025-11-22","time":"04:06:31"},{"rt":null,"stimulus":"<p style=\"font-size: 50px; margin: 0; text-align: center;\">+</p>","response":null,"trial_type":"html-keyboard-response","trial_index":215,"plugin_version":"2.1.0","time_elapsed":4994607,"subject_id":"90279","group":"Group2","full_date":"2025-11-22T04:06:31.203Z","date":"2025-11-22","time":"04:06:31"},{"task":"memory_phase","broad_category":"I","image_png":"I_Rhyolite_10.png","image_id":154,"category_name":"Rhyolite","category":10,"distinct_rating":2.88,"distinct_type":"Bottom","rt":null,"stimulus":"Stimuli_Rocks480/I_Rhyolite_10.png","response":null,"trial_type":"image-keyboard-response","trial_index":216,"plugin_version":"2.1.0","time_elapsed":4997139,"subject_id":"90279","group":"Group2","full_date":"2025-11-22T04:06:31.203Z","date":"2025-11-22","time":"04:06:31"},{"rt":null,"stimulus":"<p style=\"font-size: 50px; margin: 0; text-align: center;\">+</p>","response":null,"trial_type":"html-keyboard-response","trial_index":217,"plugin_version":"2.1.0","time_elapsed":4998154,"subject_id":"90279","group":"Group2","full_date":"2025-11-22T04:06:31.203Z","date":"2025-11-22","time":"04:06:31"},{"task":"memory_phase","broad_category":"M","image_png":"M_Slate_14.png","image_id":318,"category_name":"Slate","category":20,"distinct_rating":2.58,"distinct_type":"Bottom","rt":null,"stimulus":"Stimuli_Rocks480/M_Slate_14.png","response":null,"trial_type":"image-keyboard-response","trial_index":218,"plugin_version":"2.1.0","time_elapsed":5000667,"subject_id":"90279","group":"Group2","full_date":"2025-11-22T04:06:31.203Z","date":"2025-11-22","time":"04:06:31"},{"rt":null,"stimulus":"<p style=\"font-size: 50px; margin: 0; text-align: center;\">+</p>","response":null,"trial_type":"html-keyboard-response","trial_index":219,"plugin_version":"2.1.0","time_elapsed":5001673,"subject_id":"90279","group":"Group2","full_date":"2025-11-22T04:06:31.203Z","date":"2025-11-22","time":"04:06:31"},{"task":"memory_phase","broad_category":"M","image_png":"M_Quartzite_07.png","image_id":279,"category_name":"Quartzite","category":18,"distinct_rating":1.97,"distinct_type":"Bottom","rt":null,"stimulus":"Stimuli_Rocks480/M_Quartzite_07.png","response":null,"trial_type":"image-keyboard-response","trial_index":220,"plugin_version":"2.1.0","time_elapsed":5004186,"subject_id":"90279","group":"Group2","full_date":"2025-11-22T04:06:31.203Z","date":"2025-11-22","time":"04:06:31"},{"rt":null,"stimulus":"<p style=\"font-size: 50px; margin: 0; text-align: center;\">+</p>","response":null,"trial_type":"html-keyboard-response","trial_index":221,"plugin_version":"2.1.0","time_elapsed":5005203,"subject_id":"90279","group":"Group2","full_date":"2025-11-22T04:06:31.203Z","date":"2025-11-22","time":"04:06:31"},{"task":"memory_phase","broad_category":"M","image_png":"M_Marble_02.png","image_id":226,"category_name":"Marble","category":15,"distinct_rating":3.2,"distinct_type":"Bottom","rt":null,"stimulus":"Stimuli_Rocks480/M_Marble_02.png","response":null,"trial_type":"image-keyboard-response","trial_index":222,"plugin_version":"2.1.0","time_elapsed":5007717,"subject_id":"90279","group":"Group2","full_date":"2025-11-22T04:06:31.203Z","date":"2025-11-22","time":"04:06:31"},{"rt":null,"stimulus":"<p style=\"font-size: 50px; margin: 0; text-align: center;\">+</p>","response":null,"trial_type":"html-keyboard-response","trial_index":223,"plugin_version":"2.1.0","time_elapsed":5008722,"subject_id":"90279","group":"Group2","full_date":"2025-11-22T04:06:31.203Z","date":"2025-11-22","time":"04:06:31"},{"task":"memory_phase","broad_category":"I","image_png":"I_Diorite_10.png","image_id":42,"category_name":"Diorite","category":3,"distinct_rating":2.84,"distinct_type":"Bottom","rt":null,"stimulus":"Stimuli_Rocks480/I_Diorite_10.png","response":null,"trial_type":"image-keyboard-response","trial_index":224,"plugin_version":"2.1.0","time_elapsed":5011247,"subject_id":"90279","group":"Group2","full_date":"2025-11-22T04:06:31.203Z","date":"2025-11-22","time":"04:06:31"},{"rt":null,"stimulus":"<p style=\"font-size: 50px; margin: 0; text-align: center;\">+</p>","response":null,"trial_type":"html-keyboard-response","trial_index":225,"plugin_version":"2.1.0","time_elapsed":5012264,"subject_id":"90279","group":"Group2","full_date":"2025-11-22T04:06:31.203Z","date":"2025-11-22","time":"04:06:31"},{"task":"memory_phase","broad_category":"I","image_png":"I_Pumice_01.png","image_id":129,"category_name":"Pumice","category":9,"distinct_rating":3.25,"distinct_type":"Bottom","rt":null,"stimulus":"Stimuli_Rocks480/I_Pumice_01.png","response":null,"trial_type":"image-keyboard-response","trial_index":226,"plugin_version":"2.1.0","time_elapsed":5014780,"subject_id":"90279","group":"Group2","full_date":"2025-11-22T04:06:31.203Z","date":"2025-11-22","time":"04:06:31"},{"rt":null,"stimulus":"<p style=\"font-size: 50px; margin: 0; text-align: center;\">+</p>","response":null,"trial_type":"html-keyboard-response","trial_index":227,"plugin_version":"2.1.0","time_elapsed":5015781,"subject_id":"90279","group":"Group2","full_date":"2025-11-22T04:06:31.203Z","date":"2025-11-22","time":"04:06:31"},{"task":"memory_phase","broad_category":"I","image_png":"I_Pegmatite_03.png","image_id":99,"category_name":"Pegmatite","category":7,"distinct_rating":7.24,"distinct_type":"Top","rt":null,"stimulus":"Stimuli_Rocks480/I_Pegmatite_03.png","response":null,"trial_type":"image-keyboard-response","trial_index":228,"plugin_version":"2.1.0","time_elapsed":5018297,"subject_id":"90279","group":"Group2","full_date":"2025-11-22T04:06:31.203Z","date":"2025-11-22","time":"04:06:31"},{"rt":null,"stimulus":"<p style=\"font-size: 50px; margin: 0; text-align: center;\">+</p>","response":null,"trial_type":"html-keyboard-response","trial_index":229,"plugin_version":"2.1.0","time_elapsed":5019326,"subject_id":"90279","group":"Group2","full_date":"2025-11-22T04:06:31.203Z","date":"2025-11-22","time":"04:06:31"},{"task":"memory_phase","broad_category":"I","image_png":"I_Diorite_15.png","image_id":47,"category_name":"Diorite","category":3,"distinct_rating":3.05,"distinct_type":"Bottom","rt":null,"stimulus":"Stimuli_Rocks480/I_Diorite_15.png","response":null,"trial_type":"image-keyboard-response","trial_index":230,"plugin_version":"2.1.0","time_elapsed":5021827,"subject_id":"90279","group":"Group2","full_date":"2025-11-22T04:06:31.203Z","date":"2025-11-22","time":"04:06:31"},{"rt":null,"stimulus":"<p style=\"font-size: 50px; margin: 0; text-align: center;\">+</p>","response":null,"trial_type":"html-keyboard-response","trial_index":231,"plugin_version":"2.1.0","time_elapsed":5022842,"subject_id":"90279","group":"Group2","full_date":"2025-11-22T04:06:31.203Z","date":"2025-11-22","time":"04:06:31"},{"task":"memory_phase","broad_category":"M","image_png":"M_Phyllite_05.png","image_id":261,"category_name":"Phyllite","category":17,"distinct_rating":2.14,"distinct_type":"Bottom","rt":null,"stimulus":"Stimuli_Rocks480/M_Phyllite_05.png","response":null,"trial_type":"image-keyboard-response","trial_index":232,"plugin_version":"2.1.0","time_elapsed":5025359,"subject_id":"90279","group":"Group2","full_date":"2025-11-22T04:06:31.203Z","date":"2025-11-22","time":"04:06:31"},{"rt":null,"stimulus":"<p style=\"font-size: 50px; margin: 0; text-align: center;\">+</p>","response":null,"trial_type":"html-keyboard-response","trial_index":233,"plugin_version":"2.1.0","time_elapsed":5026388,"subject_id":"90279","group":"Group2","full_date":"2025-11-22T04:06:31.203Z","date":"2025-11-22","time":"04:06:31"},{"task":"memory_phase","broad_category":"S","image_png":"S_Shale_07.png","image_id":471,"category_name":"Shale","category":30,"distinct_rating":2.73,"distinct_type":"Bottom","rt":null,"stimulus":"Stimuli_Rocks480/S_Shale_07.png","response":null,"trial_type":"image-keyboard-response","trial_index":234,"plugin_version":"2.1.0","time_elapsed":5028904,"subject_id":"90279","group":"Group2","full_date":"2025-11-22T04:06:31.203Z","date":"2025-11-22","time":"04:06:31"},{"rt":null,"stimulus":"<p style=\"font-size: 50px; margin: 0; text-align: center;\">+</p>","response":null,"trial_type":"html-keyboard-response","trial_index":235,"plugin_version":"2.1.0","time_elapsed":5029920,"subject_id":"90279","group":"Group2","full_date":"2025-11-22T04:06:31.203Z","date":"2025-11-22","time":"04:06:31"},{"task":"memory_phase","broad_category":"I","image_png":"I_Pumice_14.png","image_id":142,"category_name":"Pumice","category":9,"distinct_rating":3.22,"distinct_type":"Bottom","rt":null,"stimulus":"Stimuli_Rocks480/I_Pumice_14.png","response":null,"trial_type":"image-keyboard-response","trial_index":236,"plugin_version":"2.1.0","time_elapsed":5032435,"subject_id":"90279","group":"Group2","full_date":"2025-11-22T04:06:31.203Z","date":"2025-11-22","time":"04:06:31"},{"rt":null,"stimulus":"<p style=\"font-size: 50px; margin: 0; text-align: center;\">+</p>","response":null,"trial_type":"html-keyboard-response","trial_index":237,"plugin_version":"2.1.0","time_elapsed":5033437,"subject_id":"90279","group":"Group2","full_date":"2025-11-22T04:06:31.203Z","date":"2025-11-22","time":"04:06:31"},{"task":"memory_phase","broad_category":"I","image_png":"I_Basalt_13.png","image_id":29,"category_name":"Basalt","category":2,"distinct_rating":2.68,"distinct_type":"Bottom","rt":null,"stimulus":"Stimuli_Rocks480/I_Basalt_13.png","response":null,"trial_type":"image-keyboard-response","trial_index":238,"plugin_version":"2.1.0","time_elapsed":5035953,"subject_id":"90279","group":"Group2","full_date":"2025-11-22T04:06:31.203Z","date":"2025-11-22","time":"04:06:31"},{"rt":null,"stimulus":"<p style=\"font-size: 50px; margin: 0; text-align: center;\">+</p>","response":null,"trial_type":"html-keyboard-response","trial_index":239,"plugin_version":"2.1.0","time_elapsed":5036983,"subject_id":"90279","group":"Group2","full_date":"2025-11-22T04:06:31.203Z","date":"2025-11-22","time":"04:06:31"},{"task":"memory_phase","broad_category":"S","image_png":"S_Conglomerate_14.png","image_id":382,"category_name":"Conglomerate","category":24,"distinct_rating":6.86,"distinct_type":"Top","rt":null,"stimulus":"Stimuli_Rocks480/S_Conglomerate_14.png","response":null,"trial_type":"image-keyboard-response","trial_index":240,"plugin_version":"2.1.0","time_elapsed":5039498,"subject_id":"90279","group":"Group2","full_date":"2025-11-22T04:06:31.203Z","date":"2025-11-22","time":"04:06:31"},{"rt":null,"stimulus":"<p style=\"font-size: 50px; margin: 0; text-align: center;\">+</p>","response":null,"trial_type":"html-keyboard-response","trial_index":241,"plugin_version":"2.1.0","time_elapsed":5040514,"subject_id":"90279","group":"Group2","full_date":"2025-11-22T04:06:31.203Z","date":"2025-11-22","time":"04:06:31"},{"task":"memory_phase","broad_category":"I","image_png":"I_Andesite_09.png","image_id":9,"category_name":"Andesite","category":1,"distinct_rating":2.49,"distinct_type":"Bottom","rt":null,"stimulus":"Stimuli_Rocks480/I_Andesite_09.png","response":null,"trial_type":"image-keyboard-response","trial_index":242,"plugin_version":"2.1.0","time_elapsed":5043029,"subject_id":"90279","group":"Group2","full_date":"2025-11-22T04:06:31.203Z","date":"2025-11-22","time":"04:06:31"},{"rt":null,"stimulus":"<p style=\"font-size: 50px; margin: 0; text-align: center;\">+</p>","response":null,"trial_type":"html-keyboard-response","trial_index":243,"plugin_version":"2.1.0","time_elapsed":5044046,"subject_id":"90279","group":"Group2","full_date":"2025-11-22T04:06:31.203Z","date":"2025-11-22","time":"04:06:31"},{"task":"memory_phase","broad_category":"S","image_png":"S_Rock Salt_13.png","image_id":445,"category_name":"Rock Salt","category":28,"distinct_rating":7.58,"distinct_type":"Top","rt":null,"stimulus":"Stimuli_Rocks480/S_Rock Salt_13.png","response":null,"trial_type":"image-keyboard-response","trial_index":244,"plugin_version":"2.1.0","time_elapsed":5046562,"subject_id":"90279","group":"Group2","full_date":"2025-11-22T04:06:31.203Z","date":"2025-11-22","time":"04:06:31"},{"rt":null,"stimulus":"<p style=\"font-size: 50px; margin: 0; text-align: center;\">+</p>","response":null,"trial_type":"html-keyboard-response","trial_index":245,"plugin_version":"2.1.0","time_elapsed":5047592,"subject_id":"90279","group":"Group2","full_date":"2025-11-22T04:06:31.203Z","date":"2025-11-22","time":"04:06:31"},{"task":"memory_phase","broad_category":"S","image_png":"S_Rock Salt_15.png","image_id":447,"category_name":"Rock Salt","category":28,"distinct_rating":7.79,"distinct_type":"Top","rt":null,"stimulus":"Stimuli_Rocks480/S_Rock Salt_15.png","response":null,"trial_type":"image-keyboard-response","trial_index":246,"plugin_version":"2.1.0","time_elapsed":5050106,"subject_id":"90279","group":"Group2","full_date":"2025-11-22T04:06:31.203Z","date":"2025-11-22","time":"04:06:31"},{"rt":null,"stimulus":"<p style=\"font-size: 50px; margin: 0; text-align: center;\">+</p>","response":null,"trial_type":"html-keyboard-response","trial_index":247,"plugin_version":"2.1.0","time_elapsed":5051123,"subject_id":"90279","group":"Group2","full_date":"2025-11-22T04:06:31.203Z","date":"2025-11-22","time":"04:06:31"},{"task":"memory_phase","broad_category":"I","image_png":"I_Andesite_0