[{"width":1470,"height":920,"webaudio":true,"browser":"chrome","browser_version":"136.0.0","mobile":false,"os":"Mac OS","fullscreen":true,"vsync_rate":60.29,"webcam":true,"microphone":true,"trial_type":"browser-check","trial_index":0,"plugin_version":"2.1.0","time_elapsed":1004,"subject_id":"86969","group":"Group2","full_date":"2025-12-07T20:15:12.105Z","date":"2025-12-07","time":"20:15:12"},{"success":true,"timeout":false,"failed_images":[],"failed_audio":[],"failed_video":[],"trial_type":"preload","trial_index":1,"plugin_version":"2.1.0","time_elapsed":7498,"subject_id":"86969","group":"Group2","full_date":"2025-12-07T20:15:12.105Z","date":"2025-12-07","time":"20:15:12"},{"rt":114379,"url":"SONA_consent_memorability.html","trial_type":"external-html","trial_index":2,"plugin_version":"2.1.0","time_elapsed":121898,"subject_id":"86969","group":"Group2","full_date":"2025-12-07T20:15:12.105Z","date":"2025-12-07","time":"20:15:12"},{"success":true,"rt":1388,"trial_type":"fullscreen","trial_index":3,"plugin_version":"2.1.0","time_elapsed":124289,"subject_id":"86969","group":"Group2","full_date":"2025-12-07T20:15:12.105Z","date":"2025-12-07","time":"20:15:12"},{"rt":2215,"stimulus":"<div style=\"max-width: 760px; margin: auto; font-size: 20px; line-height: 1.5;\">\n      <h1 style=\"text-align:center; font-size: 30px;\">Instructions</h1>\n      <p>\n        Welcome to the study on <b>visual memory</b>. This experiment consists of <b>two phases</b>: \n        a <b>study phase</b> and a <b>test phase</b>.\n      </p>\n      <p>\n        In the study phase, you will see a series of rock images along with their category labels.\n        The images will appear one at a time.\n        <b>Your task</b> is to learn the categories to which the rock images belong \n        and to remember each image as accurately as possible.\n      </p> \n      <p>\n        Note that we will repeat the study phase <b>3 times</b>, \n        so you will have multiple opportunities to see and remember each image.\n      </p>\n      <p>\n        After the study phase, <b>your memory will be tested</b>. \n        Additional instructions for the test phase will be provided at that time.\n      </p>\n      <p>\n        If your computer has multiple <b>language settings</b> (e.g., English and another language),\n        please make sure it is set to English before starting.\n      </p>\n      <p>\n        You can track your progress using the <b>completion bar</b> at the top of the screen. \n        Please note that the bar will refresh when the test phase begins \n        to give you an accurate sense of your progress in both phases.\n      </p> \n      <p>\n        Press the button below when you are ready to begin.\n      </p>\n    </div>","response":0,"trial_type":"html-button-response","trial_index":4,"plugin_version":"2.1.0","time_elapsed":126507,"subject_id":"86969","group":"Group2","full_date":"2025-12-07T20:15:12.105Z","date":"2025-12-07","time":"20:15:12"},{"rt":null,"stimulus":"<p style=\"font-size: 50px; margin: 0; text-align: center;\">+</p>","response":null,"trial_type":"html-keyboard-response","trial_index":5,"plugin_version":"2.1.0","time_elapsed":127509,"subject_id":"86969","group":"Group2","full_date":"2025-12-07T20:15:12.105Z","date":"2025-12-07","time":"20:15:12"},{"task":"memory_phase","broad_category":"S","image_png":"S_Sandstone_04.png","image_id":452,"category_name":"Sandstone","category":29,"distinct_rating":1.8,"distinct_type":"Bottom","rt":null,"stimulus":"Stimuli_Rocks480/S_Sandstone_04.png","response":null,"trial_type":"image-keyboard-response","trial_index":6,"plugin_version":"2.1.0","time_elapsed":130013,"subject_id":"86969","group":"Group2","full_date":"2025-12-07T20:15:12.105Z","date":"2025-12-07","time":"20:15:12"},{"rt":null,"stimulus":"<p style=\"font-size: 50px; margin: 0; text-align: center;\">+</p>","response":null,"trial_type":"html-keyboard-response","trial_index":7,"plugin_version":"2.1.0","time_elapsed":131016,"subject_id":"86969","group":"Group2","full_date":"2025-12-07T20:15:12.105Z","date":"2025-12-07","time":"20:15:12"},{"task":"memory_phase","broad_category":"I","image_png":"I_Pegmatite_11.png","image_id":107,"category_name":"Pegmatite","category":7,"distinct_rating":7.11,"distinct_type":"Top","rt":null,"stimulus":"Stimuli_Rocks480/I_Pegmatite_11.png","response":null,"trial_type":"image-keyboard-response","trial_index":8,"plugin_version":"2.1.0","time_elapsed":133520,"subject_id":"86969","group":"Group2","full_date":"2025-12-07T20:15:12.105Z","date":"2025-12-07","time":"20:15:12"},{"rt":null,"stimulus":"<p style=\"font-size: 50px; margin: 0; text-align: center;\">+</p>","response":null,"trial_type":"html-keyboard-response","trial_index":9,"plugin_version":"2.1.0","time_elapsed":134523,"subject_id":"86969","group":"Group2","full_date":"2025-12-07T20:15:12.105Z","date":"2025-12-07","time":"20:15:12"},{"task":"memory_phase","broad_category":"I","image_png":"I_Pegmatite_03.png","image_id":99,"category_name":"Pegmatite","category":7,"distinct_rating":7.24,"distinct_type":"Top","rt":null,"stimulus":"Stimuli_Rocks480/I_Pegmatite_03.png","response":null,"trial_type":"image-keyboard-response","trial_index":10,"plugin_version":"2.1.0","time_elapsed":137027,"subject_id":"86969","group":"Group2","full_date":"2025-12-07T20:15:12.105Z","date":"2025-12-07","time":"20:15:12"},{"rt":null,"stimulus":"<p style=\"font-size: 50px; margin: 0; text-align: center;\">+</p>","response":null,"trial_type":"html-keyboard-response","trial_index":11,"plugin_version":"2.1.0","time_elapsed":138030,"subject_id":"86969","group":"Group2","full_date":"2025-12-07T20:15:12.105Z","date":"2025-12-07","time":"20:15:12"},{"task":"memory_phase","broad_category":"I","image_png":"I_Pumice_14.png","image_id":142,"category_name":"Pumice","category":9,"distinct_rating":3.22,"distinct_type":"Bottom","rt":null,"stimulus":"Stimuli_Rocks480/I_Pumice_14.png","response":null,"trial_type":"image-keyboard-response","trial_index":12,"plugin_version":"2.1.0","time_elapsed":140534,"subject_id":"86969","group":"Group2","full_date":"2025-12-07T20:15:12.105Z","date":"2025-12-07","time":"20:15:12"},{"rt":null,"stimulus":"<p style=\"font-size: 50px; margin: 0; text-align: center;\">+</p>","response":null,"trial_type":"html-keyboard-response","trial_index":13,"plugin_version":"2.1.0","time_elapsed":141536,"subject_id":"86969","group":"Group2","full_date":"2025-12-07T20:15:12.105Z","date":"2025-12-07","time":"20:15:12"},{"task":"memory_phase","broad_category":"S","image_png":"S_Sandstone_11.png","image_id":459,"category_name":"Sandstone","category":29,"distinct_rating":1.82,"distinct_type":"Bottom","rt":null,"stimulus":"Stimuli_Rocks480/S_Sandstone_11.png","response":null,"trial_type":"image-keyboard-response","trial_index":14,"plugin_version":"2.1.0","time_elapsed":144039,"subject_id":"86969","group":"Group2","full_date":"2025-12-07T20:15:12.105Z","date":"2025-12-07","time":"20:15:12"},{"rt":null,"stimulus":"<p style=\"font-size: 50px; margin: 0; text-align: center;\">+</p>","response":null,"trial_type":"html-keyboard-response","trial_index":15,"plugin_version":"2.1.0","time_elapsed":145042,"subject_id":"86969","group":"Group2","full_date":"2025-12-07T20:15:12.105Z","date":"2025-12-07","time":"20:15:12"},{"task":"memory_phase","broad_category":"M","image_png":"M_Quartzite_07.png","image_id":279,"category_name":"Quartzite","category":18,"distinct_rating":1.97,"distinct_type":"Bottom","rt":null,"stimulus":"Stimuli_Rocks480/M_Quartzite_07.png","response":null,"trial_type":"image-keyboard-response","trial_index":16,"plugin_version":"2.1.0","time_elapsed":147546,"subject_id":"86969","group":"Group2","full_date":"2025-12-07T20:15:12.105Z","date":"2025-12-07","time":"20:15:12"},{"rt":null,"stimulus":"<p style=\"font-size: 50px; margin: 0; text-align: center;\">+</p>","response":null,"trial_type":"html-keyboard-response","trial_index":17,"plugin_version":"2.1.0","time_elapsed":148548,"subject_id":"86969","group":"Group2","full_date":"2025-12-07T20:15:12.105Z","date":"2025-12-07","time":"20:15:12"},{"task":"memory_phase","broad_category":"I","image_png":"I_Obsidian_06.png","image_id":86,"category_name":"Obsidian","category":6,"distinct_rating":8.01,"distinct_type":"Top","rt":null,"stimulus":"Stimuli_Rocks480/I_Obsidian_06.png","response":null,"trial_type":"image-keyboard-response","trial_index":18,"plugin_version":"2.1.0","time_elapsed":151053,"subject_id":"86969","group":"Group2","full_date":"2025-12-07T20:15:12.105Z","date":"2025-12-07","time":"20:15:12"},{"rt":null,"stimulus":"<p style=\"font-size: 50px; margin: 0; text-align: center;\">+</p>","response":null,"trial_type":"html-keyboard-response","trial_index":19,"plugin_version":"2.1.0","time_elapsed":152055,"subject_id":"86969","group":"Group2","full_date":"2025-12-07T20:15:12.105Z","date":"2025-12-07","time":"20:15:12"},{"task":"memory_phase","broad_category":"I","image_png":"I_Peridotite_13.png","image_id":125,"category_name":"Peridotite","category":8,"distinct_rating":7.28,"distinct_type":"Top","rt":null,"stimulus":"Stimuli_Rocks480/I_Peridotite_13.png","response":null,"trial_type":"image-keyboard-response","trial_index":20,"plugin_version":"2.1.0","time_elapsed":154560,"subject_id":"86969","group":"Group2","full_date":"2025-12-07T20:15:12.105Z","date":"2025-12-07","time":"20:15:12"},{"rt":null,"stimulus":"<p style=\"font-size: 50px; margin: 0; text-align: center;\">+</p>","response":null,"trial_type":"html-keyboard-response","trial_index":21,"plugin_version":"2.1.0","time_elapsed":155563,"subject_id":"86969","group":"Group2","full_date":"2025-12-07T20:15:12.105Z","date":"2025-12-07","time":"20:15:12"},{"task":"memory_phase","broad_category":"S","image_png":"S_Dolomite_16.png","image_id":400,"category_name":"Dolomite","category":25,"distinct_rating":1.71,"distinct_type":"Bottom","rt":null,"stimulus":"Stimuli_Rocks480/S_Dolomite_16.png","response":null,"trial_type":"image-keyboard-response","trial_index":22,"plugin_version":"2.1.0","time_elapsed":158066,"subject_id":"86969","group":"Group2","full_date":"2025-12-07T20:15:12.105Z","date":"2025-12-07","time":"20:15:12"},{"rt":null,"stimulus":"<p style=\"font-size: 50px; margin: 0; text-align: center;\">+</p>","response":null,"trial_type":"html-keyboard-response","trial_index":23,"plugin_version":"2.1.0","time_elapsed":159069,"subject_id":"86969","group":"Group2","full_date":"2025-12-07T20:15:12.105Z","date":"2025-12-07","time":"20:15:12"},{"task":"memory_phase","broad_category":"S","image_png":"S_Shale_07.png","image_id":471,"category_name":"Shale","category":30,"distinct_rating":2.73,"distinct_type":"Bottom","rt":null,"stimulus":"Stimuli_Rocks480/S_Shale_07.png","response":null,"trial_type":"image-keyboard-response","trial_index":24,"plugin_version":"2.1.0","time_elapsed":161574,"subject_id":"86969","group":"Group2","full_date":"2025-12-07T20:15:12.105Z","date":"2025-12-07","time":"20:15:12"},{"rt":null,"stimulus":"<p style=\"font-size: 50px; margin: 0; text-align: center;\">+</p>","response":null,"trial_type":"html-keyboard-response","trial_index":25,"plugin_version":"2.1.0","time_elapsed":162577,"subject_id":"86969","group":"Group2","full_date":"2025-12-07T20:15:12.105Z","date":"2025-12-07","time":"20:15:12"},{"task":"memory_phase","broad_category":"I","image_png":"I_Rhyolite_05.png","image_id":149,"category_name":"Rhyolite","category":10,"distinct_rating":3.02,"distinct_type":"Bottom","rt":null,"stimulus":"Stimuli_Rocks480/I_Rhyolite_05.png","response":null,"trial_type":"image-keyboard-response","trial_index":26,"plugin_version":"2.1.0","time_elapsed":165081,"subject_id":"86969","group":"Group2","full_date":"2025-12-07T20:15:12.105Z","date":"2025-12-07","time":"20:15:12"},{"rt":null,"stimulus":"<p style=\"font-size: 50px; margin: 0; text-align: center;\">+</p>","response":null,"trial_type":"html-keyboard-response","trial_index":27,"plugin_version":"2.1.0","time_elapsed":166084,"subject_id":"86969","group":"Group2","full_date":"2025-12-07T20:15:12.105Z","date":"2025-12-07","time":"20:15:12"},{"task":"memory_phase","broad_category":"M","image_png":"M_Gneiss_10.png","image_id":202,"category_name":"Gneiss","category":13,"distinct_rating":3.09,"distinct_type":"Bottom","rt":null,"stimulus":"Stimuli_Rocks480/M_Gneiss_10.png","response":null,"trial_type":"image-keyboard-response","trial_index":28,"plugin_version":"2.1.0","time_elapsed":168588,"subject_id":"86969","group":"Group2","full_date":"2025-12-07T20:15:12.105Z","date":"2025-12-07","time":"20:15:12"},{"rt":null,"stimulus":"<p style=\"font-size: 50px; margin: 0; text-align: center;\">+</p>","response":null,"trial_type":"html-keyboard-response","trial_index":29,"plugin_version":"2.1.0","time_elapsed":169591,"subject_id":"86969","group":"Group2","full_date":"2025-12-07T20:15:12.105Z","date":"2025-12-07","time":"20:15:12"},{"task":"memory_phase","broad_category":"I","image_png":"I_Andesite_09.png","image_id":9,"category_name":"Andesite","category":1,"distinct_rating":2.49,"distinct_type":"Bottom","rt":null,"stimulus":"Stimuli_Rocks480/I_Andesite_09.png","response":null,"trial_type":"image-keyboard-response","trial_index":30,"plugin_version":"2.1.0","time_elapsed":172094,"subject_id":"86969","group":"Group2","full_date":"2025-12-07T20:15:12.105Z","date":"2025-12-07","time":"20:15:12"},{"rt":null,"stimulus":"<p style=\"font-size: 50px; margin: 0; text-align: center;\">+</p>","response":null,"trial_type":"html-keyboard-response","trial_index":31,"plugin_version":"2.1.0","time_elapsed":173097,"subject_id":"86969","group":"Group2","full_date":"2025-12-07T20:15:12.105Z","date":"2025-12-07","time":"20:15:12"},{"task":"memory_phase","broad_category":"M","image_png":"M_Quartzite_15.png","image_id":287,"category_name":"Quartzite","category":18,"distinct_rating":2.19,"distinct_type":"Bottom","rt":null,"stimulus":"Stimuli_Rocks480/M_Quartzite_15.png","response":null,"trial_type":"image-keyboard-response","trial_index":32,"plugin_version":"2.1.0","time_elapsed":175601,"subject_id":"86969","group":"Group2","full_date":"2025-12-07T20:15:12.105Z","date":"2025-12-07","time":"20:15:12"},{"rt":null,"stimulus":"<p style=\"font-size: 50px; margin: 0; text-align: center;\">+</p>","response":null,"trial_type":"html-keyboard-response","trial_index":33,"plugin_version":"2.1.0","time_elapsed":176603,"subject_id":"86969","group":"Group2","full_date":"2025-12-07T20:15:12.105Z","date":"2025-12-07","time":"20:15:12"},{"task":"memory_phase","broad_category":"I","image_png":"I_Diorite_01.png","image_id":33,"category_name":"Diorite","category":3,"distinct_rating":2.97,"distinct_type":"Bottom","rt":null,"stimulus":"Stimuli_Rocks480/I_Diorite_01.png","response":null,"trial_type":"image-keyboard-response","trial_index":34,"plugin_version":"2.1.0","time_elapsed":179107,"subject_id":"86969","group":"Group2","full_date":"2025-12-07T20:15:12.105Z","date":"2025-12-07","time":"20:15:12"},{"rt":null,"stimulus":"<p style=\"font-size: 50px; margin: 0; text-align: center;\">+</p>","response":null,"trial_type":"html-keyboard-response","trial_index":35,"plugin_version":"2.1.0","time_elapsed":180109,"subject_id":"86969","group":"Group2","full_date":"2025-12-07T20:15:12.105Z","date":"2025-12-07","time":"20:15:12"},{"task":"memory_phase","broad_category":"I","image_png":"I_Basalt_13.png","image_id":29,"category_name":"Basalt","category":2,"distinct_rating":2.68,"distinct_type":"Bottom","rt":null,"stimulus":"Stimuli_Rocks480/I_Basalt_13.png","response":null,"trial_type":"image-keyboard-response","trial_index":36,"plugin_version":"2.1.0","time_elapsed":182614,"subject_id":"86969","group":"Group2","full_date":"2025-12-07T20:15:12.105Z","date":"2025-12-07","time":"20:15:12"},{"rt":null,"stimulus":"<p style=\"font-size: 50px; margin: 0; text-align: center;\">+</p>","response":null,"trial_type":"html-keyboard-response","trial_index":37,"plugin_version":"2.1.0","time_elapsed":183616,"subject_id":"86969","group":"Group2","full_date":"2025-12-07T20:15:12.105Z","date":"2025-12-07","time":"20:15:12"},{"task":"memory_phase","broad_category":"I","image_png":"I_Diorite_15.png","image_id":47,"category_name":"Diorite","category":3,"distinct_rating":3.05,"distinct_type":"Bottom","rt":null,"stimulus":"Stimuli_Rocks480/I_Diorite_15.png","response":null,"trial_type":"image-keyboard-response","trial_index":38,"plugin_version":"2.1.0","time_elapsed":186120,"subject_id":"86969","group":"Group2","full_date":"2025-12-07T20:15:12.105Z","date":"2025-12-07","time":"20:15:12"},{"rt":null,"stimulus":"<p style=\"font-size: 50px; margin: 0; text-align: center;\">+</p>","response":null,"trial_type":"html-keyboard-response","trial_index":39,"plugin_version":"2.1.0","time_elapsed":187123,"subject_id":"86969","group":"Group2","full_date":"2025-12-07T20:15:12.105Z","date":"2025-12-07","time":"20:15:12"},{"task":"memory_phase","broad_category":"I","image_png":"I_Rhyolite_08.png","image_id":152,"category_name":"Rhyolite","category":10,"distinct_rating":1.38,"distinct_type":"Bottom","rt":null,"stimulus":"Stimuli_Rocks480/I_Rhyolite_08.png","response":null,"trial_type":"image-keyboard-response","trial_index":40,"plugin_version":"2.1.0","time_elapsed":189627,"subject_id":"86969","group":"Group2","full_date":"2025-12-07T20:15:12.105Z","date":"2025-12-07","time":"20:15:12"},{"rt":null,"stimulus":"<p style=\"font-size: 50px; margin: 0; text-align: center;\">+</p>","response":null,"trial_type":"html-keyboard-response","trial_index":41,"plugin_version":"2.1.0","time_elapsed":190630,"subject_id":"86969","group":"Group2","full_date":"2025-12-07T20:15:12.105Z","date":"2025-12-07","time":"20:15:12"},{"task":"memory_phase","broad_category":"M","image_png":"M_Marble_02.png","image_id":226,"category_name":"Marble","category":15,"distinct_rating":3.2,"distinct_type":"Bottom","rt":null,"stimulus":"Stimuli_Rocks480/M_Marble_02.png","response":null,"trial_type":"image-keyboard-response","trial_index":42,"plugin_version":"2.1.0","time_elapsed":193133,"subject_id":"86969","group":"Group2","full_date":"2025-12-07T20:15:12.105Z","date":"2025-12-07","time":"20:15:12"},{"rt":null,"stimulus":"<p style=\"font-size: 50px; margin: 0; text-align: center;\">+</p>","response":null,"trial_type":"html-keyboard-response","trial_index":43,"plugin_version":"2.1.0","time_elapsed":194136,"subject_id":"86969","group":"Group2","full_date":"2025-12-07T20:15:12.105Z","date":"2025-12-07","time":"20:15:12"},{"task":"memory_phase","broad_category":"M","image_png":"M_Slate_10.png","image_id":314,"category_name":"Slate","category":20,"distinct_rating":1.94,"distinct_type":"Bottom","rt":null,"stimulus":"Stimuli_Rocks480/M_Slate_10.png","response":null,"trial_type":"image-keyboard-response","trial_index":44,"plugin_version":"2.1.0","time_elapsed":196640,"subject_id":"86969","group":"Group2","full_date":"2025-12-07T20:15:12.105Z","date":"2025-12-07","time":"20:15:12"},{"rt":null,"stimulus":"<p style=\"font-size: 50px; margin: 0; text-align: center;\">+</p>","response":null,"trial_type":"html-keyboard-response","trial_index":45,"plugin_version":"2.1.0","time_elapsed":197642,"subject_id":"86969","group":"Group2","full_date":"2025-12-07T20:15:12.105Z","date":"2025-12-07","time":"20:15:12"},{"task":"memory_phase","broad_category":"M","image_png":"M_Gneiss_15.png","image_id":207,"category_name":"Gneiss","category":13,"distinct_rating":3.11,"distinct_type":"Bottom","rt":null,"stimulus":"Stimuli_Rocks480/M_Gneiss_15.png","response":null,"trial_type":"image-keyboard-response","trial_index":46,"plugin_version":"2.1.0","time_elapsed":200146,"subject_id":"86969","group":"Group2","full_date":"2025-12-07T20:15:12.105Z","date":"2025-12-07","time":"20:15:12"},{"rt":null,"stimulus":"<p style=\"font-size: 50px; margin: 0; text-align: center;\">+</p>","response":null,"trial_type":"html-keyboard-response","trial_index":47,"plugin_version":"2.1.0","time_elapsed":201149,"subject_id":"86969","group":"Group2","full_date":"2025-12-07T20:15:12.105Z","date":"2025-12-07","time":"20:15:12"},{"task":"memory_phase","broad_category":"S","image_png":"S_Rock Salt_15.png","image_id":447,"category_name":"Rock Salt","category":28,"distinct_rating":7.79,"distinct_type":"Top","rt":null,"stimulus":"Stimuli_Rocks480/S_Rock Salt_15.png","response":null,"trial_type":"image-keyboard-response","trial_index":48,"plugin_version":"2.1.0","time_elapsed":203652,"subject_id":"86969","group":"Group2","full_date":"2025-12-07T20:15:12.105Z","date":"2025-12-07","time":"20:15:12"},{"rt":null,"stimulus":"<p style=\"font-size: 50px; margin: 0; text-align: center;\">+</p>","response":null,"trial_type":"html-keyboard-response","trial_index":49,"plugin_version":"2.1.0","time_elapsed":204655,"subject_id":"86969","group":"Group2","full_date":"2025-12-07T20:15:12.105Z","date":"2025-12-07","time":"20:15:12"},{"task":"memory_phase","broad_category":"M","image_png":"M_Gneiss_14.png","image_id":206,"category_name":"Gneiss","category":13,"distinct_rating":3.41,"distinct_type":"Bottom","rt":null,"stimulus":"Stimuli_Rocks480/M_Gneiss_14.png","response":null,"trial_type":"image-keyboard-response","trial_index":50,"plugin_version":"2.1.0","time_elapsed":207159,"subject_id":"86969","group":"Group2","full_date":"2025-12-07T20:15:12.105Z","date":"2025-12-07","time":"20:15:12"},{"rt":null,"stimulus":"<p style=\"font-size: 50px; margin: 0; text-align: center;\">+</p>","response":null,"trial_type":"html-keyboard-response","trial_index":51,"plugin_version":"2.1.0","time_elapsed":208161,"subject_id":"86969","group":"Group2","full_date":"2025-12-07T20:15:12.105Z","date":"2025-12-07","time":"20:15:12"},{"task":"memory_phase","broad_category":"M","image_png":"M_Quartzite_12.png","image_id":284,"category_name":"Quartzite","category":18,"distinct_rating":1.92,"distinct_type":"Bottom","rt":null,"stimulus":"Stimuli_Rocks480/M_Quartzite_12.png","response":null,"trial_type":"image-keyboard-response","trial_index":52,"plugin_version":"2.1.0","time_elapsed":210666,"subject_id":"86969","group":"Group2","full_date":"2025-12-07T20:15:12.105Z","date":"2025-12-07","time":"20:15:12"},{"rt":null,"stimulus":"<p style=\"font-size: 50px; margin: 0; text-align: center;\">+</p>","response":null,"trial_type":"html-keyboard-response","trial_index":53,"plugin_version":"2.1.0","time_elapsed":211668,"subject_id":"86969","group":"Group2","full_date":"2025-12-07T20:15:12.105Z","date":"2025-12-07","time":"20:15:12"},{"task":"memory_phase","broad_category":"I","image_png":"I_Pumice_13.png","image_id":141,"category_name":"Pumice","category":9,"distinct_rating":3.12,"distinct_type":"Bottom","rt":null,"stimulus":"Stimuli_Rocks480/I_Pumice_13.png","response":null,"trial_type":"image-keyboard-response","trial_index":54,"plugin_version":"2.1.0","time_elapsed":214172,"subject_id":"86969","group":"Group2","full_date":"2025-12-07T20:15:12.105Z","date":"2025-12-07","time":"20:15:12"},{"rt":45399,"stimulus":"<p style=\"max-width: 760px; margin: auto; font-size: 35px; line-height: 1.5;\">Press SPACE to continue study phase</p>","response":" ","trial_type":"html-keyboard-response","trial_index":55,"plugin_version":"2.1.0","time_elapsed":259574,"subject_id":"86969","group":"Group2","full_date":"2025-12-07T20:15:12.105Z","date":"2025-12-07","time":"20:15:12"},{"rt":null,"stimulus":"<p style=\"font-size: 50px; margin: 0; text-align: center;\">+</p>","response":null,"trial_type":"html-keyboard-response","trial_index":56,"plugin_version":"2.1.0","time_elapsed":260576,"subject_id":"86969","group":"Group2","full_date":"2025-12-07T20:15:12.105Z","date":"2025-12-07","time":"20:15:12"},{"task":"memory_phase","broad_category":"S","image_png":"S_Conglomerate_14.png","image_id":382,"category_name":"Conglomerate","category":24,"distinct_rating":6.86,"distinct_type":"Top","rt":null,"stimulus":"Stimuli_Rocks480/S_Conglomerate_14.png","response":null,"trial_type":"image-keyboard-response","trial_index":57,"plugin_version":"2.1.0","time_elapsed":263081,"subject_id":"86969","group":"Group2","full_date":"2025-12-07T20:15:12.105Z","date":"2025-12-07","time":"20:15:12"},{"rt":null,"stimulus":"<p style=\"font-size: 50px; margin: 0; text-align: center;\">+</p>","response":null,"trial_type":"html-keyboard-response","trial_index":58,"plugin_version":"2.1.0","time_elapsed":264083,"subject_id":"86969","group":"Group2","full_date":"2025-12-07T20:15:12.105Z","date":"2025-12-07","time":"20:15:12"},{"task":"memory_phase","broad_category":"S","image_png":"S_Rock Salt_13.png","image_id":445,"category_name":"Rock Salt","category":28,"distinct_rating":7.58,"distinct_type":"Top","rt":null,"stimulus":"Stimuli_Rocks480/S_Rock Salt_13.png","response":null,"trial_type":"image-keyboard-response","trial_index":59,"plugin_version":"2.1.0","time_elapsed":266587,"subject_id":"86969","group":"Group2","full_date":"2025-12-07T20:15:12.105Z","date":"2025-12-07","time":"20:15:12"},{"rt":null,"stimulus":"<p style=\"font-size: 50px; margin: 0; text-align: center;\">+</p>","response":null,"trial_type":"html-keyboard-response","trial_index":60,"plugin_version":"2.1.0","time_elapsed":267590,"subject_id":"86969","group":"Group2","full_date":"2025-12-07T20:15:12.105Z","date":"2025-12-07","time":"20:15:12"},{"task":"memory_phase","broad_category":"M","image_png":"M_Marble_03.png","image_id":227,"category_name":"Marble","category":15,"distinct_rating":2.67,"distinct_type":"Bottom","rt":null,"stimulus":"Stimuli_Rocks480/M_Marble_03.png","response":null,"trial_type":"image-keyboard-response","trial_index":61,"plugin_version":"2.1.0","time_elapsed":270094,"subject_id":"86969","group":"Group2","full_date":"2025-12-07T20:15:12.105Z","date":"2025-12-07","time":"20:15:12"},{"rt":null,"stimulus":"<p style=\"font-size: 50px; margin: 0; text-align: center;\">+</p>","response":null,"trial_type":"html-keyboard-response","trial_index":62,"plugin_version":"2.1.0","time_elapsed":271096,"subject_id":"86969","group":"Group2","full_date":"2025-12-07T20:15:12.105Z","date":"2025-12-07","time":"20:15:12"},{"task":"memory_phase","broad_category":"M","image_png":"M_Marble_14.png","image_id":238,"category_name":"Marble","category":15,"distinct_rating":3.31,"distinct_type":"Bottom","rt":null,"stimulus":"Stimuli_Rocks480/M_Marble_14.png","response":null,"trial_type":"image-keyboard-response","trial_index":63,"plugin_version":"2.1.0","time_elapsed":273600,"subject_id":"86969","group":"Group2","full_date":"2025-12-07T20:15:12.105Z","date":"2025-12-07","time":"20:15:12"},{"rt":null,"stimulus":"<p style=\"font-size: 50px; margin: 0; text-align: center;\">+</p>","response":null,"trial_type":"html-keyboard-response","trial_index":64,"plugin_version":"2.1.0","time_elapsed":274601,"subject_id":"86969","group":"Group2","full_date":"2025-12-07T20:15:12.105Z","date":"2025-12-07","time":"20:15:12"},{"task":"memory_phase","broad_category":"I","image_png":"I_Basalt_10.png","image_id":26,"category_name":"Basalt","category":2,"distinct_rating":2.76,"distinct_type":"Bottom","rt":null,"stimulus":"Stimuli_Rocks480/I_Basalt_10.png","response":null,"trial_type":"image-keyboard-response","trial_index":65,"plugin_version":"2.1.0","time_elapsed":277105,"subject_id":"86969","group":"Group2","full_date":"2025-12-07T20:15:12.105Z","date":"2025-12-07","time":"20:15:12"},{"rt":null,"stimulus":"<p style=\"font-size: 50px; margin: 0; text-align: center;\">+</p>","response":null,"trial_type":"html-keyboard-response","trial_index":66,"plugin_version":"2.1.0","time_elapsed":278107,"subject_id":"86969","group":"Group2","full_date":"2025-12-07T20:15:12.105Z","date":"2025-12-07","time":"20:15:12"},{"task":"memory_phase","broad_category":"M","image_png":"M_Slate_04.png","image_id":308,"category_name":"Slate","category":20,"distinct_rating":2.2,"distinct_type":"Bottom","rt":null,"stimulus":"Stimuli_Rocks480/M_Slate_04.png","response":null,"trial_type":"image-keyboard-response","trial_index":67,"plugin_version":"2.1.0","time_elapsed":280612,"subject_id":"86969","group":"Group2","full_date":"2025-12-07T20:15:12.105Z","date":"2025-12-07","time":"20:15:12"},{"rt":null,"stimulus":"<p style=\"font-size: 50px; margin: 0; text-align: center;\">+</p>","response":null,"trial_type":"html-keyboard-response","trial_index":68,"plugin_version":"2.1.0","time_elapsed":281615,"subject_id":"86969","group":"Group2","full_date":"2025-12-07T20:15:12.105Z","date":"2025-12-07","time":"20:15:12"},{"task":"memory_phase","broad_category":"I","image_png":"I_Pumice_01.png","image_id":129,"category_name":"Pumice","category":9,"distinct_rating":3.25,"distinct_type":"Bottom","rt":null,"stimulus":"Stimuli_Rocks480/I_Pumice_01.png","response":null,"trial_type":"image-keyboard-response","trial_index":69,"plugin_version":"2.1.0","time_elapsed":284119,"subject_id":"86969","group":"Group2","full_date":"2025-12-07T20:15:12.105Z","date":"2025-12-07","time":"20:15:12"},{"rt":null,"stimulus":"<p style=\"font-size: 50px; margin: 0; text-align: center;\">+</p>","response":null,"trial_type":"html-keyboard-response","trial_index":70,"plugin_version":"2.1.0","time_elapsed":285121,"subject_id":"86969","group":"Group2","full_date":"2025-12-07T20:15:12.105Z","date":"2025-12-07","time":"20:15:12"},{"task":"memory_phase","broad_category":"S","image_png":"S_Chert_13.png","image_id":365,"category_name":"Chert","category":23,"distinct_rating":6.57,"distinct_type":"Top","rt":null,"stimulus":"Stimuli_Rocks480/S_Chert_13.png","response":null,"trial_type":"image-keyboard-response","trial_index":71,"plugin_version":"2.1.0","time_elapsed":287625,"subject_id":"86969","group":"Group2","full_date":"2025-12-07T20:15:12.105Z","date":"2025-12-07","time":"20:15:12"},{"rt":null,"stimulus":"<p style=\"font-size: 50px; margin: 0; text-align: center;\">+</p>","response":null,"trial_type":"html-keyboard-response","trial_index":72,"plugin_version":"2.1.0","time_elapsed":288627,"subject_id":"86969","group":"Group2","full_date":"2025-12-07T20:15:12.105Z","date":"2025-12-07","time":"20:15:12"},{"task":"memory_phase","broad_category":"I","image_png":"I_Diorite_10.png","image_id":42,"category_name":"Diorite","category":3,"distinct_rating":2.84,"distinct_type":"Bottom","rt":null,"stimulus":"Stimuli_Rocks480/I_Diorite_10.png","response":null,"trial_type":"image-keyboard-response","trial_index":73,"plugin_version":"2.1.0","time_elapsed":291130,"subject_id":"86969","group":"Group2","full_date":"2025-12-07T20:15:12.105Z","date":"2025-12-07","time":"20:15:12"},{"rt":null,"stimulus":"<p style=\"font-size: 50px; margin: 0; text-align: center;\">+</p>","response":null,"trial_type":"html-keyboard-response","trial_index":74,"plugin_version":"2.1.0","time_elapsed":292134,"subject_id":"86969","group":"Group2","full_date":"2025-12-07T20:15:12.105Z","date":"2025-12-07","time":"20:15:12"},{"task":"memory_phase","broad_category":"I","image_png":"I_Andesite_03.png","image_id":3,"category_name":"Andesite","category":1,"distinct_rating":3.17,"distinct_type":"Bottom","rt":null,"stimulus":"Stimuli_Rocks480/I_Andesite_03.png","response":null,"trial_type":"image-keyboard-response","trial_index":75,"plugin_version":"2.1.0","time_elapsed":294637,"subject_id":"86969","group":"Group2","full_date":"2025-12-07T20:15:12.105Z","date":"2025-12-07","time":"20:15:12"},{"rt":null,"stimulus":"<p style=\"font-size: 50px; margin: 0; text-align: center;\">+</p>","response":null,"trial_type":"html-keyboard-response","trial_index":76,"plugin_version":"2.1.0","time_elapsed":295640,"subject_id":"86969","group":"Group2","full_date":"2025-12-07T20:15:12.105Z","date":"2025-12-07","time":"20:15:12"},{"task":"memory_phase","broad_category":"S","image_png":"S_Shale_02.png","image_id":466,"category_name":"Shale","category":30,"distinct_rating":2.9,"distinct_type":"Bottom","rt":null,"stimulus":"Stimuli_Rocks480/S_Shale_02.png","response":null,"trial_type":"image-keyboard-response","trial_index":77,"plugin_version":"2.1.0","time_elapsed":298143,"subject_id":"86969","group":"Group2","full_date":"2025-12-07T20:15:12.105Z","date":"2025-12-07","time":"20:15:12"},{"rt":null,"stimulus":"<p style=\"font-size: 50px; margin: 0; text-align: center;\">+</p>","response":null,"trial_type":"html-keyboard-response","trial_index":78,"plugin_version":"2.1.0","time_elapsed":299146,"subject_id":"86969","group":"Group2","full_date":"2025-12-07T20:15:12.105Z","date":"2025-12-07","time":"20:15:12"},{"task":"memory_phase","broad_category":"I","image_png":"I_Rhyolite_10.png","image_id":154,"category_name":"Rhyolite","category":10,"distinct_rating":2.88,"distinct_type":"Bottom","rt":null,"stimulus":"Stimuli_Rocks480/I_Rhyolite_10.png","response":null,"trial_type":"image-keyboard-response","trial_index":79,"plugin_version":"2.1.0","time_elapsed":301649,"subject_id":"86969","group":"Group2","full_date":"2025-12-07T20:15:12.105Z","date":"2025-12-07","time":"20:15:12"},{"rt":null,"stimulus":"<p style=\"font-size: 50px; margin: 0; text-align: center;\">+</p>","response":null,"trial_type":"html-keyboard-response","trial_index":80,"plugin_version":"2.1.0","time_elapsed":302651,"subject_id":"86969","group":"Group2","full_date":"2025-12-07T20:15:12.105Z","date":"2025-12-07","time":"20:15:12"},{"task":"memory_phase","broad_category":"M","image_png":"M_Phyllite_05.png","image_id":261,"category_name":"Phyllite","category":17,"distinct_rating":2.14,"distinct_type":"Bottom","rt":null,"stimulus":"Stimuli_Rocks480/M_Phyllite_05.png","response":null,"trial_type":"image-keyboard-response","trial_index":81,"plugin_version":"2.1.0","time_elapsed":305155,"subject_id":"86969","group":"Group2","full_date":"2025-12-07T20:15:12.105Z","date":"2025-12-07","time":"20:15:12"},{"rt":null,"stimulus":"<p style=\"font-size: 50px; margin: 0; text-align: center;\">+</p>","response":null,"trial_type":"html-keyboard-response","trial_index":82,"plugin_version":"2.1.0","time_elapsed":306157,"subject_id":"86969","group":"Group2","full_date":"2025-12-07T20:15:12.105Z","date":"2025-12-07","time":"20:15:12"},{"task":"memory_phase","broad_category":"I","image_png":"I_Basalt_08.png","image_id":24,"category_name":"Basalt","category":2,"distinct_rating":2.31,"distinct_type":"Bottom","rt":null,"stimulus":"Stimuli_Rocks480/I_Basalt_08.png","response":null,"trial_type":"image-keyboard-response","trial_index":83,"plugin_version":"2.1.0","time_elapsed":308660,"subject_id":"86969","group":"Group2","full_date":"2025-12-07T20:15:12.105Z","date":"2025-12-07","time":"20:15:12"},{"rt":null,"stimulus":"<p style=\"font-size: 50px; margin: 0; text-align: center;\">+</p>","response":null,"trial_type":"html-keyboard-response","trial_index":84,"plugin_version":"2.1.0","time_elapsed":309663,"subject_id":"86969","group":"Group2","full_date":"2025-12-07T20:15:12.105Z","date":"2025-12-07","time":"20:15:12"},{"task":"memory_phase","broad_category":"S","image_png":"S_Sandstone_08.png","image_id":456,"category_name":"Sandstone","category":29,"distinct_rating":1.5,"distinct_type":"Bottom","rt":null,"stimulus":"Stimuli_Rocks480/S_Sandstone_08.png","response":null,"trial_type":"image-keyboard-response","trial_index":85,"plugin_version":"2.1.0","time_elapsed":312167,"subject_id":"86969","group":"Group2","full_date":"2025-12-07T20:15:12.105Z","date":"2025-12-07","time":"20:15:12"},{"rt":null,"stimulus":"<p style=\"font-size: 50px; margin: 0; text-align: center;\">+</p>","response":null,"trial_type":"html-keyboard-response","trial_index":86,"plugin_version":"2.1.0","time_elapsed":313170,"subject_id":"86969","group":"Group2","full_date":"2025-12-07T20:15:12.105Z","date":"2025-12-07","time":"20:15:12"},{"task":"memory_phase","broad_category":"I","image_png":"I_Andesite_04.png","image_id":4,"category_name":"Andesite","category":1,"distinct_rating":3.18,"distinct_type":"Bottom","rt":null,"stimulus":"Stimuli_Rocks480/I_Andesite_04.png","response":null,"trial_type":"image-keyboard-response","trial_index":87,"plugin_version":"2.1.0","time_elapsed":315674,"subject_id":"86969","group":"Group2","full_date":"2025-12-07T20:15:12.105Z","date":"2025-12-07","time":"20:15:12"},{"rt":null,"stimulus":"<p style=\"font-size: 50px; margin: 0; text-align: center;\">+</p>","response":null,"trial_type":"html-keyboard-response","trial_index":88,"plugin_version":"2.1.0","time_elapsed":316676,"subject_id":"86969","group":"Group2","full_date":"2025-12-07T20:15:12.105Z","date":"2025-12-07","time":"20:15:12"},{"task":"memory_phase","broad_category":"I","image_png":"I_Gabbro_14.png","image_id":62,"category_name":"Gabbro","category":4,"distinct_rating":2.95,"distinct_type":"Bottom","rt":null,"stimulus":"Stimuli_Rocks480/I_Gabbro_14.png","response":null,"trial_type":"image-keyboard-response","trial_index":89,"plugin_version":"2.1.0","time_elapsed":319180,"subject_id":"86969","group":"Group2","full_date":"2025-12-07T20:15:12.105Z","date":"2025-12-07","time":"20:15:12"},{"rt":null,"stimulus":"<p style=\"font-size: 50px; margin: 0; text-align: center;\">+</p>","response":null,"trial_type":"html-keyboard-response","trial_index":90,"plugin_version":"2.1.0","time_elapsed":320183,"subject_id":"86969","group":"Group2","full_date":"2025-12-07T20:15:12.105Z","date":"2025-12-07","time":"20:15:12"},{"task":"memory_phase","broad_category":"I","image_png":"I_Gabbro_02.png","image_id":50,"category_name":"Gabbro","category":4,"distinct_rating":2.73,"distinct_type":"Bottom","rt":null,"stimulus":"Stimuli_Rocks480/I_Gabbro_02.png","response":null,"trial_type":"image-keyboard-response","trial_index":91,"plugin_version":"2.1.0","time_elapsed":322687,"subject_id":"86969","group":"Group2","full_date":"2025-12-07T20:15:12.105Z","date":"2025-12-07","time":"20:15:12"},{"rt":null,"stimulus":"<p style=\"font-size: 50px; margin: 0; text-align: center;\">+</p>","response":null,"trial_type":"html-keyboard-response","trial_index":92,"plugin_version":"2.1.0","time_elapsed":323690,"subject_id":"86969","group":"Group2","full_date":"2025-12-07T20:15:12.105Z","date":"2025-12-07","time":"20:15:12"},{"task":"memory_phase","broad_category":"S","image_png":"S_Shale_03.png","image_id":467,"category_name":"Shale","category":30,"distinct_rating":1.95,"distinct_type":"Bottom","rt":null,"stimulus":"Stimuli_Rocks480/S_Shale_03.png","response":null,"trial_type":"image-keyboard-response","trial_index":93,"plugin_version":"2.1.0","time_elapsed":326193,"subject_id":"86969","group":"Group2","full_date":"2025-12-07T20:15:12.105Z","date":"2025-12-07","time":"20:15:12"},{"rt":null,"stimulus":"<p style=\"font-size: 50px; margin: 0; text-align: center;\">+</p>","response":null,"trial_type":"html-keyboard-response","trial_index":94,"plugin_version":"2.1.0","time_elapsed":327195,"subject_id":"86969","group":"Group2","full_date":"2025-12-07T20:15:12.105Z","date":"2025-12-07","time":"20:15:12"},{"task":"memory_phase","broad_category":"M","image_png":"M_Slate_14.png","image_id":318,"category_name":"Slate","category":20,"distinct_rating":2.58,"distinct_type":"Bottom","rt":null,"stimulus":"Stimuli_Rocks480/M_Slate_14.png","response":null,"trial_type":"image-keyboard-response","trial_index":95,"plugin_version":"2.1.0","time_elapsed":329699,"subject_id":"86969","group":"Group2","full_date":"2025-12-07T20:15:12.105Z","date":"2025-12-07","time":"20:15:12"},{"rt":null,"stimulus":"<p style=\"font-size: 50px; margin: 0; text-align: center;\">+</p>","response":null,"trial_type":"html-keyboard-response","trial_index":96,"plugin_version":"2.1.0","time_elapsed":330702,"subject_id":"86969","group":"Group2","full_date":"2025-12-07T20:15:12.105Z","date":"2025-12-07","time":"20:15:12"},{"task":"memory_phase","broad_category":"S","image_png":"S_Dolomite_01.png","image_id":385,"category_name":"Dolomite","category":25,"distinct_rating":1.43,"distinct_type":"Bottom","rt":null,"stimulus":"Stimuli_Rocks480/S_Dolomite_01.png","response":null,"trial_type":"image-keyboard-response","trial_index":97,"plugin_version":"2.1.0","time_elapsed":333205,"subject_id":"86969","group":"Group2","full_date":"2025-12-07T20:15:12.105Z","date":"2025-12-07","time":"20:15:12"},{"rt":null,"stimulus":"<p style=\"font-size: 50px; margin: 0; text-align: center;\">+</p>","response":null,"trial_type":"html-keyboard-response","trial_index":98,"plugin_version":"2.1.0","time_elapsed":334208,"subject_id":"86969","group":"Group2","full_date":"2025-12-07T20:15:12.105Z","date":"2025-12-07","time":"20:15:12"},{"task":"memory_phase","broad_category":"M","image_png":"M_Phyllite_13.png","image_id":269,"category_name":"Phyllite","category":17,"distinct_rating":2.8,"distinct_type":"Bottom","rt":null,"stimulus":"Stimuli_Rocks480/M_Phyllite_13.png","response":null,"trial_type":"image-keyboard-response","trial_index":99,"plugin_version":"2.1.0","time_elapsed":336716,"subject_id":"86969","group":"Group2","full_date":"2025-12-07T20:15:12.105Z","date":"2025-12-07","time":"20:15:12"},{"rt":null,"stimulus":"<p style=\"font-size: 50px; margin: 0; text-align: center;\">+</p>","response":null,"trial_type":"html-keyboard-response","trial_index":100,"plugin_version":"2.1.0","time_elapsed":337720,"subject_id":"86969","group":"Group2","full_date":"2025-12-07T20:15:12.105Z","date":"2025-12-07","time":"20:15:12"},{"task":"memory_phase","broad_category":"M","image_png":"M_Phyllite_02.png","image_id":258,"category_name":"Phyllite","category":17,"distinct_rating":2.89,"distinct_type":"Bottom","rt":null,"stimulus":"Stimuli_Rocks480/M_Phyllite_02.png","response":null,"trial_type":"image-keyboard-response","trial_index":101,"plugin_version":"2.1.0","time_elapsed":340223,"subject_id":"86969","group":"Group2","full_date":"2025-12-07T20:15:12.105Z","date":"2025-12-07","time":"20:15:12"},{"rt":null,"stimulus":"<p style=\"font-size: 50px; margin: 0; text-align: center;\">+</p>","response":null,"trial_type":"html-keyboard-response","trial_index":102,"plugin_version":"2.1.0","time_elapsed":341225,"subject_id":"86969","group":"Group2","full_date":"2025-12-07T20:15:12.105Z","date":"2025-12-07","time":"20:15:12"},{"task":"memory_phase","broad_category":"I","image_png":"I_Gabbro_12.png","image_id":60,"category_name":"Gabbro","category":4,"distinct_rating":2.6,"distinct_type":"Bottom","rt":null,"stimulus":"Stimuli_Rocks480/I_Gabbro_12.png","response":null,"trial_type":"image-keyboard-response","trial_index":103,"plugin_version":"2.1.0","time_elapsed":343729,"subject_id":"86969","group":"Group2","full_date":"2025-12-07T20:15:12.105Z","date":"2025-12-07","time":"20:15:12"},{"rt":null,"stimulus":"<p style=\"font-size: 50px; margin: 0; text-align: center;\">+</p>","response":null,"trial_type":"html-keyboard-response","trial_index":104,"plugin_version":"2.1.0","time_elapsed":344731,"subject_id":"86969","group":"Group2","full_date":"2025-12-07T20:15:12.105Z","date":"2025-12-07","time":"20:15:12"},{"task":"memory_phase","broad_category":"S","image_png":"S_Dolomite_07.png","image_id":391,"category_name":"Dolomite","category":25,"distinct_rating":1.73,"distinct_type":"Bottom","rt":null,"stimulus":"Stimuli_Rocks480/S_Dolomite_07.png","response":null,"trial_type":"image-keyboard-response","trial_index":105,"plugin_version":"2.1.0","time_elapsed":347234,"subject_id":"86969","group":"Group2","full_date":"2025-12-07T20:15:12.105Z","date":"2025-12-07","time":"20:15:12"},{"rt":47812,"stimulus":"<p style=\"max-width: 760px; margin: auto; font-size: 35px; line-height: 1.5;\">You have completed 1 study phase. Now, we'll show you all the images again 2 more times.<br><br>Press SPACE to continue</p>","response":" ","trial_type":"html-keyboard-response","trial_index":106,"plugin_version":"2.1.0","time_elapsed":395047,"subject_id":"86969","group":"Group2","full_date":"2025-12-07T20:15:12.105Z","date":"2025-12-07","time":"20:15:12"},{"rt":null,"stimulus":"<p style=\"font-size: 50px; margin: 0; text-align: center;\">+</p>","response":null,"trial_type":"html-keyboard-response","trial_index":107,"plugin_version":"2.1.0","time_elapsed":396048,"subject_id":"86969","group":"Group2","full_date":"2025-12-07T20:15:12.105Z","date":"2025-12-07","time":"20:15:12"},{"task":"memory_phase","broad_category":"I","image_png":"I_Gabbro_02.png","image_id":50,"category_name":"Gabbro","category":4,"distinct_rating":2.73,"distinct_type":"Bottom","rt":null,"stimulus":"Stimuli_Rocks480/I_Gabbro_02.png","response":null,"trial_type":"image-keyboard-response","trial_index":108,"plugin_version":"2.1.0","time_elapsed":398550,"subject_id":"86969","group":"Group2","full_date":"2025-12-07T20:15:12.105Z","date":"2025-12-07","time":"20:15:12"},{"rt":null,"stimulus":"<p style=\"font-size: 50px; margin: 0; text-align: center;\">+</p>","response":null,"trial_type":"html-keyboard-response","trial_index":109,"plugin_version":"2.1.0","time_elapsed":399552,"subject_id":"86969","group":"Group2","full_date":"2025-12-07T20:15:12.105Z","date":"2025-12-07","time":"20:15:12"},{"task":"memory_phase","broad_category":"M","image_png":"M_Marble_14.png","image_id":238,"category_name":"Marble","category":15,"distinct_rating":3.31,"distinct_type":"Bottom","rt":null,"stimulus":"Stimuli_Rocks480/M_Marble_14.png","response":null,"trial_type":"image-keyboard-response","trial_index":110,"plugin_version":"2.1.0","time_elapsed":402056,"subject_id":"86969","group":"Group2","full_date":"2025-12-07T20:15:12.105Z","date":"2025-12-07","time":"20:15:12"},{"rt":null,"stimulus":"<p style=\"font-size: 50px; margin: 0; text-align: center;\">+</p>","response":null,"trial_type":"html-keyboard-response","trial_index":111,"plugin_version":"2.1.0","time_elapsed":403059,"subject_id":"86969","group":"Group2","full_date":"2025-12-07T20:15:12.105Z","date":"2025-12-07","time":"20:15:12"},{"task":"memory_phase","broad_category":"M","image_png":"M_Phyllite_02.png","image_id":258,"category_name":"Phyllite","category":17,"distinct_rating":2.89,"distinct_type":"Bottom","rt":null,"stimulus":"Stimuli_Rocks480/M_Phyllite_02.png","response":null,"trial_type":"image-keyboard-response","trial_index":112,"plugin_version":"2.1.0","time_elapsed":405562,"subject_id":"86969","group":"Group2","full_date":"2025-12-07T20:15:12.105Z","date":"2025-12-07","time":"20:15:12"},{"rt":null,"stimulus":"<p style=\"font-size: 50px; margin: 0; text-align: center;\">+</p>","response":null,"trial_type":"html-keyboard-response","trial_index":113,"plugin_version":"2.1.0","time_elapsed":406565,"subject_id":"86969","group":"Group2","full_date":"2025-12-07T20:15:12.105Z","date":"2025-12-07","time":"20:15:12"},{"task":"memory_phase","broad_category":"I","image_png":"I_Obsidian_06.png","image_id":86,"category_name":"Obsidian","category":6,"distinct_rating":8.01,"distinct_type":"Top","rt":null,"stimulus":"Stimuli_Rocks480/I_Obsidian_06.png","response":null,"trial_type":"image-keyboard-response","trial_index":114,"plugin_version":"2.1.0","time_elapsed":409068,"subject_id":"86969","group":"Group2","full_date":"2025-12-07T20:15:12.105Z","date":"2025-12-07","time":"20:15:12"},{"rt":null,"stimulus":"<p style=\"font-size: 50px; margin: 0; text-align: center;\">+</p>","response":null,"trial_type":"html-keyboard-response","trial_index":115,"plugin_version":"2.1.0","time_elapsed":410071,"subject_id":"86969","group":"Group2","full_date":"2025-12-07T20:15:12.105Z","date":"2025-12-07","time":"20:15:12"},{"task":"memory_phase","broad_category":"I","image_png":"I_Rhyolite_05.png","image_id":149,"category_name":"Rhyolite","category":10,"distinct_rating":3.02,"distinct_type":"Bottom","rt":null,"stimulus":"Stimuli_Rocks480/I_Rhyolite_05.png","response":null,"trial_type":"image-keyboard-response","trial_index":116,"plugin_version":"2.1.0","time_elapsed":412574,"subject_id":"86969","group":"Group2","full_date":"2025-12-07T20:15:12.105Z","date":"2025-12-07","time":"20:15:12"},{"rt":null,"stimulus":"<p style=\"font-size: 50px; margin: 0; text-align: center;\">+</p>","response":null,"trial_type":"html-keyboard-response","trial_index":117,"plugin_version":"2.1.0","time_elapsed":413576,"subject_id":"86969","group":"Group2","full_date":"2025-12-07T20:15:12.105Z","date":"2025-12-07","time":"20:15:12"},{"task":"memory_phase","broad_category":"M","image_png":"M_Slate_10.png","image_id":314,"category_name":"Slate","category":20,"distinct_rating":1.94,"distinct_type":"Bottom","rt":null,"stimulus":"Stimuli_Rocks480/M_Slate_10.png","response":null,"trial_type":"image-keyboard-response","trial_index":118,"plugin_version":"2.1.0","time_elapsed":416079,"subject_id":"86969","group":"Group2","full_date":"2025-12-07T20:15:12.105Z","date":"2025-12-07","time":"20:15:12"},{"rt":null,"stimulus":"<p style=\"font-size: 50px; margin: 0; text-align: center;\">+</p>","response":null,"trial_type":"html-keyboard-response","trial_index":119,"plugin_version":"2.1.0","time_elapsed":417082,"subject_id":"86969","group":"Group2","full_date":"2025-12-07T20:15:12.105Z","date":"2025-12-07","time":"20:15:12"},{"task":"memory_phase","broad_category":"S","image_png":"S_Chert_13.png","image_id":365,"category_name":"Chert","category":23,"distinct_rating":6.57,"distinct_type":"Top","rt":null,"stimulus":"Stimuli_Rocks480/S_Chert_13.png","response":null,"trial_type":"image-keyboard-response","trial_index":120,"plugin_version":"2.1.0","time_elapsed":419586,"subject_id":"86969","group":"Group2","full_date":"2025-12-07T20:15:12.105Z","date":"2025-12-07","time":"20:15:12"},{"rt":null,"stimulus":"<p style=\"font-size: 50px; margin: 0; text-align: center;\">+</p>","response":null,"trial_type":"html-keyboard-response","trial_index":121,"plugin_version":"2.1.0","time_elapsed":420589,"subject_id":"86969","group":"Group2","full_date":"2025-12-07T20:15:12.105Z","date":"2025-12-07","time":"20:15:12"},{"task":"memory_phase","broad_category":"M","image_png":"M_Phyllite_13.png","image_id":269,"category_name":"Phyllite","category":17,"distinct_rating":2.8,"distinct_type":"Bottom","rt":null,"stimulus":"Stimuli_Rocks480/M_Phyllite_13.png","response":null,"trial_type":"image-keyboard-response","trial_index":122,"plugin_version":"2.1.0","time_elapsed":423092,"subject_id":"86969","group":"Group2","full_date":"2025-12-07T20:15:12.105Z","date":"2025-12-07","time":"20:15:12"},{"rt":null,"stimulus":"<p style=\"font-size: 50px; margin: 0; text-align: center;\">+</p>","response":null,"trial_type":"html-keyboard-response","trial_index":123,"plugin_version":"2.1.0","time_elapsed":424095,"subject_id":"86969","group":"Group2","full_date":"2025-12-07T20:15:12.105Z","date":"2025-12-07","time":"20:15:12"},{"task":"memory_phase","broad_category":"S","image_png":"S_Rock Salt_13.png","image_id":445,"category_name":"Rock Salt","category":28,"distinct_rating":7.58,"distinct_type":"Top","rt":null,"stimulus":"Stimuli_Rocks480/S_Rock Salt_13.png","response":null,"trial_type":"image-keyboard-response","trial_index":124,"plugin_version":"2.1.0","time_elapsed":426599,"subject_id":"86969","group":"Group2","full_date":"2025-12-07T20:15:12.105Z","date":"2025-12-07","time":"20:15:12"},{"rt":null,"stimulus":"<p style=\"font-size: 50px; margin: 0; text-align: center;\">+</p>","response":null,"trial_type":"html-keyboard-response","trial_index":125,"plugin_version":"2.1.0","time_elapsed":427601,"subject_id":"86969","group":"Group2","full_date":"2025-12-07T20:15:12.105Z","date":"2025-12-07","time":"20:15:12"},{"task":"memory_phase","broad_category":"S","image_png":"S_Dolomite_07.png","image_id":391,"category_name":"Dolomite","category":25,"distinct_rating":1.73,"distinct_type":"Bottom","rt":null,"stimulus":"Stimuli_Rocks480/S_Dolomite_07.png","response":null,"trial_type":"image-keyboard-response","trial_index":126,"plugin_version":"2.1.0","time_elapsed":430105,"subject_id":"86969","group":"Group2","full_date":"2025-12-07T20:15:12.105Z","date":"2025-12-07","time":"20:15:12"},{"rt":null,"stimulus":"<p style=\"font-size: 50px; margin: 0; text-align: center;\">+</p>","response":null,"trial_type":"html-keyboard-response","trial_index":127,"plugin_version":"2.1.0","time_elapsed":431108,"subject_id":"86969","group":"Group2","full_date":"2025-12-07T20:15:12.105Z","date":"2025-12-07","time":"20:15:12"},{"task":"memory_phase","broad_category":"I","image_png":"I_Pegmatite_11.png","image_id":107,"category_name":"Pegmatite","category":7,"distinct_rating":7.11,"distinct_type":"Top","rt":null,"stimulus":"Stimuli_Rocks480/I_Pegmatite_11.png","response":null,"trial_type":"image-keyboard-response","trial_index":128,"plugin_version":"2.1.0","time_elapsed":433613,"subject_id":"86969","group":"Group2","full_date":"2025-12-07T20:15:12.105Z","date":"2025-12-07","time":"20:15:12"},{"rt":null,"stimulus":"<p style=\"font-size: 50px; margin: 0; text-align: center;\">+</p>","response":null,"trial_type":"html-keyboard-response","trial_index":129,"plugin_version":"2.1.0","time_elapsed":434616,"subject_id":"86969","group":"Group2","full_date":"2025-12-07T20:15:12.105Z","date":"2025-12-07","time":"20:15:12"},{"task":"memory_phase","broad_category":"I","image_png":"I_Andesite_04.png","image_id":4,"category_name":"Andesite","category":1,"distinct_rating":3.18,"distinct_type":"Bottom","rt":null,"stimulus":"Stimuli_Rocks480/I_Andesite_04.png","response":null,"trial_type":"image-keyboard-response","trial_index":130,"plugin_version":"2.1.0","time_elapsed":437120,"subject_id":"86969","group":"Group2","full_date":"2025-12-07T20:15:12.105Z","date":"2025-12-07","time":"20:15:12"},{"rt":null,"stimulus":"<p style=\"font-size: 50px; margin: 0; text-align: center;\">+</p>","response":null,"trial_type":"html-keyboard-response","trial_index":131,"plugin_version":"2.1.0","time_elapsed":438123,"subject_id":"86969","group":"Group2","full_date":"2025-12-07T20:15:12.105Z","date":"2025-12-07","time":"20:15:12"},{"task":"memory_phase","broad_category":"S","image_png":"S_Rock Salt_15.png","image_id":447,"category_name":"Rock Salt","category":28,"distinct_rating":7.79,"distinct_type":"Top","rt":null,"stimulus":"Stimuli_Rocks480/S_Rock Salt_15.png","response":null,"trial_type":"image-keyboard-response","trial_index":132,"plugin_version":"2.1.0","time_elapsed":440627,"subject_id":"86969","group":"Group2","full_date":"2025-12-07T20:15:12.105Z","date":"2025-12-07","time":"20:15:12"},{"rt":null,"stimulus":"<p style=\"font-size: 50px; margin: 0; text-align: center;\">+</p>","response":null,"trial_type":"html-keyboard-response","trial_index":133,"plugin_version":"2.1.0","time_elapsed":441630,"subject_id":"86969","group":"Group2","full_date":"2025-12-07T20:15:12.105Z","date":"2025-12-07","time":"20:15:12"},{"task":"memory_phase","broad_category":"I","image_png":"I_Gabbro_12.png","image_id":60,"category_name":"Gabbro","category":4,"distinct_rating":2.6,"distinct_type":"Bottom","rt":null,"stimulus":"Stimuli_Rocks480/I_Gabbro_12.png","response":null,"trial_type":"image-keyboard-response","trial_index":134,"plugin_version":"2.1.0","time_elapsed":444134,"subject_id":"86969","group":"Group2","full_date":"2025-12-07T20:15:12.105Z","date":"2025-12-07","time":"20:15:12"},{"rt":null,"stimulus":"<p style=\"font-size: 50px; margin: 0; text-align: center;\">+</p>","response":null,"trial_type":"html-keyboard-response","trial_index":135,"plugin_version":"2.1.0","time_elapsed":445137,"subject_id":"86969","group":"Group2","full_date":"2025-12-07T20:15:12.105Z","date":"2025-12-07","time":"20:15:12"},{"task":"memory_phase","broad_category":"I","image_png":"I_Diorite_01.png","image_id":33,"category_name":"Diorite","category":3,"distinct_rating":2.97,"distinct_type":"Bottom","rt":null,"stimulus":"Stimuli_Rocks480/I_Diorite_01.png","response":null,"trial_type":"image-keyboard-response","trial_index":136,"plugin_version":"2.1.0","time_elapsed":447640,"subject_id":"86969","group":"Group2","full_date":"2025-12-07T20:15:12.105Z","date":"2025-12-07","time":"20:15:12"},{"rt":null,"stimulus":"<p style=\"font-size: 50px; margin: 0; text-align: center;\">+</p>","response":null,"trial_type":"html-keyboard-response","trial_index":137,"plugin_version":"2.1.0","time_elapsed":448642,"subject_id":"86969","group":"Group2","full_date":"2025-12-07T20:15:12.105Z","date":"2025-12-07","time":"20:15:12"},{"task":"memory_phase","broad_category":"M","image_png":"M_Phyllite_05.png","image_id":261,"category_name":"Phyllite","category":17,"distinct_rating":2.14,"distinct_type":"Bottom","rt":null,"stimulus":"Stimuli_Rocks480/M_Phyllite_05.png","response":null,"trial_type":"image-keyboard-response","trial_index":138,"plugin_version":"2.1.0","time_elapsed":451146,"subject_id":"86969","group":"Group2","full_date":"2025-12-07T20:15:12.105Z","date":"2025-12-07","time":"20:15:12"},{"rt":null,"stimulus":"<p style=\"font-size: 50px; margin: 0; text-align: center;\">+</p>","response":null,"trial_type":"html-keyboard-response","trial_index":139,"plugin_version":"2.1.0","time_elapsed":452147,"subject_id":"86969","group":"Group2","full_date":"2025-12-07T20:15:12.105Z","date":"2025-12-07","time":"20:15:12"},{"task":"memory_phase","broad_category":"M","image_png":"M_Marble_02.png","image_id":226,"category_name":"Marble","category":15,"distinct_rating":3.2,"distinct_type":"Bottom","rt":null,"stimulus":"Stimuli_Rocks480/M_Marble_02.png","response":null,"trial_type":"image-keyboard-response","trial_index":140,"plugin_version":"2.1.0","time_elapsed":454651,"subject_id":"86969","group":"Group2","full_date":"2025-12-07T20:15:12.105Z","date":"2025-12-07","time":"20:15:12"},{"rt":null,"stimulus":"<p style=\"font-size: 50px; margin: 0; text-align: center;\">+</p>","response":null,"trial_type":"html-keyboard-response","trial_index":141,"plugin_version":"2.1.0","time_elapsed":455653,"subject_id":"86969","group":"Group2","full_date":"2025-12-07T20:15:12.105Z","date":"2025-12-07","time":"20:15:12"},{"task":"memory_phase","broad_category":"M","image_png":"M_Marble_03.png","image_id":227,"category_name":"Marble","category":15,"distinct_rating":2.67,"distinct_type":"Bottom","rt":null,"stimulus":"Stimuli_Rocks480/M_Marble_03.png","response":null,"trial_type":"image-keyboard-response","trial_index":142,"plugin_version":"2.1.0","time_elapsed":458156,"subject_id":"86969","group":"Group2","full_date":"2025-12-07T20:15:12.105Z","date":"2025-12-07","time":"20:15:12"},{"rt":null,"stimulus":"<p style=\"font-size: 50px; margin: 0; text-align: center;\">+</p>","response":null,"trial_type":"html-keyboard-response","trial_index":143,"plugin_version":"2.1.0","time_elapsed":459159,"subject_id":"86969","group":"Group2","full_date":"2025-12-07T20:15:12.105Z","date":"2025-12-07","time":"20:15:12"},{"task":"memory_phase","broad_category":"I","image_png":"I_Pumice_01.png","image_id":129,"category_name":"Pumice","category":9,"distinct_rating":3.25,"distinct_type":"Bottom","rt":null,"stimulus":"Stimuli_Rocks480/I_Pumice_01.png","response":null,"trial_type":"image-keyboard-response","trial_index":144,"plugin_version":"2.1.0","time_elapsed":461663,"subject_id":"86969","group":"Group2","full_date":"2025-12-07T20:15:12.105Z","date":"2025-12-07","time":"20:15:12"},{"rt":null,"stimulus":"<p style=\"font-size: 50px; margin: 0; text-align: center;\">+</p>","response":null,"trial_type":"html-keyboard-response","trial_index":145,"plugin_version":"2.1.0","time_elapsed":462666,"subject_id":"86969","group":"Group2","full_date":"2025-12-07T20:15:12.105Z","date":"2025-12-07","time":"20:15:12"},{"task":"memory_phase","broad_category":"M","image_png":"M_Slate_14.png","image_id":318,"category_name":"Slate","category":20,"distinct_rating":2.58,"distinct_type":"Bottom","rt":null,"stimulus":"Stimuli_Rocks480/M_Slate_14.png","response":null,"trial_type":"image-keyboard-response","trial_index":146,"plugin_version":"2.1.0","time_elapsed":465170,"subject_id":"86969","group":"Group2","full_date":"2025-12-07T20:15:12.105Z","date":"2025-12-07","time":"20:15:12"},{"rt":null,"stimulus":"<p style=\"font-size: 50px; margin: 0; text-align: center;\">+</p>","response":null,"trial_type":"html-keyboard-response","trial_index":147,"plugin_version":"2.1.0","time_elapsed":466173,"subject_id":"86969","group":"Group2","full_date":"2025-12-07T20:15:12.105Z","date":"2025-12-07","time":"20:15:12"},{"task":"memory_phase","broad_category":"I","image_png":"I_Basalt_08.png","image_id":24,"category_name":"Basalt","category":2,"distinct_rating":2.31,"distinct_type":"Bottom","rt":null,"stimulus":"Stimuli_Rocks480/I_Basalt_08.png","response":null,"trial_type":"image-keyboard-response","trial_index":148,"plugin_version":"2.1.0","time_elapsed":468677,"subject_id":"86969","group":"Group2","full_date":"2025-12-07T20:15:12.105Z","date":"2025-12-07","time":"20:15:12"},{"rt":null,"stimulus":"<p style=\"font-size: 50px; margin: 0; text-align: center;\">+</p>","response":null,"trial_type":"html-keyboard-response","trial_index":149,"plugin_version":"2.1.0","time_elapsed":469680,"subject_id":"86969","group":"Group2","full_date":"2025-12-07T20:15:12.105Z","date":"2025-12-07","time":"20:15:12"},{"task":"memory_phase","broad_category":"I","image_png":"I_Rhyolite_08.png","image_id":152,"category_name":"Rhyolite","category":10,"distinct_rating":1.38,"distinct_type":"Bottom","rt":null,"stimulus":"Stimuli_Rocks480/I_Rhyolite_08.png","response":null,"trial_type":"image-keyboard-response","trial_index":150,"plugin_version":"2.1.0","time_elapsed":472184,"subject_id":"86969","group":"Group2","full_date":"2025-12-07T20:15:12.105Z","date":"2025-12-07","time":"20:15:12"},{"rt":null,"stimulus":"<p style=\"font-size: 50px; margin: 0; text-align: center;\">+</p>","response":null,"trial_type":"html-keyboard-response","trial_index":151,"plugin_version":"2.1.0","time_elapsed":473186,"subject_id":"86969","group":"Group2","full_date":"2025-12-07T20:15:12.105Z","date":"2025-12-07","time":"20:15:12"},{"task":"memory_phase","broad_category":"S","image_png":"S_Conglomerate_14.png","image_id":382,"category_name":"Conglomerate","category":24,"distinct_rating":6.86,"distinct_type":"Top","rt":null,"stimulus":"Stimuli_Rocks480/S_Conglomerate_14.png","response":null,"trial_type":"image-keyboard-response","trial_index":152,"plugin_version":"2.1.0","time_elapsed":475690,"subject_id":"86969","group":"Group2","full_date":"2025-12-07T20:15:12.105Z","date":"2025-12-07","time":"20:15:12"},{"rt":null,"stimulus":"<p style=\"font-size: 50px; margin: 0; text-align: center;\">+</p>","response":null,"trial_type":"html-keyboard-response","trial_index":153,"plugin_version":"2.1.0","time_elapsed":476693,"subject_id":"86969","group":"Group2","full_date":"2025-12-07T20:15:12.105Z","date":"2025-12-07","time":"20:15:12"},{"task":"memory_phase","broad_category":"I","image_png":"I_Peridotite_13.png","image_id":125,"category_name":"Peridotite","category":8,"distinct_rating":7.28,"distinct_type":"Top","rt":null,"stimulus":"Stimuli_Rocks480/I_Peridotite_13.png","response":null,"trial_type":"image-keyboard-response","trial_index":154,"plugin_version":"2.1.0","time_elapsed":479197,"subject_id":"86969","group":"Group2","full_date":"2025-12-07T20:15:12.105Z","date":"2025-12-07","time":"20:15:12"},{"rt":null,"stimulus":"<p style=\"font-size: 50px; margin: 0; text-align: center;\">+</p>","response":null,"trial_type":"html-keyboard-response","trial_index":155,"plugin_version":"2.1.0","time_elapsed":480200,"subject_id":"86969","group":"Group2","full_date":"2025-12-07T20:15:12.105Z","date":"2025-12-07","time":"20:15:12"},{"task":"memory_phase","broad_category":"I","image_png":"I_Pumice_14.png","image_id":142,"category_name":"Pumice","category":9,"distinct_rating":3.22,"distinct_type":"Bottom","rt":null,"stimulus":"Stimuli_Rocks480/I_Pumice_14.png","response":null,"trial_type":"image-keyboard-response","trial_index":156,"plugin_version":"2.1.0","time_elapsed":482703,"subject_id":"86969","group":"Group2","full_date":"2025-12-07T20:15:12.105Z","date":"2025-12-07","time":"20:15:12"},{"rt":11520,"stimulus":"<p style=\"max-width: 760px; margin: auto; font-size: 35px; line-height: 1.5;\">Press SPACE to continue study phase</p>","response":" ","trial_type":"html-keyboard-response","trial_index":157,"plugin_version":"2.1.0","time_elapsed":494225,"subject_id":"86969","group":"Group2","full_date":"2025-12-07T20:15:12.105Z","date":"2025-12-07","time":"20:15:12"},{"rt":null,"stimulus":"<p style=\"font-size: 50px; margin: 0; text-align: center;\">+</p>","response":null,"trial_type":"html-keyboard-response","trial_index":158,"plugin_version":"2.1.0","time_elapsed":495227,"subject_id":"86969","group":"Group2","full_date":"2025-12-07T20:15:12.105Z","date":"2025-12-07","time":"20:15:12"},{"task":"memory_phase","broad_category":"S","image_png":"S_Shale_02.png","image_id":466,"category_name":"Shale","category":30,"distinct_rating":2.9,"distinct_type":"Bottom","rt":null,"stimulus":"Stimuli_Rocks480/S_Shale_02.png","response":null,"trial_type":"image-keyboard-response","trial_index":159,"plugin_version":"2.1.0","time_elapsed":497731,"subject_id":"86969","group":"Group2","full_date":"2025-12-07T20:15:12.105Z","date":"2025-12-07","time":"20:15:12"},{"rt":null,"stimulus":"<p style=\"font-size: 50px; margin: 0; text-align: center;\">+</p>","response":null,"trial_type":"html-keyboard-response","trial_index":160,"plugin_version":"2.1.0","time_elapsed":498734,"subject_id":"86969","group":"Group2","full_date":"2025-12-07T20:15:12.105Z","date":"2025-12-07","time":"20:15:12"},{"task":"memory_phase","broad_category":"M","image_png":"M_Gneiss_15.png","image_id":207,"category_name":"Gneiss","category":13,"distinct_rating":3.11,"distinct_type":"Bottom","rt":null,"stimulus":"Stimuli_Rocks480/M_Gneiss_15.png","response":null,"trial_type":"image-keyboard-response","trial_index":161,"plugin_version":"2.1.0","time_elapsed":501238,"subject_id":"86969","group":"Group2","full_date":"2025-12-07T20:15:12.105Z","date":"2025-12-07","time":"20:15:12"},{"rt":null,"stimulus":"<p style=\"font-size: 50px; margin: 0; text-align: center;\">+</p>","response":null,"trial_type":"html-keyboard-response","trial_index":162,"plugin_version":"2.1.0","time_elapsed":502240,"subject_id":"86969","group":"Group2","full_date":"2025-12-07T20:15:12.105Z","date":"2025-12-07","time":"20:15:12"},{"task":"memory_phase","broad_category":"I","image_png":"I_Basalt_13.png","image_id":29,"category_name":"Basalt","category":2,"distinct_rating":2.68,"distinct_type":"Bottom","rt":null,"stimulus":"Stimuli_Rocks480/I_Basalt_13.png","response":null,"trial_type":"image-keyboard-response","trial_index":163,"plugin_version":"2.1.0","time_elapsed":504744,"subject_id":"86969","group":"Group2","full_date":"2025-12-07T20:15:12.105Z","date":"2025-12-07","time":"20:15:12"},{"rt":null,"stimulus":"<p style=\"font-size: 50px; margin: 0; text-align: center;\">+</p>","response":null,"trial_type":"html-keyboard-response","trial_index":164,"plugin_version":"2.1.0","time_elapsed":505746,"subject_id":"86969","group":"Group2","full_date":"2025-12-07T20:15:12.105Z","date":"2025-12-07","time":"20:15:12"},{"task":"memory_phase","broad_category":"I","image_png":"I_Diorite_10.png","image_id":42,"category_name":"Diorite","category":3,"distinct_rating":2.84,"distinct_type":"Bottom","rt":null,"stimulus":"Stimuli_Rocks480/I_Diorite_10.png","response":null,"trial_type":"image-keyboard-response","trial_index":165,"plugin_version":"2.1.0","time_elapsed":508250,"subject_id":"86969","group":"Group2","full_date":"2025-12-07T20:15:12.105Z","date":"2025-12-07","time":"20:15:12"},{"rt":null,"stimulus":"<p style=\"font-size: 50px; margin: 0; text-align: center;\">+</p>","response":null,"trial_type":"html-keyboard-response","trial_index":166,"plugin_version":"2.1.0","time_elapsed":509253,"subject_id":"86969","group":"Group2","full_date":"2025-12-07T20:15:12.105Z","date":"2025-12-07","time":"20:15:12"},{"task":"memory_phase","broad_category":"S","image_png":"S_Sandstone_04.png","image_id":452,"category_name":"Sandstone","category":29,"distinct_rating":1.8,"distinct_type":"Bottom","rt":null,"stimulus":"Stimuli_Rocks480/S_Sandstone_04.png","response":null,"trial_type":"image-keyboard-response","trial_index":167,"plugin_version":"2.1.0","time_elapsed":511757,"subject_id":"86969","group":"Group2","full_date":"2025-12-07T20:15:12.105Z","date":"2025-12-07","time":"20:15:12"},{"rt":null,"stimulus":"<p style=\"font-size: 50px; margin: 0; text-align: center;\">+</p>","response":null,"trial_type":"html-keyboard-response","trial_index":168,"plugin_version":"2.1.0","time_elapsed":512760,"subject_id":"86969","group":"Group2","full_date":"2025-12-07T20:15:12.105Z","date":"2025-12-07","time":"20:15:12"},{"task":"memory_phase","broad_category":"M","image_png":"M_Quartzite_12.png","image_id":284,"category_name":"Quartzite","category":18,"distinct_rating":1.92,"distinct_type":"Bottom","rt":null,"stimulus":"Stimuli_Rocks480/M_Quartzite_12.png","response":null,"trial_type":"image-keyboard-response","trial_index":169,"plugin_version":"2.1.0","time_elapsed":515264,"subject_id":"86969","group":"Group2","full_date":"2025-12-07T20:15:12.105Z","date":"2025-12-07","time":"20:15:12"},{"rt":null,"stimulus":"<p style=\"font-size: 50px; margin: 0; text-align: center;\">+</p>","response":null,"trial_type":"html-keyboard-response","trial_index":170,"plugin_version":"2.1.0","time_elapsed":516267,"subject_id":"86969","group":"Group2","full_date":"2025-12-07T20:15:12.105Z","date":"2025-12-07","time":"20:15:12"},{"task":"memory_phase","broad_category":"I","image_png":"I_Pegmatite_03.png","image_id":99,"category_name":"Pegmatite","category":7,"distinct_rating":7.24,"distinct_type":"Top","rt":null,"stimulus":"Stimuli_Rocks480/I_Pegmatite_03.png","response":null,"trial_type":"image-keyboard-response","trial_index":171,"plugin_version":"2.1.0","time_elapsed":518770,"subject_id":"86969","group":"Group2","full_date":"2025-12-07T20:15:12.105Z","date":"2025-12-07","time":"20:15:12"},{"rt":null,"stimulus":"<p style=\"font-size: 50px; margin: 0; text-align: center;\">+</p>","response":null,"trial_type":"html-keyboard-response","trial_index":172,"plugin_version":"2.1.0","time_elapsed":519772,"subject_id":"86969","group":"Group2","full_date":"2025-12-07T20:15:12.105Z","date":"2025-12-07","time":"20:15:12"},{"task":"memory_phase","broad_category":"S","image_png":"S_Dolomite_01.png","image_id":385,"category_name":"Dolomite","category":25,"distinct_rating":1.43,"distinct_type":"Bottom","rt":null,"stimulus":"Stimuli_Rocks480/S_Dolomite_01.png","response":null,"trial_type":"image-keyboard-response","trial_index":173,"plugin_version":"2.1.0","time_elapsed":522276,"subject_id":"86969","group":"Group2","full_date":"2025-12-07T20:15:12.105Z","date":"2025-12-07","time":"20:15:12"},{"rt":null,"stimulus":"<p style=\"font-size: 50px; margin: 0; text-align: center;\">+</p>","response":null,"trial_type":"html-keyboard-response","trial_index":174,"plugin_version":"2.1.0","time_elapsed":523279,"subject_id":"86969","group":"Group2","full_date":"2025-12-07T20:15:12.105Z","date":"2025-12-07","time":"20:15:12"},{"task":"memory_phase","broad_category":"I","image_png":"I_Andesite_09.png","image_id":9,"category_name":"Andesite","category":1,"distinct_rating":2.49,"distinct_type":"Bottom","rt":null,"stimulus":"Stimuli_Rocks480/I_Andesite_09.png","response":null,"trial_type":"image-keyboard-response","trial_index":175,"plugin_version":"2.1.0","time_elapsed":525783,"subject_id":"86969","group":"Group2","full_date":"2025-12-07T20:15:12.105Z","date":"2025-12-07","time":"20:15:12"},{"rt":null,"stimulus":"<p style=\"font-size: 50px; margin: 0; text-align: center;\">+</p>","response":null,"trial_type":"html-keyboard-response","trial_index":176,"plugin_version":"2.1.0","time_elapsed":526786,"subject_id":"86969","group":"Group2","full_date":"2025-12-07T20:15:12.105Z","date":"2025-12-07","time":"20:15:12"},{"task":"memory_phase","broad_category":"S","image_png":"S_Dolomite_16.png","image_id":400,"category_name":"Dolomite","category":25,"distinct_rating":1.71,"distinct_type":"Bottom","rt":null,"stimulus":"Stimuli_Rocks480/S_Dolomite_16.png","response":null,"trial_type":"image-keyboard-response","trial_index":177,"plugin_version":"2.1.0","time_elapsed":529289,"subject_id":"86969","group":"Group2","full_date":"2025-12-07T20:15:12.105Z","date":"2025-12-07","time":"20:15:12"},{"rt":null,"stimulus":"<p style=\"font-size: 50px; margin: 0; text-align: center;\">+</p>","response":null,"trial_type":"html-keyboard-response","trial_index":178,"plugin_version":"2.1.0","time_elapsed":530292,"subject_id":"86969","group":"Group2","full_date":"2025-12-07T20:15:12.105Z","date":"2025-12-07","time":"20:15:12"},{"task":"memory_phase","broad_category":"M","image_png":"M_Slate_04.png","image_id":308,"category_name":"Slate","category":20,"distinct_rating":2.2,"distinct_type":"Bottom","rt":null,"stimulus":"Stimuli_Rocks480/M_Slate_04.png","response":null,"trial_type":"image-keyboard-response","trial_index":179,"plugin_version":"2.1.0","time_elapsed":532796,"subject_id":"86969","group":"Group2","full_date":"2025-12-07T20:15:12.105Z","date":"2025-12-07","time":"20:15:12"},{"rt":null,"stimulus":"<p style=\"font-size: 50px; margin: 0; text-align: center;\">+</p>","response":null,"trial_type":"html-keyboard-response","trial_index":180,"plugin_version":"2.1.0","time_elapsed":533798,"subject_id":"86969","group":"Group2","full_date":"2025-12-07T20:15:12.105Z","date":"2025-12-07","time":"20:15:12"},{"task":"memory_phase","broad_category":"I","image_png":"I_Basalt_10.png","image_id":26,"category_name":"Basalt","category":2,"distinct_rating":2.76,"distinct_type":"Bottom","rt":null,"stimulus":"Stimuli_Rocks480/I_Basalt_10.png","response":null,"trial_type":"image-keyboard-response","trial_index":181,"plugin_version":"2.1.0","time_elapsed":536302,"subject_id":"86969","group":"Group2","full_date":"2025-12-07T20:15:12.105Z","date":"2025-12-07","time":"20:15:12"},{"rt":null,"stimulus":"<p style=\"font-size: 50px; margin: 0; text-align: center;\">+</p>","response":null,"trial_type":"html-keyboard-response","trial_index":182,"plugin_version":"2.1.0","time_elapsed":537304,"subject_id":"86969","group":"Group2","full_date":"2025-12-07T20:15:12.105Z","date":"2025-12-07","time":"20:15:12"},{"task":"memory_phase","broad_category":"M","image_png":"M_Gneiss_14.png","image_id":206,"category_name":"Gneiss","category":13,"distinct_rating":3.41,"distinct_type":"Bottom","rt":null,"stimulus":"Stimuli_Rocks480/M_Gneiss_14.png","response":null,"trial_type":"image-keyboard-response","trial_index":183,"plugin_version":"2.1.0","time_elapsed":539808,"subject_id":"86969","group":"Group2","full_date":"2025-12-07T20:15:12.105Z","date":"2025-12-07","time":"20:15:12"},{"rt":null,"stimulus":"<p style=\"font-size: 50px; margin: 0; text-align: center;\">+</p>","response":null,"trial_type":"html-keyboard-response","trial_index":184,"plugin_version":"2.1.0","time_elapsed":540810,"subject_id":"86969","group":"Group2","full_date":"2025-12-07T20:15:12.105Z","date":"2025-12-07","time":"20:15:12"},{"task":"memory_phase","broad_category":"I","image_png":"I_Diorite_15.png","image_id":47,"category_name":"Diorite","category":3,"distinct_rating":3.05,"distinct_type":"Bottom","rt":null,"stimulus":"Stimuli_Rocks480/I_Diorite_15.png","response":null,"trial_type":"image-keyboard-response","trial_index":185,"plugin_version":"2.1.0","time_elapsed":543314,"subject_id":"86969","group":"Group2","full_date":"2025-12-07T20:15:12.105Z","date":"2025-12-07","time":"20:15:12"},{"rt":null,"stimulus":"<p style=\"font-size: 50px; margin: 0; text-align: center;\">+</p>","response":null,"trial_type":"html-keyboard-response","trial_index":186,"plugin_version":"2.1.0","time_elapsed":544317,"subject_id":"86969","group":"Group2","full_date":"2025-12-07T20:15:12.105Z","date":"2025-12-07","time":"20:15:12"},{"task":"memory_phase","broad_category":"I","image_png":"I_Gabbro_14.png","image_id":62,"category_name":"Gabbro","category":4,"distinct_rating":2.95,"distinct_type":"Bottom","rt":null,"stimulus":"Stimuli_Rocks480/I_Gabbro_14.png","response":null,"trial_type":"image-keyboard-response","trial_index":187,"plugin_version":"2.1.0","time_elapsed":546822,"subject_id":"86969","group":"Group2","full_date":"2025-12-07T20:15:12.105Z","date":"2025-12-07","time":"20:15:12"},{"rt":null,"stimulus":"<p style=\"font-size: 50px; margin: 0; text-align: center;\">+</p>","response":null,"trial_type":"html-keyboard-response","trial_index":188,"plugin_version":"2.1.0","time_elapsed":547824,"subject_id":"86969","group":"Group2","full_date":"2025-12-07T20:15:12.105Z","date":"2025-12-07","time":"20:15:12"},{"task":"memory_phase","broad_category":"I","image_png":"I_Rhyolite_10.png","image_id":154,"category_name":"Rhyolite","category":10,"distinct_rating":2.88,"distinct_type":"Bottom","rt":null,"stimulus":"Stimuli_Rocks480/I_Rhyolite_10.png","response":null,"trial_type":"image-keyboard-response","trial_index":189,"plugin_version":"2.1.0","time_elapsed":550328,"subject_id":"86969","group":"Group2","full_date":"2025-12-07T20:15:12.105Z","date":"2025-12-07","time":"20:15:12"},{"rt":null,"stimulus":"<p style=\"font-size: 50px; margin: 0; text-align: center;\">+</p>","response":null,"trial_type":"html-keyboard-response","trial_index":190,"plugin_version":"2.1.0","time_elapsed":551331,"subject_id":"86969","group":"Group2","full_date":"2025-12-07T20:15:12.105Z","date":"2025-12-07","time":"20:15:12"},{"task":"memory_phase","broad_category":"I","image_png":"I_Pumice_13.png","image_id":141,"category_name":"Pumice","category":9,"distinct_rating":3.12,"distinct_type":"Bottom","rt":null,"stimulus":"Stimuli_Rocks480/I_Pumice_13.png","response":null,"trial_type":"image-keyboard-response","trial_index":191,"plugin_version":"2.1.0","time_elapsed":553835,"subject_id":"86969","group":"Group2","full_date":"2025-12-07T20:15:12.105Z","date":"2025-12-07","time":"20:15:12"},{"rt":null,"stimulus":"<p style=\"font-size: 50px; margin: 0; text-align: center;\">+</p>","response":null,"trial_type":"html-keyboard-response","trial_index":192,"plugin_version":"2.1.0","time_elapsed":554838,"subject_id":"86969","group":"Group2","full_date":"2025-12-07T20:15:12.105Z","date":"2025-12-07","time":"20:15:12"},{"task":"memory_phase","broad_category":"S","image_png":"S_Shale_07.png","image_id":471,"category_name":"Shale","category":30,"distinct_rating":2.73,"distinct_type":"Bottom","rt":null,"stimulus":"Stimuli_Rocks480/S_Shale_07.png","response":null,"trial_type":"image-keyboard-response","trial_index":193,"plugin_version":"2.1.0","time_elapsed":557342,"subject_id":"86969","group":"Group2","full_date":"2025-12-07T20:15:12.105Z","date":"2025-12-07","time":"20:15:12"},{"rt":null,"stimulus":"<p style=\"font-size: 50px; margin: 0; text-align: center;\">+</p>","response":null,"trial_type":"html-keyboard-response","trial_index":194,"plugin_version":"2.1.0","time_elapsed":558344,"subject_id":"86969","group":"Group2","full_date":"2025-12-07T20:15:12.105Z","date":"2025-12-07","time":"20:15:12"},{"task":"memory_phase","broad_category":"S","image_png":"S_Sandstone_08.png","image_id":456,"category_name":"Sandstone","category":29,"distinct_rating":1.5,"distinct_type":"Bottom","rt":null,"stimulus":"Stimuli_Rocks480/S_Sandstone_08.png","response":null,"trial_type":"image-keyboard-response","trial_index":195,"plugin_version":"2.1.0","time_elapsed":560847,"subject_id":"86969","group":"Group2","full_date":"2025-12-07T20:15:12.105Z","date":"2025-12-07","time":"20:15:12"},{"rt":null,"stimulus":"<p style=\"font-size: 50px; margin: 0; text-align: center;\">+</p>","response":null,"trial_type":"html-keyboard-response","trial_index":196,"plugin_version":"2.1.0","time_elapsed":561849,"subject_id":"86969","group":"Group2","full_date":"2025-12-07T20:15:12.105Z","date":"2025-12-07","time":"20:15:12"},{"task":"memory_phase","broad_category":"S","image_png":"S_Shale_03.png","image_id":467,"category_name":"Shale","category":30,"distinct_rating":1.95,"distinct_type":"Bottom","rt":null,"stimulus":"Stimuli_Rocks480/S_Shale_03.png","response":null,"trial_type":"image-keyboard-response","trial_index":197,"plugin_version":"2.1.0","time_elapsed":564354,"subject_id":"86969","group":"Group2","full_date":"2025-12-07T20:15:12.105Z","date":"2025-12-07","time":"20:15:12"},{"rt":null,"stimulus":"<p style=\"font-size: 50px; margin: 0; text-align: center;\">+</p>","response":null,"trial_type":"html-keyboard-response","trial_index":198,"plugin_version":"2.1.0","time_elapsed":565357,"subject_id":"86969","group":"Group2","full_date":"2025-12-07T20:15:12.105Z","date":"2025-12-07","time":"20:15:12"},{"task":"memory_phase","broad_category":"I","image_png":"I_Andesite_03.png","image_id":3,"category_name":"Andesite","category":1,"distinct_rating":3.17,"distinct_type":"Bottom","rt":null,"stimulus":"Stimuli_Rocks480/I_Andesite_03.png","response":null,"trial_type":"image-keyboard-response","trial_index":199,"plugin_version":"2.1.0","time_elapsed":567860,"subject_id":"86969","group":"Group2","full_date":"2025-12-07T20:15:12.105Z","date":"2025-12-07","time":"20:15:12"},{"rt":null,"stimulus":"<p style=\"font-size: 50px; margin: 0; text-align: center;\">+</p>","response":null,"trial_type":"html-keyboard-response","trial_index":200,"plugin_version":"2.1.0","time_elapsed":568863,"subject_id":"86969","group":"Group2","full_date":"2025-12-07T20:15:12.105Z","date":"2025-12-07","time":"20:15:12"},{"task":"memory_phase","broad_category":"M","image_png":"M_Quartzite_15.png","image_id":287,"category_name":"Quartzite","category":18,"distinct_rating":2.19,"distinct_type":"Bottom","rt":null,"stimulus":"Stimuli_Rocks480/M_Quartzite_15.png","response":null,"trial_type":"image-keyboard-response","trial_index":201,"plugin_version":"2.1.0","time_elapsed":571367,"subject_id":"86969","group":"Group2","full_date":"2025-12-07T20:15:12.105Z","date":"2025-12-07","time":"20:15:12"},{"rt":null,"stimulus":"<p style=\"font-size: 50px; margin: 0; text-align: center;\">+</p>","response":null,"trial_type":"html-keyboard-response","trial_index":202,"plugin_version":"2.1.0","time_elapsed":572370,"subject_id":"86969","group":"Group2","full_date":"2025-12-07T20:15:12.105Z","date":"2025-12-07","time":"20:15:12"},{"task":"memory_phase","broad_category":"M","image_png":"M_Gneiss_10.png","image_id":202,"category_name":"Gneiss","category":13,"distinct_rating":3.09,"distinct_type":"Bottom","rt":null,"stimulus":"Stimuli_Rocks480/M_Gneiss_10.png","response":null,"trial_type":"image-keyboard-response","trial_index":203,"plugin_version":"2.1.0","time_elapsed":574873,"subject_id":"86969","group":"Group2","full_date":"2025-12-07T20:15:12.105Z","date":"2025-12-07","time":"20:15:12"},{"rt":null,"stimulus":"<p style=\"font-size: 50px; margin: 0; text-align: center;\">+</p>","response":null,"trial_type":"html-keyboard-response","trial_index":204,"plugin_version":"2.1.0","time_elapsed":575876,"subject_id":"86969","group":"Group2","full_date":"2025-12-07T20:15:12.105Z","date":"2025-12-07","time":"20:15:12"},{"task":"memory_phase","broad_category":"S","image_png":"S_Sandstone_11.png","image_id":459,"category_name":"Sandstone","category":29,"distinct_rating":1.82,"distinct_type":"Bottom","rt":null,"stimulus":"Stimuli_Rocks480/S_Sandstone_11.png","response":null,"trial_type":"image-keyboard-response","trial_index":205,"plugin_version":"2.1.0","time_elapsed":578380,"subject_id":"86969","group":"Group2","full_date":"2025-12-07T20:15:12.105Z","date":"2025-12-07","time":"20:15:12"},{"rt":null,"stimulus":"<p style=\"font-size: 50px; margin: 0; text-align: center;\">+</p>","response":null,"trial_type":"html-keyboard-response","trial_index":206,"plugin_version":"2.1.0","time_elapsed":579383,"subject_id":"86969","group":"Group2","full_date":"2025-12-07T20:15:12.105Z","date":"2025-12-07","time":"20:15:12"},{"task":"memory_phase","broad_category":"M","image_png":"M_Quartzite_07.png","image_id":279,"category_name":"Quartzite","category":18,"distinct_rating":1.97,"distinct_type":"Bottom","rt":null,"stimulus":"Stimuli_Rocks480/M_Quartzite_07.png","response":null,"trial_type":"image-keyboard-response","trial_index":207,"plugin_version":"2.1.0","time_elapsed":581886,"subject_id":"86969","group":"Group2","full_date":"2025-12-07T20:15:12.105Z","date":"2025-12-07","time":"20:15:12"},{"rt":2156,"stimulus":"<p style=\"max-width: 760px; margin: auto; font-size: 35px; line-height: 1.5;\">You have completed 2 study phases. Now, we'll show you all the images again 1 more time.<br><br>Press SPACE to continue</p>","response":" ","trial_type":"html-keyboard-response","trial_index":208,"plugin_version":"2.1.0","time_elapsed":584043,"subject_id":"86969","group":"Group2","full_date":"2025-12-07T20:15:12.105Z","date":"2025-12-07","time":"20:15:12"},{"rt":null,"stimulus":"<p style=\"font-size: 50px; margin: 0; text-align: center;\">+</p>","response":null,"trial_type":"html-keyboard-response","trial_index":209,"plugin_version":"2.1.0","time_elapsed":585046,"subject_id":"86969","group":"Group2","full_date":"2025-12-07T20:15:12.105Z","date":"2025-12-07","time":"20:15:12"},{"task":"memory_phase","broad_category":"S","image_png":"S_Sandstone_08.png","image_id":456,"category_name":"Sandstone","category":29,"distinct_rating":1.5,"distinct_type":"Bottom","rt":null,"stimulus":"Stimuli_Rocks480/S_Sandstone_08.png","response":null,"trial_type":"image-keyboard-response","trial_index":210,"plugin_version":"2.1.0","time_elapsed":587550,"subject_id":"86969","group":"Group2","full_date":"2025-12-07T20:15:12.105Z","date":"2025-12-07","time":"20:15:12"},{"rt":null,"stimulus":"<p style=\"font-size: 50px; margin: 0; text-align: center;\">+</p>","response":null,"trial_type":"html-keyboard-response","trial_index":211,"plugin_version":"2.1.0","time_elapsed":588552,"subject_id":"86969","group":"Group2","full_date":"2025-12-07T20:15:12.105Z","date":"2025-12-07","time":"20:15:12"},{"task":"memory_phase","broad_category":"M","image_png":"M_Quartzite_07.png","image_id":279,"category_name":"Quartzite","category":18,"distinct_rating":1.97,"distinct_type":"Bottom","rt":null,"stimulus":"Stimuli_Rocks480/M_Quartzite_07.png","response":null,"trial_type":"image-keyboard-response","trial_index":212,"plugin_version":"2.1.0","time_elapsed":591056,"subject_id":"86969","group":"Group2","full_date":"2025-12-07T20:15:12.105Z","date":"2025-12-07","time":"20:15:12"},{"rt":null,"stimulus":"<p style=\"font-size: 50px; margin: 0; text-align: center;\">+</p>","response":null,"trial_type":"html-keyboard-response","trial_index":213,"plugin_version":"2.1.0","time_elapsed":592059,"subject_id":"86969","group":"Group2","full_date":"2025-12-07T20:15:12.105Z","date":"2025-12-07","time":"20:15:12"},{"task":"memory_phase","broad_category":"S","image_png":"S_Rock Salt_15.png","image_id":447,"category_name":"Rock Salt","category":28,"distinct_rating":7.79,"distinct_type":"Top","rt":null,"stimulus":"Stimuli_Rocks480/S_Rock Salt_15.png","response":null,"trial_type":"image-keyboard-response","trial_index":214,"plugin_version":"2.1.0","time_elapsed":594563,"subject_id":"86969","group":"Group2","full_date":"2025-12-07T20:15:12.105Z","date":"2025-12-07","time":"20:15:12"},{"rt":null,"stimulus":"<p style=\"font-size: 50px; margin: 0; text-align: center;\">+</p>","response":null,"trial_type":"html-keyboard-response","trial_index":215,"plugin_version":"2.1.0","time_elapsed":595566,"subject_id":"86969","group":"Group2","full_date":"2025-12-07T20:15:12.105Z","date":"2025-12-07","time":"20:15:12"},{"task":"memory_phase","broad_category":"M","image_png":"M_Gneiss_15.png","image_id":207,"category_name":"Gneiss","category":13,"distinct_rating":3.11,"distinct_type":"Bottom","rt":null,"stimulus":"Stimuli_Rocks480/M_Gneiss_15.png","response":null,"trial_type":"image-keyboard-response","trial_index":216,"plugin_version":"2.1.0","time_elapsed":598071,"subject_id":"86969","group":"Group2","full_date":"2025-12-07T20:15:12.105Z","date":"2025-12-07","time":"20:15:12"},{"rt":null,"stimulus":"<p style=\"font-size: 50px; margin: 0; text-align: center;\">+</p>","response":null,"trial_type":"html-keyboard-response","trial_index":217,"plugin_version":"2.1.0","time_elapsed":599074,"subject_id":"86969","group":"Group2","full_date":"2025-12-07T20:15:12.105Z","date":"2025-12-07","time":"20:15:12"},{"task":"memory_phase","broad_category":"M","image_png":"M_Marble_03.png","image_id":227,"category_name":"Marble","category":15,"distinct_rating":2.67,"distinct_type":"Bottom","rt":null,"stimulus":"Stimuli_Rocks480/M_Marble_03.png","response":null,"trial_type":"image-keyboard-response","trial_index":218,"plugin_version":"2.1.0","time_elapsed":601579,"subject_id":"86969","group":"Group2","full_date":"2025-12-07T20:15:12.105Z","date":"2025-12-07","time":"20:15:12"},{"rt":null,"stimulus":"<p style=\"font-size: 50px; margin: 0; text-align: center;\">+</p>","response":null,"trial_type":"html-keyboard-response","trial_index":219,"plugin_version":"2.1.0","time_elapsed":602582,"subject_id":"86969","group":"Group2","full_date":"2025-12-07T20:15:12.105Z","date":"2025-12-07","time":"20:15:12"},{"task":"memory_phase","broad_category":"M","image_png":"M_Slate_14.png","image_id":318,"category_name":"Slate","category":20,"distinct_rating":2.58,"distinct_type":"Bottom","rt":null,"stimulus":"Stimuli_Rocks480/M_Slate_14.png","response":null,"trial_type":"image-keyboard-response","trial_index":220,"plugin_version":"2.1.0","time_elapsed":605088,"subject_id":"86969","group":"Group2","full_date":"2025-12-07T20:15:12.105Z","date":"2025-12-07","time":"20:15:12"},{"rt":null,"stimulus":"<p style=\"font-size: 50px; margin: 0; text-align: center;\">+</p>","response":null,"trial_type":"html-keyboard-response","trial_index":221,"plugin_version":"2.1.0","time_elapsed":606091,"subject_id":"86969","group":"Group2","full_date":"2025-12-07T20:15:12.105Z","date":"2025-12-07","time":"20:15:12"},{"task":"memory_phase","broad_category":"I","image_png":"I_Andesite_04.png","image_id":4,"category_name":"Andesite","category":1,"distinct_rating":3.18,"distinct_type":"Bottom","rt":null,"stimulus":"Stimuli_Rocks480/I_Andesite_04.png","response":null,"trial_type":"image-keyboard-response","trial_index":222,"plugin_version":"2.1.0","time_elapsed":608595,"subject_id":"86969","group":"Group2","full_date":"2025-12-07T20:15:12.105Z","date":"2025-12-07","time":"20:15:12"},{"rt":null,"stimulus":"<p style=\"font-size: 50px; margin: 0; text-align: center;\">+</p>","response":null,"trial_type":"html-keyboard-response","trial_index":223,"plugin_version":"2.1.0","time_elapsed":609597,"subject_id":"86969","group":"Group2","full_date":"2025-12-07T20:15:12.105Z","date":"2025-12-07","time":"20:15:12"},{"task":"memory_phase","broad_category":"I","image_png":"I_Andesite_03.png","image_id":3,"category_name":"Andesite","category":1,"distinct_rating":3.17,"distinct_type":"Bottom","rt":null,"stimulus":"Stimuli_Rocks480/I_Andesite_03.png","response":null,"trial_type":"image-keyboard-response","trial_index":224,"plugin_version":"2.1.0","time_elapsed":612101,"subject_id":"86969","group":"Group2","full_date":"2025-12-07T20:15:12.105Z","date":"2025-12-07","time":"20:15:12"},{"rt":null,"stimulus":"<p style=\"font-size: 50px; margin: 0; text-align: center;\">+</p>","response":null,"trial_type":"html-keyboard-response","trial_index":225,"plugin_version":"2.1.0","time_elapsed":613104,"subject_id":"86969","group":"Group2","full_date":"2025-12-07T20:15:12.105Z","date":"2025-12-07","time":"20:15:12"},{"task":"memory_phase","broad_category":"M","image_png":"M_Quartzite_15.png","image_id":287,"category_name":"Quartzite","category":18,"distinct_rating":2.19,"distinct_type":"Bottom","rt":null,"stimulus":"Stimuli_Rocks480/M_Quartzite_15.png","response":null,"trial_type":"image-keyboard-response","trial_index":226,"plugin_version":"2.1.0","time_elapsed":615608,"subject_id":"86969","group":"Group2","full_date":"2025-12-07T20:15:12.105Z","date":"2025-12-07","time":"20:15:12"},{"rt":null,"stimulus":"<p style=\"font-size: 50px; margin: 0; text-align: center;\">+</p>","response":null,"trial_type":"html-keyboard-response","trial_index":227,"plugin_version":"2.1.0","time_elapsed":616610,"subject_id":"86969","group":"Group2","full_date":"2025-12-07T20:15:12.105Z","date":"2025-12-07","time":"20:15:12"},{"task":"memory_phase","broad_category":"I","image_png":"I_Pumice_14.png","image_id":142,"category_name":"Pumice","category":9,"distinct_rating":3.22,"distinct_type":"Bottom","rt":null,"stimulus":"Stimuli_Rocks480/I_Pumice_14.png","response":null,"trial_type":"image-keyboard-response","trial_index":228,"plugin_version":"2.1.0","time_elapsed":619114,"subject_id":"86969","group":"Group2","full_date":"2025-12-07T20:15:12.105Z","date":"2025-12-07","time":"20:15:12"},{"rt":null,"stimulus":"<p style=\"font-size: 50px; margin: 0; text-align: center;\">+</p>","response":null,"trial_type":"html-keyboard-response","trial_index":229,"plugin_version":"2.1.0","time_elapsed":620117,"subject_id":"86969","group":"Group2","full_date":"2025-12-07T20:15:12.105Z","date":"2025-12-07","time":"20:15:12"},{"task":"memory_phase","broad_category":"S","image_png":"S_Shale_07.png","image_id":471,"category_name":"Shale","category":30,"distinct_rating":2.73,"distinct_type":"Bottom","rt":null,"stimulus":"Stimuli_Rocks480/S_Shale_07.png","response":null,"trial_type":"image-keyboard-response","trial_index":230,"plugin_version":"2.1.0","time_elapsed":622621,"subject_id":"86969","group":"Group2","full_date":"2025-12-07T20:15:12.105Z","date":"2025-12-07","time":"20:15:12"},{"rt":null,"stimulus":"<p style=\"font-size: 50px; margin: 0; text-align: center;\">+</p>","response":null,"trial_type":"html-keyboard-response","trial_index":231,"plugin_version":"2.1.0","time_elapsed":623623,"subject_id":"86969","group":"Group2","full_date":"2025-12-07T20:15:12.105Z","date":"2025-12-07","time":"20:15:12"},{"task":"memory_phase","broad_category":"I","image_png":"I_Rhyolite_05.png","image_id":149,"category_name":"Rhyolite","category":10,"distinct_rating":3.02,"distinct_type":"Bottom","rt":null,"stimulus":"Stimuli_Rocks480/I_Rhyolite_05.png","response":null,"trial_type":"image-keyboard-response","trial_index":232,"plugin_version":"2.1.0","time_elapsed":626127,"subject_id":"86969","group":"Group2","full_date":"2025-12-07T20:15:12.105Z","date":"2025-12-07","time":"20:15:12"},{"rt":null,"stimulus":"<p style=\"font-size: 50px; margin: 0; text-align: center;\">+</p>","response":null,"trial_type":"html-keyboard-response","trial_index":233,"plugin_version":"2.1.0","time_elapsed":627130,"subject_id":"86969","group":"Group2","full_date":"2025-12-07T20:15:12.105Z","date":"2025-12-07","time":"20:15:12"},{"task":"memory_phase","broad_category":"M","image_png":"M_Phyllite_13.png","image_id":269,"category_name":"Phyllite","category":17,"distinct_rating":2.8,"distinct_type":"Bottom","rt":null,"stimulus":"Stimuli_Rocks480/M_Phyllite_13.png","response":null,"trial_type":"image-keyboard-response","trial_index":234,"plugin_version":"2.1.0","time_elapsed":629634,"subject_id":"86969","group":"Group2","full_date":"2025-12-07T20:15:12.105Z","date":"2025-12-07","time":"20:15:12"},{"rt":null,"stimulus":"<p style=\"font-size: 50px; margin: 0; text-align: center;\">+</p>","response":null,"trial_type":"html-keyboard-response","trial_index":235,"plugin_version":"2.1.0","time_elapsed":630636,"subject_id":"86969","group":"Group2","full_date":"2025-12-07T20:15:12.105Z","date":"2025-12-07","time":"20:15:12"},{"task":"memory_phase","broad_category":"I","image_png":"I_Diorite_01.png","image_id":33,"category_name":"Diorite","category":3,"distinct_rating":2.97,"distinct_type":"Bottom","rt":null,"stimulus":"Stimuli_Rocks480/I_Diorite_01.png","response":null,"trial_type":"image-keyboard-response","trial_index":236,"plugin_version":"2.1.0","time_elapsed":633140,"subject_id":"86969","group":"Group2","full_date":"2025-12-07T20:15:12.105Z","date":"2025-12-07","time":"20:15:12"},{"rt":null,"stimulus":"<p style=\"font-size: 50px; margin: 0; text-align: center;\">+</p>","response":null,"trial_type":"html-keyboard-response","trial_index":237,"plugin_version":"2.1.0","time_elapsed":634143,"subject_id":"86969","group":"Group2","full_date":"2025-12-07T20:15:12.105Z","date":"2025-12-07","time":"20:15:12"},{"task":"memory_phase","broad_category":"I","image_png":"I_Basalt_08.png","image_id":24,"category_name":"Basalt","category":2,"distinct_rating":2.31,"distinct_type":"Bottom","rt":null,"stimulus":"Stimuli_Rocks480/I_Basalt_08.png","response":null,"trial_type":"image-keyboard-response","trial_index":238,"plugin_version":"2.1.0","time_elapsed":636647,"subject_id":"86969","group":"Group2","full_date":"2025-12-07T20:15:12.105Z","date":"2025-12-07","time":"20:15:12"},{"rt":null,"stimulus":"<p style=\"font-size: 50px; margin: 0; text-align: center;\">+</p>","response":null,"trial_type":"html-keyboard-response","trial_index":239,"plugin_version":"2.1.0","time_elapsed":637650,"subject_id":"86969","group":"Group2","full_date":"2025-12-07T20:15:12.105Z","date":"2025-12-07","time":"20:15:12"},{"task":"memory_phase","broad_category":"S","image_png":"S_Rock Salt_13.png","image_id":445,"category_name":"Rock Salt","category":28,"distinct_rating":7.58,"distinct_type":"Top","rt":null,"stimulus":"Stimuli_Rocks480/S_Rock Salt_13.png","response":null,"trial_type":"image-keyboard-response","trial_index":240,"plugin_version":"2.1.0","time_elapsed":640154,"subject_id":"86969","group":"Group2","full_date":"2025-12-07T20:15:12.105Z","date":"2025-12-07","time":"20:15:12"},{"rt":null,"stimulus":"<p style=\"font-size: 50px; margin: 0; text-align: center;\">+</p>","response":null,"trial_type":"html-keyboard-response","trial_index":241,"plugin_version":"2.1.0","time_elapsed":641156,"subject_id":"86969","group":"Group2","full_date":"2025-12-07T20:15:12.105Z","date":"2025-12-07","time":"20:15:12"},{"task":"memory_phase","broad_category":"I","image_png":"I_Diorite_10.png","image_id":42,"category_name":"Diorite","category":3,"distinct_rating":2.84,"distinct_type":"Bottom","rt":null,"stimulus":"Stimuli_Rocks480/I_Diorite_10.png","response":null,"trial_type":"image-keyboard-response","trial_index":242,"plugin_version":"2.1.0","time_elapsed":643659,"subject_id":"86969","group":"Group2","full_date":"2025-12-07T20:15:12.105Z","date":"2025-12-07","time":"20:15:12"},{"rt":null,"stimulus":"<p style=\"font-size: 50px; margin: 0; text-align: center;\">+</p>","response":null,"trial_type":"html-keyboard-response","trial_index":243,"plugin_version":"2.1.0","time_elapsed":644661,"subject_id":"86969","group":"Group2","full_date":"2025-12-07T20:15:12.105Z","date":"2025-12-07","time":"20:15:12"},{"task":"memory_phase","broad_category":"M","image_png":"M_Marble_14.png","image_id":238,"category_name":"Marble","category":15,"distinct_rating":3.31,"distinct_type":"Bottom","rt":null,"stimulus":"Stimuli_Rocks480/M_Marble_14.png","response":null,"trial_type":"image-keyboard-response","trial_index":244,"plugin_version":"2.1.0","time_elapsed":647165,"subject_id":"86969","group":"Group2","full_date":"2025-12-07T20:15:12.105Z","date":"2025-12-07","time":"20:15:12"},{"rt":null,"stimulus":"<p style=\"font-size: 50px; margin: 0; text-align: center;\">+</p>","response":null,"trial_type":"html-keyboard-response","trial_index":245,"plugin_version":"2.1.0","time_elapsed":648167,"subject_id":"86969","group":"Group2","full_date":"2025-12-07T20:15:12.105Z","date":"2025-12-07","time":"20:15:12"},{"task":"memory_phase","broad_category":"S","image_png":"S_Dolomite_07.png","image_id":391,"category_name":"Dolomite","category":25,"distinct_rating":1.73,"distinct_type":"Bottom","rt":null,"stimulus":"Stimuli_Rocks480/S_Dolomite_07.png","response":null,"trial_type":"image-keyboard-response","trial_index":246,"plugin_version":"2.1.0","time_elapsed":650671,"subject_id":"86969","group":"Group2","full_date":"2025-12-07T20:15:12.105Z","date":"2025-12-07","time":"20:15:12"},{"rt":null,"stimulus":"<p style=\"font-size: 50px; margin: 0; text-align: center;\">+</p>","response":null,"trial_type":"html-keyboard-response","trial_index":247,"plugin_version":"2.1.0","time_elapsed":651673,"subject_id":"86969","group":"Group2","full_date":"2025-12-07T20:15:12.105Z","date":"2025-12-07","time":"20:15:12"},{"task":"memory_phase","broad_category":"I","image_png":"I_Gabbro_02.png","image_id":50,"category_name":"Gabbro","category":4,"distinct_rating":2.73,"distinct_type":"Bottom","rt":null,"stimulus":"Stimuli_Rocks480/I_Gabbro_02.png","response":null,"trial_type":"image-keyboard-response","trial_index":248,"plugin_version":"2.1.0","tim