[{"width":1432,"height":774,"webaudio":true,"browser":"edge-chromium","browser_version":"142.0.0","mobile":false,"os":"Windows 10","fullscreen":true,"vsync_rate":61.04,"webcam":true,"microphone":true,"trial_type":"browser-check","trial_index":0,"plugin_version":"2.1.0","time_elapsed":1006,"subject_id":"87657","group":"Group1","full_date":"2025-12-05T21:00:10.228Z","date":"2025-12-05","time":"21:00:10"},{"success":true,"timeout":false,"failed_images":[],"failed_audio":[],"failed_video":[],"trial_type":"preload","trial_index":1,"plugin_version":"2.1.0","time_elapsed":9290,"subject_id":"87657","group":"Group1","full_date":"2025-12-05T21:00:10.228Z","date":"2025-12-05","time":"21:00:10"},{"rt":16059,"url":"SONA_consent_memorability.html","trial_type":"external-html","trial_index":2,"plugin_version":"2.1.0","time_elapsed":25463,"subject_id":"87657","group":"Group1","full_date":"2025-12-05T21:00:10.228Z","date":"2025-12-05","time":"21:00:10"},{"success":true,"rt":1365,"trial_type":"fullscreen","trial_index":3,"plugin_version":"2.1.0","time_elapsed":27839,"subject_id":"87657","group":"Group1","full_date":"2025-12-05T21:00:10.228Z","date":"2025-12-05","time":"21:00:10"},{"rt":1343,"stimulus":"<div style=\"max-width: 760px; margin: auto; font-size: 20px; line-height: 1.5;\">\n      <h1 style=\"text-align:center; font-size: 30px;\">Instructions</h1>\n      <p>\n        Welcome to the study on <b>visual memory</b>. This experiment consists of <b>two phases</b>: \n        a <b>study phase</b> and a <b>test phase</b>.\n      </p>\n      <p>\n        In the study phase, you will see a series of rock images along with their category labels.\n        The images will appear one at a time.\n        <b>Your task</b> is to learn the categories to which the rock images belong \n        and to remember each image as accurately as possible.\n      </p> \n      <p>\n        Note that we will repeat the study phase <b>3 times</b>, \n        so you will have multiple opportunities to see and remember each image.\n      </p>\n      <p>\n        After the study phase, <b>your memory will be tested</b>. \n        Additional instructions for the test phase will be provided at that time.\n      </p>\n      <p>\n        If your computer has multiple <b>language settings</b> (e.g., English and another language),\n        please make sure it is set to English before starting.\n      </p>\n      <p>\n        You can track your progress using the <b>completion bar</b> at the top of the screen. \n        Please note that the bar will refresh when the test phase begins \n        to give you an accurate sense of your progress in both phases.\n      </p> \n      <p>\n        Press the button below when you are ready to begin.\n      </p>\n    </div>","response":0,"trial_type":"html-button-response","trial_index":4,"plugin_version":"2.1.0","time_elapsed":29185,"subject_id":"87657","group":"Group1","full_date":"2025-12-05T21:00:10.228Z","date":"2025-12-05","time":"21:00:10"},{"rt":null,"stimulus":"<p style=\"font-size: 50px; margin: 0; text-align: center;\">+</p>","response":null,"trial_type":"html-keyboard-response","trial_index":5,"plugin_version":"2.1.0","time_elapsed":30190,"subject_id":"87657","group":"Group1","full_date":"2025-12-05T21:00:10.228Z","date":"2025-12-05","time":"21:00:10"},{"task":"memory_phase","broad_category":"I","image_png":"I_Andesite_10.png","image_id":10,"category_name":"Andesite","category":1,"distinct_rating":3.15,"distinct_type":"Bottom","rt":null,"stimulus":"Stimuli_Rocks480/I_Andesite_10.png","response":null,"trial_type":"image-keyboard-response","trial_index":6,"plugin_version":"2.1.0","time_elapsed":32695,"subject_id":"87657","group":"Group1","full_date":"2025-12-05T21:00:10.228Z","date":"2025-12-05","time":"21:00:10"},{"rt":null,"stimulus":"<p style=\"font-size: 50px; margin: 0; text-align: center;\">+</p>","response":null,"trial_type":"html-keyboard-response","trial_index":7,"plugin_version":"2.1.0","time_elapsed":33699,"subject_id":"87657","group":"Group1","full_date":"2025-12-05T21:00:10.228Z","date":"2025-12-05","time":"21:00:10"},{"task":"memory_phase","broad_category":"M","image_png":"M_Gneiss_05.png","image_id":197,"category_name":"Gneiss","category":13,"distinct_rating":2.97,"distinct_type":"Bottom","rt":null,"stimulus":"Stimuli_Rocks480/M_Gneiss_05.png","response":null,"trial_type":"image-keyboard-response","trial_index":8,"plugin_version":"2.1.0","time_elapsed":36211,"subject_id":"87657","group":"Group1","full_date":"2025-12-05T21:00:10.228Z","date":"2025-12-05","time":"21:00:10"},{"rt":null,"stimulus":"<p style=\"font-size: 50px; margin: 0; text-align: center;\">+</p>","response":null,"trial_type":"html-keyboard-response","trial_index":9,"plugin_version":"2.1.0","time_elapsed":37227,"subject_id":"87657","group":"Group1","full_date":"2025-12-05T21:00:10.228Z","date":"2025-12-05","time":"21:00:10"},{"task":"memory_phase","broad_category":"M","image_png":"M_Quartzite_13.png","image_id":285,"category_name":"Quartzite","category":18,"distinct_rating":2.27,"distinct_type":"Bottom","rt":null,"stimulus":"Stimuli_Rocks480/M_Quartzite_13.png","response":null,"trial_type":"image-keyboard-response","trial_index":10,"plugin_version":"2.1.0","time_elapsed":39743,"subject_id":"87657","group":"Group1","full_date":"2025-12-05T21:00:10.228Z","date":"2025-12-05","time":"21:00:10"},{"rt":null,"stimulus":"<p style=\"font-size: 50px; margin: 0; text-align: center;\">+</p>","response":null,"trial_type":"html-keyboard-response","trial_index":11,"plugin_version":"2.1.0","time_elapsed":40761,"subject_id":"87657","group":"Group1","full_date":"2025-12-05T21:00:10.228Z","date":"2025-12-05","time":"21:00:10"},{"task":"memory_phase","broad_category":"I","image_png":"I_Basalt_01.png","image_id":17,"category_name":"Basalt","category":2,"distinct_rating":1.92,"distinct_type":"Bottom","rt":null,"stimulus":"Stimuli_Rocks480/I_Basalt_01.png","response":null,"trial_type":"image-keyboard-response","trial_index":12,"plugin_version":"2.1.0","time_elapsed":43269,"subject_id":"87657","group":"Group1","full_date":"2025-12-05T21:00:10.228Z","date":"2025-12-05","time":"21:00:10"},{"rt":null,"stimulus":"<p style=\"font-size: 50px; margin: 0; text-align: center;\">+</p>","response":null,"trial_type":"html-keyboard-response","trial_index":13,"plugin_version":"2.1.0","time_elapsed":44275,"subject_id":"87657","group":"Group1","full_date":"2025-12-05T21:00:10.228Z","date":"2025-12-05","time":"21:00:10"},{"task":"memory_phase","broad_category":"M","image_png":"M_Marble_16.png","image_id":240,"category_name":"Marble","category":15,"distinct_rating":2.57,"distinct_type":"Bottom","rt":null,"stimulus":"Stimuli_Rocks480/M_Marble_16.png","response":null,"trial_type":"image-keyboard-response","trial_index":14,"plugin_version":"2.1.0","time_elapsed":46790,"subject_id":"87657","group":"Group1","full_date":"2025-12-05T21:00:10.228Z","date":"2025-12-05","time":"21:00:10"},{"rt":null,"stimulus":"<p style=\"font-size: 50px; margin: 0; text-align: center;\">+</p>","response":null,"trial_type":"html-keyboard-response","trial_index":15,"plugin_version":"2.1.0","time_elapsed":47798,"subject_id":"87657","group":"Group1","full_date":"2025-12-05T21:00:10.228Z","date":"2025-12-05","time":"21:00:10"},{"task":"memory_phase","broad_category":"I","image_png":"I_Andesite_08.png","image_id":8,"category_name":"Andesite","category":1,"distinct_rating":1.95,"distinct_type":"Bottom","rt":null,"stimulus":"Stimuli_Rocks480/I_Andesite_08.png","response":null,"trial_type":"image-keyboard-response","trial_index":16,"plugin_version":"2.1.0","time_elapsed":50312,"subject_id":"87657","group":"Group1","full_date":"2025-12-05T21:00:10.228Z","date":"2025-12-05","time":"21:00:10"},{"rt":null,"stimulus":"<p style=\"font-size: 50px; margin: 0; text-align: center;\">+</p>","response":null,"trial_type":"html-keyboard-response","trial_index":17,"plugin_version":"2.1.0","time_elapsed":51316,"subject_id":"87657","group":"Group1","full_date":"2025-12-05T21:00:10.228Z","date":"2025-12-05","time":"21:00:10"},{"task":"memory_phase","broad_category":"M","image_png":"M_Marble_04.png","image_id":228,"category_name":"Marble","category":15,"distinct_rating":3.15,"distinct_type":"Bottom","rt":null,"stimulus":"Stimuli_Rocks480/M_Marble_04.png","response":null,"trial_type":"image-keyboard-response","trial_index":18,"plugin_version":"2.1.0","time_elapsed":53829,"subject_id":"87657","group":"Group1","full_date":"2025-12-05T21:00:10.228Z","date":"2025-12-05","time":"21:00:10"},{"rt":null,"stimulus":"<p style=\"font-size: 50px; margin: 0; text-align: center;\">+</p>","response":null,"trial_type":"html-keyboard-response","trial_index":19,"plugin_version":"2.1.0","time_elapsed":54834,"subject_id":"87657","group":"Group1","full_date":"2025-12-05T21:00:10.228Z","date":"2025-12-05","time":"21:00:10"},{"task":"memory_phase","broad_category":"M","image_png":"M_Phyllite_03.png","image_id":259,"category_name":"Phyllite","category":17,"distinct_rating":2.5,"distinct_type":"Bottom","rt":null,"stimulus":"Stimuli_Rocks480/M_Phyllite_03.png","response":null,"trial_type":"image-keyboard-response","trial_index":20,"plugin_version":"2.1.0","time_elapsed":57349,"subject_id":"87657","group":"Group1","full_date":"2025-12-05T21:00:10.228Z","date":"2025-12-05","time":"21:00:10"},{"rt":null,"stimulus":"<p style=\"font-size: 50px; margin: 0; text-align: center;\">+</p>","response":null,"trial_type":"html-keyboard-response","trial_index":21,"plugin_version":"2.1.0","time_elapsed":58352,"subject_id":"87657","group":"Group1","full_date":"2025-12-05T21:00:10.228Z","date":"2025-12-05","time":"21:00:10"},{"task":"memory_phase","broad_category":"S","image_png":"S_Rock Salt_01.png","image_id":433,"category_name":"Rock Salt","category":28,"distinct_rating":7.18,"distinct_type":"Top","rt":null,"stimulus":"Stimuli_Rocks480/S_Rock Salt_01.png","response":null,"trial_type":"image-keyboard-response","trial_index":22,"plugin_version":"2.1.0","time_elapsed":60858,"subject_id":"87657","group":"Group1","full_date":"2025-12-05T21:00:10.228Z","date":"2025-12-05","time":"21:00:10"},{"rt":null,"stimulus":"<p style=\"font-size: 50px; margin: 0; text-align: center;\">+</p>","response":null,"trial_type":"html-keyboard-response","trial_index":23,"plugin_version":"2.1.0","time_elapsed":61864,"subject_id":"87657","group":"Group1","full_date":"2025-12-05T21:00:10.228Z","date":"2025-12-05","time":"21:00:10"},{"task":"memory_phase","broad_category":"S","image_png":"S_Dolomite_13.png","image_id":397,"category_name":"Dolomite","category":25,"distinct_rating":1.77,"distinct_type":"Bottom","rt":null,"stimulus":"Stimuli_Rocks480/S_Dolomite_13.png","response":null,"trial_type":"image-keyboard-response","trial_index":24,"plugin_version":"2.1.0","time_elapsed":64373,"subject_id":"87657","group":"Group1","full_date":"2025-12-05T21:00:10.228Z","date":"2025-12-05","time":"21:00:10"},{"rt":null,"stimulus":"<p style=\"font-size: 50px; margin: 0; text-align: center;\">+</p>","response":null,"trial_type":"html-keyboard-response","trial_index":25,"plugin_version":"2.1.0","time_elapsed":65377,"subject_id":"87657","group":"Group1","full_date":"2025-12-05T21:00:10.228Z","date":"2025-12-05","time":"21:00:10"},{"task":"memory_phase","broad_category":"S","image_png":"S_Dolomite_14.png","image_id":398,"category_name":"Dolomite","category":25,"distinct_rating":1.43,"distinct_type":"Bottom","rt":null,"stimulus":"Stimuli_Rocks480/S_Dolomite_14.png","response":null,"trial_type":"image-keyboard-response","trial_index":26,"plugin_version":"2.1.0","time_elapsed":67881,"subject_id":"87657","group":"Group1","full_date":"2025-12-05T21:00:10.228Z","date":"2025-12-05","time":"21:00:10"},{"rt":null,"stimulus":"<p style=\"font-size: 50px; margin: 0; text-align: center;\">+</p>","response":null,"trial_type":"html-keyboard-response","trial_index":27,"plugin_version":"2.1.0","time_elapsed":68884,"subject_id":"87657","group":"Group1","full_date":"2025-12-05T21:00:10.228Z","date":"2025-12-05","time":"21:00:10"},{"task":"memory_phase","broad_category":"I","image_png":"I_Gabbro_11.png","image_id":59,"category_name":"Gabbro","category":4,"distinct_rating":1.99,"distinct_type":"Bottom","rt":null,"stimulus":"Stimuli_Rocks480/I_Gabbro_11.png","response":null,"trial_type":"image-keyboard-response","trial_index":28,"plugin_version":"2.1.0","time_elapsed":71393,"subject_id":"87657","group":"Group1","full_date":"2025-12-05T21:00:10.228Z","date":"2025-12-05","time":"21:00:10"},{"rt":null,"stimulus":"<p style=\"font-size: 50px; margin: 0; text-align: center;\">+</p>","response":null,"trial_type":"html-keyboard-response","trial_index":29,"plugin_version":"2.1.0","time_elapsed":72410,"subject_id":"87657","group":"Group1","full_date":"2025-12-05T21:00:10.228Z","date":"2025-12-05","time":"21:00:10"},{"task":"memory_phase","broad_category":"I","image_png":"I_Diorite_05.png","image_id":37,"category_name":"Diorite","category":3,"distinct_rating":3.08,"distinct_type":"Bottom","rt":null,"stimulus":"Stimuli_Rocks480/I_Diorite_05.png","response":null,"trial_type":"image-keyboard-response","trial_index":30,"plugin_version":"2.1.0","time_elapsed":74921,"subject_id":"87657","group":"Group1","full_date":"2025-12-05T21:00:10.228Z","date":"2025-12-05","time":"21:00:10"},{"rt":null,"stimulus":"<p style=\"font-size: 50px; margin: 0; text-align: center;\">+</p>","response":null,"trial_type":"html-keyboard-response","trial_index":31,"plugin_version":"2.1.0","time_elapsed":75929,"subject_id":"87657","group":"Group1","full_date":"2025-12-05T21:00:10.228Z","date":"2025-12-05","time":"21:00:10"},{"task":"memory_phase","broad_category":"I","image_png":"I_Gabbro_08.png","image_id":56,"category_name":"Gabbro","category":4,"distinct_rating":3.02,"distinct_type":"Bottom","rt":null,"stimulus":"Stimuli_Rocks480/I_Gabbro_08.png","response":null,"trial_type":"image-keyboard-response","trial_index":32,"plugin_version":"2.1.0","time_elapsed":78449,"subject_id":"87657","group":"Group1","full_date":"2025-12-05T21:00:10.228Z","date":"2025-12-05","time":"21:00:10"},{"rt":null,"stimulus":"<p style=\"font-size: 50px; margin: 0; text-align: center;\">+</p>","response":null,"trial_type":"html-keyboard-response","trial_index":33,"plugin_version":"2.1.0","time_elapsed":79451,"subject_id":"87657","group":"Group1","full_date":"2025-12-05T21:00:10.228Z","date":"2025-12-05","time":"21:00:10"},{"task":"memory_phase","broad_category":"M","image_png":"M_Quartzite_08.png","image_id":280,"category_name":"Quartzite","category":18,"distinct_rating":2.15,"distinct_type":"Bottom","rt":null,"stimulus":"Stimuli_Rocks480/M_Quartzite_08.png","response":null,"trial_type":"image-keyboard-response","trial_index":34,"plugin_version":"2.1.0","time_elapsed":81957,"subject_id":"87657","group":"Group1","full_date":"2025-12-05T21:00:10.228Z","date":"2025-12-05","time":"21:00:10"},{"rt":null,"stimulus":"<p style=\"font-size: 50px; margin: 0; text-align: center;\">+</p>","response":null,"trial_type":"html-keyboard-response","trial_index":35,"plugin_version":"2.1.0","time_elapsed":82965,"subject_id":"87657","group":"Group1","full_date":"2025-12-05T21:00:10.228Z","date":"2025-12-05","time":"21:00:10"},{"task":"memory_phase","broad_category":"S","image_png":"S_Dolomite_12.png","image_id":396,"category_name":"Dolomite","category":25,"distinct_rating":1.85,"distinct_type":"Bottom","rt":null,"stimulus":"Stimuli_Rocks480/S_Dolomite_12.png","response":null,"trial_type":"image-keyboard-response","trial_index":36,"plugin_version":"2.1.0","time_elapsed":85471,"subject_id":"87657","group":"Group1","full_date":"2025-12-05T21:00:10.228Z","date":"2025-12-05","time":"21:00:10"},{"rt":null,"stimulus":"<p style=\"font-size: 50px; margin: 0; text-align: center;\">+</p>","response":null,"trial_type":"html-keyboard-response","trial_index":37,"plugin_version":"2.1.0","time_elapsed":86486,"subject_id":"87657","group":"Group1","full_date":"2025-12-05T21:00:10.228Z","date":"2025-12-05","time":"21:00:10"},{"task":"memory_phase","broad_category":"M","image_png":"M_Quartzite_05.png","image_id":277,"category_name":"Quartzite","category":18,"distinct_rating":2.23,"distinct_type":"Bottom","rt":null,"stimulus":"Stimuli_Rocks480/M_Quartzite_05.png","response":null,"trial_type":"image-keyboard-response","trial_index":38,"plugin_version":"2.1.0","time_elapsed":88993,"subject_id":"87657","group":"Group1","full_date":"2025-12-05T21:00:10.228Z","date":"2025-12-05","time":"21:00:10"},{"rt":null,"stimulus":"<p style=\"font-size: 50px; margin: 0; text-align: center;\">+</p>","response":null,"trial_type":"html-keyboard-response","trial_index":39,"plugin_version":"2.1.0","time_elapsed":90004,"subject_id":"87657","group":"Group1","full_date":"2025-12-05T21:00:10.228Z","date":"2025-12-05","time":"21:00:10"},{"task":"memory_phase","broad_category":"M","image_png":"M_Slate_11.png","image_id":315,"category_name":"Slate","category":20,"distinct_rating":2.75,"distinct_type":"Bottom","rt":null,"stimulus":"Stimuli_Rocks480/M_Slate_11.png","response":null,"trial_type":"image-keyboard-response","trial_index":40,"plugin_version":"2.1.0","time_elapsed":92515,"subject_id":"87657","group":"Group1","full_date":"2025-12-05T21:00:10.228Z","date":"2025-12-05","time":"21:00:10"},{"rt":null,"stimulus":"<p style=\"font-size: 50px; margin: 0; text-align: center;\">+</p>","response":null,"trial_type":"html-keyboard-response","trial_index":41,"plugin_version":"2.1.0","time_elapsed":93532,"subject_id":"87657","group":"Group1","full_date":"2025-12-05T21:00:10.228Z","date":"2025-12-05","time":"21:00:10"},{"task":"memory_phase","broad_category":"I","image_png":"I_Gabbro_16.png","image_id":64,"category_name":"Gabbro","category":4,"distinct_rating":2.52,"distinct_type":"Bottom","rt":null,"stimulus":"Stimuli_Rocks480/I_Gabbro_16.png","response":null,"trial_type":"image-keyboard-response","trial_index":42,"plugin_version":"2.1.0","time_elapsed":96045,"subject_id":"87657","group":"Group1","full_date":"2025-12-05T21:00:10.228Z","date":"2025-12-05","time":"21:00:10"},{"rt":null,"stimulus":"<p style=\"font-size: 50px; margin: 0; text-align: center;\">+</p>","response":null,"trial_type":"html-keyboard-response","trial_index":43,"plugin_version":"2.1.0","time_elapsed":97061,"subject_id":"87657","group":"Group1","full_date":"2025-12-05T21:00:10.228Z","date":"2025-12-05","time":"21:00:10"},{"task":"memory_phase","broad_category":"M","image_png":"M_Slate_03.png","image_id":307,"category_name":"Slate","category":20,"distinct_rating":1.87,"distinct_type":"Bottom","rt":null,"stimulus":"Stimuli_Rocks480/M_Slate_03.png","response":null,"trial_type":"image-keyboard-response","trial_index":44,"plugin_version":"2.1.0","time_elapsed":99566,"subject_id":"87657","group":"Group1","full_date":"2025-12-05T21:00:10.228Z","date":"2025-12-05","time":"21:00:10"},{"rt":null,"stimulus":"<p style=\"font-size: 50px; margin: 0; text-align: center;\">+</p>","response":null,"trial_type":"html-keyboard-response","trial_index":45,"plugin_version":"2.1.0","time_elapsed":100583,"subject_id":"87657","group":"Group1","full_date":"2025-12-05T21:00:10.228Z","date":"2025-12-05","time":"21:00:10"},{"task":"memory_phase","broad_category":"M","image_png":"M_Slate_15.png","image_id":319,"category_name":"Slate","category":20,"distinct_rating":2.13,"distinct_type":"Bottom","rt":null,"stimulus":"Stimuli_Rocks480/M_Slate_15.png","response":null,"trial_type":"image-keyboard-response","trial_index":46,"plugin_version":"2.1.0","time_elapsed":103094,"subject_id":"87657","group":"Group1","full_date":"2025-12-05T21:00:10.228Z","date":"2025-12-05","time":"21:00:10"},{"rt":null,"stimulus":"<p style=\"font-size: 50px; margin: 0; text-align: center;\">+</p>","response":null,"trial_type":"html-keyboard-response","trial_index":47,"plugin_version":"2.1.0","time_elapsed":104105,"subject_id":"87657","group":"Group1","full_date":"2025-12-05T21:00:10.228Z","date":"2025-12-05","time":"21:00:10"},{"task":"memory_phase","broad_category":"M","image_png":"M_Phyllite_10.png","image_id":266,"category_name":"Phyllite","category":17,"distinct_rating":2.6,"distinct_type":"Bottom","rt":null,"stimulus":"Stimuli_Rocks480/M_Phyllite_10.png","response":null,"trial_type":"image-keyboard-response","trial_index":48,"plugin_version":"2.1.0","time_elapsed":106618,"subject_id":"87657","group":"Group1","full_date":"2025-12-05T21:00:10.228Z","date":"2025-12-05","time":"21:00:10"},{"rt":null,"stimulus":"<p style=\"font-size: 50px; margin: 0; text-align: center;\">+</p>","response":null,"trial_type":"html-keyboard-response","trial_index":49,"plugin_version":"2.1.0","time_elapsed":107634,"subject_id":"87657","group":"Group1","full_date":"2025-12-05T21:00:10.228Z","date":"2025-12-05","time":"21:00:10"},{"task":"memory_phase","broad_category":"S","image_png":"S_Chert_10.png","image_id":362,"category_name":"Chert","category":23,"distinct_rating":7.17,"distinct_type":"Top","rt":null,"stimulus":"Stimuli_Rocks480/S_Chert_10.png","response":null,"trial_type":"image-keyboard-response","trial_index":50,"plugin_version":"2.1.0","time_elapsed":110150,"subject_id":"87657","group":"Group1","full_date":"2025-12-05T21:00:10.228Z","date":"2025-12-05","time":"21:00:10"},{"rt":null,"stimulus":"<p style=\"font-size: 50px; margin: 0; text-align: center;\">+</p>","response":null,"trial_type":"html-keyboard-response","trial_index":51,"plugin_version":"2.1.0","time_elapsed":111165,"subject_id":"87657","group":"Group1","full_date":"2025-12-05T21:00:10.228Z","date":"2025-12-05","time":"21:00:10"},{"task":"memory_phase","broad_category":"I","image_png":"I_Andesite_06.png","image_id":6,"category_name":"Andesite","category":1,"distinct_rating":3.17,"distinct_type":"Bottom","rt":null,"stimulus":"Stimuli_Rocks480/I_Andesite_06.png","response":null,"trial_type":"image-keyboard-response","trial_index":52,"plugin_version":"2.1.0","time_elapsed":113685,"subject_id":"87657","group":"Group1","full_date":"2025-12-05T21:00:10.228Z","date":"2025-12-05","time":"21:00:10"},{"rt":null,"stimulus":"<p style=\"font-size: 50px; margin: 0; text-align: center;\">+</p>","response":null,"trial_type":"html-keyboard-response","trial_index":53,"plugin_version":"2.1.0","time_elapsed":114696,"subject_id":"87657","group":"Group1","full_date":"2025-12-05T21:00:10.228Z","date":"2025-12-05","time":"21:00:10"},{"task":"memory_phase","broad_category":"I","image_png":"I_Obsidian_05.png","image_id":85,"category_name":"Obsidian","category":6,"distinct_rating":7.32,"distinct_type":"Top","rt":null,"stimulus":"Stimuli_Rocks480/I_Obsidian_05.png","response":null,"trial_type":"image-keyboard-response","trial_index":54,"plugin_version":"2.1.0","time_elapsed":117214,"subject_id":"87657","group":"Group1","full_date":"2025-12-05T21:00:10.228Z","date":"2025-12-05","time":"21:00:10"},{"rt":9332,"stimulus":"<p style=\"max-width: 760px; margin: auto; font-size: 35px; line-height: 1.5;\">Press SPACE to continue study phase</p>","response":" ","trial_type":"html-keyboard-response","trial_index":55,"plugin_version":"2.1.0","time_elapsed":126549,"subject_id":"87657","group":"Group1","full_date":"2025-12-05T21:00:10.228Z","date":"2025-12-05","time":"21:00:10"},{"rt":null,"stimulus":"<p style=\"font-size: 50px; margin: 0; text-align: center;\">+</p>","response":null,"trial_type":"html-keyboard-response","trial_index":56,"plugin_version":"2.1.0","time_elapsed":127554,"subject_id":"87657","group":"Group1","full_date":"2025-12-05T21:00:10.228Z","date":"2025-12-05","time":"21:00:10"},{"task":"memory_phase","broad_category":"M","image_png":"M_Phyllite_07.png","image_id":263,"category_name":"Phyllite","category":17,"distinct_rating":2.59,"distinct_type":"Bottom","rt":null,"stimulus":"Stimuli_Rocks480/M_Phyllite_07.png","response":null,"trial_type":"image-keyboard-response","trial_index":57,"plugin_version":"2.1.0","time_elapsed":130065,"subject_id":"87657","group":"Group1","full_date":"2025-12-05T21:00:10.228Z","date":"2025-12-05","time":"21:00:10"},{"rt":null,"stimulus":"<p style=\"font-size: 50px; margin: 0; text-align: center;\">+</p>","response":null,"trial_type":"html-keyboard-response","trial_index":58,"plugin_version":"2.1.0","time_elapsed":131067,"subject_id":"87657","group":"Group1","full_date":"2025-12-05T21:00:10.228Z","date":"2025-12-05","time":"21:00:10"},{"task":"memory_phase","broad_category":"I","image_png":"I_Rhyolite_14.png","image_id":158,"category_name":"Rhyolite","category":10,"distinct_rating":2.59,"distinct_type":"Bottom","rt":null,"stimulus":"Stimuli_Rocks480/I_Rhyolite_14.png","response":null,"trial_type":"image-keyboard-response","trial_index":59,"plugin_version":"2.1.0","time_elapsed":133581,"subject_id":"87657","group":"Group1","full_date":"2025-12-05T21:00:10.228Z","date":"2025-12-05","time":"21:00:10"},{"rt":null,"stimulus":"<p style=\"font-size: 50px; margin: 0; text-align: center;\">+</p>","response":null,"trial_type":"html-keyboard-response","trial_index":60,"plugin_version":"2.1.0","time_elapsed":134590,"subject_id":"87657","group":"Group1","full_date":"2025-12-05T21:00:10.228Z","date":"2025-12-05","time":"21:00:10"},{"task":"memory_phase","broad_category":"S","image_png":"S_Shale_08.png","image_id":472,"category_name":"Shale","category":30,"distinct_rating":2.55,"distinct_type":"Bottom","rt":null,"stimulus":"Stimuli_Rocks480/S_Shale_08.png","response":null,"trial_type":"image-keyboard-response","trial_index":61,"plugin_version":"2.1.0","time_elapsed":137098,"subject_id":"87657","group":"Group1","full_date":"2025-12-05T21:00:10.228Z","date":"2025-12-05","time":"21:00:10"},{"rt":null,"stimulus":"<p style=\"font-size: 50px; margin: 0; text-align: center;\">+</p>","response":null,"trial_type":"html-keyboard-response","trial_index":62,"plugin_version":"2.1.0","time_elapsed":138103,"subject_id":"87657","group":"Group1","full_date":"2025-12-05T21:00:10.228Z","date":"2025-12-05","time":"21:00:10"},{"task":"memory_phase","broad_category":"S","image_png":"S_Shale_01.png","image_id":465,"category_name":"Shale","category":30,"distinct_rating":2.7,"distinct_type":"Bottom","rt":null,"stimulus":"Stimuli_Rocks480/S_Shale_01.png","response":null,"trial_type":"image-keyboard-response","trial_index":63,"plugin_version":"2.1.0","time_elapsed":140611,"subject_id":"87657","group":"Group1","full_date":"2025-12-05T21:00:10.228Z","date":"2025-12-05","time":"21:00:10"},{"rt":null,"stimulus":"<p style=\"font-size: 50px; margin: 0; text-align: center;\">+</p>","response":null,"trial_type":"html-keyboard-response","trial_index":64,"plugin_version":"2.1.0","time_elapsed":141627,"subject_id":"87657","group":"Group1","full_date":"2025-12-05T21:00:10.228Z","date":"2025-12-05","time":"21:00:10"},{"task":"memory_phase","broad_category":"I","image_png":"I_Diorite_03.png","image_id":35,"category_name":"Diorite","category":3,"distinct_rating":3.14,"distinct_type":"Bottom","rt":null,"stimulus":"Stimuli_Rocks480/I_Diorite_03.png","response":null,"trial_type":"image-keyboard-response","trial_index":65,"plugin_version":"2.1.0","time_elapsed":144139,"subject_id":"87657","group":"Group1","full_date":"2025-12-05T21:00:10.228Z","date":"2025-12-05","time":"21:00:10"},{"rt":null,"stimulus":"<p style=\"font-size: 50px; margin: 0; text-align: center;\">+</p>","response":null,"trial_type":"html-keyboard-response","trial_index":66,"plugin_version":"2.1.0","time_elapsed":145142,"subject_id":"87657","group":"Group1","full_date":"2025-12-05T21:00:10.228Z","date":"2025-12-05","time":"21:00:10"},{"task":"memory_phase","broad_category":"S","image_png":"S_Breccia_11.png","image_id":347,"category_name":"Breccia","category":22,"distinct_rating":6.7,"distinct_type":"Top","rt":null,"stimulus":"Stimuli_Rocks480/S_Breccia_11.png","response":null,"trial_type":"image-keyboard-response","trial_index":67,"plugin_version":"2.1.0","time_elapsed":147660,"subject_id":"87657","group":"Group1","full_date":"2025-12-05T21:00:10.228Z","date":"2025-12-05","time":"21:00:10"},{"rt":null,"stimulus":"<p style=\"font-size: 50px; margin: 0; text-align: center;\">+</p>","response":null,"trial_type":"html-keyboard-response","trial_index":68,"plugin_version":"2.1.0","time_elapsed":148676,"subject_id":"87657","group":"Group1","full_date":"2025-12-05T21:00:10.228Z","date":"2025-12-05","time":"21:00:10"},{"task":"memory_phase","broad_category":"I","image_png":"I_Basalt_09.png","image_id":25,"category_name":"Basalt","category":2,"distinct_rating":1.89,"distinct_type":"Bottom","rt":null,"stimulus":"Stimuli_Rocks480/I_Basalt_09.png","response":null,"trial_type":"image-keyboard-response","trial_index":69,"plugin_version":"2.1.0","time_elapsed":151181,"subject_id":"87657","group":"Group1","full_date":"2025-12-05T21:00:10.228Z","date":"2025-12-05","time":"21:00:10"},{"rt":null,"stimulus":"<p style=\"font-size: 50px; margin: 0; text-align: center;\">+</p>","response":null,"trial_type":"html-keyboard-response","trial_index":70,"plugin_version":"2.1.0","time_elapsed":152196,"subject_id":"87657","group":"Group1","full_date":"2025-12-05T21:00:10.228Z","date":"2025-12-05","time":"21:00:10"},{"task":"memory_phase","broad_category":"M","image_png":"M_Marble_06.png","image_id":230,"category_name":"Marble","category":15,"distinct_rating":3.4,"distinct_type":"Bottom","rt":null,"stimulus":"Stimuli_Rocks480/M_Marble_06.png","response":null,"trial_type":"image-keyboard-response","trial_index":71,"plugin_version":"2.1.0","time_elapsed":154709,"subject_id":"87657","group":"Group1","full_date":"2025-12-05T21:00:10.228Z","date":"2025-12-05","time":"21:00:10"},{"rt":null,"stimulus":"<p style=\"font-size: 50px; margin: 0; text-align: center;\">+</p>","response":null,"trial_type":"html-keyboard-response","trial_index":72,"plugin_version":"2.1.0","time_elapsed":155724,"subject_id":"87657","group":"Group1","full_date":"2025-12-05T21:00:10.228Z","date":"2025-12-05","time":"21:00:10"},{"task":"memory_phase","broad_category":"I","image_png":"I_Basalt_02.png","image_id":18,"category_name":"Basalt","category":2,"distinct_rating":1.84,"distinct_type":"Bottom","rt":null,"stimulus":"Stimuli_Rocks480/I_Basalt_02.png","response":null,"trial_type":"image-keyboard-response","trial_index":73,"plugin_version":"2.1.0","time_elapsed":158240,"subject_id":"87657","group":"Group1","full_date":"2025-12-05T21:00:10.228Z","date":"2025-12-05","time":"21:00:10"},{"rt":null,"stimulus":"<p style=\"font-size: 50px; margin: 0; text-align: center;\">+</p>","response":null,"trial_type":"html-keyboard-response","trial_index":74,"plugin_version":"2.1.0","time_elapsed":159243,"subject_id":"87657","group":"Group1","full_date":"2025-12-05T21:00:10.228Z","date":"2025-12-05","time":"21:00:10"},{"task":"memory_phase","broad_category":"S","image_png":"S_Conglomerate_05.png","image_id":373,"category_name":"Conglomerate","category":24,"distinct_rating":7.32,"distinct_type":"Top","rt":null,"stimulus":"Stimuli_Rocks480/S_Conglomerate_05.png","response":null,"trial_type":"image-keyboard-response","trial_index":75,"plugin_version":"2.1.0","time_elapsed":161757,"subject_id":"87657","group":"Group1","full_date":"2025-12-05T21:00:10.228Z","date":"2025-12-05","time":"21:00:10"},{"rt":null,"stimulus":"<p style=\"font-size: 50px; margin: 0; text-align: center;\">+</p>","response":null,"trial_type":"html-keyboard-response","trial_index":76,"plugin_version":"2.1.0","time_elapsed":162767,"subject_id":"87657","group":"Group1","full_date":"2025-12-05T21:00:10.228Z","date":"2025-12-05","time":"21:00:10"},{"task":"memory_phase","broad_category":"I","image_png":"I_Rhyolite_11.png","image_id":155,"category_name":"Rhyolite","category":10,"distinct_rating":1.73,"distinct_type":"Bottom","rt":null,"stimulus":"Stimuli_Rocks480/I_Rhyolite_11.png","response":null,"trial_type":"image-keyboard-response","trial_index":77,"plugin_version":"2.1.0","time_elapsed":165271,"subject_id":"87657","group":"Group1","full_date":"2025-12-05T21:00:10.228Z","date":"2025-12-05","time":"21:00:10"},{"rt":null,"stimulus":"<p style=\"font-size: 50px; margin: 0; text-align: center;\">+</p>","response":null,"trial_type":"html-keyboard-response","trial_index":78,"plugin_version":"2.1.0","time_elapsed":166280,"subject_id":"87657","group":"Group1","full_date":"2025-12-05T21:00:10.228Z","date":"2025-12-05","time":"21:00:10"},{"task":"memory_phase","broad_category":"I","image_png":"I_Pumice_12.png","image_id":140,"category_name":"Pumice","category":9,"distinct_rating":2.97,"distinct_type":"Bottom","rt":null,"stimulus":"Stimuli_Rocks480/I_Pumice_12.png","response":null,"trial_type":"image-keyboard-response","trial_index":79,"plugin_version":"2.1.0","time_elapsed":168791,"subject_id":"87657","group":"Group1","full_date":"2025-12-05T21:00:10.228Z","date":"2025-12-05","time":"21:00:10"},{"rt":null,"stimulus":"<p style=\"font-size: 50px; margin: 0; text-align: center;\">+</p>","response":null,"trial_type":"html-keyboard-response","trial_index":80,"plugin_version":"2.1.0","time_elapsed":169798,"subject_id":"87657","group":"Group1","full_date":"2025-12-05T21:00:10.228Z","date":"2025-12-05","time":"21:00:10"},{"task":"memory_phase","broad_category":"M","image_png":"M_Gneiss_13.png","image_id":205,"category_name":"Gneiss","category":13,"distinct_rating":3.26,"distinct_type":"Bottom","rt":null,"stimulus":"Stimuli_Rocks480/M_Gneiss_13.png","response":null,"trial_type":"image-keyboard-response","trial_index":81,"plugin_version":"2.1.0","time_elapsed":172310,"subject_id":"87657","group":"Group1","full_date":"2025-12-05T21:00:10.228Z","date":"2025-12-05","time":"21:00:10"},{"rt":null,"stimulus":"<p style=\"font-size: 50px; margin: 0; text-align: center;\">+</p>","response":null,"trial_type":"html-keyboard-response","trial_index":82,"plugin_version":"2.1.0","time_elapsed":173327,"subject_id":"87657","group":"Group1","full_date":"2025-12-05T21:00:10.228Z","date":"2025-12-05","time":"21:00:10"},{"task":"memory_phase","broad_category":"M","image_png":"M_Gneiss_06.png","image_id":198,"category_name":"Gneiss","category":13,"distinct_rating":2.65,"distinct_type":"Bottom","rt":null,"stimulus":"Stimuli_Rocks480/M_Gneiss_06.png","response":null,"trial_type":"image-keyboard-response","trial_index":83,"plugin_version":"2.1.0","time_elapsed":175832,"subject_id":"87657","group":"Group1","full_date":"2025-12-05T21:00:10.228Z","date":"2025-12-05","time":"21:00:10"},{"rt":null,"stimulus":"<p style=\"font-size: 50px; margin: 0; text-align: center;\">+</p>","response":null,"trial_type":"html-keyboard-response","trial_index":84,"plugin_version":"2.1.0","time_elapsed":176850,"subject_id":"87657","group":"Group1","full_date":"2025-12-05T21:00:10.228Z","date":"2025-12-05","time":"21:00:10"},{"task":"memory_phase","broad_category":"S","image_png":"S_Shale_12.png","image_id":476,"category_name":"Shale","category":30,"distinct_rating":2.48,"distinct_type":"Bottom","rt":null,"stimulus":"Stimuli_Rocks480/S_Shale_12.png","response":null,"trial_type":"image-keyboard-response","trial_index":85,"plugin_version":"2.1.0","time_elapsed":179360,"subject_id":"87657","group":"Group1","full_date":"2025-12-05T21:00:10.228Z","date":"2025-12-05","time":"21:00:10"},{"rt":null,"stimulus":"<p style=\"font-size: 50px; margin: 0; text-align: center;\">+</p>","response":null,"trial_type":"html-keyboard-response","trial_index":86,"plugin_version":"2.1.0","time_elapsed":180367,"subject_id":"87657","group":"Group1","full_date":"2025-12-05T21:00:10.228Z","date":"2025-12-05","time":"21:00:10"},{"task":"memory_phase","broad_category":"I","image_png":"I_Rhyolite_16.png","image_id":160,"category_name":"Rhyolite","category":10,"distinct_rating":2.19,"distinct_type":"Bottom","rt":null,"stimulus":"Stimuli_Rocks480/I_Rhyolite_16.png","response":null,"trial_type":"image-keyboard-response","trial_index":87,"plugin_version":"2.1.0","time_elapsed":182876,"subject_id":"87657","group":"Group1","full_date":"2025-12-05T21:00:10.228Z","date":"2025-12-05","time":"21:00:10"},{"rt":null,"stimulus":"<p style=\"font-size: 50px; margin: 0; text-align: center;\">+</p>","response":null,"trial_type":"html-keyboard-response","trial_index":88,"plugin_version":"2.1.0","time_elapsed":183889,"subject_id":"87657","group":"Group1","full_date":"2025-12-05T21:00:10.228Z","date":"2025-12-05","time":"21:00:10"},{"task":"memory_phase","broad_category":"I","image_png":"I_Pumice_11.png","image_id":139,"category_name":"Pumice","category":9,"distinct_rating":1.74,"distinct_type":"Bottom","rt":null,"stimulus":"Stimuli_Rocks480/I_Pumice_11.png","response":null,"trial_type":"image-keyboard-response","trial_index":89,"plugin_version":"2.1.0","time_elapsed":186394,"subject_id":"87657","group":"Group1","full_date":"2025-12-05T21:00:10.228Z","date":"2025-12-05","time":"21:00:10"},{"rt":null,"stimulus":"<p style=\"font-size: 50px; margin: 0; text-align: center;\">+</p>","response":null,"trial_type":"html-keyboard-response","trial_index":90,"plugin_version":"2.1.0","time_elapsed":187407,"subject_id":"87657","group":"Group1","full_date":"2025-12-05T21:00:10.228Z","date":"2025-12-05","time":"21:00:10"},{"task":"memory_phase","broad_category":"I","image_png":"I_Diorite_04.png","image_id":36,"category_name":"Diorite","category":3,"distinct_rating":2.98,"distinct_type":"Bottom","rt":null,"stimulus":"Stimuli_Rocks480/I_Diorite_04.png","response":null,"trial_type":"image-keyboard-response","trial_index":91,"plugin_version":"2.1.0","time_elapsed":189919,"subject_id":"87657","group":"Group1","full_date":"2025-12-05T21:00:10.228Z","date":"2025-12-05","time":"21:00:10"},{"rt":null,"stimulus":"<p style=\"font-size: 50px; margin: 0; text-align: center;\">+</p>","response":null,"trial_type":"html-keyboard-response","trial_index":92,"plugin_version":"2.1.0","time_elapsed":190927,"subject_id":"87657","group":"Group1","full_date":"2025-12-05T21:00:10.228Z","date":"2025-12-05","time":"21:00:10"},{"task":"memory_phase","broad_category":"I","image_png":"I_Pegmatite_10.png","image_id":106,"category_name":"Pegmatite","category":7,"distinct_rating":7.66,"distinct_type":"Top","rt":null,"stimulus":"Stimuli_Rocks480/I_Pegmatite_10.png","response":null,"trial_type":"image-keyboard-response","trial_index":93,"plugin_version":"2.1.0","time_elapsed":193435,"subject_id":"87657","group":"Group1","full_date":"2025-12-05T21:00:10.228Z","date":"2025-12-05","time":"21:00:10"},{"rt":null,"stimulus":"<p style=\"font-size: 50px; margin: 0; text-align: center;\">+</p>","response":null,"trial_type":"html-keyboard-response","trial_index":94,"plugin_version":"2.1.0","time_elapsed":194446,"subject_id":"87657","group":"Group1","full_date":"2025-12-05T21:00:10.228Z","date":"2025-12-05","time":"21:00:10"},{"task":"memory_phase","broad_category":"I","image_png":"I_Pegmatite_16.png","image_id":112,"category_name":"Pegmatite","category":7,"distinct_rating":7.03,"distinct_type":"Top","rt":null,"stimulus":"Stimuli_Rocks480/I_Pegmatite_16.png","response":null,"trial_type":"image-keyboard-response","trial_index":95,"plugin_version":"2.1.0","time_elapsed":196949,"subject_id":"87657","group":"Group1","full_date":"2025-12-05T21:00:10.228Z","date":"2025-12-05","time":"21:00:10"},{"rt":null,"stimulus":"<p style=\"font-size: 50px; margin: 0; text-align: center;\">+</p>","response":null,"trial_type":"html-keyboard-response","trial_index":96,"plugin_version":"2.1.0","time_elapsed":197959,"subject_id":"87657","group":"Group1","full_date":"2025-12-05T21:00:10.228Z","date":"2025-12-05","time":"21:00:10"},{"task":"memory_phase","broad_category":"S","image_png":"S_Sandstone_15.png","image_id":463,"category_name":"Sandstone","category":29,"distinct_rating":2,"distinct_type":"Bottom","rt":null,"stimulus":"Stimuli_Rocks480/S_Sandstone_15.png","response":null,"trial_type":"image-keyboard-response","trial_index":97,"plugin_version":"2.1.0","time_elapsed":200478,"subject_id":"87657","group":"Group1","full_date":"2025-12-05T21:00:10.228Z","date":"2025-12-05","time":"21:00:10"},{"rt":null,"stimulus":"<p style=\"font-size: 50px; margin: 0; text-align: center;\">+</p>","response":null,"trial_type":"html-keyboard-response","trial_index":98,"plugin_version":"2.1.0","time_elapsed":201496,"subject_id":"87657","group":"Group1","full_date":"2025-12-05T21:00:10.228Z","date":"2025-12-05","time":"21:00:10"},{"task":"memory_phase","broad_category":"I","image_png":"I_Pumice_08.png","image_id":136,"category_name":"Pumice","category":9,"distinct_rating":3.1,"distinct_type":"Bottom","rt":null,"stimulus":"Stimuli_Rocks480/I_Pumice_08.png","response":null,"trial_type":"image-keyboard-response","trial_index":99,"plugin_version":"2.1.0","time_elapsed":204006,"subject_id":"87657","group":"Group1","full_date":"2025-12-05T21:00:10.228Z","date":"2025-12-05","time":"21:00:10"},{"rt":null,"stimulus":"<p style=\"font-size: 50px; margin: 0; text-align: center;\">+</p>","response":null,"trial_type":"html-keyboard-response","trial_index":100,"plugin_version":"2.1.0","time_elapsed":205009,"subject_id":"87657","group":"Group1","full_date":"2025-12-05T21:00:10.228Z","date":"2025-12-05","time":"21:00:10"},{"task":"memory_phase","broad_category":"S","image_png":"S_Rock Gypsum_04.png","image_id":420,"category_name":"Rock Gypsum","category":27,"distinct_rating":7.61,"distinct_type":"Top","rt":null,"stimulus":"Stimuli_Rocks480/S_Rock Gypsum_04.png","response":null,"trial_type":"image-keyboard-response","trial_index":101,"plugin_version":"2.1.0","time_elapsed":207521,"subject_id":"87657","group":"Group1","full_date":"2025-12-05T21:00:10.228Z","date":"2025-12-05","time":"21:00:10"},{"rt":null,"stimulus":"<p style=\"font-size: 50px; margin: 0; text-align: center;\">+</p>","response":null,"trial_type":"html-keyboard-response","trial_index":102,"plugin_version":"2.1.0","time_elapsed":208533,"subject_id":"87657","group":"Group1","full_date":"2025-12-05T21:00:10.228Z","date":"2025-12-05","time":"21:00:10"},{"task":"memory_phase","broad_category":"S","image_png":"S_Sandstone_03.png","image_id":451,"category_name":"Sandstone","category":29,"distinct_rating":1.86,"distinct_type":"Bottom","rt":null,"stimulus":"Stimuli_Rocks480/S_Sandstone_03.png","response":null,"trial_type":"image-keyboard-response","trial_index":103,"plugin_version":"2.1.0","time_elapsed":211049,"subject_id":"87657","group":"Group1","full_date":"2025-12-05T21:00:10.228Z","date":"2025-12-05","time":"21:00:10"},{"rt":null,"stimulus":"<p style=\"font-size: 50px; margin: 0; text-align: center;\">+</p>","response":null,"trial_type":"html-keyboard-response","trial_index":104,"plugin_version":"2.1.0","time_elapsed":212057,"subject_id":"87657","group":"Group1","full_date":"2025-12-05T21:00:10.228Z","date":"2025-12-05","time":"21:00:10"},{"task":"memory_phase","broad_category":"S","image_png":"S_Sandstone_16.png","image_id":464,"category_name":"Sandstone","category":29,"distinct_rating":1.93,"distinct_type":"Bottom","rt":null,"stimulus":"Stimuli_Rocks480/S_Sandstone_16.png","response":null,"trial_type":"image-keyboard-response","trial_index":105,"plugin_version":"2.1.0","time_elapsed":214566,"subject_id":"87657","group":"Group1","full_date":"2025-12-05T21:00:10.228Z","date":"2025-12-05","time":"21:00:10"},{"rt":39168,"stimulus":"<p style=\"max-width: 760px; margin: auto; font-size: 35px; line-height: 1.5;\">You have completed 1 study phase. Now, we'll show you all the images again 2 more times.<br><br>Press SPACE to continue</p>","response":" ","trial_type":"html-keyboard-response","trial_index":106,"plugin_version":"2.1.0","time_elapsed":253736,"subject_id":"87657","group":"Group1","full_date":"2025-12-05T21:00:10.228Z","date":"2025-12-05","time":"21:00:10"},{"rt":null,"stimulus":"<p style=\"font-size: 50px; margin: 0; text-align: center;\">+</p>","response":null,"trial_type":"html-keyboard-response","trial_index":107,"plugin_version":"2.1.0","time_elapsed":254750,"subject_id":"87657","group":"Group1","full_date":"2025-12-05T21:00:10.228Z","date":"2025-12-05","time":"21:00:10"},{"task":"memory_phase","broad_category":"S","image_png":"S_Breccia_11.png","image_id":347,"category_name":"Breccia","category":22,"distinct_rating":6.7,"distinct_type":"Top","rt":null,"stimulus":"Stimuli_Rocks480/S_Breccia_11.png","response":null,"trial_type":"image-keyboard-response","trial_index":108,"plugin_version":"2.1.0","time_elapsed":257259,"subject_id":"87657","group":"Group1","full_date":"2025-12-05T21:00:10.228Z","date":"2025-12-05","time":"21:00:10"},{"rt":null,"stimulus":"<p style=\"font-size: 50px; margin: 0; text-align: center;\">+</p>","response":null,"trial_type":"html-keyboard-response","trial_index":109,"plugin_version":"2.1.0","time_elapsed":258273,"subject_id":"87657","group":"Group1","full_date":"2025-12-05T21:00:10.228Z","date":"2025-12-05","time":"21:00:10"},{"task":"memory_phase","broad_category":"I","image_png":"I_Basalt_02.png","image_id":18,"category_name":"Basalt","category":2,"distinct_rating":1.84,"distinct_type":"Bottom","rt":null,"stimulus":"Stimuli_Rocks480/I_Basalt_02.png","response":null,"trial_type":"image-keyboard-response","trial_index":110,"plugin_version":"2.1.0","time_elapsed":260780,"subject_id":"87657","group":"Group1","full_date":"2025-12-05T21:00:10.228Z","date":"2025-12-05","time":"21:00:10"},{"rt":null,"stimulus":"<p style=\"font-size: 50px; margin: 0; text-align: center;\">+</p>","response":null,"trial_type":"html-keyboard-response","trial_index":111,"plugin_version":"2.1.0","time_elapsed":261792,"subject_id":"87657","group":"Group1","full_date":"2025-12-05T21:00:10.228Z","date":"2025-12-05","time":"21:00:10"},{"task":"memory_phase","broad_category":"I","image_png":"I_Pumice_12.png","image_id":140,"category_name":"Pumice","category":9,"distinct_rating":2.97,"distinct_type":"Bottom","rt":null,"stimulus":"Stimuli_Rocks480/I_Pumice_12.png","response":null,"trial_type":"image-keyboard-response","trial_index":112,"plugin_version":"2.1.0","time_elapsed":264300,"subject_id":"87657","group":"Group1","full_date":"2025-12-05T21:00:10.228Z","date":"2025-12-05","time":"21:00:10"},{"rt":null,"stimulus":"<p style=\"font-size: 50px; margin: 0; text-align: center;\">+</p>","response":null,"trial_type":"html-keyboard-response","trial_index":113,"plugin_version":"2.1.0","time_elapsed":265316,"subject_id":"87657","group":"Group1","full_date":"2025-12-05T21:00:10.228Z","date":"2025-12-05","time":"21:00:10"},{"task":"memory_phase","broad_category":"I","image_png":"I_Gabbro_16.png","image_id":64,"category_name":"Gabbro","category":4,"distinct_rating":2.52,"distinct_type":"Bottom","rt":null,"stimulus":"Stimuli_Rocks480/I_Gabbro_16.png","response":null,"trial_type":"image-keyboard-response","trial_index":114,"plugin_version":"2.1.0","time_elapsed":267828,"subject_id":"87657","group":"Group1","full_date":"2025-12-05T21:00:10.228Z","date":"2025-12-05","time":"21:00:10"},{"rt":null,"stimulus":"<p style=\"font-size: 50px; margin: 0; text-align: center;\">+</p>","response":null,"trial_type":"html-keyboard-response","trial_index":115,"plugin_version":"2.1.0","time_elapsed":268845,"subject_id":"87657","group":"Group1","full_date":"2025-12-05T21:00:10.228Z","date":"2025-12-05","time":"21:00:10"},{"task":"memory_phase","broad_category":"I","image_png":"I_Andesite_10.png","image_id":10,"category_name":"Andesite","category":1,"distinct_rating":3.15,"distinct_type":"Bottom","rt":null,"stimulus":"Stimuli_Rocks480/I_Andesite_10.png","response":null,"trial_type":"image-keyboard-response","trial_index":116,"plugin_version":"2.1.0","time_elapsed":271359,"subject_id":"87657","group":"Group1","full_date":"2025-12-05T21:00:10.228Z","date":"2025-12-05","time":"21:00:10"},{"rt":null,"stimulus":"<p style=\"font-size: 50px; margin: 0; text-align: center;\">+</p>","response":null,"trial_type":"html-keyboard-response","trial_index":117,"plugin_version":"2.1.0","time_elapsed":272368,"subject_id":"87657","group":"Group1","full_date":"2025-12-05T21:00:10.228Z","date":"2025-12-05","time":"21:00:10"},{"task":"memory_phase","broad_category":"I","image_png":"I_Pumice_11.png","image_id":139,"category_name":"Pumice","category":9,"distinct_rating":1.74,"distinct_type":"Bottom","rt":null,"stimulus":"Stimuli_Rocks480/I_Pumice_11.png","response":null,"trial_type":"image-keyboard-response","trial_index":118,"plugin_version":"2.1.0","time_elapsed":274876,"subject_id":"87657","group":"Group1","full_date":"2025-12-05T21:00:10.228Z","date":"2025-12-05","time":"21:00:10"},{"rt":null,"stimulus":"<p style=\"font-size: 50px; margin: 0; text-align: center;\">+</p>","response":null,"trial_type":"html-keyboard-response","trial_index":119,"plugin_version":"2.1.0","time_elapsed":275882,"subject_id":"87657","group":"Group1","full_date":"2025-12-05T21:00:10.228Z","date":"2025-12-05","time":"21:00:10"},{"task":"memory_phase","broad_category":"I","image_png":"I_Diorite_03.png","image_id":35,"category_name":"Diorite","category":3,"distinct_rating":3.14,"distinct_type":"Bottom","rt":null,"stimulus":"Stimuli_Rocks480/I_Diorite_03.png","response":null,"trial_type":"image-keyboard-response","trial_index":120,"plugin_version":"2.1.0","time_elapsed":278393,"subject_id":"87657","group":"Group1","full_date":"2025-12-05T21:00:10.228Z","date":"2025-12-05","time":"21:00:10"},{"rt":null,"stimulus":"<p style=\"font-size: 50px; margin: 0; text-align: center;\">+</p>","response":null,"trial_type":"html-keyboard-response","trial_index":121,"plugin_version":"2.1.0","time_elapsed":279402,"subject_id":"87657","group":"Group1","full_date":"2025-12-05T21:00:10.228Z","date":"2025-12-05","time":"21:00:10"},{"task":"memory_phase","broad_category":"I","image_png":"I_Pegmatite_10.png","image_id":106,"category_name":"Pegmatite","category":7,"distinct_rating":7.66,"distinct_type":"Top","rt":null,"stimulus":"Stimuli_Rocks480/I_Pegmatite_10.png","response":null,"trial_type":"image-keyboard-response","trial_index":122,"plugin_version":"2.1.0","time_elapsed":281909,"subject_id":"87657","group":"Group1","full_date":"2025-12-05T21:00:10.228Z","date":"2025-12-05","time":"21:00:10"},{"rt":null,"stimulus":"<p style=\"font-size: 50px; margin: 0; text-align: center;\">+</p>","response":null,"trial_type":"html-keyboard-response","trial_index":123,"plugin_version":"2.1.0","time_elapsed":282914,"subject_id":"87657","group":"Group1","full_date":"2025-12-05T21:00:10.228Z","date":"2025-12-05","time":"21:00:10"},{"task":"memory_phase","broad_category":"M","image_png":"M_Marble_06.png","image_id":230,"category_name":"Marble","category":15,"distinct_rating":3.4,"distinct_type":"Bottom","rt":null,"stimulus":"Stimuli_Rocks480/M_Marble_06.png","response":null,"trial_type":"image-keyboard-response","trial_index":124,"plugin_version":"2.1.0","time_elapsed":285421,"subject_id":"87657","group":"Group1","full_date":"2025-12-05T21:00:10.228Z","date":"2025-12-05","time":"21:00:10"},{"rt":null,"stimulus":"<p style=\"font-size: 50px; margin: 0; text-align: center;\">+</p>","response":null,"trial_type":"html-keyboard-response","trial_index":125,"plugin_version":"2.1.0","time_elapsed":286429,"subject_id":"87657","group":"Group1","full_date":"2025-12-05T21:00:10.228Z","date":"2025-12-05","time":"21:00:10"},{"task":"memory_phase","broad_category":"S","image_png":"S_Rock Gypsum_04.png","image_id":420,"category_name":"Rock Gypsum","category":27,"distinct_rating":7.61,"distinct_type":"Top","rt":null,"stimulus":"Stimuli_Rocks480/S_Rock Gypsum_04.png","response":null,"trial_type":"image-keyboard-response","trial_index":126,"plugin_version":"2.1.0","time_elapsed":288939,"subject_id":"87657","group":"Group1","full_date":"2025-12-05T21:00:10.228Z","date":"2025-12-05","time":"21:00:10"},{"rt":null,"stimulus":"<p style=\"font-size: 50px; margin: 0; text-align: center;\">+</p>","response":null,"trial_type":"html-keyboard-response","trial_index":127,"plugin_version":"2.1.0","time_elapsed":289956,"subject_id":"87657","group":"Group1","full_date":"2025-12-05T21:00:10.228Z","date":"2025-12-05","time":"21:00:10"},{"task":"memory_phase","broad_category":"S","image_png":"S_Rock Salt_01.png","image_id":433,"category_name":"Rock Salt","category":28,"distinct_rating":7.18,"distinct_type":"Top","rt":null,"stimulus":"Stimuli_Rocks480/S_Rock Salt_01.png","response":null,"trial_type":"image-keyboard-response","trial_index":128,"plugin_version":"2.1.0","time_elapsed":292473,"subject_id":"87657","group":"Group1","full_date":"2025-12-05T21:00:10.228Z","date":"2025-12-05","time":"21:00:10"},{"rt":null,"stimulus":"<p style=\"font-size: 50px; margin: 0; text-align: center;\">+</p>","response":null,"trial_type":"html-keyboard-response","trial_index":129,"plugin_version":"2.1.0","time_elapsed":293487,"subject_id":"87657","group":"Group1","full_date":"2025-12-05T21:00:10.228Z","date":"2025-12-05","time":"21:00:10"},{"task":"memory_phase","broad_category":"M","image_png":"M_Marble_04.png","image_id":228,"category_name":"Marble","category":15,"distinct_rating":3.15,"distinct_type":"Bottom","rt":null,"stimulus":"Stimuli_Rocks480/M_Marble_04.png","response":null,"trial_type":"image-keyboard-response","trial_index":130,"plugin_version":"2.1.0","time_elapsed":295992,"subject_id":"87657","group":"Group1","full_date":"2025-12-05T21:00:10.228Z","date":"2025-12-05","time":"21:00:10"},{"rt":null,"stimulus":"<p style=\"font-size: 50px; margin: 0; text-align: center;\">+</p>","response":null,"trial_type":"html-keyboard-response","trial_index":131,"plugin_version":"2.1.0","time_elapsed":297007,"subject_id":"87657","group":"Group1","full_date":"2025-12-05T21:00:10.228Z","date":"2025-12-05","time":"21:00:10"},{"task":"memory_phase","broad_category":"I","image_png":"I_Obsidian_05.png","image_id":85,"category_name":"Obsidian","category":6,"distinct_rating":7.32,"distinct_type":"Top","rt":null,"stimulus":"Stimuli_Rocks480/I_Obsidian_05.png","response":null,"trial_type":"image-keyboard-response","trial_index":132,"plugin_version":"2.1.0","time_elapsed":299522,"subject_id":"87657","group":"Group1","full_date":"2025-12-05T21:00:10.228Z","date":"2025-12-05","time":"21:00:10"},{"rt":null,"stimulus":"<p style=\"font-size: 50px; margin: 0; text-align: center;\">+</p>","response":null,"trial_type":"html-keyboard-response","trial_index":133,"plugin_version":"2.1.0","time_elapsed":300528,"subject_id":"87657","group":"Group1","full_date":"2025-12-05T21:00:10.228Z","date":"2025-12-05","time":"21:00:10"},{"task":"memory_phase","broad_category":"I","image_png":"I_Pumice_08.png","image_id":136,"category_name":"Pumice","category":9,"distinct_rating":3.1,"distinct_type":"Bottom","rt":null,"stimulus":"Stimuli_Rocks480/I_Pumice_08.png","response":null,"trial_type":"image-keyboard-response","trial_index":134,"plugin_version":"2.1.0","time_elapsed":303038,"subject_id":"87657","group":"Group1","full_date":"2025-12-05T21:00:10.228Z","date":"2025-12-05","time":"21:00:10"},{"rt":null,"stimulus":"<p style=\"font-size: 50px; margin: 0; text-align: center;\">+</p>","response":null,"trial_type":"html-keyboard-response","trial_index":135,"plugin_version":"2.1.0","time_elapsed":304054,"subject_id":"87657","group":"Group1","full_date":"2025-12-05T21:00:10.228Z","date":"2025-12-05","time":"21:00:10"},{"task":"memory_phase","broad_category":"I","image_png":"I_Diorite_05.png","image_id":37,"category_name":"Diorite","category":3,"distinct_rating":3.08,"distinct_type":"Bottom","rt":null,"stimulus":"Stimuli_Rocks480/I_Diorite_05.png","response":null,"trial_type":"image-keyboard-response","trial_index":136,"plugin_version":"2.1.0","time_elapsed":306561,"subject_id":"87657","group":"Group1","full_date":"2025-12-05T21:00:10.228Z","date":"2025-12-05","time":"21:00:10"},{"rt":null,"stimulus":"<p style=\"font-size: 50px; margin: 0; text-align: center;\">+</p>","response":null,"trial_type":"html-keyboard-response","trial_index":137,"plugin_version":"2.1.0","time_elapsed":307577,"subject_id":"87657","group":"Group1","full_date":"2025-12-05T21:00:10.228Z","date":"2025-12-05","time":"21:00:10"},{"task":"memory_phase","broad_category":"S","image_png":"S_Shale_08.png","image_id":472,"category_name":"Shale","category":30,"distinct_rating":2.55,"distinct_type":"Bottom","rt":null,"stimulus":"Stimuli_Rocks480/S_Shale_08.png","response":null,"trial_type":"image-keyboard-response","trial_index":138,"plugin_version":"2.1.0","time_elapsed":310082,"subject_id":"87657","group":"Group1","full_date":"2025-12-05T21:00:10.228Z","date":"2025-12-05","time":"21:00:10"},{"rt":null,"stimulus":"<p style=\"font-size: 50px; margin: 0; text-align: center;\">+</p>","response":null,"trial_type":"html-keyboard-response","trial_index":139,"plugin_version":"2.1.0","time_elapsed":311085,"subject_id":"87657","group":"Group1","full_date":"2025-12-05T21:00:10.228Z","date":"2025-12-05","time":"21:00:10"},{"task":"memory_phase","broad_category":"I","image_png":"I_Rhyolite_16.png","image_id":160,"category_name":"Rhyolite","category":10,"distinct_rating":2.19,"distinct_type":"Bottom","rt":null,"stimulus":"Stimuli_Rocks480/I_Rhyolite_16.png","response":null,"trial_type":"image-keyboard-response","trial_index":140,"plugin_version":"2.1.0","time_elapsed":313603,"subject_id":"87657","group":"Group1","full_date":"2025-12-05T21:00:10.228Z","date":"2025-12-05","time":"21:00:10"},{"rt":null,"stimulus":"<p style=\"font-size: 50px; margin: 0; text-align: center;\">+</p>","response":null,"trial_type":"html-keyboard-response","trial_index":141,"plugin_version":"2.1.0","time_elapsed":314616,"subject_id":"87657","group":"Group1","full_date":"2025-12-05T21:00:10.228Z","date":"2025-12-05","time":"21:00:10"},{"task":"memory_phase","broad_category":"I","image_png":"I_Rhyolite_11.png","image_id":155,"category_name":"Rhyolite","category":10,"distinct_rating":1.73,"distinct_type":"Bottom","rt":null,"stimulus":"Stimuli_Rocks480/I_Rhyolite_11.png","response":null,"trial_type":"image-keyboard-response","trial_index":142,"plugin_version":"2.1.0","time_elapsed":317135,"subject_id":"87657","group":"Group1","full_date":"2025-12-05T21:00:10.228Z","date":"2025-12-05","time":"21:00:10"},{"rt":null,"stimulus":"<p style=\"font-size: 50px; margin: 0; text-align: center;\">+</p>","response":null,"trial_type":"html-keyboard-response","trial_index":143,"plugin_version":"2.1.0","time_elapsed":318142,"subject_id":"87657","group":"Group1","full_date":"2025-12-05T21:00:10.228Z","date":"2025-12-05","time":"21:00:10"},{"task":"memory_phase","broad_category":"S","image_png":"S_Conglomerate_05.png","image_id":373,"category_name":"Conglomerate","category":24,"distinct_rating":7.32,"distinct_type":"Top","rt":null,"stimulus":"Stimuli_Rocks480/S_Conglomerate_05.png","response":null,"trial_type":"image-keyboard-response","trial_index":144,"plugin_version":"2.1.0","time_elapsed":320657,"subject_id":"87657","group":"Group1","full_date":"2025-12-05T21:00:10.228Z","date":"2025-12-05","time":"21:00:10"},{"rt":null,"stimulus":"<p style=\"font-size: 50px; margin: 0; text-align: center;\">+</p>","response":null,"trial_type":"html-keyboard-response","trial_index":145,"plugin_version":"2.1.0","time_elapsed":321668,"subject_id":"87657","group":"Group1","full_date":"2025-12-05T21:00:10.228Z","date":"2025-12-05","time":"21:00:10"},{"task":"memory_phase","broad_category":"I","image_png":"I_Andesite_08.png","image_id":8,"category_name":"Andesite","category":1,"distinct_rating":1.95,"distinct_type":"Bottom","rt":null,"stimulus":"Stimuli_Rocks480/I_Andesite_08.png","response":null,"trial_type":"image-keyboard-response","trial_index":146,"plugin_version":"2.1.0","time_elapsed":324187,"subject_id":"87657","group":"Group1","full_date":"2025-12-05T21:00:10.228Z","date":"2025-12-05","time":"21:00:10"},{"rt":null,"stimulus":"<p style=\"font-size: 50px; margin: 0; text-align: center;\">+</p>","response":null,"trial_type":"html-keyboard-response","trial_index":147,"plugin_version":"2.1.0","time_elapsed":325197,"subject_id":"87657","group":"Group1","full_date":"2025-12-05T21:00:10.228Z","date":"2025-12-05","time":"21:00:10"},{"task":"memory_phase","broad_category":"M","image_png":"M_Gneiss_13.png","image_id":205,"category_name":"Gneiss","category":13,"distinct_rating":3.26,"distinct_type":"Bottom","rt":null,"stimulus":"Stimuli_Rocks480/M_Gneiss_13.png","response":null,"trial_type":"image-keyboard-response","trial_index":148,"plugin_version":"2.1.0","time_elapsed":327701,"subject_id":"87657","group":"Group1","full_date":"2025-12-05T21:00:10.228Z","date":"2025-12-05","time":"21:00:10"},{"rt":null,"stimulus":"<p style=\"font-size: 50px; margin: 0; text-align: center;\">+</p>","response":null,"trial_type":"html-keyboard-response","trial_index":149,"plugin_version":"2.1.0","time_elapsed":328705,"subject_id":"87657","group":"Group1","full_date":"2025-12-05T21:00:10.228Z","date":"2025-12-05","time":"21:00:10"},{"task":"memory_phase","broad_category":"I","image_png":"I_Gabbro_08.png","image_id":56,"category_name":"Gabbro","category":4,"distinct_rating":3.02,"distinct_type":"Bottom","rt":null,"stimulus":"Stimuli_Rocks480/I_Gabbro_08.png","response":null,"trial_type":"image-keyboard-response","trial_index":150,"plugin_version":"2.1.0","time_elapsed":331221,"subject_id":"87657","group":"Group1","full_date":"2025-12-05T21:00:10.228Z","date":"2025-12-05","time":"21:00:10"},{"rt":null,"stimulus":"<p style=\"font-size: 50px; margin: 0; text-align: center;\">+</p>","response":null,"trial_type":"html-keyboard-response","trial_index":151,"plugin_version":"2.1.0","time_elapsed":332228,"subject_id":"87657","group":"Group1","full_date":"2025-12-05T21:00:10.228Z","date":"2025-12-05","time":"21:00:10"},{"task":"memory_phase","broad_category":"S","image_png":"S_Dolomite_12.png","image_id":396,"category_name":"Dolomite","category":25,"distinct_rating":1.85,"distinct_type":"Bottom","rt":null,"stimulus":"Stimuli_Rocks480/S_Dolomite_12.png","response":null,"trial_type":"image-keyboard-response","trial_index":152,"plugin_version":"2.1.0","time_elapsed":334744,"subject_id":"87657","group":"Group1","full_date":"2025-12-05T21:00:10.228Z","date":"2025-12-05","time":"21:00:10"},{"rt":null,"stimulus":"<p style=\"font-size: 50px; margin: 0; text-align: center;\">+</p>","response":null,"trial_type":"html-keyboard-response","trial_index":153,"plugin_version":"2.1.0","time_elapsed":335759,"subject_id":"87657","group":"Group1","full_date":"2025-12-05T21:00:10.228Z","date":"2025-12-05","time":"21:00:10"},{"task":"memory_phase","broad_category":"S","image_png":"S_Chert_10.png","image_id":362,"category_name":"Chert","category":23,"distinct_rating":7.17,"distinct_type":"Top","rt":null,"stimulus":"Stimuli_Rocks480/S_Chert_10.png","response":null,"trial_type":"image-keyboard-response","trial_index":154,"plugin_version":"2.1.0","time_elapsed":338265,"subject_id":"87657","group":"Group1","full_date":"2025-12-05T21:00:10.228Z","date":"2025-12-05","time":"21:00:10"},{"rt":null,"stimulus":"<p style=\"font-size: 50px; margin: 0; text-align: center;\">+</p>","response":null,"trial_type":"html-keyboard-response","trial_index":155,"plugin_version":"2.1.0","time_elapsed":339273,"subject_id":"87657","group":"Group1","full_date":"2025-12-05T21:00:10.228Z","date":"2025-12-05","time":"21:00:10"},{"task":"memory_phase","broad_category":"I","image_png":"I_Gabbro_11.png","image_id":59,"category_name":"Gabbro","category":4,"distinct_rating":1.99,"distinct_type":"Bottom","rt":null,"stimulus":"Stimuli_Rocks480/I_Gabbro_11.png","response":null,"trial_type":"image-keyboard-response","trial_index":156,"plugin_version":"2.1.0","time_elapsed":341785,"subject_id":"87657","group":"Group1","full_date":"2025-12-05T21:00:10.228Z","date":"2025-12-05","time":"21:00:10"},{"rt":5002,"stimulus":"<p style=\"max-width: 760px; margin: auto; font-size: 35px; line-height: 1.5;\">Press SPACE to continue study phase</p>","response":" ","trial_type":"html-keyboard-response","trial_index":157,"plugin_version":"2.1.0","time_elapsed":346788,"subject_id":"87657","group":"Group1","full_date":"2025-12-05T21:00:10.228Z","date":"2025-12-05","time":"21:00:10"},{"rt":null,"stimulus":"<p style=\"font-size: 50px; margin: 0; text-align: center;\">+</p>","response":null,"trial_type":"html-keyboard-response","trial_index":158,"plugin_version":"2.1.0","time_elapsed":347792,"subject_id":"87657","group":"Group1","full_date":"2025-12-05T21:00:10.228Z","date":"2025-12-05","time":"21:00:10"},{"task":"memory_phase","broad_category":"M","image_png":"M_Phyllite_07.png","image_id":263,"category_name":"Phyllite","category":17,"distinct_rating":2.59,"distinct_type":"Bottom","rt":null,"stimulus":"Stimuli_Rocks480/M_Phyllite_07.png","response":null,"trial_type":"image-keyboard-response","trial_index":159,"plugin_version":"2.1.0","time_elapsed":350301,"subject_id":"87657","group":"Group1","full_date":"2025-12-05T21:00:10.228Z","date":"2025-12-05","time":"21:00:10"},{"rt":null,"stimulus":"<p style=\"font-size: 50px; margin: 0; text-align: center;\">+</p>","response":null,"trial_type":"html-keyboard-response","trial_index":160,"plugin_version":"2.1.0","time_elapsed":351306,"subject_id":"87657","group":"Group1","full_date":"2025-12-05T21:00:10.228Z","date":"2025-12-05","time":"21:00:10"},{"task":"memory_phase","broad_category":"M","image_png":"M_Quartzite_13.png","image_id":285,"category_name":"Quartzite","category":18,"distinct_rating":2.27,"distinct_type":"Bottom","rt":null,"stimulus":"Stimuli_Rocks480/M_Quartzite_13.png","response":null,"trial_type":"image-keyboard-response","trial_index":161,"plugin_version":"2.1.0","time_elapsed":353813,"subject_id":"87657","group":"Group1","full_date":"2025-12-05T21:00:10.228Z","date":"2025-12-05","time":"21:00:10"},{"rt":null,"stimulus":"<p style=\"font-size: 50px; margin: 0; text-align: center;\">+</p>","response":null,"trial_type":"html-keyboard-response","trial_index":162,"plugin_version":"2.1.0","time_elapsed":354829,"subject_id":"87657","group":"Group1","full_date":"2025-12-05T21:00:10.228Z","date":"2025-12-05","time":"21:00:10"},{"task":"memory_phase","broad_category":"S","image_png":"S_Sandstone_03.png","image_id":451,"category_name":"Sandstone","category":29,"distinct_rating":1.86,"distinct_type":"Bottom","rt":null,"stimulus":"Stimuli_Rocks480/S_Sandstone_03.png","response":null,"trial_type":"image-keyboard-response","trial_index":163,"plugin_version":"2.1.0","time_elapsed":357341,"subject_id":"87657","group":"Group1","full_date":"2025-12-05T21:00:10.228Z","date":"2025-12-05","time":"21:00:10"},{"rt":null,"stimulus":"<p style=\"font-size: 50px; margin: 0; text-align: center;\">+</p>","response":null,"trial_type":"html-keyboard-response","trial_index":164,"plugin_version":"2.1.0","time_elapsed":358355,"subject_id":"87657","group":"Group1","full_date":"2025-12-05T21:00:10.228Z","date":"2025-12-05","time":"21:00:10"},{"task":"memory_phase","broad_category":"S","image_png":"S_Dolomite_14.png","image_id":398,"category_name":"Dolomite","category":25,"distinct_rating":1.43,"distinct_type":"Bottom","rt":null,"stimulus":"Stimuli_Rocks480/S_Dolomite_14.png","response":null,"trial_type":"image-keyboard-response","trial_index":165,"plugin_version":"2.1.0","time_elapsed":360860,"subject_id":"87657","group":"Group1","full_date":"2025-12-05T21:00:10.228Z","date":"2025-12-05","time":"21:00:10"},{"rt":null,"stimulus":"<p style=\"font-size: 50px; margin: 0; text-align: center;\">+</p>","response":null,"trial_type":"html-keyboard-response","trial_index":166,"plugin_version":"2.1.0","time_elapsed":361866,"subject_id":"87657","group":"Group1","full_date":"2025-12-05T21:00:10.228Z","date":"2025-12-05","time":"21:00:10"},{"task":"memory_phase","broad_category":"I","image_png":"I_Rhyolite_14.png","image_id":158,"category_name":"Rhyolite","category":10,"distinct_rating":2.59,"distinct_type":"Bottom","rt":null,"stimulus":"Stimuli_Rocks480/I_Rhyolite_14.png","response":null,"trial_type":"image-keyboard-response","trial_index":167,"plugin_version":"2.1.0","time_elapsed":364371,"subject_id":"87657","group":"Group1","full_date":"2025-12-05T21:00:10.228Z","date":"2025-12-05","time":"21:00:10"},{"rt":null,"stimulus":"<p style=\"font-size: 50px; margin: 0; text-align: center;\">+</p>","response":null,"trial_type":"html-keyboard-response","trial_index":168,"plugin_version":"2.1.0","time_elapsed":365386,"subject_id":"87657","group":"Group1","full_date":"2025-12-05T21:00:10.228Z","date":"2025-12-05","time":"21:00:10"},{"task":"memory_phase","broad_category":"M","image_png":"M_Gneiss_06.png","image_id":198,"category_name":"Gneiss","category":13,"distinct_rating":2.65,"distinct_type":"Bottom","rt":null,"stimulus":"Stimuli_Rocks480/M_Gneiss_06.png","response":null,"trial_type":"image-keyboard-response","trial_index":169,"plugin_version":"2.1.0","time_elapsed":367898,"subject_id":"87657","group":"Group1","full_date":"2025-12-05T21:00:10.228Z","date":"2025-12-05","time":"21:00:10"},{"rt":null,"stimulus":"<p style=\"font-size: 50px; margin: 0; text-align: center;\">+</p>","response":null,"trial_type":"html-keyboard-response","trial_index":170,"plugin_version":"2.1.0","time_elapsed":368908,"subject_id":"87657","group":"Group1","full_date":"2025-12-05T21:00:10.228Z","date":"2025-12-05","time":"21:00:10"},{"task":"memory_phase","broad_category":"M","image_png":"M_Phyllite_10.png","image_id":266,"category_name":"Phyllite","category":17,"distinct_rating":2.6,"distinct_type":"Bottom","rt":null,"stimulus":"Stimuli_Rocks480/M_Phyllite_10.png","response":null,"trial_type":"image-keyboard-response","trial_index":171,"plugin_version":"2.1.0","time_elapsed":371421,"subject_id":"87657","group":"Group1","full_date":"2025-12-05T21:00:10.228Z","date":"2025-12-05","time":"21:00:10"},{"rt":null,"stimulus":"<p style=\"font-size: 50px; margin: 0; text-align: center;\">+</p>","response":null,"trial_type":"html-keyboard-response","trial_index":172,"plugin_version":"2.1.0","time_elapsed":372438,"subject_id":"87657","group":"Group1","full_date":"2025-12-05T21:00:10.228Z","date":"2025-12-05","time":"21:00:10"},{"task":"memory_phase","broad_category":"I","image_png":"I_Basalt_09.png","image_id":25,"category_name":"Basalt","category":2,"distinct_rating":1.89,"distinct_type":"Bottom","rt":null,"stimulus":"Stimuli_Rocks480/I_Basalt_09.png","response":null,"trial_type":"image-keyboard-response","trial_index":173,"plugin_version":"2.1.0","time_elapsed":374951,"subject_id":"87657","group":"Group1","full_date":"2025-12-05T21:00:10.228Z","date":"2025-12-05","time":"21:00:10"},{"rt":null,"stimulus":"<p style=\"font-size: 50px; margin: 0; text-align: center;\">+</p>","response":null,"trial_type":"html-keyboard-response","trial_index":174,"plugin_version":"2.1.0","time_elapsed":375962,"subject_id":"87657","group":"Group1","full_date":"2025-12-05T21:00:10.228Z","date":"2025-12-05","time":"21:00:10"},{"task":"memory_phase","broad_category":"M","image_png":"M_Phyllite_03.png","image_id":259,"category_name":"Phyllite","category":17,"distinct_rating":2.5,"distinct_type":"Bottom","rt":null,"stimulus":"Stimuli_Rocks480/M_Phyllite_03.png","response":null,"trial_type":"image-keyboard-response","trial_index":175,"plugin_version":"2.1.0","time_elapsed":378476,"subject_id":"87657","group":"Group1","full_date":"2025-12-05T21:00:10.228Z","date":"2025-12-05","time":"21:00:10"},{"rt":null,"stimulus":"<p style=\"font-size: 50px; margin: 0; text-align: center;\">+</p>","response":null,"trial_type":"html-keyboard-response","trial_index":176,"plugin_version":"2.1.0","time_elapsed":379485,"subject_id":"87657","group":"Group1","full_date":"2025-12-05T21:00:10.228Z","date":"2025-12-05","time":"21:00:10"},{"task":"memory_phase","broad_category":"I","image_png":"I_Basalt_01.png","image_id":17,"category_name":"Basalt","category":2,"distinct_rating":1.92,"distinct_type":"Bottom","rt":null,"stimulus":"Stimuli_Rocks480/I_Basalt_01.png","response":null,"trial_type":"image-keyboard-response","trial_index":177,"plugin_version":"2.1.0","time_elapsed":381989,"subject_id":"87657","group":"Group1","full_date":"2025-12-05T21:00:10.228Z","date":"2025-12-05","time":"21:00:10"},{"rt":null,"stimulus":"<p style=\"font-size: 50px; margin: 0; text-align: center;\">+</p>","response":null,"trial_type":"html-keyboard-response","trial_index":178,"plugin_version":"2.1.0","time_elapsed":383000,"subject_id":"87657","group":"Group1","full_date":"2025-12-05T21:00:10.228Z","date":"2025-12-05","time":"21:00:10"},{"task":"memory_phase","broad_category":"S","image_png":"S_Shale_12.png","image_id":476,"category_name":"Shale","category":30,"distinct_rating":2.48,"distinct_type":"Bottom","rt":null,"stimulus":"Stimuli_Rocks480/S_Shale_12.png","response":null,"trial_type":"image-keyboard-response","trial_index":179,"plugin_version":"2.1.0","time_elapsed":385516,"subject_id":"87657","group":"Group1","full_date":"2025-12-05T21:00:10.228Z","date":"2025-12-05","time":"21:00:10"},{"rt":null,"stimulus":"<p style=\"font-size: 50px; margin: 0; text-align: center;\">+</p>","response":null,"trial_type":"html-keyboard-response","trial_index":180,"plugin_version":"2.1.0","time_elapsed":386534,"subject_id":"87657","group":"Group1","full_date":"2025-12-05T21:00:10.228Z","date":"2025-12-05","time":"21:00:10"},{"task":"memory_phase","broad_category":"M","image_png":"M_Quartzite_05.png","image_id":277,"category_name":"Quartzite","category":18,"distinct_rating":2.23,"distinct_type":"Bottom","rt":null,"stimulus":"Stimuli_Rocks480/M_Quartzite_05.png","response":null,"trial_type":"image-keyboard-response","trial_index":181,"plugin_version":"2.1.0","time_elapsed":389047,"subject_id":"87657","group":"Group1","full_date":"2025-12-05T21:00:10.228Z","date":"2025-12-05","time":"21:00:10"},{"rt":null,"stimulus":"<p style=\"font-size: 50px; margin: 0; text-align: center;\">+</p>","response":null,"trial_type":"html-keyboard-response","trial_index":182,"plugin_version":"2.1.0","time_elapsed":390056,"subject_id":"87657","group":"Group1","full_date":"2025-12-05T21:00:10.228Z","date":"2025-12-05","time":"21:00:10"},{"task":"memory_phase","broad_category":"I","image_png":"I_Pegmatite_16.png","image_id":112,"category_name":"Pegmatite","category":7,"distinct_rating":7.03,"distinct_type":"Top","rt":null,"stimulus":"Stimuli_Rocks480/I_Pegmatite_16.png","response":null,"trial_type":"image-keyboard-response","trial_index":183,"plugin_version":"2.1.0","time_elapsed":392572,"subject_id":"87657","group":"Group1","full_date":"2025-12-05T21:00:10.228Z","date":"2025-12-05","time":"21:00:10"},{"rt":null,"stimulus":"<p style=\"font-size: 50px; margin: 0; text-align: center;\">+</p>","response":null,"trial_type":"html-keyboard-response","trial_index":184,"plugin_version":"2.1.0","time_elapsed":393581,"subject_id":"87657","group":"Group1","full_date":"2025-12-05T21:00:10.228Z","date":"2025-12-05","time":"21:00:10"},{"task":"memory_phase","broad_category":"M","image_png":"M_Marble_16.png","image_id":240,"category_name":"Marble","category":15,"distinct_rating":2.57,"distinct_type":"Bottom","rt":null,"stimulus":"Stimuli_Rocks480/M_Marble_16.png","response":null,"trial_type":"image-keyboard-response","trial_index":185,"plugin_version":"2.1.0","time_elapsed":396096,"subject_id":"87657","group":"Group1","full_date":"2025-12-05T21:00:10.228Z","date":"2025-12-05","time":"21:00:10"},{"rt":null,"stimulus":"<p style=\"font-size: 50px; margin: 0; text-align: center;\">+</p>","response":null,"trial_type":"html-keyboard-response","trial_index":186,"plugin_version":"2.1.0","time_elapsed":397105,"subject_id":"87657","group":"Group1","full_date":"2025-12-05T21:00:10.228Z","date":"2025-12-05","time":"21:00:10"},{"task":"memory_phase","broad_category":"I","image_png":"I_Andesite_06.png","image_id":6,"category_name":"Andesite","category":1,"distinct_rating":3.17,"distinct_type":"Bottom","rt":null,"stimulus":"Stimuli_Rocks480/I_Andesite_06.png","response":null,"trial_type":"image-keyboard-response","trial_index":187,"plugin_version":"2.1.0","time_elapsed":399614,"subject_id":"87657","group":"Group1","full_date":"2025-12-05T21:00:10.228Z","date":"2025-12-05","time":"21:00:10"},{"rt":null,"stimulus":"<p style=\"font-size: 50px; margin: 0; text-align: center;\">+</p>","response":null,"trial_type":"html-keyboard-response","trial_index":188,"plugin_version":"2.1.0","time_elapsed":400625,"subject_id":"87657","group":"Group1","full_date":"2025-12-05T21:00:10.228Z","date":"2025-12-05","time":"21:00:10"},{"task":"memory_phase","broad_category":"S","image_png":"S_Sandstone_15.png","image_id":463,"category_name":"Sandstone","category":29,"distinct_rating":2,"distinct_type":"Bottom","rt":null,"stimulus":"Stimuli_Rocks480/S_Sandstone_15.png","response":null,"trial_type":"image-keyboard-response","trial_index":189,"plugin_version":"2.1.0","time_elapsed":403132,"subject_id":"87657","group":"Group1","full_date":"2025-12-05T21:00:10.228Z","date":"2025-12-05","time":"21:00:10"},{"rt":null,"stimulus":"<p style=\"font-size: 50px; margin: 0; text-align: center;\">+</p>","response":null,"trial_type":"html-keyboard-response","trial_index":190,"plugin_version":"2.1.0","time_elapsed":404149,"subject_id":"87657","group":"Group1","full_date":"2025-12-05T21:00:10.228Z","date":"2025-12-05","time":"21:00:10"},{"task":"memory_phase","broad_category":"S","image_png":"S_Sandstone_16.png","image_id":464,"category_name":"Sandstone","category":29,"distinct_rating":1.93,"distinct_type":"Bottom","rt":null,"stimulus":"Stimuli_Rocks480/S_Sandstone_16.png","response":null,"trial_type":"image-keyboard-response","trial_index":191,"plugin_version":"2.1.0","time_elapsed":406665,"subject_id":"87657","group":"Group1","full_date":"2025-12-05T21:00:10.228Z","date":"2025-12-05","time":"21:00:10"},{"rt":null,"stimulus":"<p style=\"font-size: 50px; margin: 0; text-align: center;\">+</p>","response":null,"trial_type":"html-keyboard-response","trial_index":192,"plugin_version":"2.1.0","time_elapsed":407681,"subject_id":"87657","group":"Group1","full_date":"2025-12-05T21:00:10.228Z","date":"2025-12-05","time":"21:00:10"},{"task":"memory_phase","broad_category":"S","image_png":"S_Dolomite_13.png","image_id":397,"category_name":"Dolomite","category":25,"distinct_rating":1.77,"distinct_type":"Bottom","rt":null,"stimulus":"Stimuli_Rocks480/S_Dolomite_13.png","response":null,"trial_type":"image-keyboard-response","trial_index":193,"plugin_version":"2.1.0","time_elapsed":410191,"subject_id":"87657","group":"Group1","full_date":"2025-12-05T21:00:10.228Z","date":"2025-12-05","time":"21:00:10"},{"rt":null,"stimulus":"<p style=\"font-size: 50px; margin: 0; text-align: center;\">+</p>","response":null,"trial_type":"html-keyboard-response","trial_index":194,"plugin_version":"2.1.0","time_elapsed":411195,"subject_id":"87657","group":"Group1","full_date":"2025-12-05T21:00:10.228Z","date":"2025-12-05","time":"21:00:10"},{"task":"memory_phase","broad_category":"M","image_png":"M_Quartzite_08.png","image_id":280,"category_name":"Quartzite","category":18,"distinct_rating":2.15,"distinct_type":"Bottom","rt":null,"stimulus":"Stimuli_Rocks480/M_Quartzite_08.png","response":null,"trial_type":"image-keyboard-response","trial_index":195,"plugin_version":"2.1.0","time_elapsed":413699,"subject_id":"87657","group":"Group1","full_date":"2025-12-05T21:00:10.228Z","date":"2025-12-05","time":"21:00:10"},{"rt":null,"stimulus":"<p style=\"font-size: 50px; margin: 0; text-align: center;\">+</p>","response":null,"trial_type":"html-keyboard-response","trial_index":196,"plugin_version":"2.1.0","time_elapsed":414702,"subject_id":"87657","group":"Group1","full_date":"2025-12-05T21:00:10.228Z","date":"2025-12-05","time":"21:00:10"},{"task":"memory_phase","broad_category":"M","image_png":"M_Gneiss_05.png","image_id":197,"category_name":"Gneiss","category":13,"distinct_rating":2.97,"distinct_type":"Bottom","rt":null,"stimulus":"Stimuli_Rocks480/M_Gneiss_05.png","response":null,"trial_type":"image-keyboard-response","trial_index":197,"plugin_version":"2.1.0","time_elapsed":417216,"subject_id":"87657","group":"Group1","full_date":"2025-12-05T21:00:10.228Z","date":"2025-12-05","time":"21:00:10"},{"rt":null,"stimulus":"<p style=\"font-size: 50px; margin: 0; text-align: center;\">+</p>","response":null,"trial_type":"html-keyboard-response","trial_index":198,"plugin_version":"2.1.0","time_elapsed":418237,"subject_id":"87657","group":"Group1","full_date":"2025-12-05T21:00:10.228Z","date":"2025-12-05","time":"21:00:10"},{"task":"memory_phase","broad_category":"S","image_png":"S_Shale_01.png","image_id":465,"category_name":"Shale","category":30,"distinct_rating":2.7,"distinct_type":"Bottom","rt":null,"stimulus":"Stimuli_Rocks480/S_Shale_01.png","response":null,"trial_type":"image-keyboard-response","trial_index":199,"plugin_version":"2.1.0","time_elapsed":420755,"subject_id":"87657","group":"Group1","full_date":"2025-12-05T21:00:10.228Z","date":"2025-12-05","time":"21:00:10"},{"rt":null,"stimulus":"<p style=\"font-size: 50px; margin: 0; text-align: center;\">+</p>","response":null,"trial_type":"html-keyboard-response","trial_index":200,"plugin_version":"2.1.0","time_elapsed":421765,"subject_id":"87657","group":"Group1","full_date":"2025-12-05T21:00:10.228Z","date":"2025-12-05","time":"21:00:10"},{"task":"memory_phase","broad_category":"M","image_png":"M_Slate_11.png","image_id":315,"category_name":"Slate","category":20,"distinct_rating":2.75,"distinct_type":"Bottom","rt":null,"stimulus":"Stimuli_Rocks480/M_Slate_11.png","response":null,"trial_type":"image-keyboard-response","trial_index":201,"plugin_version":"2.1.0","time_elapsed":424274,"subject_id":"87657","group":"Group1","full_date":"2025-12-05T21:00:10.228Z","date":"2025-12-05","time":"21:00:10"},{"rt":null,"stimulus":"<p style=\"font-size: 50px; margin: 0; text-align: center;\">+</p>","response":null,"trial_type":"html-keyboard-response","trial_index":202,"plugin_version":"2.1.0","time_elapsed":425282,"subject_id":"87657","group":"Group1","full_date":"2025-12-05T21:00:10.228Z","date":"2025-12-05","time":"21:00:10"},{"task":"memory_phase","broad_category":"M","image_png":"M_Slate_15.png","image_id":319,"category_name":"Slate","category":20,"distinct_rating":2.13,"distinct_type":"Bottom","rt":null,"stimulus":"Stimuli_Rocks480/M_Slate_15.png","response":null,"trial_type":"image-keyboard-response","trial_index":203,"plugin_version":"2.1.0","time_elapsed":427791,"subject_id":"87657","group":"Group1","full_date":"2025-12-05T21:00:10.228Z","date":"2025-12-05","time":"21:00:10"},{"rt":null,"stimulus":"<p style=\"font-size: 50px; margin: 0; text-align: center;\">+</p>","response":null,"trial_type":"html-keyboard-response","trial_index":204,"plugin_version":"2.1.0","time_elapsed":428799,"subject_id":"87657","group":"Group1","full_date":"2025-12-05T21:00:10.228Z","date":"2025-12-05","time":"21:00:10"},{"task":"memory_phase","broad_category":"I","image_png":"I_Diorite_04.png","image_id":36,"category_name":"Diorite","category":3,"distinct_rating":2.98,"distinct_type":"Bottom","rt":null,"stimulus":"Stimuli_Rocks480/I_Diorite_04.png","response":null,"trial_type":"image-keyboard-response","trial_index":205,"plugin_version":"2.1.0","time_elapsed":431314,"subject_id":"87657","group":"Group1","full_date":"2025-12-05T21:00:10.228Z","date":"2025-12-05","time":"21:00:10"},{"rt":null,"stimulus":"<p style=\"font-size: 50px; margin: 0; text-align: center;\">+</p>","response":null,"trial_type":"html-keyboard-response","trial_index":206,"plugin_version":"2.1.0","time_elapsed":432330,"subject_id":"87657","group":"Group1","full_date":"2025-12-05T21:00:10.228Z","date":"2025-12-05","time":"21:00:10"},{"task":"memory_phase","broad_category":"M","image_png":"M_Slate_03.png","image_id":307,"category_name":"Slate","category":20,"distinct_rating":1.87,"distinct_type":"Bottom","rt":null,"stimulus":"Stimuli_Rocks480/M_Slate_03.png","response":null,"trial_type":"image-keyboard-response","trial_index":207,"plugin_version":"2.1.0","time_elapsed":434844,"subject_id":"87657","group":"Group1","full_date":"2025-12-05T21:00:10.228Z","date":"2025-12-05","time":"21:00:10"},{"rt":2740,"stimulus":"<p style=\"max-width: 760px; margin: auto; font-size: 35px; line-height: 1.5;\">You have completed 2 study phases. Now, we'll show you all the images again 1 more time.<br><br>Press SPACE to continue</p>","response":" ","trial_type":"html-keyboard-response","trial_index":208,"plugin_version":"2.1.0","time_elapsed":437586,"subject_id":"87657","group":"Group1","full_date":"2025-12-05T21:00:10.228Z","date":"2025-12-05","time":"21:00:10"},{"rt":null,"stimulus":"<p style=\"font-size: 50px; margin: 0; text-align: center;\">+</p>","response":null,"trial_type":"html-keyboard-response","trial_index":209,"plugin_version":"2.1.0","time_elapsed":438601,"subject_id":"87657","group":"Group1","full_date":"2025-12-05T21:00:10.228Z","date":"2025-12-05","time":"21:00:10"},{"task":"memory_phase","broad_category":"M","image_png":"M_Slate_03.png","image_id":307,"category_name":"Slate","category":20,"distinct_rating":1.87,"distinct_type":"Bottom","rt":null,"stimulus":"Stimuli_Rocks480/M_Slate_03.png","response":null,"trial_type":"image-keyboard-response","trial_index":210,"plugin_version":"2.1.0","time_elapsed":441114,"subject_id":"87657","group":"Group1","full_date":"2025-12-05T21:00:10.228Z","date":"2025-12-05","time":"21:00:10"},{"rt":null,"stimulus":"<p style=\"font-size: 50px; margin: 0; text-align: center;\">+</p>","response":null,"trial_type":"html-keyboard-response","trial_index":211,"plugin_version":"2.1.0","time_elapsed":442127,"subject_id":"87657","group":"Group1","full_date":"2025-12-05T21:00:10.228Z","date":"2025-12-05","time":"21:00:10"},{"task":"memory_phase","broad_category":"S","image_png":"S_Chert_10.png","image_id":362,"category_name":"Chert","category":23,"distinct_rating":7.17,"distinct_type":"Top","rt":null,"stimulus":"Stimuli_Rocks480/S_Chert_10.png","response":null,"trial_type":"image-keyboard-response","trial_index":212,"plugin_version":"2.1.0","time_elapsed":444642,"subject_id":"87657","group":"Group1","full_date":"2025-12-05T21:00:10.228Z","date":"2025-12-05","time":"21:00:10"},{"rt":null,"stimulus":"<p style=\"font-size: 50px; margin: 0; text-align: center;\">+</p>","response":null,"trial_type":"html-keyboard-response","trial_index":213,"plugin_version":"2.1.0","time_elapsed":445644,"subject_id":"87657","group":"Group1","full_date":"2025-12-05T21:00:10.228Z","date":"2025-12-05","time":"21:00:10"},{"task":"memory_phase","broad_category":"I","image_png":"I_Basalt_01.png","image_id":17,"category_name":"Basalt","category":2,"distinct_rating":1.92,"distinct_type":"Bottom","rt":null,"stimulus":"Stimuli_Rocks480/I_Basalt_01.png","response":null,"trial_type":"image-keyboard-response","trial_index":214,"plugin_version":"2.1.0","time_elapsed":448157,"subject_id":"87657","group":"Group1","full_date":"2025-12-05T21:00:10.228Z","date":"2025-12-05","time":"21:00:10"},{"rt":null,"stimulus":"<p style=\"font-size: 50px; margin: 0; text-align: center;\">+</p>","response":null,"trial_type":"html-keyboard-response","trial_index":215,"plugin_version":"2.1.0","time_elapsed":449161,"subject_id":"87657","group":"Group1","full_date":"2025-12-05T21:00:10.228Z","date":"2025-12-05","time":"21:00:10"},{"task":"memory_phase","broad_category":"S","image_png":"S_Shale_01.png","image_id":465,"category_name":"Shale","category":30,"distinct_rating":2.7,"distinct_type":"Bottom","rt":null,"stimulus":"Stimuli_Rocks480/S_Shale_01.png","response":null,"trial_type":"image-keyboard-response","trial_index":216,"plugin_version":"2.1.0","time_elapsed":451673,"subject_id":"87657","group":"Group1","full_date":"2025-12-05T21:00:10.228Z","date":"2025-12-05","time":"21:00:10"},{"rt":null,"stimulus":"<p style=\"font-size: 50px; margin: 0; text-align: center;\">+</p>","response":null,"trial_type":"html-keyboard-response","trial_index":217,"plugin_version":"2.1.0","time_elapsed":452688,"subject_id":"87657","group":"Group1","full_date":"2025-12-05T21:00:10.228Z","date":"2025-12-05","time":"21:00:10"},{"task":"memory_phase","broad_category":"I","image_png":"I_Basalt_02.png","image_id":18,"category_name":"Basalt","category":2,"distinct_rating":1.84,"distinct_type":"Bottom","rt":null,"stimulus":"Stimuli_Rocks480/I_Basalt_02.png","response":null,"trial_type":"image-keyboard-response","trial_index":218,"plugin_version":"2.1.0","time_elapsed":455196,"subject_id":"87657","group":"Group1","full_date":"2025-12-05T21:00:10.228Z","date":"2025-12-05","time":"21:00:10"},{"rt":null,"stimulus":"<p style=\"font-size: 50px; margin: 0; text-align: center;\">+</p>","response":null,"trial_type":"html-keyboard-response","trial_index":219,"plugin_version":"2.1.0","time_elapsed":456207,"subject_id":"87657","group":"Group1","full_date":"2025-12-05T21:00:10.228Z","date":"2025-12-05","time":"21:00:10"},{"task":"memory_phase","broad_category":"S","image_png":"S_Sandstone_03.png","image_id":451,"category_name":"Sandstone","category":29,"distinct_rating":1.86,"distinct_type":"Bottom","rt":null,"stimulus":"Stimuli_Rocks480/S_Sandstone_03.png","response":null,"trial_type":"image-keyboard-response","trial_index":220,"plugin_version":"2.1.0","time_elapsed":458725,"subject_id":"87657","group":"Group1","full_date":"2025-12-05T21:00:10.228Z","date":"2025-12-05","time":"21:00:10"},{"rt":null,"stimulus":"<p style=\"font-size: 50px; margin: 0; text-align: center;\">+</p>","response":null,"trial_type":"html-keyboard-response","trial_index":221,"plugin_version":"2.1.0","time_elapsed":459738,"subject_id":"87657","group":"Group1","full_date":"2025-12-05T21:00:10.228Z","date":"2025-12-05","time":"21:00:10"},{"task":"memory_phase","broad_category":"S","image_png":"S_Shale_08.png","image_id":472,"category_name":"Shale","category":30,"distinct_rating":2.55,"distinct_type":"Bottom","rt":null,"stimulus":"Stimuli_Rocks480/S_Shale_08.png","response":null,"trial_type":"image-keyboard-response","trial_index":222,"plugin_version":"2.1.0","time_elapsed":462252,"subject_id":"87657","group":"Group1","full_date":"2025-12-05T21:00:10.228Z","date":"2025-12-05","time":"21:00:10"},{"rt":null,"stimulus":"<p style=\"font-size: 50px; margin: 0; text-align: center;\">+</p>","response":null,"trial_type":"html-keyboard-response","trial_index":223,"plugin_version":"2.1.0","time_elapsed":463259,"subject_id":"87657","group":"Group1","full_date":"2025-12-05T21:00:10.228Z","date":"2025-12-05","time":"21:00:10"},{"task":"memory_phase","broad_category":"M","image_png":"M_Phyllite_03.png","image_id":259,"category_name":"Phyllite","category":17,"distinct_rating":2.5,"distinct_type":"Bottom","rt":null,"stimulus":"Stimuli_Rocks480/M_Phyllite_03.png","response":null,"trial_type":"image-keyboard-response","trial_index":224,"plugin_version":"2.1.0","time_elapsed":465771,"subject_id":"87657","group":"Group1","full_date":"2025-12-05T21:00:10.228Z","date":"2025-12-05","time":"21:00:10"},{"rt":null,"stimulus":"<p style=\"font-size: 50px; margin: 0; text-align: center;\">+</p>","response":null,"trial_type":"html-keyboard-response","trial_index":225,"plugin_version":"2.1.0","time_elapsed":466774,"subject_id":"87657","group":"Group1","full_date":"2025-12-05T21:00:10.228Z","date":"2025-12-05","time":"21:00:10"},{"task":"memory_phase","broad_category":"S","image_png":"S_Sandstone_16.png","image_id":464,"category_name":"Sandstone","category":29,"distinct_rating":1.93,"distinct_type":"Bottom","rt":null,"stimulus":"Stimuli_Rocks480/S_Sandstone_16.png","response":null,"trial_type":"image-keyboard-response","trial_index":226,"plugin_version":"2.1.0","time_elapsed":469281,"subject_id":"87657","group":"Group1","full_date":"2025-12-05T21:00:10.228Z","date":"2025-12-05","time":"21:00:10"},{"rt":null,"stimulus":"<p style=\"font-size: 50px; margin: 0; text-align: center;\">+</p>","response":null,"trial_type":"html-keyboard-response","trial_index":227,"plugin_version":"2.1.0","time_elapsed":470298,"subject_id":"87657","group":"Group1","full_date":"2025-12-05T21:00:10.228Z","date":"2025-12-05","time":"21:00:10"},{"task":"memory_phase","broad_category":"I","image_png":"I_Gabbro_11.png","image_id":59,"category_name":"Gabbro","category":4,"distinct_rating":1.99,"distinct_type":"Bottom","rt":null,"stimulus":"Stimuli_Rocks480/I_Gabbro_11.png","response":null,"trial_type":"image-keyboard-response","trial_index":228,"plugin_version":"2.1.0","time_elapsed":472809,"subject_id":"87657","group":"Group1","full_date":"2025-12-05T21:00:10.228Z","date":"2025-12-05","time":"21:00:10"},{"rt":null,"stimulus":"<p style=\"font-size: 50px; margin: 0; text-align: center;\">+</p>","response":null,"trial_type":"html-keyboard-response","trial_index":229,"plugin_version":"2.1.0","time_elapsed":473815,"subject_id":"87657","group":"Group1","full_date":"2025-12-05T21:00:10.228Z","date":"2025-12-05","time":"21:00:10"},{"task":"memory_phase","broad_category":"M","image_png":"M_Quartzite_05.png","image_id":277,"category_name":"Quartzite","category":18,"distinct_rating":2.23,"distinct_type":"Bottom","rt":null,"stimulus":"Stimuli_Rocks480/M_Quartzite_05.png","response":null,"trial_type":"image-keyboard-response","trial_index":230,"plugin_version":"2.1.0","time_elapsed":476319,"subject_id":"87657","group":"Group1","full_date":"2025-12-05T21:00:10.228Z","date":"2025-12-05","time":"21:00:10"},{"rt":null,"stimulus":"<p style=\"font-size: 50px; margin: 0; text-align: center;\">+</p>","response":null,"trial_type":"html-keyboard-response","trial_index":231,"plugin_version":"2.1.0","time_elapsed":477324,"subject_id":"87657","group":"Group1","full_date":"2025-12-05T21:00:10.228Z","date":"2025-12-05","time":"21:00:10"},{"task":"memory_phase","broad_category":"M","image_png":"M_Marble_06.png","image_id":230,"category_name":"Marble","category":15,"distinct_rating":3.4,"distinct_type":"Bottom","rt":null,"stimulus":"Stimuli_Rocks480/M_Marble_06.png","response":null,"trial_type":"image-keyboard-response","trial_index":232,"plugin_version":"2.1.0","time_elapsed":479834,"subject_id":"87657","group":"Group1","full_date":"2025-12-05T21:00:10.228Z","date":"2025-12-05","time":"21:00:10"},{"rt":null,"stimulus":"<p style=\"font-size: 50px; margin: 0; text-align: center;\">+</p>","response":null,"trial_type":"html-keyboard-response","trial_index":233,"plugin_version":"2.1.0","time_elapsed":480846,"subject_id":"87657","group":"Group1","full_date":"2025-12-05T21:00:10.228Z","date":"2025-12-05","time":"21:00:10"},{"task":"memory_phase","broad_category":"M","image_png":"M_Quartzite_08.png","image_id":280,"category_name":"Quartzite","category":18,"distinct_rating":2.15,"distinct_type":"Bottom","rt":null,"stimulus":"Stimuli_Rocks480/M_Quartzite_08.png","response":null,"trial_type":"image-keyboard-response","trial_index":234,"plugin_version":"2.1.0","time_elapsed":483363,"subject_id":"87657","group":"Group1","full_date":"2025-12-05T21:00:10.228Z","date":"2025-12-05","time":"21:00:10"},{"rt":null,"stimulus":"<p style=\"font-size: 50px; margin: 0; text-align: center;\">+</p>","response":null,"trial_type":"html-keyboard-response","trial_index":235,"plugin_version":"2.1.0","time_elapsed":484370,"subject_id":"87657","group":"Group1","full_date":"2025-12-05T21:00:10.228Z","date":"2025-12-05","time":"21:00:10"},{"task":"memory_phase","broad_category":"I","image_png":"I_Andesite_08.png","image_id":8,"category_name":"Andesite","category":1,"distinct_rating":1.95,"distinct_type":"Bottom","rt":null,"stimulus":"Stimuli_Rocks480/I_Andesite_08.png","response":null,"trial_type":"image-keyboard-response","trial_index":236,"plugin_version":"2.1.0","time_elapsed":486880,"subject_id":"87657","group":"Group1","full_date":"2025-12-05T21:00:10.228Z","date":"2025-12-05","time":"21:00:10"},{"rt":null,"stimulus":"<p style=\"font-size: 50px; margin: 0; text-align: center;\">+</p>","response":null,"trial_type":"html-keyboard-response","trial_index":237,"plugin_version":"2.1.0","time_elapsed":487882,"subject_id":"87657","group":"Group1","full_date":"2025-12-05T21:00:10.228Z","date":"2025-12-05","time":"21:00:10"},{"task":"memory_phase","broad_category":"I","image_png":"I_Diorite_05.png","image_id":37,"category_name":"Diorite","category":3,"distinct_rating":3.08,"distinct_type":"Bottom","rt":null,"stimulus":"Stimuli_Rocks480/I_Diorite_05.png","response":null,"trial_type":"image-keyboard-response","trial_index":238,"plugin_version":"2.1.0","time_elapsed":490394,"subject_id":"87657","group":"Group1","full_date":"2025-12-05T21:00:10.228Z","date":"2025-12-05","time":"21:00:10"},{"rt":null,"stimulus":"<p style=\"font-size: 50px; margin: 0; text-align: center;\">+</p>","response":null,"trial_type":"html-keyboard-response","trial_index":239,"plugin_version":"2.1.0","time_elapsed":491401,"subject_id":"87657","group":"Group1","full_date":"2025-12-05T21:00:10.228Z","date":"2025-12-05","time":"21:00:10"},{"task":"memory_phase","broad_category":"M","image_png":"M_Marble_04.png","image_id":228,"category_name":"Marble","category":15,"distinct_rating":3.15,"distinct_type":"Bottom","rt":null,"stimulus":"Stimuli_Rocks480/M_Marble_04.png","response":null,"trial_type":"image-keyboard-response","trial_index":240,"plugin_version":"2.1.0","time_elapsed":493915,"subject_id":"87657","group":"Group1","full_date":"2025-12-05T21:00:10.228Z","date":"2025-12-05","time":"21:00:10"},{"rt":null,"stimulus":"<p style=\"font-size: 50px; margin: 0; text-align: center;\">+</p>","response":null,"trial_type":"html-keyboard-response","trial_index":241,"plugin_version":"2.1.0","time_elapsed":494923,"subject_id":"87657","group":"Group1","full_date":"2025-12-05T21:00:10.228Z","date":"2025-12-05","time":"21:00:10"},{"task":"memory_phase","broad_category":"M","image_png":"M_Marble_16.png","image_id":240,"category_name":"Marble","category":15,"distinct_rating":2.57,"distinct_type":"Bottom","rt":null,"stimulus":"Stimuli_Rocks480/M_Marble_16.png","response":null,"trial_type":"image-keyboard-response","trial_index":242,"plugin_version":"2.1.0","time_elapsed":497436,"subject_id":"87657","group":"Group1","full_date":"2025-12-05T21:00:10.228Z","date":"2025-12-05","time":"21:00:10"},{"rt":null,"stimulus":"<p style=\"font-size: 50px; margin: 0; text-align: center;\">+</p>","response":null,"trial_type":"html-keyboard-response","trial_index":243,"plugin_version":"2.1.0","time_elapsed":498447,"subject_id":"87657","group":"Group1","full_date":"2025-12-05T21:00:10.228Z","date":"2025-12-05","time":"21:00:10"},{"task":"memory_phase","broad_category":"I","image_png":"I_Rhyolite_14.png","image_id":158,"category_name":"Rhyolite","category":10,"distinct_rating":2.59,"distinct_type":"Bottom","rt":null,"stimulus":"Stimuli_Rocks480/I_Rhyolite_14.png","response":null,"trial_type":"image-keyboard-response","trial_index":244,"plugin_version":"2.1.0","time_elapsed":500959,"subject_id":"87657","group":"Group1","full_date":"2025-12-05T21:00:10.228Z","date":"2025-12-05","time":"21:00:10"},{"rt":null,"stimulus":"<p style=\"font-size: 50px; margin: 0; text-align: center;\">+</p>","response":null,"trial_type":"html-keyboard-response","trial_index":245,"plugin_version":"2.1.0","time_elapsed":501972,"subject_id":"87657","group":"Group1","full_date":"2025-12-05T21:00:10.228Z","date":"2025-12-05","time":"21:00:10"},{"task":"memory_phase","broad_category":"I","image_png":"I_Rhyolite_16.png","image_id":160,"category_name":"Rhyolite","category":10,"distinct_rating":2.19,"distinct_type":"Bottom","rt":null,"stimulus":"Stimuli_Rocks480/I_Rhyolite_16.png","response":null,"trial_type":"image-keyboard-response","trial_index":246,"plugin_version":"2.1.0","time_elapsed":504485,"subject_id":"87657","group":"Group1","full_date":"2025-12-05T21:00:10.228Z","date":"2025-12-05","time":"21:00:10"},{"rt":null,"stimulus":"<p style=\"font-size: 50px; margin: 0; text-align: center;\">+</p>","response":null,"trial_type":"html-keyboard-response","trial_index":247,"plugin_version":"2.1.0","time_elapsed":505496,"subject_id":"87657","group":"Group1","full_date":"2025-12-05T21:00:10.228Z","date":"2025-12-05","time":"21:00:10"},{"task":"memory_phase","broad_category":"I","image_png":"I_Andesite_10.png","image_id":10,"category_name":"Andesite","category":1,"distinct_rating":3.15,"distinct_type":"Bottom","rt":null,"stimulus":"Stimuli_Rocks480/I_Andesite_10.png","response":null,"trial_type":"image-keyboard-response","trial_index":248,"plugin_version":"2.1.0","time_elapsed":508011,"subject_id":"87657","group":"Group