[{"width":1470,"height":839,"webaudio":true,"browser":"safari","browser_version":"18.6.0","mobile":false,"os":"Mac OS","fullscreen":true,"vsync_rate":60.79,"webcam":true,"microphone":true,"trial_type":"browser-check","trial_index":0,"plugin_version":"2.1.0","time_elapsed":995,"subject_id":"87673","group":"Group1","full_date":"2025-12-02T22:16:37.571Z","date":"2025-12-02","time":"22:16:37"},{"success":true,"timeout":false,"failed_images":[],"failed_audio":[],"failed_video":[],"trial_type":"preload","trial_index":1,"plugin_version":"2.1.0","time_elapsed":22065,"subject_id":"87673","group":"Group1","full_date":"2025-12-02T22:16:37.571Z","date":"2025-12-02","time":"22:16:37"},{"rt":8216,"url":"SONA_consent_memorability.html","trial_type":"external-html","trial_index":2,"plugin_version":"2.1.0","time_elapsed":30330,"subject_id":"87673","group":"Group1","full_date":"2025-12-02T22:16:37.571Z","date":"2025-12-02","time":"22:16:37"},{"success":true,"rt":1147,"trial_type":"fullscreen","trial_index":3,"plugin_version":"2.1.0","time_elapsed":32483,"subject_id":"87673","group":"Group1","full_date":"2025-12-02T22:16:37.571Z","date":"2025-12-02","time":"22:16:37"},{"rt":1377,"stimulus":"<div style=\"max-width: 760px; margin: auto; font-size: 20px; line-height: 1.5;\">\n      <h1 style=\"text-align:center; font-size: 30px;\">Instructions</h1>\n      <p>\n        Welcome to the study on <b>visual memory</b>. This experiment consists of <b>two phases</b>: \n        a <b>study phase</b> and a <b>test phase</b>.\n      </p>\n      <p>\n        In the study phase, you will see a series of rock images along with their category labels.\n        The images will appear one at a time.\n        <b>Your task</b> is to learn the categories to which the rock images belong \n        and to remember each image as accurately as possible.\n      </p> \n      <p>\n        Note that we will repeat the study phase <b>3 times</b>, \n        so you will have multiple opportunities to see and remember each image.\n      </p>\n      <p>\n        After the study phase, <b>your memory will be tested</b>. \n        Additional instructions for the test phase will be provided at that time.\n      </p>\n      <p>\n        If your computer has multiple <b>language settings</b> (e.g., English and another language),\n        please make sure it is set to English before starting.\n      </p>\n      <p>\n        You can track your progress using the <b>completion bar</b> at the top of the screen. \n        Please note that the bar will refresh when the test phase begins \n        to give you an accurate sense of your progress in both phases.\n      </p> \n      <p>\n        Press the button below when you are ready to begin.\n      </p>\n    </div>","response":0,"trial_type":"html-button-response","trial_index":4,"plugin_version":"2.1.0","time_elapsed":33863,"subject_id":"87673","group":"Group1","full_date":"2025-12-02T22:16:37.571Z","date":"2025-12-02","time":"22:16:37"},{"rt":null,"stimulus":"<p style=\"font-size: 50px; margin: 0; text-align: center;\">+</p>","response":null,"trial_type":"html-keyboard-response","trial_index":5,"plugin_version":"2.1.0","time_elapsed":34867,"subject_id":"87673","group":"Group1","full_date":"2025-12-02T22:16:37.571Z","date":"2025-12-02","time":"22:16:37"},{"task":"memory_phase","broad_category":"I","image_png":"I_Pumice_11.png","image_id":139,"category_name":"Pumice","category":9,"distinct_rating":1.74,"distinct_type":"Bottom","rt":null,"stimulus":"Stimuli_Rocks480/I_Pumice_11.png","response":null,"trial_type":"image-keyboard-response","trial_index":6,"plugin_version":"2.1.0","time_elapsed":37379,"subject_id":"87673","group":"Group1","full_date":"2025-12-02T22:16:37.571Z","date":"2025-12-02","time":"22:16:37"},{"rt":null,"stimulus":"<p style=\"font-size: 50px; margin: 0; text-align: center;\">+</p>","response":null,"trial_type":"html-keyboard-response","trial_index":7,"plugin_version":"2.1.0","time_elapsed":38380,"subject_id":"87673","group":"Group1","full_date":"2025-12-02T22:16:37.571Z","date":"2025-12-02","time":"22:16:37"},{"task":"memory_phase","broad_category":"M","image_png":"M_Phyllite_03.png","image_id":259,"category_name":"Phyllite","category":17,"distinct_rating":2.5,"distinct_type":"Bottom","rt":null,"stimulus":"Stimuli_Rocks480/M_Phyllite_03.png","response":null,"trial_type":"image-keyboard-response","trial_index":8,"plugin_version":"2.1.0","time_elapsed":40895,"subject_id":"87673","group":"Group1","full_date":"2025-12-02T22:16:37.571Z","date":"2025-12-02","time":"22:16:37"},{"rt":null,"stimulus":"<p style=\"font-size: 50px; margin: 0; text-align: center;\">+</p>","response":null,"trial_type":"html-keyboard-response","trial_index":9,"plugin_version":"2.1.0","time_elapsed":41897,"subject_id":"87673","group":"Group1","full_date":"2025-12-02T22:16:37.571Z","date":"2025-12-02","time":"22:16:37"},{"task":"memory_phase","broad_category":"I","image_png":"I_Basalt_01.png","image_id":17,"category_name":"Basalt","category":2,"distinct_rating":1.92,"distinct_type":"Bottom","rt":null,"stimulus":"Stimuli_Rocks480/I_Basalt_01.png","response":null,"trial_type":"image-keyboard-response","trial_index":10,"plugin_version":"2.1.0","time_elapsed":44414,"subject_id":"87673","group":"Group1","full_date":"2025-12-02T22:16:37.571Z","date":"2025-12-02","time":"22:16:37"},{"rt":null,"stimulus":"<p style=\"font-size: 50px; margin: 0; text-align: center;\">+</p>","response":null,"trial_type":"html-keyboard-response","trial_index":11,"plugin_version":"2.1.0","time_elapsed":45416,"subject_id":"87673","group":"Group1","full_date":"2025-12-02T22:16:37.571Z","date":"2025-12-02","time":"22:16:37"},{"task":"memory_phase","broad_category":"M","image_png":"M_Phyllite_10.png","image_id":266,"category_name":"Phyllite","category":17,"distinct_rating":2.6,"distinct_type":"Bottom","rt":null,"stimulus":"Stimuli_Rocks480/M_Phyllite_10.png","response":null,"trial_type":"image-keyboard-response","trial_index":12,"plugin_version":"2.1.0","time_elapsed":47929,"subject_id":"87673","group":"Group1","full_date":"2025-12-02T22:16:37.571Z","date":"2025-12-02","time":"22:16:37"},{"rt":null,"stimulus":"<p style=\"font-size: 50px; margin: 0; text-align: center;\">+</p>","response":null,"trial_type":"html-keyboard-response","trial_index":13,"plugin_version":"2.1.0","time_elapsed":48931,"subject_id":"87673","group":"Group1","full_date":"2025-12-02T22:16:37.571Z","date":"2025-12-02","time":"22:16:37"},{"task":"memory_phase","broad_category":"M","image_png":"M_Slate_11.png","image_id":315,"category_name":"Slate","category":20,"distinct_rating":2.75,"distinct_type":"Bottom","rt":null,"stimulus":"Stimuli_Rocks480/M_Slate_11.png","response":null,"trial_type":"image-keyboard-response","trial_index":14,"plugin_version":"2.1.0","time_elapsed":51443,"subject_id":"87673","group":"Group1","full_date":"2025-12-02T22:16:37.571Z","date":"2025-12-02","time":"22:16:37"},{"rt":null,"stimulus":"<p style=\"font-size: 50px; margin: 0; text-align: center;\">+</p>","response":null,"trial_type":"html-keyboard-response","trial_index":15,"plugin_version":"2.1.0","time_elapsed":52446,"subject_id":"87673","group":"Group1","full_date":"2025-12-02T22:16:37.571Z","date":"2025-12-02","time":"22:16:37"},{"task":"memory_phase","broad_category":"M","image_png":"M_Marble_04.png","image_id":228,"category_name":"Marble","category":15,"distinct_rating":3.15,"distinct_type":"Bottom","rt":null,"stimulus":"Stimuli_Rocks480/M_Marble_04.png","response":null,"trial_type":"image-keyboard-response","trial_index":16,"plugin_version":"2.1.0","time_elapsed":54959,"subject_id":"87673","group":"Group1","full_date":"2025-12-02T22:16:37.571Z","date":"2025-12-02","time":"22:16:37"},{"rt":null,"stimulus":"<p style=\"font-size: 50px; margin: 0; text-align: center;\">+</p>","response":null,"trial_type":"html-keyboard-response","trial_index":17,"plugin_version":"2.1.0","time_elapsed":55962,"subject_id":"87673","group":"Group1","full_date":"2025-12-02T22:16:37.571Z","date":"2025-12-02","time":"22:16:37"},{"task":"memory_phase","broad_category":"S","image_png":"S_Shale_12.png","image_id":476,"category_name":"Shale","category":30,"distinct_rating":2.48,"distinct_type":"Bottom","rt":null,"stimulus":"Stimuli_Rocks480/S_Shale_12.png","response":null,"trial_type":"image-keyboard-response","trial_index":18,"plugin_version":"2.1.0","time_elapsed":58477,"subject_id":"87673","group":"Group1","full_date":"2025-12-02T22:16:37.571Z","date":"2025-12-02","time":"22:16:37"},{"rt":null,"stimulus":"<p style=\"font-size: 50px; margin: 0; text-align: center;\">+</p>","response":null,"trial_type":"html-keyboard-response","trial_index":19,"plugin_version":"2.1.0","time_elapsed":59480,"subject_id":"87673","group":"Group1","full_date":"2025-12-02T22:16:37.571Z","date":"2025-12-02","time":"22:16:37"},{"task":"memory_phase","broad_category":"I","image_png":"I_Gabbro_16.png","image_id":64,"category_name":"Gabbro","category":4,"distinct_rating":2.52,"distinct_type":"Bottom","rt":null,"stimulus":"Stimuli_Rocks480/I_Gabbro_16.png","response":null,"trial_type":"image-keyboard-response","trial_index":20,"plugin_version":"2.1.0","time_elapsed":61994,"subject_id":"87673","group":"Group1","full_date":"2025-12-02T22:16:37.571Z","date":"2025-12-02","time":"22:16:37"},{"rt":null,"stimulus":"<p style=\"font-size: 50px; margin: 0; text-align: center;\">+</p>","response":null,"trial_type":"html-keyboard-response","trial_index":21,"plugin_version":"2.1.0","time_elapsed":62996,"subject_id":"87673","group":"Group1","full_date":"2025-12-02T22:16:37.571Z","date":"2025-12-02","time":"22:16:37"},{"task":"memory_phase","broad_category":"M","image_png":"M_Quartzite_08.png","image_id":280,"category_name":"Quartzite","category":18,"distinct_rating":2.15,"distinct_type":"Bottom","rt":null,"stimulus":"Stimuli_Rocks480/M_Quartzite_08.png","response":null,"trial_type":"image-keyboard-response","trial_index":22,"plugin_version":"2.1.0","time_elapsed":65510,"subject_id":"87673","group":"Group1","full_date":"2025-12-02T22:16:37.571Z","date":"2025-12-02","time":"22:16:37"},{"rt":null,"stimulus":"<p style=\"font-size: 50px; margin: 0; text-align: center;\">+</p>","response":null,"trial_type":"html-keyboard-response","trial_index":23,"plugin_version":"2.1.0","time_elapsed":66512,"subject_id":"87673","group":"Group1","full_date":"2025-12-02T22:16:37.571Z","date":"2025-12-02","time":"22:16:37"},{"task":"memory_phase","broad_category":"M","image_png":"M_Quartzite_05.png","image_id":277,"category_name":"Quartzite","category":18,"distinct_rating":2.23,"distinct_type":"Bottom","rt":null,"stimulus":"Stimuli_Rocks480/M_Quartzite_05.png","response":null,"trial_type":"image-keyboard-response","trial_index":24,"plugin_version":"2.1.0","time_elapsed":69027,"subject_id":"87673","group":"Group1","full_date":"2025-12-02T22:16:37.571Z","date":"2025-12-02","time":"22:16:37"},{"rt":null,"stimulus":"<p style=\"font-size: 50px; margin: 0; text-align: center;\">+</p>","response":null,"trial_type":"html-keyboard-response","trial_index":25,"plugin_version":"2.1.0","time_elapsed":70029,"subject_id":"87673","group":"Group1","full_date":"2025-12-02T22:16:37.571Z","date":"2025-12-02","time":"22:16:37"},{"task":"memory_phase","broad_category":"I","image_png":"I_Pumice_12.png","image_id":140,"category_name":"Pumice","category":9,"distinct_rating":2.97,"distinct_type":"Bottom","rt":null,"stimulus":"Stimuli_Rocks480/I_Pumice_12.png","response":null,"trial_type":"image-keyboard-response","trial_index":26,"plugin_version":"2.1.0","time_elapsed":72538,"subject_id":"87673","group":"Group1","full_date":"2025-12-02T22:16:37.571Z","date":"2025-12-02","time":"22:16:37"},{"rt":null,"stimulus":"<p style=\"font-size: 50px; margin: 0; text-align: center;\">+</p>","response":null,"trial_type":"html-keyboard-response","trial_index":27,"plugin_version":"2.1.0","time_elapsed":73540,"subject_id":"87673","group":"Group1","full_date":"2025-12-02T22:16:37.571Z","date":"2025-12-02","time":"22:16:37"},{"task":"memory_phase","broad_category":"I","image_png":"I_Pegmatite_10.png","image_id":106,"category_name":"Pegmatite","category":7,"distinct_rating":7.66,"distinct_type":"Top","rt":null,"stimulus":"Stimuli_Rocks480/I_Pegmatite_10.png","response":null,"trial_type":"image-keyboard-response","trial_index":28,"plugin_version":"2.1.0","time_elapsed":76055,"subject_id":"87673","group":"Group1","full_date":"2025-12-02T22:16:37.571Z","date":"2025-12-02","time":"22:16:37"},{"rt":null,"stimulus":"<p style=\"font-size: 50px; margin: 0; text-align: center;\">+</p>","response":null,"trial_type":"html-keyboard-response","trial_index":29,"plugin_version":"2.1.0","time_elapsed":77057,"subject_id":"87673","group":"Group1","full_date":"2025-12-02T22:16:37.571Z","date":"2025-12-02","time":"22:16:37"},{"task":"memory_phase","broad_category":"S","image_png":"S_Sandstone_16.png","image_id":464,"category_name":"Sandstone","category":29,"distinct_rating":1.93,"distinct_type":"Bottom","rt":null,"stimulus":"Stimuli_Rocks480/S_Sandstone_16.png","response":null,"trial_type":"image-keyboard-response","trial_index":30,"plugin_version":"2.1.0","time_elapsed":79570,"subject_id":"87673","group":"Group1","full_date":"2025-12-02T22:16:37.571Z","date":"2025-12-02","time":"22:16:37"},{"rt":null,"stimulus":"<p style=\"font-size: 50px; margin: 0; text-align: center;\">+</p>","response":null,"trial_type":"html-keyboard-response","trial_index":31,"plugin_version":"2.1.0","time_elapsed":80572,"subject_id":"87673","group":"Group1","full_date":"2025-12-02T22:16:37.571Z","date":"2025-12-02","time":"22:16:37"},{"task":"memory_phase","broad_category":"S","image_png":"S_Sandstone_03.png","image_id":451,"category_name":"Sandstone","category":29,"distinct_rating":1.86,"distinct_type":"Bottom","rt":null,"stimulus":"Stimuli_Rocks480/S_Sandstone_03.png","response":null,"trial_type":"image-keyboard-response","trial_index":32,"plugin_version":"2.1.0","time_elapsed":83088,"subject_id":"87673","group":"Group1","full_date":"2025-12-02T22:16:37.571Z","date":"2025-12-02","time":"22:16:37"},{"rt":null,"stimulus":"<p style=\"font-size: 50px; margin: 0; text-align: center;\">+</p>","response":null,"trial_type":"html-keyboard-response","trial_index":33,"plugin_version":"2.1.0","time_elapsed":84091,"subject_id":"87673","group":"Group1","full_date":"2025-12-02T22:16:37.571Z","date":"2025-12-02","time":"22:16:37"},{"task":"memory_phase","broad_category":"I","image_png":"I_Pegmatite_16.png","image_id":112,"category_name":"Pegmatite","category":7,"distinct_rating":7.03,"distinct_type":"Top","rt":null,"stimulus":"Stimuli_Rocks480/I_Pegmatite_16.png","response":null,"trial_type":"image-keyboard-response","trial_index":34,"plugin_version":"2.1.0","time_elapsed":86607,"subject_id":"87673","group":"Group1","full_date":"2025-12-02T22:16:37.571Z","date":"2025-12-02","time":"22:16:37"},{"rt":null,"stimulus":"<p style=\"font-size: 50px; margin: 0; text-align: center;\">+</p>","response":null,"trial_type":"html-keyboard-response","trial_index":35,"plugin_version":"2.1.0","time_elapsed":87610,"subject_id":"87673","group":"Group1","full_date":"2025-12-02T22:16:37.571Z","date":"2025-12-02","time":"22:16:37"},{"task":"memory_phase","broad_category":"M","image_png":"M_Slate_03.png","image_id":307,"category_name":"Slate","category":20,"distinct_rating":1.87,"distinct_type":"Bottom","rt":null,"stimulus":"Stimuli_Rocks480/M_Slate_03.png","response":null,"trial_type":"image-keyboard-response","trial_index":36,"plugin_version":"2.1.0","time_elapsed":90126,"subject_id":"87673","group":"Group1","full_date":"2025-12-02T22:16:37.571Z","date":"2025-12-02","time":"22:16:37"},{"rt":null,"stimulus":"<p style=\"font-size: 50px; margin: 0; text-align: center;\">+</p>","response":null,"trial_type":"html-keyboard-response","trial_index":37,"plugin_version":"2.1.0","time_elapsed":91129,"subject_id":"87673","group":"Group1","full_date":"2025-12-02T22:16:37.571Z","date":"2025-12-02","time":"22:16:37"},{"task":"memory_phase","broad_category":"I","image_png":"I_Basalt_02.png","image_id":18,"category_name":"Basalt","category":2,"distinct_rating":1.84,"distinct_type":"Bottom","rt":null,"stimulus":"Stimuli_Rocks480/I_Basalt_02.png","response":null,"trial_type":"image-keyboard-response","trial_index":38,"plugin_version":"2.1.0","time_elapsed":93643,"subject_id":"87673","group":"Group1","full_date":"2025-12-02T22:16:37.571Z","date":"2025-12-02","time":"22:16:37"},{"rt":null,"stimulus":"<p style=\"font-size: 50px; margin: 0; text-align: center;\">+</p>","response":null,"trial_type":"html-keyboard-response","trial_index":39,"plugin_version":"2.1.0","time_elapsed":94646,"subject_id":"87673","group":"Group1","full_date":"2025-12-02T22:16:37.571Z","date":"2025-12-02","time":"22:16:37"},{"task":"memory_phase","broad_category":"M","image_png":"M_Marble_16.png","image_id":240,"category_name":"Marble","category":15,"distinct_rating":2.57,"distinct_type":"Bottom","rt":null,"stimulus":"Stimuli_Rocks480/M_Marble_16.png","response":null,"trial_type":"image-keyboard-response","trial_index":40,"plugin_version":"2.1.0","time_elapsed":97162,"subject_id":"87673","group":"Group1","full_date":"2025-12-02T22:16:37.571Z","date":"2025-12-02","time":"22:16:37"},{"rt":null,"stimulus":"<p style=\"font-size: 50px; margin: 0; text-align: center;\">+</p>","response":null,"trial_type":"html-keyboard-response","trial_index":41,"plugin_version":"2.1.0","time_elapsed":98164,"subject_id":"87673","group":"Group1","full_date":"2025-12-02T22:16:37.571Z","date":"2025-12-02","time":"22:16:37"},{"task":"memory_phase","broad_category":"M","image_png":"M_Marble_06.png","image_id":230,"category_name":"Marble","category":15,"distinct_rating":3.4,"distinct_type":"Bottom","rt":null,"stimulus":"Stimuli_Rocks480/M_Marble_06.png","response":null,"trial_type":"image-keyboard-response","trial_index":42,"plugin_version":"2.1.0","time_elapsed":100679,"subject_id":"87673","group":"Group1","full_date":"2025-12-02T22:16:37.571Z","date":"2025-12-02","time":"22:16:37"},{"rt":null,"stimulus":"<p style=\"font-size: 50px; margin: 0; text-align: center;\">+</p>","response":null,"trial_type":"html-keyboard-response","trial_index":43,"plugin_version":"2.1.0","time_elapsed":101681,"subject_id":"87673","group":"Group1","full_date":"2025-12-02T22:16:37.571Z","date":"2025-12-02","time":"22:16:37"},{"task":"memory_phase","broad_category":"I","image_png":"I_Rhyolite_11.png","image_id":155,"category_name":"Rhyolite","category":10,"distinct_rating":1.73,"distinct_type":"Bottom","rt":null,"stimulus":"Stimuli_Rocks480/I_Rhyolite_11.png","response":null,"trial_type":"image-keyboard-response","trial_index":44,"plugin_version":"2.1.0","time_elapsed":104194,"subject_id":"87673","group":"Group1","full_date":"2025-12-02T22:16:37.571Z","date":"2025-12-02","time":"22:16:37"},{"rt":null,"stimulus":"<p style=\"font-size: 50px; margin: 0; text-align: center;\">+</p>","response":null,"trial_type":"html-keyboard-response","trial_index":45,"plugin_version":"2.1.0","time_elapsed":105196,"subject_id":"87673","group":"Group1","full_date":"2025-12-02T22:16:37.571Z","date":"2025-12-02","time":"22:16:37"},{"task":"memory_phase","broad_category":"I","image_png":"I_Rhyolite_14.png","image_id":158,"category_name":"Rhyolite","category":10,"distinct_rating":2.59,"distinct_type":"Bottom","rt":null,"stimulus":"Stimuli_Rocks480/I_Rhyolite_14.png","response":null,"trial_type":"image-keyboard-response","trial_index":46,"plugin_version":"2.1.0","time_elapsed":107709,"subject_id":"87673","group":"Group1","full_date":"2025-12-02T22:16:37.571Z","date":"2025-12-02","time":"22:16:37"},{"rt":null,"stimulus":"<p style=\"font-size: 50px; margin: 0; text-align: center;\">+</p>","response":null,"trial_type":"html-keyboard-response","trial_index":47,"plugin_version":"2.1.0","time_elapsed":108712,"subject_id":"87673","group":"Group1","full_date":"2025-12-02T22:16:37.571Z","date":"2025-12-02","time":"22:16:37"},{"task":"memory_phase","broad_category":"I","image_png":"I_Basalt_09.png","image_id":25,"category_name":"Basalt","category":2,"distinct_rating":1.89,"distinct_type":"Bottom","rt":null,"stimulus":"Stimuli_Rocks480/I_Basalt_09.png","response":null,"trial_type":"image-keyboard-response","trial_index":48,"plugin_version":"2.1.0","time_elapsed":111226,"subject_id":"87673","group":"Group1","full_date":"2025-12-02T22:16:37.571Z","date":"2025-12-02","time":"22:16:37"},{"rt":null,"stimulus":"<p style=\"font-size: 50px; margin: 0; text-align: center;\">+</p>","response":null,"trial_type":"html-keyboard-response","trial_index":49,"plugin_version":"2.1.0","time_elapsed":112228,"subject_id":"87673","group":"Group1","full_date":"2025-12-02T22:16:37.571Z","date":"2025-12-02","time":"22:16:37"},{"task":"memory_phase","broad_category":"S","image_png":"S_Breccia_11.png","image_id":347,"category_name":"Breccia","category":22,"distinct_rating":6.7,"distinct_type":"Top","rt":null,"stimulus":"Stimuli_Rocks480/S_Breccia_11.png","response":null,"trial_type":"image-keyboard-response","trial_index":50,"plugin_version":"2.1.0","time_elapsed":114753,"subject_id":"87673","group":"Group1","full_date":"2025-12-02T22:16:37.571Z","date":"2025-12-02","time":"22:16:37"},{"rt":null,"stimulus":"<p style=\"font-size: 50px; margin: 0; text-align: center;\">+</p>","response":null,"trial_type":"html-keyboard-response","trial_index":51,"plugin_version":"2.1.0","time_elapsed":115755,"subject_id":"87673","group":"Group1","full_date":"2025-12-02T22:16:37.571Z","date":"2025-12-02","time":"22:16:37"},{"task":"memory_phase","broad_category":"I","image_png":"I_Andesite_06.png","image_id":6,"category_name":"Andesite","category":1,"distinct_rating":3.17,"distinct_type":"Bottom","rt":null,"stimulus":"Stimuli_Rocks480/I_Andesite_06.png","response":null,"trial_type":"image-keyboard-response","trial_index":52,"plugin_version":"2.1.0","time_elapsed":118271,"subject_id":"87673","group":"Group1","full_date":"2025-12-02T22:16:37.571Z","date":"2025-12-02","time":"22:16:37"},{"rt":null,"stimulus":"<p style=\"font-size: 50px; margin: 0; text-align: center;\">+</p>","response":null,"trial_type":"html-keyboard-response","trial_index":53,"plugin_version":"2.1.0","time_elapsed":119273,"subject_id":"87673","group":"Group1","full_date":"2025-12-02T22:16:37.571Z","date":"2025-12-02","time":"22:16:37"},{"task":"memory_phase","broad_category":"S","image_png":"S_Dolomite_14.png","image_id":398,"category_name":"Dolomite","category":25,"distinct_rating":1.43,"distinct_type":"Bottom","rt":null,"stimulus":"Stimuli_Rocks480/S_Dolomite_14.png","response":null,"trial_type":"image-keyboard-response","trial_index":54,"plugin_version":"2.1.0","time_elapsed":121788,"subject_id":"87673","group":"Group1","full_date":"2025-12-02T22:16:37.571Z","date":"2025-12-02","time":"22:16:37"},{"rt":265459,"stimulus":"<p style=\"max-width: 760px; margin: auto; font-size: 35px; line-height: 1.5;\">Press SPACE to continue study phase</p>","response":" ","trial_type":"html-keyboard-response","trial_index":55,"plugin_version":"2.1.0","time_elapsed":387250,"subject_id":"87673","group":"Group1","full_date":"2025-12-02T22:16:37.571Z","date":"2025-12-02","time":"22:16:37"},{"rt":null,"stimulus":"<p style=\"font-size: 50px; margin: 0; text-align: center;\">+</p>","response":null,"trial_type":"html-keyboard-response","trial_index":56,"plugin_version":"2.1.0","time_elapsed":388253,"subject_id":"87673","group":"Group1","full_date":"2025-12-02T22:16:37.571Z","date":"2025-12-02","time":"22:16:37"},{"task":"memory_phase","broad_category":"S","image_png":"S_Rock Gypsum_04.png","image_id":420,"category_name":"Rock Gypsum","category":27,"distinct_rating":7.61,"distinct_type":"Top","rt":null,"stimulus":"Stimuli_Rocks480/S_Rock Gypsum_04.png","response":null,"trial_type":"image-keyboard-response","trial_index":57,"plugin_version":"2.1.0","time_elapsed":390769,"subject_id":"87673","group":"Group1","full_date":"2025-12-02T22:16:37.571Z","date":"2025-12-02","time":"22:16:37"},{"rt":null,"stimulus":"<p style=\"font-size: 50px; margin: 0; text-align: center;\">+</p>","response":null,"trial_type":"html-keyboard-response","trial_index":58,"plugin_version":"2.1.0","time_elapsed":391771,"subject_id":"87673","group":"Group1","full_date":"2025-12-02T22:16:37.571Z","date":"2025-12-02","time":"22:16:37"},{"task":"memory_phase","broad_category":"S","image_png":"S_Sandstone_15.png","image_id":463,"category_name":"Sandstone","category":29,"distinct_rating":2,"distinct_type":"Bottom","rt":null,"stimulus":"Stimuli_Rocks480/S_Sandstone_15.png","response":null,"trial_type":"image-keyboard-response","trial_index":59,"plugin_version":"2.1.0","time_elapsed":394290,"subject_id":"87673","group":"Group1","full_date":"2025-12-02T22:16:37.571Z","date":"2025-12-02","time":"22:16:37"},{"rt":null,"stimulus":"<p style=\"font-size: 50px; margin: 0; text-align: center;\">+</p>","response":null,"trial_type":"html-keyboard-response","trial_index":60,"plugin_version":"2.1.0","time_elapsed":395292,"subject_id":"87673","group":"Group1","full_date":"2025-12-02T22:16:37.571Z","date":"2025-12-02","time":"22:16:37"},{"task":"memory_phase","broad_category":"I","image_png":"I_Gabbro_08.png","image_id":56,"category_name":"Gabbro","category":4,"distinct_rating":3.02,"distinct_type":"Bottom","rt":null,"stimulus":"Stimuli_Rocks480/I_Gabbro_08.png","response":null,"trial_type":"image-keyboard-response","trial_index":61,"plugin_version":"2.1.0","time_elapsed":397806,"subject_id":"87673","group":"Group1","full_date":"2025-12-02T22:16:37.571Z","date":"2025-12-02","time":"22:16:37"},{"rt":null,"stimulus":"<p style=\"font-size: 50px; margin: 0; text-align: center;\">+</p>","response":null,"trial_type":"html-keyboard-response","trial_index":62,"plugin_version":"2.1.0","time_elapsed":398808,"subject_id":"87673","group":"Group1","full_date":"2025-12-02T22:16:37.571Z","date":"2025-12-02","time":"22:16:37"},{"task":"memory_phase","broad_category":"I","image_png":"I_Andesite_08.png","image_id":8,"category_name":"Andesite","category":1,"distinct_rating":1.95,"distinct_type":"Bottom","rt":null,"stimulus":"Stimuli_Rocks480/I_Andesite_08.png","response":null,"trial_type":"image-keyboard-response","trial_index":63,"plugin_version":"2.1.0","time_elapsed":401324,"subject_id":"87673","group":"Group1","full_date":"2025-12-02T22:16:37.571Z","date":"2025-12-02","time":"22:16:37"},{"rt":null,"stimulus":"<p style=\"font-size: 50px; margin: 0; text-align: center;\">+</p>","response":null,"trial_type":"html-keyboard-response","trial_index":64,"plugin_version":"2.1.0","time_elapsed":402327,"subject_id":"87673","group":"Group1","full_date":"2025-12-02T22:16:37.571Z","date":"2025-12-02","time":"22:16:37"},{"task":"memory_phase","broad_category":"S","image_png":"S_Shale_08.png","image_id":472,"category_name":"Shale","category":30,"distinct_rating":2.55,"distinct_type":"Bottom","rt":null,"stimulus":"Stimuli_Rocks480/S_Shale_08.png","response":null,"trial_type":"image-keyboard-response","trial_index":65,"plugin_version":"2.1.0","time_elapsed":404845,"subject_id":"87673","group":"Group1","full_date":"2025-12-02T22:16:37.571Z","date":"2025-12-02","time":"22:16:37"},{"rt":null,"stimulus":"<p style=\"font-size: 50px; margin: 0; text-align: center;\">+</p>","response":null,"trial_type":"html-keyboard-response","trial_index":66,"plugin_version":"2.1.0","time_elapsed":405848,"subject_id":"87673","group":"Group1","full_date":"2025-12-02T22:16:37.571Z","date":"2025-12-02","time":"22:16:37"},{"task":"memory_phase","broad_category":"I","image_png":"I_Rhyolite_16.png","image_id":160,"category_name":"Rhyolite","category":10,"distinct_rating":2.19,"distinct_type":"Bottom","rt":null,"stimulus":"Stimuli_Rocks480/I_Rhyolite_16.png","response":null,"trial_type":"image-keyboard-response","trial_index":67,"plugin_version":"2.1.0","time_elapsed":408364,"subject_id":"87673","group":"Group1","full_date":"2025-12-02T22:16:37.571Z","date":"2025-12-02","time":"22:16:37"},{"rt":null,"stimulus":"<p style=\"font-size: 50px; margin: 0; text-align: center;\">+</p>","response":null,"trial_type":"html-keyboard-response","trial_index":68,"plugin_version":"2.1.0","time_elapsed":409367,"subject_id":"87673","group":"Group1","full_date":"2025-12-02T22:16:37.571Z","date":"2025-12-02","time":"22:16:37"},{"task":"memory_phase","broad_category":"S","image_png":"S_Dolomite_12.png","image_id":396,"category_name":"Dolomite","category":25,"distinct_rating":1.85,"distinct_type":"Bottom","rt":null,"stimulus":"Stimuli_Rocks480/S_Dolomite_12.png","response":null,"trial_type":"image-keyboard-response","trial_index":69,"plugin_version":"2.1.0","time_elapsed":411882,"subject_id":"87673","group":"Group1","full_date":"2025-12-02T22:16:37.571Z","date":"2025-12-02","time":"22:16:37"},{"rt":null,"stimulus":"<p style=\"font-size: 50px; margin: 0; text-align: center;\">+</p>","response":null,"trial_type":"html-keyboard-response","trial_index":70,"plugin_version":"2.1.0","time_elapsed":412884,"subject_id":"87673","group":"Group1","full_date":"2025-12-02T22:16:37.571Z","date":"2025-12-02","time":"22:16:37"},{"task":"memory_phase","broad_category":"S","image_png":"S_Dolomite_13.png","image_id":397,"category_name":"Dolomite","category":25,"distinct_rating":1.77,"distinct_type":"Bottom","rt":null,"stimulus":"Stimuli_Rocks480/S_Dolomite_13.png","response":null,"trial_type":"image-keyboard-response","trial_index":71,"plugin_version":"2.1.0","time_elapsed":415401,"subject_id":"87673","group":"Group1","full_date":"2025-12-02T22:16:37.571Z","date":"2025-12-02","time":"22:16:37"},{"rt":null,"stimulus":"<p style=\"font-size: 50px; margin: 0; text-align: center;\">+</p>","response":null,"trial_type":"html-keyboard-response","trial_index":72,"plugin_version":"2.1.0","time_elapsed":416403,"subject_id":"87673","group":"Group1","full_date":"2025-12-02T22:16:37.571Z","date":"2025-12-02","time":"22:16:37"},{"task":"memory_phase","broad_category":"M","image_png":"M_Slate_15.png","image_id":319,"category_name":"Slate","category":20,"distinct_rating":2.13,"distinct_type":"Bottom","rt":null,"stimulus":"Stimuli_Rocks480/M_Slate_15.png","response":null,"trial_type":"image-keyboard-response","trial_index":73,"plugin_version":"2.1.0","time_elapsed":418915,"subject_id":"87673","group":"Group1","full_date":"2025-12-02T22:16:37.571Z","date":"2025-12-02","time":"22:16:37"},{"rt":null,"stimulus":"<p style=\"font-size: 50px; margin: 0; text-align: center;\">+</p>","response":null,"trial_type":"html-keyboard-response","trial_index":74,"plugin_version":"2.1.0","time_elapsed":419917,"subject_id":"87673","group":"Group1","full_date":"2025-12-02T22:16:37.571Z","date":"2025-12-02","time":"22:16:37"},{"task":"memory_phase","broad_category":"M","image_png":"M_Gneiss_05.png","image_id":197,"category_name":"Gneiss","category":13,"distinct_rating":2.97,"distinct_type":"Bottom","rt":null,"stimulus":"Stimuli_Rocks480/M_Gneiss_05.png","response":null,"trial_type":"image-keyboard-response","trial_index":75,"plugin_version":"2.1.0","time_elapsed":422437,"subject_id":"87673","group":"Group1","full_date":"2025-12-02T22:16:37.571Z","date":"2025-12-02","time":"22:16:37"},{"rt":null,"stimulus":"<p style=\"font-size: 50px; margin: 0; text-align: center;\">+</p>","response":null,"trial_type":"html-keyboard-response","trial_index":76,"plugin_version":"2.1.0","time_elapsed":423439,"subject_id":"87673","group":"Group1","full_date":"2025-12-02T22:16:37.571Z","date":"2025-12-02","time":"22:16:37"},{"task":"memory_phase","broad_category":"I","image_png":"I_Pumice_08.png","image_id":136,"category_name":"Pumice","category":9,"distinct_rating":3.1,"distinct_type":"Bottom","rt":null,"stimulus":"Stimuli_Rocks480/I_Pumice_08.png","response":null,"trial_type":"image-keyboard-response","trial_index":77,"plugin_version":"2.1.0","time_elapsed":425953,"subject_id":"87673","group":"Group1","full_date":"2025-12-02T22:16:37.571Z","date":"2025-12-02","time":"22:16:37"},{"rt":null,"stimulus":"<p style=\"font-size: 50px; margin: 0; text-align: center;\">+</p>","response":null,"trial_type":"html-keyboard-response","trial_index":78,"plugin_version":"2.1.0","time_elapsed":426956,"subject_id":"87673","group":"Group1","full_date":"2025-12-02T22:16:37.571Z","date":"2025-12-02","time":"22:16:37"},{"task":"memory_phase","broad_category":"S","image_png":"S_Shale_01.png","image_id":465,"category_name":"Shale","category":30,"distinct_rating":2.7,"distinct_type":"Bottom","rt":null,"stimulus":"Stimuli_Rocks480/S_Shale_01.png","response":null,"trial_type":"image-keyboard-response","trial_index":79,"plugin_version":"2.1.0","time_elapsed":429470,"subject_id":"87673","group":"Group1","full_date":"2025-12-02T22:16:37.571Z","date":"2025-12-02","time":"22:16:37"},{"rt":null,"stimulus":"<p style=\"font-size: 50px; margin: 0; text-align: center;\">+</p>","response":null,"trial_type":"html-keyboard-response","trial_index":80,"plugin_version":"2.1.0","time_elapsed":430472,"subject_id":"87673","group":"Group1","full_date":"2025-12-02T22:16:37.571Z","date":"2025-12-02","time":"22:16:37"},{"task":"memory_phase","broad_category":"I","image_png":"I_Diorite_05.png","image_id":37,"category_name":"Diorite","category":3,"distinct_rating":3.08,"distinct_type":"Bottom","rt":null,"stimulus":"Stimuli_Rocks480/I_Diorite_05.png","response":null,"trial_type":"image-keyboard-response","trial_index":81,"plugin_version":"2.1.0","time_elapsed":432987,"subject_id":"87673","group":"Group1","full_date":"2025-12-02T22:16:37.571Z","date":"2025-12-02","time":"22:16:37"},{"rt":null,"stimulus":"<p style=\"font-size: 50px; margin: 0; text-align: center;\">+</p>","response":null,"trial_type":"html-keyboard-response","trial_index":82,"plugin_version":"2.1.0","time_elapsed":433989,"subject_id":"87673","group":"Group1","full_date":"2025-12-02T22:16:37.571Z","date":"2025-12-02","time":"22:16:37"},{"task":"memory_phase","broad_category":"S","image_png":"S_Chert_10.png","image_id":362,"category_name":"Chert","category":23,"distinct_rating":7.17,"distinct_type":"Top","rt":null,"stimulus":"Stimuli_Rocks480/S_Chert_10.png","response":null,"trial_type":"image-keyboard-response","trial_index":83,"plugin_version":"2.1.0","time_elapsed":436503,"subject_id":"87673","group":"Group1","full_date":"2025-12-02T22:16:37.571Z","date":"2025-12-02","time":"22:16:37"},{"rt":null,"stimulus":"<p style=\"font-size: 50px; margin: 0; text-align: center;\">+</p>","response":null,"trial_type":"html-keyboard-response","trial_index":84,"plugin_version":"2.1.0","time_elapsed":437505,"subject_id":"87673","group":"Group1","full_date":"2025-12-02T22:16:37.571Z","date":"2025-12-02","time":"22:16:37"},{"task":"memory_phase","broad_category":"I","image_png":"I_Gabbro_11.png","image_id":59,"category_name":"Gabbro","category":4,"distinct_rating":1.99,"distinct_type":"Bottom","rt":null,"stimulus":"Stimuli_Rocks480/I_Gabbro_11.png","response":null,"trial_type":"image-keyboard-response","trial_index":85,"plugin_version":"2.1.0","time_elapsed":440018,"subject_id":"87673","group":"Group1","full_date":"2025-12-02T22:16:37.571Z","date":"2025-12-02","time":"22:16:37"},{"rt":null,"stimulus":"<p style=\"font-size: 50px; margin: 0; text-align: center;\">+</p>","response":null,"trial_type":"html-keyboard-response","trial_index":86,"plugin_version":"2.1.0","time_elapsed":441019,"subject_id":"87673","group":"Group1","full_date":"2025-12-02T22:16:37.571Z","date":"2025-12-02","time":"22:16:37"},{"task":"memory_phase","broad_category":"I","image_png":"I_Andesite_10.png","image_id":10,"category_name":"Andesite","category":1,"distinct_rating":3.15,"distinct_type":"Bottom","rt":null,"stimulus":"Stimuli_Rocks480/I_Andesite_10.png","response":null,"trial_type":"image-keyboard-response","trial_index":87,"plugin_version":"2.1.0","time_elapsed":443529,"subject_id":"87673","group":"Group1","full_date":"2025-12-02T22:16:37.571Z","date":"2025-12-02","time":"22:16:37"},{"rt":null,"stimulus":"<p style=\"font-size: 50px; margin: 0; text-align: center;\">+</p>","response":null,"trial_type":"html-keyboard-response","trial_index":88,"plugin_version":"2.1.0","time_elapsed":444532,"subject_id":"87673","group":"Group1","full_date":"2025-12-02T22:16:37.571Z","date":"2025-12-02","time":"22:16:37"},{"task":"memory_phase","broad_category":"S","image_png":"S_Conglomerate_05.png","image_id":373,"category_name":"Conglomerate","category":24,"distinct_rating":7.32,"distinct_type":"Top","rt":null,"stimulus":"Stimuli_Rocks480/S_Conglomerate_05.png","response":null,"trial_type":"image-keyboard-response","trial_index":89,"plugin_version":"2.1.0","time_elapsed":447049,"subject_id":"87673","group":"Group1","full_date":"2025-12-02T22:16:37.571Z","date":"2025-12-02","time":"22:16:37"},{"rt":null,"stimulus":"<p style=\"font-size: 50px; margin: 0; text-align: center;\">+</p>","response":null,"trial_type":"html-keyboard-response","trial_index":90,"plugin_version":"2.1.0","time_elapsed":448051,"subject_id":"87673","group":"Group1","full_date":"2025-12-02T22:16:37.571Z","date":"2025-12-02","time":"22:16:37"},{"task":"memory_phase","broad_category":"M","image_png":"M_Gneiss_13.png","image_id":205,"category_name":"Gneiss","category":13,"distinct_rating":3.26,"distinct_type":"Bottom","rt":null,"stimulus":"Stimuli_Rocks480/M_Gneiss_13.png","response":null,"trial_type":"image-keyboard-response","trial_index":91,"plugin_version":"2.1.0","time_elapsed":450566,"subject_id":"87673","group":"Group1","full_date":"2025-12-02T22:16:37.571Z","date":"2025-12-02","time":"22:16:37"},{"rt":null,"stimulus":"<p style=\"font-size: 50px; margin: 0; text-align: center;\">+</p>","response":null,"trial_type":"html-keyboard-response","trial_index":92,"plugin_version":"2.1.0","time_elapsed":451568,"subject_id":"87673","group":"Group1","full_date":"2025-12-02T22:16:37.571Z","date":"2025-12-02","time":"22:16:37"},{"task":"memory_phase","broad_category":"I","image_png":"I_Obsidian_05.png","image_id":85,"category_name":"Obsidian","category":6,"distinct_rating":7.32,"distinct_type":"Top","rt":null,"stimulus":"Stimuli_Rocks480/I_Obsidian_05.png","response":null,"trial_type":"image-keyboard-response","trial_index":93,"plugin_version":"2.1.0","time_elapsed":454084,"subject_id":"87673","group":"Group1","full_date":"2025-12-02T22:16:37.571Z","date":"2025-12-02","time":"22:16:37"},{"rt":null,"stimulus":"<p style=\"font-size: 50px; margin: 0; text-align: center;\">+</p>","response":null,"trial_type":"html-keyboard-response","trial_index":94,"plugin_version":"2.1.0","time_elapsed":455086,"subject_id":"87673","group":"Group1","full_date":"2025-12-02T22:16:37.571Z","date":"2025-12-02","time":"22:16:37"},{"task":"memory_phase","broad_category":"M","image_png":"M_Quartzite_13.png","image_id":285,"category_name":"Quartzite","category":18,"distinct_rating":2.27,"distinct_type":"Bottom","rt":null,"stimulus":"Stimuli_Rocks480/M_Quartzite_13.png","response":null,"trial_type":"image-keyboard-response","trial_index":95,"plugin_version":"2.1.0","time_elapsed":457602,"subject_id":"87673","group":"Group1","full_date":"2025-12-02T22:16:37.571Z","date":"2025-12-02","time":"22:16:37"},{"rt":null,"stimulus":"<p style=\"font-size: 50px; margin: 0; text-align: center;\">+</p>","response":null,"trial_type":"html-keyboard-response","trial_index":96,"plugin_version":"2.1.0","time_elapsed":458604,"subject_id":"87673","group":"Group1","full_date":"2025-12-02T22:16:37.571Z","date":"2025-12-02","time":"22:16:37"},{"task":"memory_phase","broad_category":"M","image_png":"M_Gneiss_06.png","image_id":198,"category_name":"Gneiss","category":13,"distinct_rating":2.65,"distinct_type":"Bottom","rt":null,"stimulus":"Stimuli_Rocks480/M_Gneiss_06.png","response":null,"trial_type":"image-keyboard-response","trial_index":97,"plugin_version":"2.1.0","time_elapsed":461121,"subject_id":"87673","group":"Group1","full_date":"2025-12-02T22:16:37.571Z","date":"2025-12-02","time":"22:16:37"},{"rt":null,"stimulus":"<p style=\"font-size: 50px; margin: 0; text-align: center;\">+</p>","response":null,"trial_type":"html-keyboard-response","trial_index":98,"plugin_version":"2.1.0","time_elapsed":462123,"subject_id":"87673","group":"Group1","full_date":"2025-12-02T22:16:37.571Z","date":"2025-12-02","time":"22:16:37"},{"task":"memory_phase","broad_category":"I","image_png":"I_Diorite_03.png","image_id":35,"category_name":"Diorite","category":3,"distinct_rating":3.14,"distinct_type":"Bottom","rt":null,"stimulus":"Stimuli_Rocks480/I_Diorite_03.png","response":null,"trial_type":"image-keyboard-response","trial_index":99,"plugin_version":"2.1.0","time_elapsed":464642,"subject_id":"87673","group":"Group1","full_date":"2025-12-02T22:16:37.571Z","date":"2025-12-02","time":"22:16:37"},{"rt":null,"stimulus":"<p style=\"font-size: 50px; margin: 0; text-align: center;\">+</p>","response":null,"trial_type":"html-keyboard-response","trial_index":100,"plugin_version":"2.1.0","time_elapsed":465644,"subject_id":"87673","group":"Group1","full_date":"2025-12-02T22:16:37.571Z","date":"2025-12-02","time":"22:16:37"},{"task":"memory_phase","broad_category":"I","image_png":"I_Diorite_04.png","image_id":36,"category_name":"Diorite","category":3,"distinct_rating":2.98,"distinct_type":"Bottom","rt":null,"stimulus":"Stimuli_Rocks480/I_Diorite_04.png","response":null,"trial_type":"image-keyboard-response","trial_index":101,"plugin_version":"2.1.0","time_elapsed":468163,"subject_id":"87673","group":"Group1","full_date":"2025-12-02T22:16:37.571Z","date":"2025-12-02","time":"22:16:37"},{"rt":null,"stimulus":"<p style=\"font-size: 50px; margin: 0; text-align: center;\">+</p>","response":null,"trial_type":"html-keyboard-response","trial_index":102,"plugin_version":"2.1.0","time_elapsed":469165,"subject_id":"87673","group":"Group1","full_date":"2025-12-02T22:16:37.571Z","date":"2025-12-02","time":"22:16:37"},{"task":"memory_phase","broad_category":"S","image_png":"S_Rock Salt_01.png","image_id":433,"category_name":"Rock Salt","category":28,"distinct_rating":7.18,"distinct_type":"Top","rt":null,"stimulus":"Stimuli_Rocks480/S_Rock Salt_01.png","response":null,"trial_type":"image-keyboard-response","trial_index":103,"plugin_version":"2.1.0","time_elapsed":471684,"subject_id":"87673","group":"Group1","full_date":"2025-12-02T22:16:37.571Z","date":"2025-12-02","time":"22:16:37"},{"rt":null,"stimulus":"<p style=\"font-size: 50px; margin: 0; text-align: center;\">+</p>","response":null,"trial_type":"html-keyboard-response","trial_index":104,"plugin_version":"2.1.0","time_elapsed":472686,"subject_id":"87673","group":"Group1","full_date":"2025-12-02T22:16:37.571Z","date":"2025-12-02","time":"22:16:37"},{"task":"memory_phase","broad_category":"M","image_png":"M_Phyllite_07.png","image_id":263,"category_name":"Phyllite","category":17,"distinct_rating":2.59,"distinct_type":"Bottom","rt":null,"stimulus":"Stimuli_Rocks480/M_Phyllite_07.png","response":null,"trial_type":"image-keyboard-response","trial_index":105,"plugin_version":"2.1.0","time_elapsed":475198,"subject_id":"87673","group":"Group1","full_date":"2025-12-02T22:16:37.571Z","date":"2025-12-02","time":"22:16:37"},{"rt":151954,"stimulus":"<p style=\"max-width: 760px; margin: auto; font-size: 35px; line-height: 1.5;\">You have completed 1 study phase. Now, we'll show you all the images again 2 more times.<br><br>Press SPACE to continue</p>","response":" ","trial_type":"html-keyboard-response","trial_index":106,"plugin_version":"2.1.0","time_elapsed":627155,"subject_id":"87673","group":"Group1","full_date":"2025-12-02T22:16:37.571Z","date":"2025-12-02","time":"22:16:37"},{"rt":null,"stimulus":"<p style=\"font-size: 50px; margin: 0; text-align: center;\">+</p>","response":null,"trial_type":"html-keyboard-response","trial_index":107,"plugin_version":"2.1.0","time_elapsed":628157,"subject_id":"87673","group":"Group1","full_date":"2025-12-02T22:16:37.571Z","date":"2025-12-02","time":"22:16:37"},{"task":"memory_phase","broad_category":"S","image_png":"S_Dolomite_14.png","image_id":398,"category_name":"Dolomite","category":25,"distinct_rating":1.43,"distinct_type":"Bottom","rt":null,"stimulus":"Stimuli_Rocks480/S_Dolomite_14.png","response":null,"trial_type":"image-keyboard-response","trial_index":108,"plugin_version":"2.1.0","time_elapsed":630660,"subject_id":"87673","group":"Group1","full_date":"2025-12-02T22:16:37.571Z","date":"2025-12-02","time":"22:16:37"},{"rt":null,"stimulus":"<p style=\"font-size: 50px; margin: 0; text-align: center;\">+</p>","response":null,"trial_type":"html-keyboard-response","trial_index":109,"plugin_version":"2.1.0","time_elapsed":631662,"subject_id":"87673","group":"Group1","full_date":"2025-12-02T22:16:37.571Z","date":"2025-12-02","time":"22:16:37"},{"task":"memory_phase","broad_category":"S","image_png":"S_Shale_08.png","image_id":472,"category_name":"Shale","category":30,"distinct_rating":2.55,"distinct_type":"Bottom","rt":null,"stimulus":"Stimuli_Rocks480/S_Shale_08.png","response":null,"trial_type":"image-keyboard-response","trial_index":110,"plugin_version":"2.1.0","time_elapsed":634166,"subject_id":"87673","group":"Group1","full_date":"2025-12-02T22:16:37.571Z","date":"2025-12-02","time":"22:16:37"},{"rt":null,"stimulus":"<p style=\"font-size: 50px; margin: 0; text-align: center;\">+</p>","response":null,"trial_type":"html-keyboard-response","trial_index":111,"plugin_version":"2.1.0","time_elapsed":635168,"subject_id":"87673","group":"Group1","full_date":"2025-12-02T22:16:37.571Z","date":"2025-12-02","time":"22:16:37"},{"task":"memory_phase","broad_category":"I","image_png":"I_Andesite_06.png","image_id":6,"category_name":"Andesite","category":1,"distinct_rating":3.17,"distinct_type":"Bottom","rt":null,"stimulus":"Stimuli_Rocks480/I_Andesite_06.png","response":null,"trial_type":"image-keyboard-response","trial_index":112,"plugin_version":"2.1.0","time_elapsed":637671,"subject_id":"87673","group":"Group1","full_date":"2025-12-02T22:16:37.571Z","date":"2025-12-02","time":"22:16:37"},{"rt":null,"stimulus":"<p style=\"font-size: 50px; margin: 0; text-align: center;\">+</p>","response":null,"trial_type":"html-keyboard-response","trial_index":113,"plugin_version":"2.1.0","time_elapsed":638673,"subject_id":"87673","group":"Group1","full_date":"2025-12-02T22:16:37.571Z","date":"2025-12-02","time":"22:16:37"},{"task":"memory_phase","broad_category":"S","image_png":"S_Shale_12.png","image_id":476,"category_name":"Shale","category":30,"distinct_rating":2.48,"distinct_type":"Bottom","rt":null,"stimulus":"Stimuli_Rocks480/S_Shale_12.png","response":null,"trial_type":"image-keyboard-response","trial_index":114,"plugin_version":"2.1.0","time_elapsed":641190,"subject_id":"87673","group":"Group1","full_date":"2025-12-02T22:16:37.571Z","date":"2025-12-02","time":"22:16:37"},{"rt":null,"stimulus":"<p style=\"font-size: 50px; margin: 0; text-align: center;\">+</p>","response":null,"trial_type":"html-keyboard-response","trial_index":115,"plugin_version":"2.1.0","time_elapsed":642192,"subject_id":"87673","group":"Group1","full_date":"2025-12-02T22:16:37.571Z","date":"2025-12-02","time":"22:16:37"},{"task":"memory_phase","broad_category":"I","image_png":"I_Diorite_05.png","image_id":37,"category_name":"Diorite","category":3,"distinct_rating":3.08,"distinct_type":"Bottom","rt":null,"stimulus":"Stimuli_Rocks480/I_Diorite_05.png","response":null,"trial_type":"image-keyboard-response","trial_index":116,"plugin_version":"2.1.0","time_elapsed":644695,"subject_id":"87673","group":"Group1","full_date":"2025-12-02T22:16:37.571Z","date":"2025-12-02","time":"22:16:37"},{"rt":null,"stimulus":"<p style=\"font-size: 50px; margin: 0; text-align: center;\">+</p>","response":null,"trial_type":"html-keyboard-response","trial_index":117,"plugin_version":"2.1.0","time_elapsed":645697,"subject_id":"87673","group":"Group1","full_date":"2025-12-02T22:16:37.571Z","date":"2025-12-02","time":"22:16:37"},{"task":"memory_phase","broad_category":"I","image_png":"I_Rhyolite_14.png","image_id":158,"category_name":"Rhyolite","category":10,"distinct_rating":2.59,"distinct_type":"Bottom","rt":null,"stimulus":"Stimuli_Rocks480/I_Rhyolite_14.png","response":null,"trial_type":"image-keyboard-response","trial_index":118,"plugin_version":"2.1.0","time_elapsed":648212,"subject_id":"87673","group":"Group1","full_date":"2025-12-02T22:16:37.571Z","date":"2025-12-02","time":"22:16:37"},{"rt":null,"stimulus":"<p style=\"font-size: 50px; margin: 0; text-align: center;\">+</p>","response":null,"trial_type":"html-keyboard-response","trial_index":119,"plugin_version":"2.1.0","time_elapsed":649214,"subject_id":"87673","group":"Group1","full_date":"2025-12-02T22:16:37.571Z","date":"2025-12-02","time":"22:16:37"},{"task":"memory_phase","broad_category":"M","image_png":"M_Phyllite_10.png","image_id":266,"category_name":"Phyllite","category":17,"distinct_rating":2.6,"distinct_type":"Bottom","rt":null,"stimulus":"Stimuli_Rocks480/M_Phyllite_10.png","response":null,"trial_type":"image-keyboard-response","trial_index":120,"plugin_version":"2.1.0","time_elapsed":651728,"subject_id":"87673","group":"Group1","full_date":"2025-12-02T22:16:37.571Z","date":"2025-12-02","time":"22:16:37"},{"rt":null,"stimulus":"<p style=\"font-size: 50px; margin: 0; text-align: center;\">+</p>","response":null,"trial_type":"html-keyboard-response","trial_index":121,"plugin_version":"2.1.0","time_elapsed":652730,"subject_id":"87673","group":"Group1","full_date":"2025-12-02T22:16:37.571Z","date":"2025-12-02","time":"22:16:37"},{"task":"memory_phase","broad_category":"I","image_png":"I_Diorite_03.png","image_id":35,"category_name":"Diorite","category":3,"distinct_rating":3.14,"distinct_type":"Bottom","rt":null,"stimulus":"Stimuli_Rocks480/I_Diorite_03.png","response":null,"trial_type":"image-keyboard-response","trial_index":122,"plugin_version":"2.1.0","time_elapsed":655233,"subject_id":"87673","group":"Group1","full_date":"2025-12-02T22:16:37.571Z","date":"2025-12-02","time":"22:16:37"},{"rt":null,"stimulus":"<p style=\"font-size: 50px; margin: 0; text-align: center;\">+</p>","response":null,"trial_type":"html-keyboard-response","trial_index":123,"plugin_version":"2.1.0","time_elapsed":656236,"subject_id":"87673","group":"Group1","full_date":"2025-12-02T22:16:37.571Z","date":"2025-12-02","time":"22:16:37"},{"task":"memory_phase","broad_category":"I","image_png":"I_Obsidian_05.png","image_id":85,"category_name":"Obsidian","category":6,"distinct_rating":7.32,"distinct_type":"Top","rt":null,"stimulus":"Stimuli_Rocks480/I_Obsidian_05.png","response":null,"trial_type":"image-keyboard-response","trial_index":124,"plugin_version":"2.1.0","time_elapsed":658752,"subject_id":"87673","group":"Group1","full_date":"2025-12-02T22:16:37.571Z","date":"2025-12-02","time":"22:16:37"},{"rt":null,"stimulus":"<p style=\"font-size: 50px; margin: 0; text-align: center;\">+</p>","response":null,"trial_type":"html-keyboard-response","trial_index":125,"plugin_version":"2.1.0","time_elapsed":659754,"subject_id":"87673","group":"Group1","full_date":"2025-12-02T22:16:37.571Z","date":"2025-12-02","time":"22:16:37"},{"task":"memory_phase","broad_category":"I","image_png":"I_Rhyolite_16.png","image_id":160,"category_name":"Rhyolite","category":10,"distinct_rating":2.19,"distinct_type":"Bottom","rt":null,"stimulus":"Stimuli_Rocks480/I_Rhyolite_16.png","response":null,"trial_type":"image-keyboard-response","trial_index":126,"plugin_version":"2.1.0","time_elapsed":662268,"subject_id":"87673","group":"Group1","full_date":"2025-12-02T22:16:37.571Z","date":"2025-12-02","time":"22:16:37"},{"rt":null,"stimulus":"<p style=\"font-size: 50px; margin: 0; text-align: center;\">+</p>","response":null,"trial_type":"html-keyboard-response","trial_index":127,"plugin_version":"2.1.0","time_elapsed":663270,"subject_id":"87673","group":"Group1","full_date":"2025-12-02T22:16:37.571Z","date":"2025-12-02","time":"22:16:37"},{"task":"memory_phase","broad_category":"M","image_png":"M_Phyllite_07.png","image_id":263,"category_name":"Phyllite","category":17,"distinct_rating":2.59,"distinct_type":"Bottom","rt":null,"stimulus":"Stimuli_Rocks480/M_Phyllite_07.png","response":null,"trial_type":"image-keyboard-response","trial_index":128,"plugin_version":"2.1.0","time_elapsed":665773,"subject_id":"87673","group":"Group1","full_date":"2025-12-02T22:16:37.571Z","date":"2025-12-02","time":"22:16:37"},{"rt":null,"stimulus":"<p style=\"font-size: 50px; margin: 0; text-align: center;\">+</p>","response":null,"trial_type":"html-keyboard-response","trial_index":129,"plugin_version":"2.1.0","time_elapsed":666776,"subject_id":"87673","group":"Group1","full_date":"2025-12-02T22:16:37.571Z","date":"2025-12-02","time":"22:16:37"},{"task":"memory_phase","broad_category":"S","image_png":"S_Rock Salt_01.png","image_id":433,"category_name":"Rock Salt","category":28,"distinct_rating":7.18,"distinct_type":"Top","rt":null,"stimulus":"Stimuli_Rocks480/S_Rock Salt_01.png","response":null,"trial_type":"image-keyboard-response","trial_index":130,"plugin_version":"2.1.0","time_elapsed":669279,"subject_id":"87673","group":"Group1","full_date":"2025-12-02T22:16:37.571Z","date":"2025-12-02","time":"22:16:37"},{"rt":null,"stimulus":"<p style=\"font-size: 50px; margin: 0; text-align: center;\">+</p>","response":null,"trial_type":"html-keyboard-response","trial_index":131,"plugin_version":"2.1.0","time_elapsed":670281,"subject_id":"87673","group":"Group1","full_date":"2025-12-02T22:16:37.571Z","date":"2025-12-02","time":"22:16:37"},{"task":"memory_phase","broad_category":"S","image_png":"S_Sandstone_15.png","image_id":463,"category_name":"Sandstone","category":29,"distinct_rating":2,"distinct_type":"Bottom","rt":null,"stimulus":"Stimuli_Rocks480/S_Sandstone_15.png","response":null,"trial_type":"image-keyboard-response","trial_index":132,"plugin_version":"2.1.0","time_elapsed":672799,"subject_id":"87673","group":"Group1","full_date":"2025-12-02T22:16:37.571Z","date":"2025-12-02","time":"22:16:37"},{"rt":null,"stimulus":"<p style=\"font-size: 50px; margin: 0; text-align: center;\">+</p>","response":null,"trial_type":"html-keyboard-response","trial_index":133,"plugin_version":"2.1.0","time_elapsed":673801,"subject_id":"87673","group":"Group1","full_date":"2025-12-02T22:16:37.571Z","date":"2025-12-02","time":"22:16:37"},{"task":"memory_phase","broad_category":"M","image_png":"M_Marble_04.png","image_id":228,"category_name":"Marble","category":15,"distinct_rating":3.15,"distinct_type":"Bottom","rt":null,"stimulus":"Stimuli_Rocks480/M_Marble_04.png","response":null,"trial_type":"image-keyboard-response","trial_index":134,"plugin_version":"2.1.0","time_elapsed":676319,"subject_id":"87673","group":"Group1","full_date":"2025-12-02T22:16:37.571Z","date":"2025-12-02","time":"22:16:37"},{"rt":null,"stimulus":"<p style=\"font-size: 50px; margin: 0; text-align: center;\">+</p>","response":null,"trial_type":"html-keyboard-response","trial_index":135,"plugin_version":"2.1.0","time_elapsed":677322,"subject_id":"87673","group":"Group1","full_date":"2025-12-02T22:16:37.571Z","date":"2025-12-02","time":"22:16:37"},{"task":"memory_phase","broad_category":"I","image_png":"I_Gabbro_11.png","image_id":59,"category_name":"Gabbro","category":4,"distinct_rating":1.99,"distinct_type":"Bottom","rt":null,"stimulus":"Stimuli_Rocks480/I_Gabbro_11.png","response":null,"trial_type":"image-keyboard-response","trial_index":136,"plugin_version":"2.1.0","time_elapsed":679835,"subject_id":"87673","group":"Group1","full_date":"2025-12-02T22:16:37.571Z","date":"2025-12-02","time":"22:16:37"},{"rt":null,"stimulus":"<p style=\"font-size: 50px; margin: 0; text-align: center;\">+</p>","response":null,"trial_type":"html-keyboard-response","trial_index":137,"plugin_version":"2.1.0","time_elapsed":680837,"subject_id":"87673","group":"Group1","full_date":"2025-12-02T22:16:37.571Z","date":"2025-12-02","time":"22:16:37"},{"task":"memory_phase","broad_category":"M","image_png":"M_Slate_11.png","image_id":315,"category_name":"Slate","category":20,"distinct_rating":2.75,"distinct_type":"Bottom","rt":null,"stimulus":"Stimuli_Rocks480/M_Slate_11.png","response":null,"trial_type":"image-keyboard-response","trial_index":138,"plugin_version":"2.1.0","time_elapsed":683347,"subject_id":"87673","group":"Group1","full_date":"2025-12-02T22:16:37.571Z","date":"2025-12-02","time":"22:16:37"},{"rt":null,"stimulus":"<p style=\"font-size: 50px; margin: 0; text-align: center;\">+</p>","response":null,"trial_type":"html-keyboard-response","trial_index":139,"plugin_version":"2.1.0","time_elapsed":684349,"subject_id":"87673","group":"Group1","full_date":"2025-12-02T22:16:37.571Z","date":"2025-12-02","time":"22:16:37"},{"task":"memory_phase","broad_category":"S","image_png":"S_Chert_10.png","image_id":362,"category_name":"Chert","category":23,"distinct_rating":7.17,"distinct_type":"Top","rt":null,"stimulus":"Stimuli_Rocks480/S_Chert_10.png","response":null,"trial_type":"image-keyboard-response","trial_index":140,"plugin_version":"2.1.0","time_elapsed":686865,"subject_id":"87673","group":"Group1","full_date":"2025-12-02T22:16:37.571Z","date":"2025-12-02","time":"22:16:37"},{"rt":null,"stimulus":"<p style=\"font-size: 50px; margin: 0; text-align: center;\">+</p>","response":null,"trial_type":"html-keyboard-response","trial_index":141,"plugin_version":"2.1.0","time_elapsed":687868,"subject_id":"87673","group":"Group1","full_date":"2025-12-02T22:16:37.571Z","date":"2025-12-02","time":"22:16:37"},{"task":"memory_phase","broad_category":"M","image_png":"M_Marble_16.png","image_id":240,"category_name":"Marble","category":15,"distinct_rating":2.57,"distinct_type":"Bottom","rt":null,"stimulus":"Stimuli_Rocks480/M_Marble_16.png","response":null,"trial_type":"image-keyboard-response","trial_index":142,"plugin_version":"2.1.0","time_elapsed":690382,"subject_id":"87673","group":"Group1","full_date":"2025-12-02T22:16:37.571Z","date":"2025-12-02","time":"22:16:37"},{"rt":null,"stimulus":"<p style=\"font-size: 50px; margin: 0; text-align: center;\">+</p>","response":null,"trial_type":"html-keyboard-response","trial_index":143,"plugin_version":"2.1.0","time_elapsed":691384,"subject_id":"87673","group":"Group1","full_date":"2025-12-02T22:16:37.571Z","date":"2025-12-02","time":"22:16:37"},{"task":"memory_phase","broad_category":"M","image_png":"M_Phyllite_03.png","image_id":259,"category_name":"Phyllite","category":17,"distinct_rating":2.5,"distinct_type":"Bottom","rt":null,"stimulus":"Stimuli_Rocks480/M_Phyllite_03.png","response":null,"trial_type":"image-keyboard-response","trial_index":144,"plugin_version":"2.1.0","time_elapsed":693900,"subject_id":"87673","group":"Group1","full_date":"2025-12-02T22:16:37.571Z","date":"2025-12-02","time":"22:16:37"},{"rt":null,"stimulus":"<p style=\"font-size: 50px; margin: 0; text-align: center;\">+</p>","response":null,"trial_type":"html-keyboard-response","trial_index":145,"plugin_version":"2.1.0","time_elapsed":694902,"subject_id":"87673","group":"Group1","full_date":"2025-12-02T22:16:37.571Z","date":"2025-12-02","time":"22:16:37"},{"task":"memory_phase","broad_category":"I","image_png":"I_Basalt_01.png","image_id":17,"category_name":"Basalt","category":2,"distinct_rating":1.92,"distinct_type":"Bottom","rt":null,"stimulus":"Stimuli_Rocks480/I_Basalt_01.png","response":null,"trial_type":"image-keyboard-response","trial_index":146,"plugin_version":"2.1.0","time_elapsed":697422,"subject_id":"87673","group":"Group1","full_date":"2025-12-02T22:16:37.571Z","date":"2025-12-02","time":"22:16:37"},{"rt":null,"stimulus":"<p style=\"font-size: 50px; margin: 0; text-align: center;\">+</p>","response":null,"trial_type":"html-keyboard-response","trial_index":147,"plugin_version":"2.1.0","time_elapsed":698424,"subject_id":"87673","group":"Group1","full_date":"2025-12-02T22:16:37.571Z","date":"2025-12-02","time":"22:16:37"},{"task":"memory_phase","broad_category":"S","image_png":"S_Sandstone_16.png","image_id":464,"category_name":"Sandstone","category":29,"distinct_rating":1.93,"distinct_type":"Bottom","rt":null,"stimulus":"Stimuli_Rocks480/S_Sandstone_16.png","response":null,"trial_type":"image-keyboard-response","trial_index":148,"plugin_version":"2.1.0","time_elapsed":700935,"subject_id":"87673","group":"Group1","full_date":"2025-12-02T22:16:37.571Z","date":"2025-12-02","time":"22:16:37"},{"rt":null,"stimulus":"<p style=\"font-size: 50px; margin: 0; text-align: center;\">+</p>","response":null,"trial_type":"html-keyboard-response","trial_index":149,"plugin_version":"2.1.0","time_elapsed":701938,"subject_id":"87673","group":"Group1","full_date":"2025-12-02T22:16:37.571Z","date":"2025-12-02","time":"22:16:37"},{"task":"memory_phase","broad_category":"S","image_png":"S_Conglomerate_05.png","image_id":373,"category_name":"Conglomerate","category":24,"distinct_rating":7.32,"distinct_type":"Top","rt":null,"stimulus":"Stimuli_Rocks480/S_Conglomerate_05.png","response":null,"trial_type":"image-keyboard-response","trial_index":150,"plugin_version":"2.1.0","time_elapsed":704454,"subject_id":"87673","group":"Group1","full_date":"2025-12-02T22:16:37.571Z","date":"2025-12-02","time":"22:16:37"},{"rt":null,"stimulus":"<p style=\"font-size: 50px; margin: 0; text-align: center;\">+</p>","response":null,"trial_type":"html-keyboard-response","trial_index":151,"plugin_version":"2.1.0","time_elapsed":705456,"subject_id":"87673","group":"Group1","full_date":"2025-12-02T22:16:37.571Z","date":"2025-12-02","time":"22:16:37"},{"task":"memory_phase","broad_category":"I","image_png":"I_Basalt_02.png","image_id":18,"category_name":"Basalt","category":2,"distinct_rating":1.84,"distinct_type":"Bottom","rt":null,"stimulus":"Stimuli_Rocks480/I_Basalt_02.png","response":null,"trial_type":"image-keyboard-response","trial_index":152,"plugin_version":"2.1.0","time_elapsed":707972,"subject_id":"87673","group":"Group1","full_date":"2025-12-02T22:16:37.571Z","date":"2025-12-02","time":"22:16:37"},{"rt":null,"stimulus":"<p style=\"font-size: 50px; margin: 0; text-align: center;\">+</p>","response":null,"trial_type":"html-keyboard-response","trial_index":153,"plugin_version":"2.1.0","time_elapsed":708975,"subject_id":"87673","group":"Group1","full_date":"2025-12-02T22:16:37.571Z","date":"2025-12-02","time":"22:16:37"},{"task":"memory_phase","broad_category":"M","image_png":"M_Marble_06.png","image_id":230,"category_name":"Marble","category":15,"distinct_rating":3.4,"distinct_type":"Bottom","rt":null,"stimulus":"Stimuli_Rocks480/M_Marble_06.png","response":null,"trial_type":"image-keyboard-response","trial_index":154,"plugin_version":"2.1.0","time_elapsed":711489,"subject_id":"87673","group":"Group1","full_date":"2025-12-02T22:16:37.571Z","date":"2025-12-02","time":"22:16:37"},{"rt":null,"stimulus":"<p style=\"font-size: 50px; margin: 0; text-align: center;\">+</p>","response":null,"trial_type":"html-keyboard-response","trial_index":155,"plugin_version":"2.1.0","time_elapsed":712492,"subject_id":"87673","group":"Group1","full_date":"2025-12-02T22:16:37.571Z","date":"2025-12-02","time":"22:16:37"},{"task":"memory_phase","broad_category":"I","image_png":"I_Pumice_11.png","image_id":139,"category_name":"Pumice","category":9,"distinct_rating":1.74,"distinct_type":"Bottom","rt":null,"stimulus":"Stimuli_Rocks480/I_Pumice_11.png","response":null,"trial_type":"image-keyboard-response","trial_index":156,"plugin_version":"2.1.0","time_elapsed":715004,"subject_id":"87673","group":"Group1","full_date":"2025-12-02T22:16:37.571Z","date":"2025-12-02","time":"22:16:37"},{"rt":15730,"stimulus":"<p style=\"max-width: 760px; margin: auto; font-size: 35px; line-height: 1.5;\">Press SPACE to continue study phase</p>","response":" ","trial_type":"html-keyboard-response","trial_index":157,"plugin_version":"2.1.0","time_elapsed":730736,"subject_id":"87673","group":"Group1","full_date":"2025-12-02T22:16:37.571Z","date":"2025-12-02","time":"22:16:37"},{"rt":null,"stimulus":"<p style=\"font-size: 50px; margin: 0; text-align: center;\">+</p>","response":null,"trial_type":"html-keyboard-response","trial_index":158,"plugin_version":"2.1.0","time_elapsed":731738,"subject_id":"87673","group":"Group1","full_date":"2025-12-02T22:16:37.571Z","date":"2025-12-02","time":"22:16:37"},{"task":"memory_phase","broad_category":"M","image_png":"M_Slate_15.png","image_id":319,"category_name":"Slate","category":20,"distinct_rating":2.13,"distinct_type":"Bottom","rt":null,"stimulus":"Stimuli_Rocks480/M_Slate_15.png","response":null,"trial_type":"image-keyboard-response","trial_index":159,"plugin_version":"2.1.0","time_elapsed":734250,"subject_id":"87673","group":"Group1","full_date":"2025-12-02T22:16:37.571Z","date":"2025-12-02","time":"22:16:37"},{"rt":null,"stimulus":"<p style=\"font-size: 50px; margin: 0; text-align: center;\">+</p>","response":null,"trial_type":"html-keyboard-response","trial_index":160,"plugin_version":"2.1.0","time_elapsed":735252,"subject_id":"87673","group":"Group1","full_date":"2025-12-02T22:16:37.571Z","date":"2025-12-02","time":"22:16:37"},{"task":"memory_phase","broad_category":"I","image_png":"I_Pegmatite_10.png","image_id":106,"category_name":"Pegmatite","category":7,"distinct_rating":7.66,"distinct_type":"Top","rt":null,"stimulus":"Stimuli_Rocks480/I_Pegmatite_10.png","response":null,"trial_type":"image-keyboard-response","trial_index":161,"plugin_version":"2.1.0","time_elapsed":737768,"subject_id":"87673","group":"Group1","full_date":"2025-12-02T22:16:37.571Z","date":"2025-12-02","time":"22:16:37"},{"rt":null,"stimulus":"<p style=\"font-size: 50px; margin: 0; text-align: center;\">+</p>","response":null,"trial_type":"html-keyboard-response","trial_index":162,"plugin_version":"2.1.0","time_elapsed":738770,"subject_id":"87673","group":"Group1","full_date":"2025-12-02T22:16:37.571Z","date":"2025-12-02","time":"22:16:37"},{"task":"memory_phase","broad_category":"S","image_png":"S_Dolomite_13.png","image_id":397,"category_name":"Dolomite","category":25,"distinct_rating":1.77,"distinct_type":"Bottom","rt":null,"stimulus":"Stimuli_Rocks480/S_Dolomite_13.png","response":null,"trial_type":"image-keyboard-response","trial_index":163,"plugin_version":"2.1.0","time_elapsed":741285,"subject_id":"87673","group":"Group1","full_date":"2025-12-02T22:16:37.571Z","date":"2025-12-02","time":"22:16:37"},{"rt":null,"stimulus":"<p style=\"font-size: 50px; margin: 0; text-align: center;\">+</p>","response":null,"trial_type":"html-keyboard-response","trial_index":164,"plugin_version":"2.1.0","time_elapsed":742287,"subject_id":"87673","group":"Group1","full_date":"2025-12-02T22:16:37.571Z","date":"2025-12-02","time":"22:16:37"},{"task":"memory_phase","broad_category":"I","image_png":"I_Andesite_08.png","image_id":8,"category_name":"Andesite","category":1,"distinct_rating":1.95,"distinct_type":"Bottom","rt":null,"stimulus":"Stimuli_Rocks480/I_Andesite_08.png","response":null,"trial_type":"image-keyboard-response","trial_index":165,"plugin_version":"2.1.0","time_elapsed":744802,"subject_id":"87673","group":"Group1","full_date":"2025-12-02T22:16:37.571Z","date":"2025-12-02","time":"22:16:37"},{"rt":null,"stimulus":"<p style=\"font-size: 50px; margin: 0; text-align: center;\">+</p>","response":null,"trial_type":"html-keyboard-response","trial_index":166,"plugin_version":"2.1.0","time_elapsed":745804,"subject_id":"87673","group":"Group1","full_date":"2025-12-02T22:16:37.571Z","date":"2025-12-02","time":"22:16:37"},{"task":"memory_phase","broad_category":"I","image_png":"I_Pumice_08.png","image_id":136,"category_name":"Pumice","category":9,"distinct_rating":3.1,"distinct_type":"Bottom","rt":null,"stimulus":"Stimuli_Rocks480/I_Pumice_08.png","response":null,"trial_type":"image-keyboard-response","trial_index":167,"plugin_version":"2.1.0","time_elapsed":748317,"subject_id":"87673","group":"Group1","full_date":"2025-12-02T22:16:37.571Z","date":"2025-12-02","time":"22:16:37"},{"rt":null,"stimulus":"<p style=\"font-size: 50px; margin: 0; text-align: center;\">+</p>","response":null,"trial_type":"html-keyboard-response","trial_index":168,"plugin_version":"2.1.0","time_elapsed":749318,"subject_id":"87673","group":"Group1","full_date":"2025-12-02T22:16:37.571Z","date":"2025-12-02","time":"22:16:37"},{"task":"memory_phase","broad_category":"I","image_png":"I_Basalt_09.png","image_id":25,"category_name":"Basalt","category":2,"distinct_rating":1.89,"distinct_type":"Bottom","rt":null,"stimulus":"Stimuli_Rocks480/I_Basalt_09.png","response":null,"trial_type":"image-keyboard-response","trial_index":169,"plugin_version":"2.1.0","time_elapsed":751833,"subject_id":"87673","group":"Group1","full_date":"2025-12-02T22:16:37.571Z","date":"2025-12-02","time":"22:16:37"},{"rt":null,"stimulus":"<p style=\"font-size: 50px; margin: 0; text-align: center;\">+</p>","response":null,"trial_type":"html-keyboard-response","trial_index":170,"plugin_version":"2.1.0","time_elapsed":752835,"subject_id":"87673","group":"Group1","full_date":"2025-12-02T22:16:37.571Z","date":"2025-12-02","time":"22:16:37"},{"task":"memory_phase","broad_category":"S","image_png":"S_Shale_01.png","image_id":465,"category_name":"Shale","category":30,"distinct_rating":2.7,"distinct_type":"Bottom","rt":null,"stimulus":"Stimuli_Rocks480/S_Shale_01.png","response":null,"trial_type":"image-keyboard-response","trial_index":171,"plugin_version":"2.1.0","time_elapsed":755351,"subject_id":"87673","group":"Group1","full_date":"2025-12-02T22:16:37.571Z","date":"2025-12-02","time":"22:16:37"},{"rt":null,"stimulus":"<p style=\"font-size: 50px; margin: 0; text-align: center;\">+</p>","response":null,"trial_type":"html-keyboard-response","trial_index":172,"plugin_version":"2.1.0","time_elapsed":756353,"subject_id":"87673","group":"Group1","full_date":"2025-12-02T22:16:37.571Z","date":"2025-12-02","time":"22:16:37"},{"task":"memory_phase","broad_category":"M","image_png":"M_Slate_03.png","image_id":307,"category_name":"Slate","category":20,"distinct_rating":1.87,"distinct_type":"Bottom","rt":null,"stimulus":"Stimuli_Rocks480/M_Slate_03.png","response":null,"trial_type":"image-keyboard-response","trial_index":173,"plugin_version":"2.1.0","time_elapsed":758872,"subject_id":"87673","group":"Group1","full_date":"2025-12-02T22:16:37.571Z","date":"2025-12-02","time":"22:16:37"},{"rt":null,"stimulus":"<p style=\"font-size: 50px; margin: 0; text-align: center;\">+</p>","response":null,"trial_type":"html-keyboard-response","trial_index":174,"plugin_version":"2.1.0","time_elapsed":759873,"subject_id":"87673","group":"Group1","full_date":"2025-12-02T22:16:37.571Z","date":"2025-12-02","time":"22:16:37"},{"task":"memory_phase","broad_category":"M","image_png":"M_Quartzite_08.png","image_id":280,"category_name":"Quartzite","category":18,"distinct_rating":2.15,"distinct_type":"Bottom","rt":null,"stimulus":"Stimuli_Rocks480/M_Quartzite_08.png","response":null,"trial_type":"image-keyboard-response","trial_index":175,"plugin_version":"2.1.0","time_elapsed":762389,"subject_id":"87673","group":"Group1","full_date":"2025-12-02T22:16:37.571Z","date":"2025-12-02","time":"22:16:37"},{"rt":null,"stimulus":"<p style=\"font-size: 50px; margin: 0; text-align: center;\">+</p>","response":null,"trial_type":"html-keyboard-response","trial_index":176,"plugin_version":"2.1.0","time_elapsed":763391,"subject_id":"87673","group":"Group1","full_date":"2025-12-02T22:16:37.571Z","date":"2025-12-02","time":"22:16:37"},{"task":"memory_phase","broad_category":"I","image_png":"I_Pegmatite_16.png","image_id":112,"category_name":"Pegmatite","category":7,"distinct_rating":7.03,"distinct_type":"Top","rt":null,"stimulus":"Stimuli_Rocks480/I_Pegmatite_16.png","response":null,"trial_type":"image-keyboard-response","trial_index":177,"plugin_version":"2.1.0","time_elapsed":765905,"subject_id":"87673","group":"Group1","full_date":"2025-12-02T22:16:37.571Z","date":"2025-12-02","time":"22:16:37"},{"rt":null,"stimulus":"<p style=\"font-size: 50px; margin: 0; text-align: center;\">+</p>","response":null,"trial_type":"html-keyboard-response","trial_index":178,"plugin_version":"2.1.0","time_elapsed":766907,"subject_id":"87673","group":"Group1","full_date":"2025-12-02T22:16:37.571Z","date":"2025-12-02","time":"22:16:37"},{"task":"memory_phase","broad_category":"I","image_png":"I_Gabbro_08.png","image_id":56,"category_name":"Gabbro","category":4,"distinct_rating":3.02,"distinct_type":"Bottom","rt":null,"stimulus":"Stimuli_Rocks480/I_Gabbro_08.png","response":null,"trial_type":"image-keyboard-response","trial_index":179,"plugin_version":"2.1.0","time_elapsed":769423,"subject_id":"87673","group":"Group1","full_date":"2025-12-02T22:16:37.571Z","date":"2025-12-02","time":"22:16:37"},{"rt":null,"stimulus":"<p style=\"font-size: 50px; margin: 0; text-align: center;\">+</p>","response":null,"trial_type":"html-keyboard-response","trial_index":180,"plugin_version":"2.1.0","time_elapsed":770425,"subject_id":"87673","group":"Group1","full_date":"2025-12-02T22:16:37.571Z","date":"2025-12-02","time":"22:16:37"},{"task":"memory_phase","broad_category":"I","image_png":"I_Gabbro_16.png","image_id":64,"category_name":"Gabbro","category":4,"distinct_rating":2.52,"distinct_type":"Bottom","rt":null,"stimulus":"Stimuli_Rocks480/I_Gabbro_16.png","response":null,"trial_type":"image-keyboard-response","trial_index":181,"plugin_version":"2.1.0","time_elapsed":772940,"subject_id":"87673","group":"Group1","full_date":"2025-12-02T22:16:37.571Z","date":"2025-12-02","time":"22:16:37"},{"rt":null,"stimulus":"<p style=\"font-size: 50px; margin: 0; text-align: center;\">+</p>","response":null,"trial_type":"html-keyboard-response","trial_index":182,"plugin_version":"2.1.0","time_elapsed":773941,"subject_id":"87673","group":"Group1","full_date":"2025-12-02T22:16:37.571Z","date":"2025-12-02","time":"22:16:37"},{"task":"memory_phase","broad_category":"M","image_png":"M_Gneiss_06.png","image_id":198,"category_name":"Gneiss","category":13,"distinct_rating":2.65,"distinct_type":"Bottom","rt":null,"stimulus":"Stimuli_Rocks480/M_Gneiss_06.png","response":null,"trial_type":"image-keyboard-response","trial_index":183,"plugin_version":"2.1.0","time_elapsed":776460,"subject_id":"87673","group":"Group1","full_date":"2025-12-02T22:16:37.571Z","date":"2025-12-02","time":"22:16:37"},{"rt":null,"stimulus":"<p style=\"font-size: 50px; margin: 0; text-align: center;\">+</p>","response":null,"trial_type":"html-keyboard-response","trial_index":184,"plugin_version":"2.1.0","time_elapsed":777463,"subject_id":"87673","group":"Group1","full_date":"2025-12-02T22:16:37.571Z","date":"2025-12-02","time":"22:16:37"},{"task":"memory_phase","broad_category":"M","image_png":"M_Gneiss_05.png","image_id":197,"category_name":"Gneiss","category":13,"distinct_rating":2.97,"distinct_type":"Bottom","rt":null,"stimulus":"Stimuli_Rocks480/M_Gneiss_05.png","response":null,"trial_type":"image-keyboard-response","trial_index":185,"plugin_version":"2.1.0","time_elapsed":779983,"subject_id":"87673","group":"Group1","full_date":"2025-12-02T22:16:37.571Z","date":"2025-12-02","time":"22:16:37"},{"rt":null,"stimulus":"<p style=\"font-size: 50px; margin: 0; text-align: center;\">+</p>","response":null,"trial_type":"html-keyboard-response","trial_index":186,"plugin_version":"2.1.0","time_elapsed":780985,"subject_id":"87673","group":"Group1","full_date":"2025-12-02T22:16:37.571Z","date":"2025-12-02","time":"22:16:37"},{"task":"memory_phase","broad_category":"M","image_png":"M_Quartzite_05.png","image_id":277,"category_name":"Quartzite","category":18,"distinct_rating":2.23,"distinct_type":"Bottom","rt":null,"stimulus":"Stimuli_Rocks480/M_Quartzite_05.png","response":null,"trial_type":"image-keyboard-response","trial_index":187,"plugin_version":"2.1.0","time_elapsed":783502,"subject_id":"87673","group":"Group1","full_date":"2025-12-02T22:16:37.571Z","date":"2025-12-02","time":"22:16:37"},{"rt":null,"stimulus":"<p style=\"font-size: 50px; margin: 0; text-align: center;\">+</p>","response":null,"trial_type":"html-keyboard-response","trial_index":188,"plugin_version":"2.1.0","time_elapsed":784504,"subject_id":"87673","group":"Group1","full_date":"2025-12-02T22:16:37.571Z","date":"2025-12-02","time":"22:16:37"},{"task":"memory_phase","broad_category":"I","image_png":"I_Pumice_12.png","image_id":140,"category_name":"Pumice","category":9,"distinct_rating":2.97,"distinct_type":"Bottom","rt":null,"stimulus":"Stimuli_Rocks480/I_Pumice_12.png","response":null,"trial_type":"image-keyboard-response","trial_index":189,"plugin_version":"2.1.0","time_elapsed":787016,"subject_id":"87673","group":"Group1","full_date":"2025-12-02T22:16:37.571Z","date":"2025-12-02","time":"22:16:37"},{"rt":null,"stimulus":"<p style=\"font-size: 50px; margin: 0; text-align: center;\">+</p>","response":null,"trial_type":"html-keyboard-response","trial_index":190,"plugin_version":"2.1.0","time_elapsed":788018,"subject_id":"87673","group":"Group1","full_date":"2025-12-02T22:16:37.571Z","date":"2025-12-02","time":"22:16:37"},{"task":"memory_phase","broad_category":"I","image_png":"I_Diorite_04.png","image_id":36,"category_name":"Diorite","category":3,"distinct_rating":2.98,"distinct_type":"Bottom","rt":null,"stimulus":"Stimuli_Rocks480/I_Diorite_04.png","response":null,"trial_type":"image-keyboard-response","trial_index":191,"plugin_version":"2.1.0","time_elapsed":790540,"subject_id":"87673","group":"Group1","full_date":"2025-12-02T22:16:37.571Z","date":"2025-12-02","time":"22:16:37"},{"rt":null,"stimulus":"<p style=\"font-size: 50px; margin: 0; text-align: center;\">+</p>","response":null,"trial_type":"html-keyboard-response","trial_index":192,"plugin_version":"2.1.0","time_elapsed":791542,"subject_id":"87673","group":"Group1","full_date":"2025-12-02T22:16:37.571Z","date":"2025-12-02","time":"22:16:37"},{"task":"memory_phase","broad_category":"S","image_png":"S_Sandstone_03.png","image_id":451,"category_name":"Sandstone","category":29,"distinct_rating":1.86,"distinct_type":"Bottom","rt":null,"stimulus":"Stimuli_Rocks480/S_Sandstone_03.png","response":null,"trial_type":"image-keyboard-response","trial_index":193,"plugin_version":"2.1.0","time_elapsed":794058,"subject_id":"87673","group":"Group1","full_date":"2025-12-02T22:16:37.571Z","date":"2025-12-02","time":"22:16:37"},{"rt":null,"stimulus":"<p style=\"font-size: 50px; margin: 0; text-align: center;\">+</p>","response":null,"trial_type":"html-keyboard-response","trial_index":194,"plugin_version":"2.1.0","time_elapsed":795060,"subject_id":"87673","group":"Group1","full_date":"2025-12-02T22:16:37.571Z","date":"2025-12-02","time":"22:16:37"},{"task":"memory_phase","broad_category":"S","image_png":"S_Breccia_11.png","image_id":347,"category_name":"Breccia","category":22,"distinct_rating":6.7,"distinct_type":"Top","rt":null,"stimulus":"Stimuli_Rocks480/S_Breccia_11.png","response":null,"trial_type":"image-keyboard-response","trial_index":195,"plugin_version":"2.1.0","time_elapsed":797586,"subject_id":"87673","group":"Group1","full_date":"2025-12-02T22:16:37.571Z","date":"2025-12-02","time":"22:16:37"},{"rt":null,"stimulus":"<p style=\"font-size: 50px; margin: 0; text-align: center;\">+</p>","response":null,"trial_type":"html-keyboard-response","trial_index":196,"plugin_version":"2.1.0","time_elapsed":798588,"subject_id":"87673","group":"Group1","full_date":"2025-12-02T22:16:37.571Z","date":"2025-12-02","time":"22:16:37"},{"task":"memory_phase","broad_category":"S","image_png":"S_Dolomite_12.png","image_id":396,"category_name":"Dolomite","category":25,"distinct_rating":1.85,"distinct_type":"Bottom","rt":null,"stimulus":"Stimuli_Rocks480/S_Dolomite_12.png","response":null,"trial_type":"image-keyboard-response","trial_index":197,"plugin_version":"2.1.0","time_elapsed":801103,"subject_id":"87673","group":"Group1","full_date":"2025-12-02T22:16:37.571Z","date":"2025-12-02","time":"22:16:37"},{"rt":null,"stimulus":"<p style=\"font-size: 50px; margin: 0; text-align: center;\">+</p>","response":null,"trial_type":"html-keyboard-response","trial_index":198,"plugin_version":"2.1.0","time_elapsed":802105,"subject_id":"87673","group":"Group1","full_date":"2025-12-02T22:16:37.571Z","date":"2025-12-02","time":"22:16:37"},{"task":"memory_phase","broad_category":"I","image_png":"I_Andesite_10.png","image_id":10,"category_name":"Andesite","category":1,"distinct_rating":3.15,"distinct_type":"Bottom","rt":null,"stimulus":"Stimuli_Rocks480/I_Andesite_10.png","response":null,"trial_type":"image-keyboard-response","trial_index":199,"plugin_version":"2.1.0","time_elapsed":804618,"subject_id":"87673","group":"Group1","full_date":"2025-12-02T22:16:37.571Z","date":"2025-12-02","time":"22:16:37"},{"rt":null,"stimulus":"<p style=\"font-size: 50px; margin: 0; text-align: center;\">+</p>","response":null,"trial_type":"html-keyboard-response","trial_index":200,"plugin_version":"2.1.0","time_elapsed":805620,"subject_id":"87673","group":"Group1","full_date":"2025-12-02T22:16:37.571Z","date":"2025-12-02","time":"22:16:37"},{"task":"memory_phase","broad_category":"M","image_png":"M_Gneiss_13.png","image_id":205,"category_name":"Gneiss","category":13,"distinct_rating":3.26,"distinct_type":"Bottom","rt":null,"stimulus":"Stimuli_Rocks480/M_Gneiss_13.png","response":null,"trial_type":"image-keyboard-response","trial_index":201,"plugin_version":"2.1.0","time_elapsed":808134,"subject_id":"87673","group":"Group1","full_date":"2025-12-02T22:16:37.571Z","date":"2025-12-02","time":"22:16:37"},{"rt":null,"stimulus":"<p style=\"font-size: 50px; margin: 0; text-align: center;\">+</p>","response":null,"trial_type":"html-keyboard-response","trial_index":202,"plugin_version":"2.1.0","time_elapsed":809136,"subject_id":"87673","group":"Group1","full_date":"2025-12-02T22:16:37.571Z","date":"2025-12-02","time":"22:16:37"},{"task":"memory_phase","broad_category":"I","image_png":"I_Rhyolite_11.png","image_id":155,"category_name":"Rhyolite","category":10,"distinct_rating":1.73,"distinct_type":"Bottom","rt":null,"stimulus":"Stimuli_Rocks480/I_Rhyolite_11.png","response":null,"trial_type":"image-keyboard-response","trial_index":203,"plugin_version":"2.1.0","time_elapsed":811650,"subject_id":"87673","group":"Group1","full_date":"2025-12-02T22:16:37.571Z","date":"2025-12-02","time":"22:16:37"},{"rt":null,"stimulus":"<p style=\"font-size: 50px; margin: 0; text-align: center;\">+</p>","response":null,"trial_type":"html-keyboard-response","trial_index":204,"plugin_version":"2.1.0","time_elapsed":812652,"subject_id":"87673","group":"Group1","full_date":"2025-12-02T22:16:37.571Z","date":"2025-12-02","time":"22:16:37"},{"task":"memory_phase","broad_category":"M","image_png":"M_Quartzite_13.png","image_id":285,"category_name":"Quartzite","category":18,"distinct_rating":2.27,"distinct_type":"Bottom","rt":null,"stimulus":"Stimuli_Rocks480/M_Quartzite_13.png","response":null,"trial_type":"image-keyboard-response","trial_index":205,"plugin_version":"2.1.0","time_elapsed":815168,"subject_id":"87673","group":"Group1","full_date":"2025-12-02T22:16:37.571Z","date":"2025-12-02","time":"22:16:37"},{"rt":null,"stimulus":"<p style=\"font-size: 50px; margin: 0; text-align: center;\">+</p>","response":null,"trial_type":"html-keyboard-response","trial_index":206,"plugin_version":"2.1.0","time_elapsed":816170,"subject_id":"87673","group":"Group1","full_date":"2025-12-02T22:16:37.571Z","date":"2025-12-02","time":"22:16:37"},{"task":"memory_phase","broad_category":"S","image_png":"S_Rock Gypsum_04.png","image_id":420,"category_name":"Rock Gypsum","category":27,"distinct_rating":7.61,"distinct_type":"Top","rt":null,"stimulus":"Stimuli_Rocks480/S_Rock Gypsum_04.png","response":null,"trial_type":"image-keyboard-response","trial_index":207,"plugin_version":"2.1.0","time_elapsed":818686,"subject_id":"87673","group":"Group1","full_date":"2025-12-02T22:16:37.571Z","date":"2025-12-02","time":"22:16:37"},{"rt":55446,"stimulus":"<p style=\"max-width: 760px; margin: auto; font-size: 35px; line-height: 1.5;\">You have completed 2 study phases. Now, we'll show you all the images again 1 more time.<br><br>Press SPACE to continue</p>","response":" ","trial_type":"html-keyboard-response","trial_index":208,"plugin_version":"2.1.0","time_elapsed":1044780,"subject_id":"87673","group":"Group1","full_date":"2025-12-02T22:16:37.571Z","date":"2025-12-02","time":"22:16:37"},{"rt":null,"stimulus":"<p style=\"font-size: 50px; margin: 0; text-align: center;\">+</p>","response":null,"trial_type":"html-keyboard-response","trial_index":209,"plugin_version":"2.1.0","time_elapsed":1045783,"subject_id":"87673","group":"Group1","full_date":"2025-12-02T22:16:37.571Z","date":"2025-12-02","time":"22:16:37"},{"task":"memory_phase","broad_category":"S","image_png":"S_Shale_08.png","image_id":472,"category_name":"Shale","category":30,"distinct_rating":2.55,"distinct_type":"Bottom","rt":null,"stimulus":"Stimuli_Rocks480/S_Shale_08.png","response":null,"trial_type":"image-keyboard-response","trial_index":210,"plugin_version":"2.1.0","time_elapsed":1048300,"subject_id":"87673","group":"Group1","full_date":"2025-12-02T22:16:37.571Z","date":"2025-12-02","time":"22:16:37"},{"rt":null,"stimulus":"<p style=\"font-size: 50px; margin: 0; text-align: center;\">+</p>","response":null,"trial_type":"html-keyboard-response","trial_index":211,"plugin_version":"2.1.0","time_elapsed":1049303,"subject_id":"87673","group":"Group1","full_date":"2025-12-02T22:16:37.571Z","date":"2025-12-02","time":"22:16:37"},{"task":"memory_phase","broad_category":"S","image_png":"S_Shale_12.png","image_id":476,"category_name":"Shale","category":30,"distinct_rating":2.48,"distinct_type":"Bottom","rt":null,"stimulus":"Stimuli_Rocks480/S_Shale_12.png","response":null,"trial_type":"image-keyboard-response","trial_index":212,"plugin_version":"2.1.0","time_elapsed":1051820,"subject_id":"87673","group":"Group1","full_date":"2025-12-02T22:16:37.571Z","date":"2025-12-02","time":"22:16:37"},{"rt":null,"stimulus":"<p style=\"font-size: 50px; margin: 0; text-align: center;\">+</p>","response":null,"trial_type":"html-keyboard-response","trial_index":213,"plugin_version":"2.1.0","time_elapsed":1052822,"subject_id":"87673","group":"Group1","full_date":"2025-12-02T22:16:37.571Z","date":"2025-12-02","time":"22:16:37"},{"task":"memory_phase","broad_category":"I","image_png":"I_Obsidian_05.png","image_id":85,"category_name":"Obsidian","category":6,"distinct_rating":7.32,"distinct_type":"Top","rt":null,"stimulus":"Stimuli_Rocks480/I_Obsidian_05.png","response":null,"trial_type":"image-keyboard-response","trial_index":214,"plugin_version":"2.1.0","time_elapsed":1055337,"subject_id":"87673","group":"Group1","full_date":"2025-12-02T22:16:37.571Z","date":"2025-12-02","time":"22:16:37"},{"rt":null,"stimulus":"<p style=\"font-size: 50px; margin: 0; text-align: center;\">+</p>","response":null,"trial_type":"html-keyboard-response","trial_index":215,"plugin_version":"2.1.0","time_elapsed":1056339,"subject_id":"87673","group":"Group1","full_date":"2025-12-02T22:16:37.571Z","date":"2025-12-02","time":"22:16:37"},{"task":"memory_phase","broad_category":"I","image_png":"I_Gabbro_08.png","image_id":56,"category_name":"Gabbro","category":4,"distinct_rating":3.02,"distinct_type":"Bottom","rt":null,"stimulus":"Stimuli_Rocks480/I_Gabbro_08.png","response":null,"trial_type":"image-keyboard-response","trial_index":216,"plugin_version":"2.1.0","time_elapsed":1058851,"subject_id":"87673","group":"Group1","full_date":"2025-12-02T22:16:37.571Z","date":"2025-12-02","time":"22:16:37"},{"rt":null,"stimulus":"<p style=\"font-size: 50px; margin: 0; text-align: center;\">+</p>","response":null,"trial_type":"html-keyboard-response","trial_index":217,"plugin_version":"2.1.0","time_elapsed":1059853,"subject_id":"87673","group":"Group1","full_date":"2025-12-02T22:16:37.571Z","date":"2025-12-02","time":"22:16:37"},{"task":"memory_phase","broad_category":"I","image_png":"I_Diorite_05.png","image_id":37,"category_name":"Diorite","category":3,"distinct_rating":3.08,"distinct_type":"Bottom","rt":null,"stimulus":"Stimuli_Rocks480/I_Diorite_05.png","response":null,"trial_type":"image-keyboard-response","trial_index":218,"plugin_version":"2.1.0","time_elapsed":1062369,"subject_id":"87673","group":"Group1","full_date":"2025-12-02T22:16:37.571Z","date":"2025-12-02","time":"22:16:37"},{"rt":null,"stimulus":"<p style=\"font-size: 50px; margin: 0; text-align: center;\">+</p>","response":null,"trial_type":"html-keyboard-response","trial_index":219,"plugin_version":"2.1.0","time_elapsed":1063371,"subject_id":"87673","group":"Group1","full_date":"2025-12-02T22:16:37.571Z","date":"2025-12-02","time":"22:16:37"},{"task":"memory_phase","broad_category":"M","image_png":"M_Gneiss_05.png","image_id":197,"category_name":"Gneiss","category":13,"distinct_rating":2.97,"distinct_type":"Bottom","rt":null,"stimulus":"Stimuli_Rocks480/M_Gneiss_05.png","response":null,"trial_type":"image-keyboard-response","trial_index":220,"plugin_version":"2.1.0","time_elapsed":1065895,"subject_id":"87673","group":"Group1","full_date":"2025-12-02T22:16:37.571Z","date":"2025-12-02","time":"22:16:37"},{"rt":null,"stimulus":"<p style=\"font-size: 50px; margin: 0; text-align: center;\">+</p>","response":null,"trial_type":"html-keyboard-response","trial_index":221,"plugin_version":"2.1.0","time_elapsed":1066897,"subject_id":"87673","group":"Group1","full_date":"2025-12-02T22:16:37.571Z","date":"2025-12-02","time":"22:16:37"},{"task":"memory_phase","broad_category":"S","image_png":"S_Conglomerate_05.png","image_id":373,"category_name":"Conglomerate","category":24,"distinct_rating":7.32,"distinct_type":"Top","rt":null,"stimulus":"Stimuli_Rocks480/S_Conglomerate_05.png","response":null,"trial_type":"image-keyboard-response","trial_index":222,"plugin_version":"2.1.0","time_elapsed":1069415,"subject_id":"87673","group":"Group1","full_date":"2025-12-02T22:16:37.571Z","date":"2025-12-02","time":"22:16:37"},{"rt":null,"stimulus":"<p style=\"font-size: 50px; margin: 0; text-align: center;\">+</p>","response":null,"trial_type":"html-keyboard-response","trial_index":223,"plugin_version":"2.1.0","time_elapsed":1070417,"subject_id":"87673","group":"Group1","full_date":"2025-12-02T22:16:37.571Z","date":"2025-12-02","time":"22:16:37"},{"task":"memory_phase","broad_category":"M","image_png":"M_Marble_16.png","image_id":240,"category_name":"Marble","category":15,"distinct_rating":2.57,"distinct_type":"Bottom","rt":null,"stimulus":"Stimuli_Rocks480/M_Marble_16.png","response":null,"trial_type":"image-keyboard-response","trial_index":224,"plugin_version":"2.1.0","time_elapsed":1072933,"subject_id":"87673","group":"Group1","full_date":"2025-12-02T22:16:37.571Z","date":"2025-12-02","time":"22:16:37"},{"rt":null,"stimulus":"<p style=\"font-size: 50px; margin: 0; text-align: center;\">+</p>","response":null,"trial_type":"html-keyboard-response","trial_index":225,"plugin_version":"2.1.0","time_elapsed":1073935,"subject_id":"87673","group":"Group1","full_date":"2025-12-02T22:16:37.571Z","date":"2025-12-02","time":"22:16:37"},{"task":"memory_phase","broad_category":"I","image_png":"I_Rhyolite_16.png","image_id":160,"category_name":"Rhyolite","category":10,"distinct_rating":2.19,"distinct_type":"Bottom","rt":null,"stimulus":"Stimuli_Rocks480/I_Rhyolite_16.png","response":null,"trial_type":"image-keyboard-response","trial_index":226,"plugin_version":"2.1.0","time_elapsed":1076448,"subject_id":"87673","group":"Group1","full_date":"2025-12-02T22:16:37.571Z","date":"2025-12-02","time":"22:16:37"},{"rt":null,"stimulus":"<p style=\"font-size: 50px; margin: 0; text-align: center;\">+</p>","response":null,"trial_type":"html-keyboard-response","trial_index":227,"plugin_version":"2.1.0","time_elapsed":1077450,"subject_id":"87673","group":"Group1","full_date":"2025-12-02T22:16:37.571Z","date":"2025-12-02","time":"22:16:37"},{"task":"memory_phase","broad_category":"S","image_png":"S_Dolomite_14.png","image_id":398,"category_name":"Dolomite","category":25,"distinct_rating":1.43,"distinct_type":"Bottom","rt":null,"stimulus":"Stimuli_Rocks480/S_Dolomite_14.png","response":null,"trial_type":"image-keyboard-response","trial_index":228,"plugin_version":"2.1.0","time_elapsed":1079965,"subject_id":"87673","group":"Group1","full_date":"2025-12-02T22:16:37.571Z","date":"2025-12-02","time":"22:16:37"},{"rt":null,"stimulus":"<p style=\"font-size: 50px; margin: 0; text-align: center;\">+</p>","response":null,"trial_type":"html-keyboard-response","trial_index":229,"plugin_version":"2.1.0","time_elapsed":1080968,"subject_id":"87673","group":"Group1","full_date":"2025-12-02T22:16:37.571Z","date":"2025-12-02","time":"22:16:37"},{"task":"memory_phase","broad_category":"S","image_png":"S_Sandstone_16.png","image_id":464,"category_name":"Sandstone","category":29,"distinct_rating":1.93,"distinct_type":"Bottom","rt":null,"stimulus":"Stimuli_Rocks480/S_Sandstone_16.png","response":null,"trial_type":"image-keyboard-response","trial_index":230,"plugin_version":"2.1.0","time_elapsed":1083481,"subject_id":"87673","group":"Group1","full_date":"2025-12-02T22:16:37.571Z","date":"2025-12-02","time":"22:16:37"},{"rt":null,"stimulus":"<p style=\"font-size: 50px; margin: 0; text-align: center;\">+</p>","response":null,"trial_type":"html-keyboard-response","trial_index":231,"plugin_version":"2.1.0","time_elapsed":1084484,"subject_id":"87673","group":"Group1","full_date":"2025-12-02T22:16:37.571Z","date":"2025-12-02","time":"22:16:37"},{"task":"memory_phase","broad_category":"M","image_png":"M_Phyllite_03.png","image_id":259,"category_name":"Phyllite","category":17,"distinct_rating":2.5,"distinct_type":"Bottom","rt":null,"stimulus":"Stimuli_Rocks480/M_Phyllite_03.png","response":null,"trial_type":"image-keyboard-response","trial_index":232,"plugin_version":"2.1.0","time_elapsed":1087001,"subject_id":"87673","group":"Group1","full_date":"2025-12-02T22:16:37.571Z","date":"2025-12-02","time":"22:16:37"},{"rt":null,"stimulus":"<p style=\"font-size: 50px; margin: 0; text-align: center;\">+</p>","response":null,"trial_type":"html-keyboard-response","trial_index":233,"plugin_version":"2.1.0","time_elapsed":1088003,"subject_id":"87673","group":"Group1","full_date":"2025-12-02T22:16:37.571Z","date":"2025-12-02","time":"22:16:37"},{"task":"memory_phase","broad_category":"S","image_png":"S_Sandstone_03.png","image_id":451,"category_name":"Sandstone","category":29,"distinct_rating":1.86,"distinct_type":"Bottom","rt":null,"stimulus":"Stimuli_Rocks480/S_Sandstone_03.png","response":null,"trial_type":"image-keyboard-response","trial_index":234,"plugin_version":"2.1.0","time_elapsed":1090506,"subject_id":"87673","group":"Group1","full_date":"2025-12-02T22:16:37.571Z","date":"2025-12-02","time":"22:16:37"},{"rt":null,"stimulus":"<p style=\"font-size: 50px; margin: 0; text-align: center;\">+</p>","response":null,"trial_type":"html-keyboard-response","trial_index":235,"plugin_version":"2.1.0","time_elapsed":1091508,"subject_id":"87673","group":"Group1","full_date":"2025-12-02T22:16:37.571Z","date":"2025-12-02","time":"22:16:37"},{"task":"memory_phase","broad_category":"I","image_png":"I_Basalt_09.png","image_id":25,"category_name":"Basalt","category":2,"distinct_rating":1.89,"distinct_type":"Bottom","rt":null,"stimulus":"Stimuli_Rocks480/I_Basalt_09.png","response":null,"trial_type":"image-keyboard-response","trial_index":236,"plugin_version":"2.1.0","time_elapsed":1094022,"subject_id":"87673","group":"Group1","full_date":"2025-12-02T22:16:37.571Z","date":"2025-12-02","time":"22:16:37"},{"rt":null,"stimulus":"<p style=\"font-size: 50px; margin: 0; text-align: center;\">+</p>","response":null,"trial_type":"html-keyboard-response","trial_index":237,"plugin_version":"2.1.0","time_elapsed":1095023,"subject_id":"87673","group":"Group1","full_date":"2025-12-02T22:16:37.571Z","date":"2025-12-02","time":"22:16:37"},{"task":"memory_phase","broad_category":"M","image_png":"M_Phyllite_10.png","image_id":266,"category_name":"Phyllite","category":17,"distinct_rating":2.6,"distinct_type":"Bottom","rt":null,"stimulus":"Stimuli_Rocks480/M_Phyllite_10.png","response":null,"trial_type":"image-keyboard-response","trial_index":238,"plugin_version":"2.1.0","time_elapsed":1097537,"subject_id":"87673","group":"Group1","full_date":"2025-12-02T22:16:37.571Z","date":"2025-12-02","time":"22:16:37"},{"rt":null,"stimulus":"<p style=\"font-size: 50px; margin: 0; text-align: center;\">+</p>","response":null,"trial_type":"html-keyboard-response","trial_index":239,"plugin_version":"2.1.0","time_elapsed":1098539,"subject_id":"87673","group":"Group1","full_date":"2025-12-02T22:16:37.571Z","date":"2025-12-02","time":"22:16:37"},{"task":"memory_phase","broad_category":"I","image_png":"I_Andesite_08.png","image_id":8,"category_name":"Andesite","category":1,"distinct_rating":1.95,"distinct_type":"Bottom","rt":null,"stimulus":"Stimuli_Rocks480/I_Andesite_08.png","response":null,"trial_type":"image-keyboard-response","trial_index":240,"plugin_version":"2.1.0","time_elapsed":1101054,"subject_id":"87673","group":"Group1","full_date":"2025-12-02T22:16:37.571Z","date":"2025-12-02","time":"22:16:37"},{"rt":null,"stimulus":"<p style=\"font-size: 50px; margin: 0; text-align: center;\">+</p>","response":null,"trial_type":"html-keyboard-response","trial_index":241,"plugin_version":"2.1.0","time_elapsed":1102056,"subject_id":"87673","group":"Group1","full_date":"2025-12-02T22:16:37.571Z","date":"2025-12-02","time":"22:16:37"},{"task":"memory_phase","broad_category":"I","image_png":"I_Rhyolite_11.png","image_id":155,"category_name":"Rhyolite","category":10,"distinct_rating":1.73,"distinct_type":"Bottom","rt":null,"stimulus":"Stimuli_Rocks480/I_Rhyolite_11.png","response":null,"trial_type":"image-keyboard-response","trial_index":242,"plugin_version":"2.1.0","time_elapsed":1104559,"subject_id":"87673","group":"Group1","full_date":"2025-12-02T22:16:37.571Z","date":"2025-12-02","time":"22:16:37"},{"rt":null,"stimulus":"<p style=\"font-size: 50px; margin: 0; text-align: center;\">+</p>","response":null,"trial_type":"html-keyboard-response","trial_index":243,"plugin_version":"2.1.0","time_elapsed":1105561,"subject_id":"87673","group":"Group1","full_date":"2025-12-02T22:16:37.571Z","date":"2025-12-02","time":"22:16:37"},{"task":"memory_phase","broad_category":"S","image_png":"S_Sandstone_15.png","image_id":463,"category_name":"Sandstone","category":29,"distinct_rating":2,"distinct_type":"Bottom","rt":null,"stimulus":"Stimuli_Rocks480/S_Sandstone_15.png","response":null,"trial_type":"image-keyboard-response","trial_index":244,"plugin_version":"2.1.0","time_elapsed":1108078,"subject_id":"87673","group":"Group1","full_date":"2025-12-02T22:16:37.571Z","date":"2025-12-02","time":"22:16:37"},{"rt":null,"stimulus":"<p style=\"font-size: 50px; margin: 0; text-align: center;\">+</p>","response":null,"trial_type":"html-keyboard-response","trial_index":245,"plugin_version":"2.1.0","time_elapsed":1109081,"subject_id":"87673","group":"Group1","full_date":"2025-12-02T22:16:37.571Z","date":"2025-12-02","time":"22:16:37"},{"task":"memory_phase","broad_category":"I","image_png":"I_Diorite_03.png","image_id":35,"category_name":"Diorite","category":3,"distinct_rating":3.14,"distinct_type":"Bottom","rt":null,"stimulus":"Stimuli_Rocks480/I_Diorite_03.png","response":null,"trial_type":"image-keyboard-response","trial_index":246,"plugin_version":"2.1.0","time_elapsed":1111598,"subject_id":"87673","group":"Group1","full_date":"2025-12-02T22:16:37.571Z","date":"2025-12-02","time":"22:16:37"},{"rt":null,"stimulus":"<p style=\"font-size: 50px; margin: 0; text-align: center;\">+</p>","response":null,"trial_type":"html-keyboard-response","trial_index":247,"plugin_version":"2.1.0","time_elapsed":1112600,"subject_id":"87673","group":"Group1","full_date":"2025-12-02T22:16:37.571Z","date":"2025-12-02","time":"22:16:37"},{"task":"memory_phase","broad_category":"M","image_png":"M_Gneiss_06.png","image_id":198,"category_name":"Gneiss","category":13,"distinct_rating":2.65,"distinct_type":"Bottom","rt":null,"stimulus":"Stimuli_Rocks480/M_Gneiss_06.png","response":null,"trial_type":"image-keyboard-response","trial_index":248,"plugin_version":"2.1.