[{"width":1432,"height":744,"webaudio":true,"browser":"edge-chromium","browser_version":"142.0.0","mobile":false,"os":"Windows 10","fullscreen":true,"vsync_rate":60.62,"webcam":true,"microphone":true,"trial_type":"browser-check","trial_index":0,"plugin_version":"2.1.0","time_elapsed":1003,"subject_id":"89018","group":"Group2","full_date":"2025-12-07T04:49:59.816Z","date":"2025-12-07","time":"04:49:59"},{"success":true,"timeout":false,"failed_images":[],"failed_audio":[],"failed_video":[],"trial_type":"preload","trial_index":1,"plugin_version":"2.1.0","time_elapsed":3352,"subject_id":"89018","group":"Group2","full_date":"2025-12-07T04:49:59.816Z","date":"2025-12-07","time":"04:49:59"},{"rt":59024,"url":"SONA_consent_memorability.html","trial_type":"external-html","trial_index":2,"plugin_version":"2.1.0","time_elapsed":62422,"subject_id":"89018","group":"Group2","full_date":"2025-12-07T04:49:59.816Z","date":"2025-12-07","time":"04:49:59"},{"success":true,"rt":4966,"trial_type":"fullscreen","trial_index":3,"plugin_version":"2.1.0","time_elapsed":68398,"subject_id":"89018","group":"Group2","full_date":"2025-12-07T04:49:59.816Z","date":"2025-12-07","time":"04:49:59"},{"rt":39264,"stimulus":"<div style=\"max-width: 760px; margin: auto; font-size: 20px; line-height: 1.5;\">\n      <h1 style=\"text-align:center; font-size: 30px;\">Instructions</h1>\n      <p>\n        Welcome to the study on <b>visual memory</b>. This experiment consists of <b>two phases</b>: \n        a <b>study phase</b> and a <b>test phase</b>.\n      </p>\n      <p>\n        In the study phase, you will see a series of rock images along with their category labels.\n        The images will appear one at a time.\n        <b>Your task</b> is to learn the categories to which the rock images belong \n        and to remember each image as accurately as possible.\n      </p> \n      <p>\n        Note that we will repeat the study phase <b>3 times</b>, \n        so you will have multiple opportunities to see and remember each image.\n      </p>\n      <p>\n        After the study phase, <b>your memory will be tested</b>. \n        Additional instructions for the test phase will be provided at that time.\n      </p>\n      <p>\n        If your computer has multiple <b>language settings</b> (e.g., English and another language),\n        please make sure it is set to English before starting.\n      </p>\n      <p>\n        You can track your progress using the <b>completion bar</b> at the top of the screen. \n        Please note that the bar will refresh when the test phase begins \n        to give you an accurate sense of your progress in both phases.\n      </p> \n      <p>\n        Press the button below when you are ready to begin.\n      </p>\n    </div>","response":0,"trial_type":"html-button-response","trial_index":4,"plugin_version":"2.1.0","time_elapsed":107665,"subject_id":"89018","group":"Group2","full_date":"2025-12-07T04:49:59.816Z","date":"2025-12-07","time":"04:49:59"},{"rt":null,"stimulus":"<p style=\"font-size: 50px; margin: 0; text-align: center;\">+</p>","response":null,"trial_type":"html-keyboard-response","trial_index":5,"plugin_version":"2.1.0","time_elapsed":108681,"subject_id":"89018","group":"Group2","full_date":"2025-12-07T04:49:59.816Z","date":"2025-12-07","time":"04:49:59"},{"task":"memory_phase","broad_category":"S","image_png":"S_Sandstone_04.png","image_id":452,"category_name":"Sandstone","category":29,"distinct_rating":1.8,"distinct_type":"Bottom","rt":null,"stimulus":"Stimuli_Rocks480/S_Sandstone_04.png","response":null,"trial_type":"image-keyboard-response","trial_index":6,"plugin_version":"2.1.0","time_elapsed":111194,"subject_id":"89018","group":"Group2","full_date":"2025-12-07T04:49:59.816Z","date":"2025-12-07","time":"04:49:59"},{"rt":null,"stimulus":"<p style=\"font-size: 50px; margin: 0; text-align: center;\">+</p>","response":null,"trial_type":"html-keyboard-response","trial_index":7,"plugin_version":"2.1.0","time_elapsed":112200,"subject_id":"89018","group":"Group2","full_date":"2025-12-07T04:49:59.816Z","date":"2025-12-07","time":"04:49:59"},{"task":"memory_phase","broad_category":"S","image_png":"S_Shale_02.png","image_id":466,"category_name":"Shale","category":30,"distinct_rating":2.9,"distinct_type":"Bottom","rt":null,"stimulus":"Stimuli_Rocks480/S_Shale_02.png","response":null,"trial_type":"image-keyboard-response","trial_index":8,"plugin_version":"2.1.0","time_elapsed":114709,"subject_id":"89018","group":"Group2","full_date":"2025-12-07T04:49:59.816Z","date":"2025-12-07","time":"04:49:59"},{"rt":null,"stimulus":"<p style=\"font-size: 50px; margin: 0; text-align: center;\">+</p>","response":null,"trial_type":"html-keyboard-response","trial_index":9,"plugin_version":"2.1.0","time_elapsed":115725,"subject_id":"89018","group":"Group2","full_date":"2025-12-07T04:49:59.816Z","date":"2025-12-07","time":"04:49:59"},{"task":"memory_phase","broad_category":"S","image_png":"S_Shale_03.png","image_id":467,"category_name":"Shale","category":30,"distinct_rating":1.95,"distinct_type":"Bottom","rt":null,"stimulus":"Stimuli_Rocks480/S_Shale_03.png","response":null,"trial_type":"image-keyboard-response","trial_index":10,"plugin_version":"2.1.0","time_elapsed":118228,"subject_id":"89018","group":"Group2","full_date":"2025-12-07T04:49:59.816Z","date":"2025-12-07","time":"04:49:59"},{"rt":null,"stimulus":"<p style=\"font-size: 50px; margin: 0; text-align: center;\">+</p>","response":null,"trial_type":"html-keyboard-response","trial_index":11,"plugin_version":"2.1.0","time_elapsed":119235,"subject_id":"89018","group":"Group2","full_date":"2025-12-07T04:49:59.816Z","date":"2025-12-07","time":"04:49:59"},{"task":"memory_phase","broad_category":"I","image_png":"I_Basalt_10.png","image_id":26,"category_name":"Basalt","category":2,"distinct_rating":2.76,"distinct_type":"Bottom","rt":null,"stimulus":"Stimuli_Rocks480/I_Basalt_10.png","response":null,"trial_type":"image-keyboard-response","trial_index":12,"plugin_version":"2.1.0","time_elapsed":121745,"subject_id":"89018","group":"Group2","full_date":"2025-12-07T04:49:59.816Z","date":"2025-12-07","time":"04:49:59"},{"rt":null,"stimulus":"<p style=\"font-size: 50px; margin: 0; text-align: center;\">+</p>","response":null,"trial_type":"html-keyboard-response","trial_index":13,"plugin_version":"2.1.0","time_elapsed":122751,"subject_id":"89018","group":"Group2","full_date":"2025-12-07T04:49:59.816Z","date":"2025-12-07","time":"04:49:59"},{"task":"memory_phase","broad_category":"M","image_png":"M_Slate_14.png","image_id":318,"category_name":"Slate","category":20,"distinct_rating":2.58,"distinct_type":"Bottom","rt":null,"stimulus":"Stimuli_Rocks480/M_Slate_14.png","response":null,"trial_type":"image-keyboard-response","trial_index":14,"plugin_version":"2.1.0","time_elapsed":125261,"subject_id":"89018","group":"Group2","full_date":"2025-12-07T04:49:59.816Z","date":"2025-12-07","time":"04:49:59"},{"rt":null,"stimulus":"<p style=\"font-size: 50px; margin: 0; text-align: center;\">+</p>","response":null,"trial_type":"html-keyboard-response","trial_index":15,"plugin_version":"2.1.0","time_elapsed":126268,"subject_id":"89018","group":"Group2","full_date":"2025-12-07T04:49:59.816Z","date":"2025-12-07","time":"04:49:59"},{"task":"memory_phase","broad_category":"I","image_png":"I_Pegmatite_03.png","image_id":99,"category_name":"Pegmatite","category":7,"distinct_rating":7.24,"distinct_type":"Top","rt":null,"stimulus":"Stimuli_Rocks480/I_Pegmatite_03.png","response":null,"trial_type":"image-keyboard-response","trial_index":16,"plugin_version":"2.1.0","time_elapsed":128777,"subject_id":"89018","group":"Group2","full_date":"2025-12-07T04:49:59.816Z","date":"2025-12-07","time":"04:49:59"},{"rt":null,"stimulus":"<p style=\"font-size: 50px; margin: 0; text-align: center;\">+</p>","response":null,"trial_type":"html-keyboard-response","trial_index":17,"plugin_version":"2.1.0","time_elapsed":129786,"subject_id":"89018","group":"Group2","full_date":"2025-12-07T04:49:59.816Z","date":"2025-12-07","time":"04:49:59"},{"task":"memory_phase","broad_category":"I","image_png":"I_Pumice_01.png","image_id":129,"category_name":"Pumice","category":9,"distinct_rating":3.25,"distinct_type":"Bottom","rt":null,"stimulus":"Stimuli_Rocks480/I_Pumice_01.png","response":null,"trial_type":"image-keyboard-response","trial_index":18,"plugin_version":"2.1.0","time_elapsed":132292,"subject_id":"89018","group":"Group2","full_date":"2025-12-07T04:49:59.816Z","date":"2025-12-07","time":"04:49:59"},{"rt":null,"stimulus":"<p style=\"font-size: 50px; margin: 0; text-align: center;\">+</p>","response":null,"trial_type":"html-keyboard-response","trial_index":19,"plugin_version":"2.1.0","time_elapsed":133301,"subject_id":"89018","group":"Group2","full_date":"2025-12-07T04:49:59.816Z","date":"2025-12-07","time":"04:49:59"},{"task":"memory_phase","broad_category":"M","image_png":"M_Quartzite_07.png","image_id":279,"category_name":"Quartzite","category":18,"distinct_rating":1.97,"distinct_type":"Bottom","rt":null,"stimulus":"Stimuli_Rocks480/M_Quartzite_07.png","response":null,"trial_type":"image-keyboard-response","trial_index":20,"plugin_version":"2.1.0","time_elapsed":135807,"subject_id":"89018","group":"Group2","full_date":"2025-12-07T04:49:59.816Z","date":"2025-12-07","time":"04:49:59"},{"rt":null,"stimulus":"<p style=\"font-size: 50px; margin: 0; text-align: center;\">+</p>","response":null,"trial_type":"html-keyboard-response","trial_index":21,"plugin_version":"2.1.0","time_elapsed":136820,"subject_id":"89018","group":"Group2","full_date":"2025-12-07T04:49:59.816Z","date":"2025-12-07","time":"04:49:59"},{"task":"memory_phase","broad_category":"M","image_png":"M_Quartzite_12.png","image_id":284,"category_name":"Quartzite","category":18,"distinct_rating":1.92,"distinct_type":"Bottom","rt":null,"stimulus":"Stimuli_Rocks480/M_Quartzite_12.png","response":null,"trial_type":"image-keyboard-response","trial_index":22,"plugin_version":"2.1.0","time_elapsed":139338,"subject_id":"89018","group":"Group2","full_date":"2025-12-07T04:49:59.816Z","date":"2025-12-07","time":"04:49:59"},{"rt":null,"stimulus":"<p style=\"font-size: 50px; margin: 0; text-align: center;\">+</p>","response":null,"trial_type":"html-keyboard-response","trial_index":23,"plugin_version":"2.1.0","time_elapsed":140352,"subject_id":"89018","group":"Group2","full_date":"2025-12-07T04:49:59.816Z","date":"2025-12-07","time":"04:49:59"},{"task":"memory_phase","broad_category":"I","image_png":"I_Diorite_01.png","image_id":33,"category_name":"Diorite","category":3,"distinct_rating":2.97,"distinct_type":"Bottom","rt":null,"stimulus":"Stimuli_Rocks480/I_Diorite_01.png","response":null,"trial_type":"image-keyboard-response","trial_index":24,"plugin_version":"2.1.0","time_elapsed":142862,"subject_id":"89018","group":"Group2","full_date":"2025-12-07T04:49:59.816Z","date":"2025-12-07","time":"04:49:59"},{"rt":null,"stimulus":"<p style=\"font-size: 50px; margin: 0; text-align: center;\">+</p>","response":null,"trial_type":"html-keyboard-response","trial_index":25,"plugin_version":"2.1.0","time_elapsed":143870,"subject_id":"89018","group":"Group2","full_date":"2025-12-07T04:49:59.816Z","date":"2025-12-07","time":"04:49:59"},{"task":"memory_phase","broad_category":"S","image_png":"S_Dolomite_07.png","image_id":391,"category_name":"Dolomite","category":25,"distinct_rating":1.73,"distinct_type":"Bottom","rt":null,"stimulus":"Stimuli_Rocks480/S_Dolomite_07.png","response":null,"trial_type":"image-keyboard-response","trial_index":26,"plugin_version":"2.1.0","time_elapsed":146387,"subject_id":"89018","group":"Group2","full_date":"2025-12-07T04:49:59.816Z","date":"2025-12-07","time":"04:49:59"},{"rt":null,"stimulus":"<p style=\"font-size: 50px; margin: 0; text-align: center;\">+</p>","response":null,"trial_type":"html-keyboard-response","trial_index":27,"plugin_version":"2.1.0","time_elapsed":147401,"subject_id":"89018","group":"Group2","full_date":"2025-12-07T04:49:59.816Z","date":"2025-12-07","time":"04:49:59"},{"task":"memory_phase","broad_category":"I","image_png":"I_Pumice_13.png","image_id":141,"category_name":"Pumice","category":9,"distinct_rating":3.12,"distinct_type":"Bottom","rt":null,"stimulus":"Stimuli_Rocks480/I_Pumice_13.png","response":null,"trial_type":"image-keyboard-response","trial_index":28,"plugin_version":"2.1.0","time_elapsed":149918,"subject_id":"89018","group":"Group2","full_date":"2025-12-07T04:49:59.816Z","date":"2025-12-07","time":"04:49:59"},{"rt":null,"stimulus":"<p style=\"font-size: 50px; margin: 0; text-align: center;\">+</p>","response":null,"trial_type":"html-keyboard-response","trial_index":29,"plugin_version":"2.1.0","time_elapsed":150934,"subject_id":"89018","group":"Group2","full_date":"2025-12-07T04:49:59.816Z","date":"2025-12-07","time":"04:49:59"},{"task":"memory_phase","broad_category":"S","image_png":"S_Sandstone_11.png","image_id":459,"category_name":"Sandstone","category":29,"distinct_rating":1.82,"distinct_type":"Bottom","rt":null,"stimulus":"Stimuli_Rocks480/S_Sandstone_11.png","response":null,"trial_type":"image-keyboard-response","trial_index":30,"plugin_version":"2.1.0","time_elapsed":153453,"subject_id":"89018","group":"Group2","full_date":"2025-12-07T04:49:59.816Z","date":"2025-12-07","time":"04:49:59"},{"rt":null,"stimulus":"<p style=\"font-size: 50px; margin: 0; text-align: center;\">+</p>","response":null,"trial_type":"html-keyboard-response","trial_index":31,"plugin_version":"2.1.0","time_elapsed":154468,"subject_id":"89018","group":"Group2","full_date":"2025-12-07T04:49:59.816Z","date":"2025-12-07","time":"04:49:59"},{"task":"memory_phase","broad_category":"M","image_png":"M_Marble_02.png","image_id":226,"category_name":"Marble","category":15,"distinct_rating":3.2,"distinct_type":"Bottom","rt":null,"stimulus":"Stimuli_Rocks480/M_Marble_02.png","response":null,"trial_type":"image-keyboard-response","trial_index":32,"plugin_version":"2.1.0","time_elapsed":156976,"subject_id":"89018","group":"Group2","full_date":"2025-12-07T04:49:59.816Z","date":"2025-12-07","time":"04:49:59"},{"rt":null,"stimulus":"<p style=\"font-size: 50px; margin: 0; text-align: center;\">+</p>","response":null,"trial_type":"html-keyboard-response","trial_index":33,"plugin_version":"2.1.0","time_elapsed":157984,"subject_id":"89018","group":"Group2","full_date":"2025-12-07T04:49:59.816Z","date":"2025-12-07","time":"04:49:59"},{"task":"memory_phase","broad_category":"I","image_png":"I_Gabbro_14.png","image_id":62,"category_name":"Gabbro","category":4,"distinct_rating":2.95,"distinct_type":"Bottom","rt":null,"stimulus":"Stimuli_Rocks480/I_Gabbro_14.png","response":null,"trial_type":"image-keyboard-response","trial_index":34,"plugin_version":"2.1.0","time_elapsed":160492,"subject_id":"89018","group":"Group2","full_date":"2025-12-07T04:49:59.816Z","date":"2025-12-07","time":"04:49:59"},{"rt":null,"stimulus":"<p style=\"font-size: 50px; margin: 0; text-align: center;\">+</p>","response":null,"trial_type":"html-keyboard-response","trial_index":35,"plugin_version":"2.1.0","time_elapsed":161500,"subject_id":"89018","group":"Group2","full_date":"2025-12-07T04:49:59.816Z","date":"2025-12-07","time":"04:49:59"},{"task":"memory_phase","broad_category":"I","image_png":"I_Rhyolite_08.png","image_id":152,"category_name":"Rhyolite","category":10,"distinct_rating":1.38,"distinct_type":"Bottom","rt":null,"stimulus":"Stimuli_Rocks480/I_Rhyolite_08.png","response":null,"trial_type":"image-keyboard-response","trial_index":36,"plugin_version":"2.1.0","time_elapsed":164008,"subject_id":"89018","group":"Group2","full_date":"2025-12-07T04:49:59.816Z","date":"2025-12-07","time":"04:49:59"},{"rt":null,"stimulus":"<p style=\"font-size: 50px; margin: 0; text-align: center;\">+</p>","response":null,"trial_type":"html-keyboard-response","trial_index":37,"plugin_version":"2.1.0","time_elapsed":165018,"subject_id":"89018","group":"Group2","full_date":"2025-12-07T04:49:59.816Z","date":"2025-12-07","time":"04:49:59"},{"task":"memory_phase","broad_category":"M","image_png":"M_Slate_04.png","image_id":308,"category_name":"Slate","category":20,"distinct_rating":2.2,"distinct_type":"Bottom","rt":null,"stimulus":"Stimuli_Rocks480/M_Slate_04.png","response":null,"trial_type":"image-keyboard-response","trial_index":38,"plugin_version":"2.1.0","time_elapsed":167521,"subject_id":"89018","group":"Group2","full_date":"2025-12-07T04:49:59.816Z","date":"2025-12-07","time":"04:49:59"},{"rt":null,"stimulus":"<p style=\"font-size: 50px; margin: 0; text-align: center;\">+</p>","response":null,"trial_type":"html-keyboard-response","trial_index":39,"plugin_version":"2.1.0","time_elapsed":168535,"subject_id":"89018","group":"Group2","full_date":"2025-12-07T04:49:59.816Z","date":"2025-12-07","time":"04:49:59"},{"task":"memory_phase","broad_category":"I","image_png":"I_Basalt_08.png","image_id":24,"category_name":"Basalt","category":2,"distinct_rating":2.31,"distinct_type":"Bottom","rt":null,"stimulus":"Stimuli_Rocks480/I_Basalt_08.png","response":null,"trial_type":"image-keyboard-response","trial_index":40,"plugin_version":"2.1.0","time_elapsed":171042,"subject_id":"89018","group":"Group2","full_date":"2025-12-07T04:49:59.816Z","date":"2025-12-07","time":"04:49:59"},{"rt":null,"stimulus":"<p style=\"font-size: 50px; margin: 0; text-align: center;\">+</p>","response":null,"trial_type":"html-keyboard-response","trial_index":41,"plugin_version":"2.1.0","time_elapsed":172052,"subject_id":"89018","group":"Group2","full_date":"2025-12-07T04:49:59.816Z","date":"2025-12-07","time":"04:49:59"},{"task":"memory_phase","broad_category":"I","image_png":"I_Andesite_09.png","image_id":9,"category_name":"Andesite","category":1,"distinct_rating":2.49,"distinct_type":"Bottom","rt":null,"stimulus":"Stimuli_Rocks480/I_Andesite_09.png","response":null,"trial_type":"image-keyboard-response","trial_index":42,"plugin_version":"2.1.0","time_elapsed":174562,"subject_id":"89018","group":"Group2","full_date":"2025-12-07T04:49:59.816Z","date":"2025-12-07","time":"04:49:59"},{"rt":null,"stimulus":"<p style=\"font-size: 50px; margin: 0; text-align: center;\">+</p>","response":null,"trial_type":"html-keyboard-response","trial_index":43,"plugin_version":"2.1.0","time_elapsed":175569,"subject_id":"89018","group":"Group2","full_date":"2025-12-07T04:49:59.816Z","date":"2025-12-07","time":"04:49:59"},{"task":"memory_phase","broad_category":"I","image_png":"I_Basalt_13.png","image_id":29,"category_name":"Basalt","category":2,"distinct_rating":2.68,"distinct_type":"Bottom","rt":null,"stimulus":"Stimuli_Rocks480/I_Basalt_13.png","response":null,"trial_type":"image-keyboard-response","trial_index":44,"plugin_version":"2.1.0","time_elapsed":178087,"subject_id":"89018","group":"Group2","full_date":"2025-12-07T04:49:59.816Z","date":"2025-12-07","time":"04:49:59"},{"rt":null,"stimulus":"<p style=\"font-size: 50px; margin: 0; text-align: center;\">+</p>","response":null,"trial_type":"html-keyboard-response","trial_index":45,"plugin_version":"2.1.0","time_elapsed":179101,"subject_id":"89018","group":"Group2","full_date":"2025-12-07T04:49:59.816Z","date":"2025-12-07","time":"04:49:59"},{"task":"memory_phase","broad_category":"M","image_png":"M_Gneiss_10.png","image_id":202,"category_name":"Gneiss","category":13,"distinct_rating":3.09,"distinct_type":"Bottom","rt":null,"stimulus":"Stimuli_Rocks480/M_Gneiss_10.png","response":null,"trial_type":"image-keyboard-response","trial_index":46,"plugin_version":"2.1.0","time_elapsed":181610,"subject_id":"89018","group":"Group2","full_date":"2025-12-07T04:49:59.816Z","date":"2025-12-07","time":"04:49:59"},{"rt":null,"stimulus":"<p style=\"font-size: 50px; margin: 0; text-align: center;\">+</p>","response":null,"trial_type":"html-keyboard-response","trial_index":47,"plugin_version":"2.1.0","time_elapsed":182619,"subject_id":"89018","group":"Group2","full_date":"2025-12-07T04:49:59.816Z","date":"2025-12-07","time":"04:49:59"},{"task":"memory_phase","broad_category":"M","image_png":"M_Gneiss_14.png","image_id":206,"category_name":"Gneiss","category":13,"distinct_rating":3.41,"distinct_type":"Bottom","rt":null,"stimulus":"Stimuli_Rocks480/M_Gneiss_14.png","response":null,"trial_type":"image-keyboard-response","trial_index":48,"plugin_version":"2.1.0","time_elapsed":185127,"subject_id":"89018","group":"Group2","full_date":"2025-12-07T04:49:59.816Z","date":"2025-12-07","time":"04:49:59"},{"rt":null,"stimulus":"<p style=\"font-size: 50px; margin: 0; text-align: center;\">+</p>","response":null,"trial_type":"html-keyboard-response","trial_index":49,"plugin_version":"2.1.0","time_elapsed":186131,"subject_id":"89018","group":"Group2","full_date":"2025-12-07T04:49:59.816Z","date":"2025-12-07","time":"04:49:59"},{"task":"memory_phase","broad_category":"I","image_png":"I_Andesite_04.png","image_id":4,"category_name":"Andesite","category":1,"distinct_rating":3.18,"distinct_type":"Bottom","rt":null,"stimulus":"Stimuli_Rocks480/I_Andesite_04.png","response":null,"trial_type":"image-keyboard-response","trial_index":50,"plugin_version":"2.1.0","time_elapsed":188644,"subject_id":"89018","group":"Group2","full_date":"2025-12-07T04:49:59.816Z","date":"2025-12-07","time":"04:49:59"},{"rt":null,"stimulus":"<p style=\"font-size: 50px; margin: 0; text-align: center;\">+</p>","response":null,"trial_type":"html-keyboard-response","trial_index":51,"plugin_version":"2.1.0","time_elapsed":189655,"subject_id":"89018","group":"Group2","full_date":"2025-12-07T04:49:59.816Z","date":"2025-12-07","time":"04:49:59"},{"task":"memory_phase","broad_category":"S","image_png":"S_Shale_07.png","image_id":471,"category_name":"Shale","category":30,"distinct_rating":2.73,"distinct_type":"Bottom","rt":null,"stimulus":"Stimuli_Rocks480/S_Shale_07.png","response":null,"trial_type":"image-keyboard-response","trial_index":52,"plugin_version":"2.1.0","time_elapsed":192172,"subject_id":"89018","group":"Group2","full_date":"2025-12-07T04:49:59.816Z","date":"2025-12-07","time":"04:49:59"},{"rt":null,"stimulus":"<p style=\"font-size: 50px; margin: 0; text-align: center;\">+</p>","response":null,"trial_type":"html-keyboard-response","trial_index":53,"plugin_version":"2.1.0","time_elapsed":193185,"subject_id":"89018","group":"Group2","full_date":"2025-12-07T04:49:59.816Z","date":"2025-12-07","time":"04:49:59"},{"task":"memory_phase","broad_category":"I","image_png":"I_Gabbro_12.png","image_id":60,"category_name":"Gabbro","category":4,"distinct_rating":2.6,"distinct_type":"Bottom","rt":null,"stimulus":"Stimuli_Rocks480/I_Gabbro_12.png","response":null,"trial_type":"image-keyboard-response","trial_index":54,"plugin_version":"2.1.0","time_elapsed":195693,"subject_id":"89018","group":"Group2","full_date":"2025-12-07T04:49:59.816Z","date":"2025-12-07","time":"04:49:59"},{"rt":3133,"stimulus":"<p style=\"max-width: 760px; margin: auto; font-size: 35px; line-height: 1.5;\">Press SPACE to continue study phase</p>","response":" ","trial_type":"html-keyboard-response","trial_index":55,"plugin_version":"2.1.0","time_elapsed":198829,"subject_id":"89018","group":"Group2","full_date":"2025-12-07T04:49:59.816Z","date":"2025-12-07","time":"04:49:59"},{"rt":null,"stimulus":"<p style=\"font-size: 50px; margin: 0; text-align: center;\">+</p>","response":null,"trial_type":"html-keyboard-response","trial_index":56,"plugin_version":"2.1.0","time_elapsed":199838,"subject_id":"89018","group":"Group2","full_date":"2025-12-07T04:49:59.816Z","date":"2025-12-07","time":"04:49:59"},{"task":"memory_phase","broad_category":"S","image_png":"S_Sandstone_08.png","image_id":456,"category_name":"Sandstone","category":29,"distinct_rating":1.5,"distinct_type":"Bottom","rt":null,"stimulus":"Stimuli_Rocks480/S_Sandstone_08.png","response":null,"trial_type":"image-keyboard-response","trial_index":57,"plugin_version":"2.1.0","time_elapsed":202348,"subject_id":"89018","group":"Group2","full_date":"2025-12-07T04:49:59.816Z","date":"2025-12-07","time":"04:49:59"},{"rt":null,"stimulus":"<p style=\"font-size: 50px; margin: 0; text-align: center;\">+</p>","response":null,"trial_type":"html-keyboard-response","trial_index":58,"plugin_version":"2.1.0","time_elapsed":203353,"subject_id":"89018","group":"Group2","full_date":"2025-12-07T04:49:59.816Z","date":"2025-12-07","time":"04:49:59"},{"task":"memory_phase","broad_category":"S","image_png":"S_Dolomite_01.png","image_id":385,"category_name":"Dolomite","category":25,"distinct_rating":1.43,"distinct_type":"Bottom","rt":null,"stimulus":"Stimuli_Rocks480/S_Dolomite_01.png","response":null,"trial_type":"image-keyboard-response","trial_index":59,"plugin_version":"2.1.0","time_elapsed":205866,"subject_id":"89018","group":"Group2","full_date":"2025-12-07T04:49:59.816Z","date":"2025-12-07","time":"04:49:59"},{"rt":null,"stimulus":"<p style=\"font-size: 50px; margin: 0; text-align: center;\">+</p>","response":null,"trial_type":"html-keyboard-response","trial_index":60,"plugin_version":"2.1.0","time_elapsed":206871,"subject_id":"89018","group":"Group2","full_date":"2025-12-07T04:49:59.816Z","date":"2025-12-07","time":"04:49:59"},{"task":"memory_phase","broad_category":"I","image_png":"I_Pegmatite_11.png","image_id":107,"category_name":"Pegmatite","category":7,"distinct_rating":7.11,"distinct_type":"Top","rt":null,"stimulus":"Stimuli_Rocks480/I_Pegmatite_11.png","response":null,"trial_type":"image-keyboard-response","trial_index":61,"plugin_version":"2.1.0","time_elapsed":209385,"subject_id":"89018","group":"Group2","full_date":"2025-12-07T04:49:59.816Z","date":"2025-12-07","time":"04:49:59"},{"rt":null,"stimulus":"<p style=\"font-size: 50px; margin: 0; text-align: center;\">+</p>","response":null,"trial_type":"html-keyboard-response","trial_index":62,"plugin_version":"2.1.0","time_elapsed":210391,"subject_id":"89018","group":"Group2","full_date":"2025-12-07T04:49:59.816Z","date":"2025-12-07","time":"04:49:59"},{"task":"memory_phase","broad_category":"I","image_png":"I_Rhyolite_10.png","image_id":154,"category_name":"Rhyolite","category":10,"distinct_rating":2.88,"distinct_type":"Bottom","rt":null,"stimulus":"Stimuli_Rocks480/I_Rhyolite_10.png","response":null,"trial_type":"image-keyboard-response","trial_index":63,"plugin_version":"2.1.0","time_elapsed":212902,"subject_id":"89018","group":"Group2","full_date":"2025-12-07T04:49:59.816Z","date":"2025-12-07","time":"04:49:59"},{"rt":null,"stimulus":"<p style=\"font-size: 50px; margin: 0; text-align: center;\">+</p>","response":null,"trial_type":"html-keyboard-response","trial_index":64,"plugin_version":"2.1.0","time_elapsed":213914,"subject_id":"89018","group":"Group2","full_date":"2025-12-07T04:49:59.816Z","date":"2025-12-07","time":"04:49:59"},{"task":"memory_phase","broad_category":"M","image_png":"M_Phyllite_05.png","image_id":261,"category_name":"Phyllite","category":17,"distinct_rating":2.14,"distinct_type":"Bottom","rt":null,"stimulus":"Stimuli_Rocks480/M_Phyllite_05.png","response":null,"trial_type":"image-keyboard-response","trial_index":65,"plugin_version":"2.1.0","time_elapsed":216429,"subject_id":"89018","group":"Group2","full_date":"2025-12-07T04:49:59.816Z","date":"2025-12-07","time":"04:49:59"},{"rt":null,"stimulus":"<p style=\"font-size: 50px; margin: 0; text-align: center;\">+</p>","response":null,"trial_type":"html-keyboard-response","trial_index":66,"plugin_version":"2.1.0","time_elapsed":217435,"subject_id":"89018","group":"Group2","full_date":"2025-12-07T04:49:59.816Z","date":"2025-12-07","time":"04:49:59"},{"task":"memory_phase","broad_category":"I","image_png":"I_Obsidian_06.png","image_id":86,"category_name":"Obsidian","category":6,"distinct_rating":8.01,"distinct_type":"Top","rt":null,"stimulus":"Stimuli_Rocks480/I_Obsidian_06.png","response":null,"trial_type":"image-keyboard-response","trial_index":67,"plugin_version":"2.1.0","time_elapsed":219949,"subject_id":"89018","group":"Group2","full_date":"2025-12-07T04:49:59.816Z","date":"2025-12-07","time":"04:49:59"},{"rt":null,"stimulus":"<p style=\"font-size: 50px; margin: 0; text-align: center;\">+</p>","response":null,"trial_type":"html-keyboard-response","trial_index":68,"plugin_version":"2.1.0","time_elapsed":220955,"subject_id":"89018","group":"Group2","full_date":"2025-12-07T04:49:59.816Z","date":"2025-12-07","time":"04:49:59"},{"task":"memory_phase","broad_category":"I","image_png":"I_Diorite_15.png","image_id":47,"category_name":"Diorite","category":3,"distinct_rating":3.05,"distinct_type":"Bottom","rt":null,"stimulus":"Stimuli_Rocks480/I_Diorite_15.png","response":null,"trial_type":"image-keyboard-response","trial_index":69,"plugin_version":"2.1.0","time_elapsed":223466,"subject_id":"89018","group":"Group2","full_date":"2025-12-07T04:49:59.816Z","date":"2025-12-07","time":"04:49:59"},{"rt":null,"stimulus":"<p style=\"font-size: 50px; margin: 0; text-align: center;\">+</p>","response":null,"trial_type":"html-keyboard-response","trial_index":70,"plugin_version":"2.1.0","time_elapsed":224472,"subject_id":"89018","group":"Group2","full_date":"2025-12-07T04:49:59.816Z","date":"2025-12-07","time":"04:49:59"},{"task":"memory_phase","broad_category":"M","image_png":"M_Phyllite_13.png","image_id":269,"category_name":"Phyllite","category":17,"distinct_rating":2.8,"distinct_type":"Bottom","rt":null,"stimulus":"Stimuli_Rocks480/M_Phyllite_13.png","response":null,"trial_type":"image-keyboard-response","trial_index":71,"plugin_version":"2.1.0","time_elapsed":226986,"subject_id":"89018","group":"Group2","full_date":"2025-12-07T04:49:59.816Z","date":"2025-12-07","time":"04:49:59"},{"rt":null,"stimulus":"<p style=\"font-size: 50px; margin: 0; text-align: center;\">+</p>","response":null,"trial_type":"html-keyboard-response","trial_index":72,"plugin_version":"2.1.0","time_elapsed":227996,"subject_id":"89018","group":"Group2","full_date":"2025-12-07T04:49:59.816Z","date":"2025-12-07","time":"04:49:59"},{"task":"memory_phase","broad_category":"M","image_png":"M_Slate_10.png","image_id":314,"category_name":"Slate","category":20,"distinct_rating":1.94,"distinct_type":"Bottom","rt":null,"stimulus":"Stimuli_Rocks480/M_Slate_10.png","response":null,"trial_type":"image-keyboard-response","trial_index":73,"plugin_version":"2.1.0","time_elapsed":230514,"subject_id":"89018","group":"Group2","full_date":"2025-12-07T04:49:59.816Z","date":"2025-12-07","time":"04:49:59"},{"rt":null,"stimulus":"<p style=\"font-size: 50px; margin: 0; text-align: center;\">+</p>","response":null,"trial_type":"html-keyboard-response","trial_index":74,"plugin_version":"2.1.0","time_elapsed":231519,"subject_id":"89018","group":"Group2","full_date":"2025-12-07T04:49:59.816Z","date":"2025-12-07","time":"04:49:59"},{"task":"memory_phase","broad_category":"S","image_png":"S_Rock Salt_13.png","image_id":445,"category_name":"Rock Salt","category":28,"distinct_rating":7.58,"distinct_type":"Top","rt":null,"stimulus":"Stimuli_Rocks480/S_Rock Salt_13.png","response":null,"trial_type":"image-keyboard-response","trial_index":75,"plugin_version":"2.1.0","time_elapsed":234029,"subject_id":"89018","group":"Group2","full_date":"2025-12-07T04:49:59.816Z","date":"2025-12-07","time":"04:49:59"},{"rt":null,"stimulus":"<p style=\"font-size: 50px; margin: 0; text-align: center;\">+</p>","response":null,"trial_type":"html-keyboard-response","trial_index":76,"plugin_version":"2.1.0","time_elapsed":235040,"subject_id":"89018","group":"Group2","full_date":"2025-12-07T04:49:59.816Z","date":"2025-12-07","time":"04:49:59"},{"task":"memory_phase","broad_category":"M","image_png":"M_Marble_03.png","image_id":227,"category_name":"Marble","category":15,"distinct_rating":2.67,"distinct_type":"Bottom","rt":null,"stimulus":"Stimuli_Rocks480/M_Marble_03.png","response":null,"trial_type":"image-keyboard-response","trial_index":77,"plugin_version":"2.1.0","time_elapsed":237552,"subject_id":"89018","group":"Group2","full_date":"2025-12-07T04:49:59.816Z","date":"2025-12-07","time":"04:49:59"},{"rt":null,"stimulus":"<p style=\"font-size: 50px; margin: 0; text-align: center;\">+</p>","response":null,"trial_type":"html-keyboard-response","trial_index":78,"plugin_version":"2.1.0","time_elapsed":238554,"subject_id":"89018","group":"Group2","full_date":"2025-12-07T04:49:59.816Z","date":"2025-12-07","time":"04:49:59"},{"task":"memory_phase","broad_category":"S","image_png":"S_Rock Salt_15.png","image_id":447,"category_name":"Rock Salt","category":28,"distinct_rating":7.79,"distinct_type":"Top","rt":null,"stimulus":"Stimuli_Rocks480/S_Rock Salt_15.png","response":null,"trial_type":"image-keyboard-response","trial_index":79,"plugin_version":"2.1.0","time_elapsed":241063,"subject_id":"89018","group":"Group2","full_date":"2025-12-07T04:49:59.816Z","date":"2025-12-07","time":"04:49:59"},{"rt":null,"stimulus":"<p style=\"font-size: 50px; margin: 0; text-align: center;\">+</p>","response":null,"trial_type":"html-keyboard-response","trial_index":80,"plugin_version":"2.1.0","time_elapsed":242068,"subject_id":"89018","group":"Group2","full_date":"2025-12-07T04:49:59.816Z","date":"2025-12-07","time":"04:49:59"},{"task":"memory_phase","broad_category":"M","image_png":"M_Marble_14.png","image_id":238,"category_name":"Marble","category":15,"distinct_rating":3.31,"distinct_type":"Bottom","rt":null,"stimulus":"Stimuli_Rocks480/M_Marble_14.png","response":null,"trial_type":"image-keyboard-response","trial_index":81,"plugin_version":"2.1.0","time_elapsed":244585,"subject_id":"89018","group":"Group2","full_date":"2025-12-07T04:49:59.816Z","date":"2025-12-07","time":"04:49:59"},{"rt":null,"stimulus":"<p style=\"font-size: 50px; margin: 0; text-align: center;\">+</p>","response":null,"trial_type":"html-keyboard-response","trial_index":82,"plugin_version":"2.1.0","time_elapsed":245597,"subject_id":"89018","group":"Group2","full_date":"2025-12-07T04:49:59.816Z","date":"2025-12-07","time":"04:49:59"},{"task":"memory_phase","broad_category":"I","image_png":"I_Diorite_10.png","image_id":42,"category_name":"Diorite","category":3,"distinct_rating":2.84,"distinct_type":"Bottom","rt":null,"stimulus":"Stimuli_Rocks480/I_Diorite_10.png","response":null,"trial_type":"image-keyboard-response","trial_index":83,"plugin_version":"2.1.0","time_elapsed":248112,"subject_id":"89018","group":"Group2","full_date":"2025-12-07T04:49:59.816Z","date":"2025-12-07","time":"04:49:59"},{"rt":null,"stimulus":"<p style=\"font-size: 50px; margin: 0; text-align: center;\">+</p>","response":null,"trial_type":"html-keyboard-response","trial_index":84,"plugin_version":"2.1.0","time_elapsed":249114,"subject_id":"89018","group":"Group2","full_date":"2025-12-07T04:49:59.816Z","date":"2025-12-07","time":"04:49:59"},{"task":"memory_phase","broad_category":"I","image_png":"I_Gabbro_02.png","image_id":50,"category_name":"Gabbro","category":4,"distinct_rating":2.73,"distinct_type":"Bottom","rt":null,"stimulus":"Stimuli_Rocks480/I_Gabbro_02.png","response":null,"trial_type":"image-keyboard-response","trial_index":85,"plugin_version":"2.1.0","time_elapsed":251618,"subject_id":"89018","group":"Group2","full_date":"2025-12-07T04:49:59.816Z","date":"2025-12-07","time":"04:49:59"},{"rt":null,"stimulus":"<p style=\"font-size: 50px; margin: 0; text-align: center;\">+</p>","response":null,"trial_type":"html-keyboard-response","trial_index":86,"plugin_version":"2.1.0","time_elapsed":252621,"subject_id":"89018","group":"Group2","full_date":"2025-12-07T04:49:59.816Z","date":"2025-12-07","time":"04:49:59"},{"task":"memory_phase","broad_category":"I","image_png":"I_Peridotite_13.png","image_id":125,"category_name":"Peridotite","category":8,"distinct_rating":7.28,"distinct_type":"Top","rt":null,"stimulus":"Stimuli_Rocks480/I_Peridotite_13.png","response":null,"trial_type":"image-keyboard-response","trial_index":87,"plugin_version":"2.1.0","time_elapsed":255137,"subject_id":"89018","group":"Group2","full_date":"2025-12-07T04:49:59.816Z","date":"2025-12-07","time":"04:49:59"},{"rt":null,"stimulus":"<p style=\"font-size: 50px; margin: 0; text-align: center;\">+</p>","response":null,"trial_type":"html-keyboard-response","trial_index":88,"plugin_version":"2.1.0","time_elapsed":256148,"subject_id":"89018","group":"Group2","full_date":"2025-12-07T04:49:59.816Z","date":"2025-12-07","time":"04:49:59"},{"task":"memory_phase","broad_category":"S","image_png":"S_Dolomite_16.png","image_id":400,"category_name":"Dolomite","category":25,"distinct_rating":1.71,"distinct_type":"Bottom","rt":null,"stimulus":"Stimuli_Rocks480/S_Dolomite_16.png","response":null,"trial_type":"image-keyboard-response","trial_index":89,"plugin_version":"2.1.0","time_elapsed":258654,"subject_id":"89018","group":"Group2","full_date":"2025-12-07T04:49:59.816Z","date":"2025-12-07","time":"04:49:59"},{"rt":null,"stimulus":"<p style=\"font-size: 50px; margin: 0; text-align: center;\">+</p>","response":null,"trial_type":"html-keyboard-response","trial_index":90,"plugin_version":"2.1.0","time_elapsed":259665,"subject_id":"89018","group":"Group2","full_date":"2025-12-07T04:49:59.816Z","date":"2025-12-07","time":"04:49:59"},{"task":"memory_phase","broad_category":"I","image_png":"I_Andesite_03.png","image_id":3,"category_name":"Andesite","category":1,"distinct_rating":3.17,"distinct_type":"Bottom","rt":null,"stimulus":"Stimuli_Rocks480/I_Andesite_03.png","response":null,"trial_type":"image-keyboard-response","trial_index":91,"plugin_version":"2.1.0","time_elapsed":262170,"subject_id":"89018","group":"Group2","full_date":"2025-12-07T04:49:59.816Z","date":"2025-12-07","time":"04:49:59"},{"rt":null,"stimulus":"<p style=\"font-size: 50px; margin: 0; text-align: center;\">+</p>","response":null,"trial_type":"html-keyboard-response","trial_index":92,"plugin_version":"2.1.0","time_elapsed":263174,"subject_id":"89018","group":"Group2","full_date":"2025-12-07T04:49:59.816Z","date":"2025-12-07","time":"04:49:59"},{"task":"memory_phase","broad_category":"I","image_png":"I_Pumice_14.png","image_id":142,"category_name":"Pumice","category":9,"distinct_rating":3.22,"distinct_type":"Bottom","rt":null,"stimulus":"Stimuli_Rocks480/I_Pumice_14.png","response":null,"trial_type":"image-keyboard-response","trial_index":93,"plugin_version":"2.1.0","time_elapsed":265689,"subject_id":"89018","group":"Group2","full_date":"2025-12-07T04:49:59.816Z","date":"2025-12-07","time":"04:49:59"},{"rt":null,"stimulus":"<p style=\"font-size: 50px; margin: 0; text-align: center;\">+</p>","response":null,"trial_type":"html-keyboard-response","trial_index":94,"plugin_version":"2.1.0","time_elapsed":266702,"subject_id":"89018","group":"Group2","full_date":"2025-12-07T04:49:59.816Z","date":"2025-12-07","time":"04:49:59"},{"task":"memory_phase","broad_category":"M","image_png":"M_Phyllite_02.png","image_id":258,"category_name":"Phyllite","category":17,"distinct_rating":2.89,"distinct_type":"Bottom","rt":null,"stimulus":"Stimuli_Rocks480/M_Phyllite_02.png","response":null,"trial_type":"image-keyboard-response","trial_index":95,"plugin_version":"2.1.0","time_elapsed":269211,"subject_id":"89018","group":"Group2","full_date":"2025-12-07T04:49:59.816Z","date":"2025-12-07","time":"04:49:59"},{"rt":null,"stimulus":"<p style=\"font-size: 50px; margin: 0; text-align: center;\">+</p>","response":null,"trial_type":"html-keyboard-response","trial_index":96,"plugin_version":"2.1.0","time_elapsed":270215,"subject_id":"89018","group":"Group2","full_date":"2025-12-07T04:49:59.816Z","date":"2025-12-07","time":"04:49:59"},{"task":"memory_phase","broad_category":"S","image_png":"S_Chert_13.png","image_id":365,"category_name":"Chert","category":23,"distinct_rating":6.57,"distinct_type":"Top","rt":null,"stimulus":"Stimuli_Rocks480/S_Chert_13.png","response":null,"trial_type":"image-keyboard-response","trial_index":97,"plugin_version":"2.1.0","time_elapsed":272724,"subject_id":"89018","group":"Group2","full_date":"2025-12-07T04:49:59.816Z","date":"2025-12-07","time":"04:49:59"},{"rt":null,"stimulus":"<p style=\"font-size: 50px; margin: 0; text-align: center;\">+</p>","response":null,"trial_type":"html-keyboard-response","trial_index":98,"plugin_version":"2.1.0","time_elapsed":273731,"subject_id":"89018","group":"Group2","full_date":"2025-12-07T04:49:59.816Z","date":"2025-12-07","time":"04:49:59"},{"task":"memory_phase","broad_category":"M","image_png":"M_Gneiss_15.png","image_id":207,"category_name":"Gneiss","category":13,"distinct_rating":3.11,"distinct_type":"Bottom","rt":null,"stimulus":"Stimuli_Rocks480/M_Gneiss_15.png","response":null,"trial_type":"image-keyboard-response","trial_index":99,"plugin_version":"2.1.0","time_elapsed":276256,"subject_id":"89018","group":"Group2","full_date":"2025-12-07T04:49:59.816Z","date":"2025-12-07","time":"04:49:59"},{"rt":null,"stimulus":"<p style=\"font-size: 50px; margin: 0; text-align: center;\">+</p>","response":null,"trial_type":"html-keyboard-response","trial_index":100,"plugin_version":"2.1.0","time_elapsed":277260,"subject_id":"89018","group":"Group2","full_date":"2025-12-07T04:49:59.816Z","date":"2025-12-07","time":"04:49:59"},{"task":"memory_phase","broad_category":"M","image_png":"M_Quartzite_15.png","image_id":287,"category_name":"Quartzite","category":18,"distinct_rating":2.19,"distinct_type":"Bottom","rt":null,"stimulus":"Stimuli_Rocks480/M_Quartzite_15.png","response":null,"trial_type":"image-keyboard-response","trial_index":101,"plugin_version":"2.1.0","time_elapsed":279768,"subject_id":"89018","group":"Group2","full_date":"2025-12-07T04:49:59.816Z","date":"2025-12-07","time":"04:49:59"},{"rt":null,"stimulus":"<p style=\"font-size: 50px; margin: 0; text-align: center;\">+</p>","response":null,"trial_type":"html-keyboard-response","trial_index":102,"plugin_version":"2.1.0","time_elapsed":280777,"subject_id":"89018","group":"Group2","full_date":"2025-12-07T04:49:59.816Z","date":"2025-12-07","time":"04:49:59"},{"task":"memory_phase","broad_category":"S","image_png":"S_Conglomerate_14.png","image_id":382,"category_name":"Conglomerate","category":24,"distinct_rating":6.86,"distinct_type":"Top","rt":null,"stimulus":"Stimuli_Rocks480/S_Conglomerate_14.png","response":null,"trial_type":"image-keyboard-response","trial_index":103,"plugin_version":"2.1.0","time_elapsed":283292,"subject_id":"89018","group":"Group2","full_date":"2025-12-07T04:49:59.816Z","date":"2025-12-07","time":"04:49:59"},{"rt":null,"stimulus":"<p style=\"font-size: 50px; margin: 0; text-align: center;\">+</p>","response":null,"trial_type":"html-keyboard-response","trial_index":104,"plugin_version":"2.1.0","time_elapsed":284299,"subject_id":"89018","group":"Group2","full_date":"2025-12-07T04:49:59.816Z","date":"2025-12-07","time":"04:49:59"},{"task":"memory_phase","broad_category":"I","image_png":"I_Rhyolite_05.png","image_id":149,"category_name":"Rhyolite","category":10,"distinct_rating":3.02,"distinct_type":"Bottom","rt":null,"stimulus":"Stimuli_Rocks480/I_Rhyolite_05.png","response":null,"trial_type":"image-keyboard-response","trial_index":105,"plugin_version":"2.1.0","time_elapsed":286817,"subject_id":"89018","group":"Group2","full_date":"2025-12-07T04:49:59.816Z","date":"2025-12-07","time":"04:49:59"},{"rt":6629,"stimulus":"<p style=\"max-width: 760px; margin: auto; font-size: 35px; line-height: 1.5;\">You have completed 1 study phase. Now, we'll show you all the images again 2 more times.<br><br>Press SPACE to continue</p>","response":" ","trial_type":"html-keyboard-response","trial_index":106,"plugin_version":"2.1.0","time_elapsed":293447,"subject_id":"89018","group":"Group2","full_date":"2025-12-07T04:49:59.816Z","date":"2025-12-07","time":"04:49:59"},{"rt":null,"stimulus":"<p style=\"font-size: 50px; margin: 0; text-align: center;\">+</p>","response":null,"trial_type":"html-keyboard-response","trial_index":107,"plugin_version":"2.1.0","time_elapsed":294451,"subject_id":"89018","group":"Group2","full_date":"2025-12-07T04:49:59.816Z","date":"2025-12-07","time":"04:49:59"},{"task":"memory_phase","broad_category":"M","image_png":"M_Marble_02.png","image_id":226,"category_name":"Marble","category":15,"distinct_rating":3.2,"distinct_type":"Bottom","rt":null,"stimulus":"Stimuli_Rocks480/M_Marble_02.png","response":null,"trial_type":"image-keyboard-response","trial_index":108,"plugin_version":"2.1.0","time_elapsed":296966,"subject_id":"89018","group":"Group2","full_date":"2025-12-07T04:49:59.816Z","date":"2025-12-07","time":"04:49:59"},{"rt":null,"stimulus":"<p style=\"font-size: 50px; margin: 0; text-align: center;\">+</p>","response":null,"trial_type":"html-keyboard-response","trial_index":109,"plugin_version":"2.1.0","time_elapsed":297969,"subject_id":"89018","group":"Group2","full_date":"2025-12-07T04:49:59.816Z","date":"2025-12-07","time":"04:49:59"},{"task":"memory_phase","broad_category":"S","image_png":"S_Rock Salt_13.png","image_id":445,"category_name":"Rock Salt","category":28,"distinct_rating":7.58,"distinct_type":"Top","rt":null,"stimulus":"Stimuli_Rocks480/S_Rock Salt_13.png","response":null,"trial_type":"image-keyboard-response","trial_index":110,"plugin_version":"2.1.0","time_elapsed":300472,"subject_id":"89018","group":"Group2","full_date":"2025-12-07T04:49:59.816Z","date":"2025-12-07","time":"04:49:59"},{"rt":null,"stimulus":"<p style=\"font-size: 50px; margin: 0; text-align: center;\">+</p>","response":null,"trial_type":"html-keyboard-response","trial_index":111,"plugin_version":"2.1.0","time_elapsed":301487,"subject_id":"89018","group":"Group2","full_date":"2025-12-07T04:49:59.816Z","date":"2025-12-07","time":"04:49:59"},{"task":"memory_phase","broad_category":"M","image_png":"M_Marble_14.png","image_id":238,"category_name":"Marble","category":15,"distinct_rating":3.31,"distinct_type":"Bottom","rt":null,"stimulus":"Stimuli_Rocks480/M_Marble_14.png","response":null,"trial_type":"image-keyboard-response","trial_index":112,"plugin_version":"2.1.0","time_elapsed":303996,"subject_id":"89018","group":"Group2","full_date":"2025-12-07T04:49:59.816Z","date":"2025-12-07","time":"04:49:59"},{"rt":null,"stimulus":"<p style=\"font-size: 50px; margin: 0; text-align: center;\">+</p>","response":null,"trial_type":"html-keyboard-response","trial_index":113,"plugin_version":"2.1.0","time_elapsed":305004,"subject_id":"89018","group":"Group2","full_date":"2025-12-07T04:49:59.816Z","date":"2025-12-07","time":"04:49:59"},{"task":"memory_phase","broad_category":"S","image_png":"S_Chert_13.png","image_id":365,"category_name":"Chert","category":23,"distinct_rating":6.57,"distinct_type":"Top","rt":null,"stimulus":"Stimuli_Rocks480/S_Chert_13.png","response":null,"trial_type":"image-keyboard-response","trial_index":114,"plugin_version":"2.1.0","time_elapsed":307518,"subject_id":"89018","group":"Group2","full_date":"2025-12-07T04:49:59.816Z","date":"2025-12-07","time":"04:49:59"},{"rt":null,"stimulus":"<p style=\"font-size: 50px; margin: 0; text-align: center;\">+</p>","response":null,"trial_type":"html-keyboard-response","trial_index":115,"plugin_version":"2.1.0","time_elapsed":308525,"subject_id":"89018","group":"Group2","full_date":"2025-12-07T04:49:59.816Z","date":"2025-12-07","time":"04:49:59"},{"task":"memory_phase","broad_category":"S","image_png":"S_Conglomerate_14.png","image_id":382,"category_name":"Conglomerate","category":24,"distinct_rating":6.86,"distinct_type":"Top","rt":null,"stimulus":"Stimuli_Rocks480/S_Conglomerate_14.png","response":null,"trial_type":"image-keyboard-response","trial_index":116,"plugin_version":"2.1.0","time_elapsed":311041,"subject_id":"89018","group":"Group2","full_date":"2025-12-07T04:49:59.816Z","date":"2025-12-07","time":"04:49:59"},{"rt":null,"stimulus":"<p style=\"font-size: 50px; margin: 0; text-align: center;\">+</p>","response":null,"trial_type":"html-keyboard-response","trial_index":117,"plugin_version":"2.1.0","time_elapsed":312051,"subject_id":"89018","group":"Group2","full_date":"2025-12-07T04:49:59.816Z","date":"2025-12-07","time":"04:49:59"},{"task":"memory_phase","broad_category":"I","image_png":"I_Rhyolite_10.png","image_id":154,"category_name":"Rhyolite","category":10,"distinct_rating":2.88,"distinct_type":"Bottom","rt":null,"stimulus":"Stimuli_Rocks480/I_Rhyolite_10.png","response":null,"trial_type":"image-keyboard-response","trial_index":118,"plugin_version":"2.1.0","time_elapsed":314568,"subject_id":"89018","group":"Group2","full_date":"2025-12-07T04:49:59.816Z","date":"2025-12-07","time":"04:49:59"},{"rt":null,"stimulus":"<p style=\"font-size: 50px; margin: 0; text-align: center;\">+</p>","response":null,"trial_type":"html-keyboard-response","trial_index":119,"plugin_version":"2.1.0","time_elapsed":315572,"subject_id":"89018","group":"Group2","full_date":"2025-12-07T04:49:59.816Z","date":"2025-12-07","time":"04:49:59"},{"task":"memory_phase","broad_category":"I","image_png":"I_Pumice_14.png","image_id":142,"category_name":"Pumice","category":9,"distinct_rating":3.22,"distinct_type":"Bottom","rt":null,"stimulus":"Stimuli_Rocks480/I_Pumice_14.png","response":null,"trial_type":"image-keyboard-response","trial_index":120,"plugin_version":"2.1.0","time_elapsed":318077,"subject_id":"89018","group":"Group2","full_date":"2025-12-07T04:49:59.816Z","date":"2025-12-07","time":"04:49:59"},{"rt":null,"stimulus":"<p style=\"font-size: 50px; margin: 0; text-align: center;\">+</p>","response":null,"trial_type":"html-keyboard-response","trial_index":121,"plugin_version":"2.1.0","time_elapsed":319081,"subject_id":"89018","group":"Group2","full_date":"2025-12-07T04:49:59.816Z","date":"2025-12-07","time":"04:49:59"},{"task":"memory_phase","broad_category":"M","image_png":"M_Quartzite_12.png","image_id":284,"category_name":"Quartzite","category":18,"distinct_rating":1.92,"distinct_type":"Bottom","rt":null,"stimulus":"Stimuli_Rocks480/M_Quartzite_12.png","response":null,"trial_type":"image-keyboard-response","trial_index":122,"plugin_version":"2.1.0","time_elapsed":321589,"subject_id":"89018","group":"Group2","full_date":"2025-12-07T04:49:59.816Z","date":"2025-12-07","time":"04:49:59"},{"rt":null,"stimulus":"<p style=\"font-size: 50px; margin: 0; text-align: center;\">+</p>","response":null,"trial_type":"html-keyboard-response","trial_index":123,"plugin_version":"2.1.0","time_elapsed":322598,"subject_id":"89018","group":"Group2","full_date":"2025-12-07T04:49:59.816Z","date":"2025-12-07","time":"04:49:59"},{"task":"memory_phase","broad_category":"I","image_png":"I_Basalt_10.png","image_id":26,"category_name":"Basalt","category":2,"distinct_rating":2.76,"distinct_type":"Bottom","rt":null,"stimulus":"Stimuli_Rocks480/I_Basalt_10.png","response":null,"trial_type":"image-keyboard-response","trial_index":124,"plugin_version":"2.1.0","time_elapsed":325104,"subject_id":"89018","group":"Group2","full_date":"2025-12-07T04:49:59.816Z","date":"2025-12-07","time":"04:49:59"},{"rt":null,"stimulus":"<p style=\"font-size: 50px; margin: 0; text-align: center;\">+</p>","response":null,"trial_type":"html-keyboard-response","trial_index":125,"plugin_version":"2.1.0","time_elapsed":326116,"subject_id":"89018","group":"Group2","full_date":"2025-12-07T04:49:59.816Z","date":"2025-12-07","time":"04:49:59"},{"task":"memory_phase","broad_category":"I","image_png":"I_Diorite_15.png","image_id":47,"category_name":"Diorite","category":3,"distinct_rating":3.05,"distinct_type":"Bottom","rt":null,"stimulus":"Stimuli_Rocks480/I_Diorite_15.png","response":null,"trial_type":"image-keyboard-response","trial_index":126,"plugin_version":"2.1.0","time_elapsed":328626,"subject_id":"89018","group":"Group2","full_date":"2025-12-07T04:49:59.816Z","date":"2025-12-07","time":"04:49:59"},{"rt":null,"stimulus":"<p style=\"font-size: 50px; margin: 0; text-align: center;\">+</p>","response":null,"trial_type":"html-keyboard-response","trial_index":127,"plugin_version":"2.1.0","time_elapsed":329633,"subject_id":"89018","group":"Group2","full_date":"2025-12-07T04:49:59.816Z","date":"2025-12-07","time":"04:49:59"},{"task":"memory_phase","broad_category":"S","image_png":"S_Shale_03.png","image_id":467,"category_name":"Shale","category":30,"distinct_rating":1.95,"distinct_type":"Bottom","rt":null,"stimulus":"Stimuli_Rocks480/S_Shale_03.png","response":null,"trial_type":"image-keyboard-response","trial_index":128,"plugin_version":"2.1.0","time_elapsed":332147,"subject_id":"89018","group":"Group2","full_date":"2025-12-07T04:49:59.816Z","date":"2025-12-07","time":"04:49:59"},{"rt":null,"stimulus":"<p style=\"font-size: 50px; margin: 0; text-align: center;\">+</p>","response":null,"trial_type":"html-keyboard-response","trial_index":129,"plugin_version":"2.1.0","time_elapsed":333155,"subject_id":"89018","group":"Group2","full_date":"2025-12-07T04:49:59.816Z","date":"2025-12-07","time":"04:49:59"},{"task":"memory_phase","broad_category":"M","image_png":"M_Quartzite_07.png","image_id":279,"category_name":"Quartzite","category":18,"distinct_rating":1.97,"distinct_type":"Bottom","rt":null,"stimulus":"Stimuli_Rocks480/M_Quartzite_07.png","response":null,"trial_type":"image-keyboard-response","trial_index":130,"plugin_version":"2.1.0","time_elapsed":335671,"subject_id":"89018","group":"Group2","full_date":"2025-12-07T04:49:59.816Z","date":"2025-12-07","time":"04:49:59"},{"rt":null,"stimulus":"<p style=\"font-size: 50px; margin: 0; text-align: center;\">+</p>","response":null,"trial_type":"html-keyboard-response","trial_index":131,"plugin_version":"2.1.0","time_elapsed":336685,"subject_id":"89018","group":"Group2","full_date":"2025-12-07T04:49:59.816Z","date":"2025-12-07","time":"04:49:59"},{"task":"memory_phase","broad_category":"S","image_png":"S_Sandstone_11.png","image_id":459,"category_name":"Sandstone","category":29,"distinct_rating":1.82,"distinct_type":"Bottom","rt":null,"stimulus":"Stimuli_Rocks480/S_Sandstone_11.png","response":null,"trial_type":"image-keyboard-response","trial_index":132,"plugin_version":"2.1.0","time_elapsed":339202,"subject_id":"89018","group":"Group2","full_date":"2025-12-07T04:49:59.816Z","date":"2025-12-07","time":"04:49:59"},{"rt":null,"stimulus":"<p style=\"font-size: 50px; margin: 0; text-align: center;\">+</p>","response":null,"trial_type":"html-keyboard-response","trial_index":133,"plugin_version":"2.1.0","time_elapsed":340204,"subject_id":"89018","group":"Group2","full_date":"2025-12-07T04:49:59.816Z","date":"2025-12-07","time":"04:49:59"},{"task":"memory_phase","broad_category":"M","image_png":"M_Slate_10.png","image_id":314,"category_name":"Slate","category":20,"distinct_rating":1.94,"distinct_type":"Bottom","rt":null,"stimulus":"Stimuli_Rocks480/M_Slate_10.png","response":null,"trial_type":"image-keyboard-response","trial_index":134,"plugin_version":"2.1.0","time_elapsed":342722,"subject_id":"89018","group":"Group2","full_date":"2025-12-07T04:49:59.816Z","date":"2025-12-07","time":"04:49:59"},{"rt":null,"stimulus":"<p style=\"font-size: 50px; margin: 0; text-align: center;\">+</p>","response":null,"trial_type":"html-keyboard-response","trial_index":135,"plugin_version":"2.1.0","time_elapsed":343732,"subject_id":"89018","group":"Group2","full_date":"2025-12-07T04:49:59.816Z","date":"2025-12-07","time":"04:49:59"},{"task":"memory_phase","broad_category":"I","image_png":"I_Gabbro_14.png","image_id":62,"category_name":"Gabbro","category":4,"distinct_rating":2.95,"distinct_type":"Bottom","rt":null,"stimulus":"Stimuli_Rocks480/I_Gabbro_14.png","response":null,"trial_type":"image-keyboard-response","trial_index":136,"plugin_version":"2.1.0","time_elapsed":346246,"subject_id":"89018","group":"Group2","full_date":"2025-12-07T04:49:59.816Z","date":"2025-12-07","time":"04:49:59"},{"rt":null,"stimulus":"<p style=\"font-size: 50px; margin: 0; text-align: center;\">+</p>","response":null,"trial_type":"html-keyboard-response","trial_index":137,"plugin_version":"2.1.0","time_elapsed":347254,"subject_id":"89018","group":"Group2","full_date":"2025-12-07T04:49:59.816Z","date":"2025-12-07","time":"04:49:59"},{"task":"memory_phase","broad_category":"I","image_png":"I_Rhyolite_05.png","image_id":149,"category_name":"Rhyolite","category":10,"distinct_rating":3.02,"distinct_type":"Bottom","rt":null,"stimulus":"Stimuli_Rocks480/I_Rhyolite_05.png","response":null,"trial_type":"image-keyboard-response","trial_index":138,"plugin_version":"2.1.0","time_elapsed":349758,"subject_id":"89018","group":"Group2","full_date":"2025-12-07T04:49:59.816Z","date":"2025-12-07","time":"04:49:59"},{"rt":null,"stimulus":"<p style=\"font-size: 50px; margin: 0; text-align: center;\">+</p>","response":null,"trial_type":"html-keyboard-response","trial_index":139,"plugin_version":"2.1.0","time_elapsed":350768,"subject_id":"89018","group":"Group2","full_date":"2025-12-07T04:49:59.816Z","date":"2025-12-07","time":"04:49:59"},{"task":"memory_phase","broad_category":"M","image_png":"M_Gneiss_10.png","image_id":202,"category_name":"Gneiss","category":13,"distinct_rating":3.09,"distinct_type":"Bottom","rt":null,"stimulus":"Stimuli_Rocks480/M_Gneiss_10.png","response":null,"trial_type":"image-keyboard-response","trial_index":140,"plugin_version":"2.1.0","time_elapsed":353273,"subject_id":"89018","group":"Group2","full_date":"2025-12-07T04:49:59.816Z","date":"2025-12-07","time":"04:49:59"},{"rt":null,"stimulus":"<p style=\"font-size: 50px; margin: 0; text-align: center;\">+</p>","response":null,"trial_type":"html-keyboard-response","trial_index":141,"plugin_version":"2.1.0","time_elapsed":354284,"subject_id":"89018","group":"Group2","full_date":"2025-12-07T04:49:59.816Z","date":"2025-12-07","time":"04:49:59"},{"task":"memory_phase","broad_category":"S","image_png":"S_Dolomite_01.png","image_id":385,"category_name":"Dolomite","category":25,"distinct_rating":1.43,"distinct_type":"Bottom","rt":null,"stimulus":"Stimuli_Rocks480/S_Dolomite_01.png","response":null,"trial_type":"image-keyboard-response","trial_index":142,"plugin_version":"2.1.0","time_elapsed":356789,"subject_id":"89018","group":"Group2","full_date":"2025-12-07T04:49:59.816Z","date":"2025-12-07","time":"04:49:59"},{"rt":null,"stimulus":"<p style=\"font-size: 50px; margin: 0; text-align: center;\">+</p>","response":null,"trial_type":"html-keyboard-response","trial_index":143,"plugin_version":"2.1.0","time_elapsed":357796,"subject_id":"89018","group":"Group2","full_date":"2025-12-07T04:49:59.816Z","date":"2025-12-07","time":"04:49:59"},{"task":"memory_phase","broad_category":"M","image_png":"M_Quartzite_15.png","image_id":287,"category_name":"Quartzite","category":18,"distinct_rating":2.19,"distinct_type":"Bottom","rt":null,"stimulus":"Stimuli_Rocks480/M_Quartzite_15.png","response":null,"trial_type":"image-keyboard-response","trial_index":144,"plugin_version":"2.1.0","time_elapsed":360304,"subject_id":"89018","group":"Group2","full_date":"2025-12-07T04:49:59.816Z","date":"2025-12-07","time":"04:49:59"},{"rt":null,"stimulus":"<p style=\"font-size: 50px; margin: 0; text-align: center;\">+</p>","response":null,"trial_type":"html-keyboard-response","trial_index":145,"plugin_version":"2.1.0","time_elapsed":361309,"subject_id":"89018","group":"Group2","full_date":"2025-12-07T04:49:59.816Z","date":"2025-12-07","time":"04:49:59"},{"task":"memory_phase","broad_category":"M","image_png":"M_Slate_14.png","image_id":318,"category_name":"Slate","category":20,"distinct_rating":2.58,"distinct_type":"Bottom","rt":null,"stimulus":"Stimuli_Rocks480/M_Slate_14.png","response":null,"trial_type":"image-keyboard-response","trial_index":146,"plugin_version":"2.1.0","time_elapsed":363826,"subject_id":"89018","group":"Group2","full_date":"2025-12-07T04:49:59.816Z","date":"2025-12-07","time":"04:49:59"},{"rt":null,"stimulus":"<p style=\"font-size: 50px; margin: 0; text-align: center;\">+</p>","response":null,"trial_type":"html-keyboard-response","trial_index":147,"plugin_version":"2.1.0","time_elapsed":364841,"subject_id":"89018","group":"Group2","full_date":"2025-12-07T04:49:59.816Z","date":"2025-12-07","time":"04:49:59"},{"task":"memory_phase","broad_category":"S","image_png":"S_Dolomite_16.png","image_id":400,"category_name":"Dolomite","category":25,"distinct_rating":1.71,"distinct_type":"Bottom","rt":null,"stimulus":"Stimuli_Rocks480/S_Dolomite_16.png","response":null,"trial_type":"image-keyboard-response","trial_index":148,"plugin_version":"2.1.0","time_elapsed":367343,"subject_id":"89018","group":"Group2","full_date":"2025-12-07T04:49:59.816Z","date":"2025-12-07","time":"04:49:59"},{"rt":null,"stimulus":"<p style=\"font-size: 50px; margin: 0; text-align: center;\">+</p>","response":null,"trial_type":"html-keyboard-response","trial_index":149,"plugin_version":"2.1.0","time_elapsed":368352,"subject_id":"89018","group":"Group2","full_date":"2025-12-07T04:49:59.816Z","date":"2025-12-07","time":"04:49:59"},{"task":"memory_phase","broad_category":"S","image_png":"S_Sandstone_04.png","image_id":452,"category_name":"Sandstone","category":29,"distinct_rating":1.8,"distinct_type":"Bottom","rt":null,"stimulus":"Stimuli_Rocks480/S_Sandstone_04.png","response":null,"trial_type":"image-keyboard-response","trial_index":150,"plugin_version":"2.1.0","time_elapsed":370857,"subject_id":"89018","group":"Group2","full_date":"2025-12-07T04:49:59.816Z","date":"2025-12-07","time":"04:49:59"},{"rt":null,"stimulus":"<p style=\"font-size: 50px; margin: 0; text-align: center;\">+</p>","response":null,"trial_type":"html-keyboard-response","trial_index":151,"plugin_version":"2.1.0","time_elapsed":371869,"subject_id":"89018","group":"Group2","full_date":"2025-12-07T04:49:59.816Z","date":"2025-12-07","time":"04:49:59"},{"task":"memory_phase","broad_category":"M","image_png":"M_Phyllite_05.png","image_id":261,"category_name":"Phyllite","category":17,"distinct_rating":2.14,"distinct_type":"Bottom","rt":null,"stimulus":"Stimuli_Rocks480/M_Phyllite_05.png","response":null,"trial_type":"image-keyboard-response","trial_index":152,"plugin_version":"2.1.0","time_elapsed":374385,"subject_id":"89018","group":"Group2","full_date":"2025-12-07T04:49:59.816Z","date":"2025-12-07","time":"04:49:59"},{"rt":null,"stimulus":"<p style=\"font-size: 50px; margin: 0; text-align: center;\">+</p>","response":null,"trial_type":"html-keyboard-response","trial_index":153,"plugin_version":"2.1.0","time_elapsed":375400,"subject_id":"89018","group":"Group2","full_date":"2025-12-07T04:49:59.816Z","date":"2025-12-07","time":"04:49:59"},{"task":"memory_phase","broad_category":"I","image_png":"I_Peridotite_13.png","image_id":125,"category_name":"Peridotite","category":8,"distinct_rating":7.28,"distinct_type":"Top","rt":null,"stimulus":"Stimuli_Rocks480/I_Peridotite_13.png","response":null,"trial_type":"image-keyboard-response","trial_index":154,"plugin_version":"2.1.0","time_elapsed":377909,"subject_id":"89018","group":"Group2","full_date":"2025-12-07T04:49:59.816Z","date":"2025-12-07","time":"04:49:59"},{"rt":null,"stimulus":"<p style=\"font-size: 50px; margin: 0; text-align: center;\">+</p>","response":null,"trial_type":"html-keyboard-response","trial_index":155,"plugin_version":"2.1.0","time_elapsed":378918,"subject_id":"89018","group":"Group2","full_date":"2025-12-07T04:49:59.816Z","date":"2025-12-07","time":"04:49:59"},{"task":"memory_phase","broad_category":"I","image_png":"I_Pumice_01.png","image_id":129,"category_name":"Pumice","category":9,"distinct_rating":3.25,"distinct_type":"Bottom","rt":null,"stimulus":"Stimuli_Rocks480/I_Pumice_01.png","response":null,"trial_type":"image-keyboard-response","trial_index":156,"plugin_version":"2.1.0","time_elapsed":381427,"subject_id":"89018","group":"Group2","full_date":"2025-12-07T04:49:59.816Z","date":"2025-12-07","time":"04:49:59"},{"rt":3612,"stimulus":"<p style=\"max-width: 760px; margin: auto; font-size: 35px; line-height: 1.5;\">Press SPACE to continue study phase</p>","response":" ","trial_type":"html-keyboard-response","trial_index":157,"plugin_version":"2.1.0","time_elapsed":385040,"subject_id":"89018","group":"Group2","full_date":"2025-12-07T04:49:59.816Z","date":"2025-12-07","time":"04:49:59"},{"rt":null,"stimulus":"<p style=\"font-size: 50px; margin: 0; text-align: center;\">+</p>","response":null,"trial_type":"html-keyboard-response","trial_index":158,"plugin_version":"2.1.0","time_elapsed":386048,"subject_id":"89018","group":"Group2","full_date":"2025-12-07T04:49:59.816Z","date":"2025-12-07","time":"04:49:59"},{"task":"memory_phase","broad_category":"S","image_png":"S_Dolomite_07.png","image_id":391,"category_name":"Dolomite","category":25,"distinct_rating":1.73,"distinct_type":"Bottom","rt":null,"stimulus":"Stimuli_Rocks480/S_Dolomite_07.png","response":null,"trial_type":"image-keyboard-response","trial_index":159,"plugin_version":"2.1.0","time_elapsed":388558,"subject_id":"89018","group":"Group2","full_date":"2025-12-07T04:49:59.816Z","date":"2025-12-07","time":"04:49:59"},{"rt":null,"stimulus":"<p style=\"font-size: 50px; margin: 0; text-align: center;\">+</p>","response":null,"trial_type":"html-keyboard-response","trial_index":160,"plugin_version":"2.1.0","time_elapsed":389568,"subject_id":"89018","group":"Group2","full_date":"2025-12-07T04:49:59.816Z","date":"2025-12-07","time":"04:49:59"},{"task":"memory_phase","broad_category":"I","image_png":"I_Pegmatite_03.png","image_id":99,"category_name":"Pegmatite","category":7,"distinct_rating":7.24,"distinct_type":"Top","rt":null,"stimulus":"Stimuli_Rocks480/I_Pegmatite_03.png","response":null,"trial_type":"image-keyboard-response","trial_index":161,"plugin_version":"2.1.0","time_elapsed":392076,"subject_id":"89018","group":"Group2","full_date":"2025-12-07T04:49:59.816Z","date":"2025-12-07","time":"04:49:59"},{"rt":null,"stimulus":"<p style=\"font-size: 50px; margin: 0; text-align: center;\">+</p>","response":null,"trial_type":"html-keyboard-response","trial_index":162,"plugin_version":"2.1.0","time_elapsed":393080,"subject_id":"89018","group":"Group2","full_date":"2025-12-07T04:49:59.816Z","date":"2025-12-07","time":"04:49:59"},{"task":"memory_phase","broad_category":"S","image_png":"S_Shale_02.png","image_id":466,"category_name":"Shale","category":30,"distinct_rating":2.9,"distinct_type":"Bottom","rt":null,"stimulus":"Stimuli_Rocks480/S_Shale_02.png","response":null,"trial_type":"image-keyboard-response","trial_index":163,"plugin_version":"2.1.0","time_elapsed":395585,"subject_id":"89018","group":"Group2","full_date":"2025-12-07T04:49:59.816Z","date":"2025-12-07","time":"04:49:59"},{"rt":null,"stimulus":"<p style=\"font-size: 50px; margin: 0; text-align: center;\">+</p>","response":null,"trial_type":"html-keyboard-response","trial_index":164,"plugin_version":"2.1.0","time_elapsed":396596,"subject_id":"89018","group":"Group2","full_date":"2025-12-07T04:49:59.816Z","date":"2025-12-07","time":"04:49:59"},{"task":"memory_phase","broad_category":"I","image_png":"I_Andesite_09.png","image_id":9,"category_name":"Andesite","category":1,"distinct_rating":2.49,"distinct_type":"Bottom","rt":null,"stimulus":"Stimuli_Rocks480/I_Andesite_09.png","response":null,"trial_type":"image-keyboard-response","trial_index":165,"plugin_version":"2.1.0","time_elapsed":399102,"subject_id":"89018","group":"Group2","full_date":"2025-12-07T04:49:59.816Z","date":"2025-12-07","time":"04:49:59"},{"rt":null,"stimulus":"<p style=\"font-size: 50px; margin: 0; text-align: center;\">+</p>","response":null,"trial_type":"html-keyboard-response","trial_index":166,"plugin_version":"2.1.0","time_elapsed":400113,"subject_id":"89018","group":"Group2","full_date":"2025-12-07T04:49:59.816Z","date":"2025-12-07","time":"04:49:59"},{"task":"memory_phase","broad_category":"I","image_png":"I_Pumice_13.png","image_id":141,"category_name":"Pumice","category":9,"distinct_rating":3.12,"distinct_type":"Bottom","rt":null,"stimulus":"Stimuli_Rocks480/I_Pumice_13.png","response":null,"trial_type":"image-keyboard-response","trial_index":167,"plugin_version":"2.1.0","time_elapsed":402619,"subject_id":"89018","group":"Group2","full_date":"2025-12-07T04:49:59.816Z","date":"2025-12-07","time":"04:49:59"},{"rt":null,"stimulus":"<p style=\"font-size: 50px; margin: 0; text-align: center;\">+</p>","response":null,"trial_type":"html-keyboard-response","trial_index":168,"plugin_version":"2.1.0","time_elapsed":403630,"subject_id":"89018","group":"Group2","full_date":"2025-12-07T04:49:59.816Z","date":"2025-12-07","time":"04:49:59"},{"task":"memory_phase","broad_category":"I","image_png":"I_Pegmatite_11.png","image_id":107,"category_name":"Pegmatite","category":7,"distinct_rating":7.11,"distinct_type":"Top","rt":null,"stimulus":"Stimuli_Rocks480/I_Pegmatite_11.png","response":null,"trial_type":"image-keyboard-response","trial_index":169,"plugin_version":"2.1.0","time_elapsed":406135,"subject_id":"89018","group":"Group2","full_date":"2025-12-07T04:49:59.816Z","date":"2025-12-07","time":"04:49:59"},{"rt":null,"stimulus":"<p style=\"font-size: 50px; margin: 0; text-align: center;\">+</p>","response":null,"trial_type":"html-keyboard-response","trial_index":170,"plugin_version":"2.1.0","time_elapsed":407148,"subject_id":"89018","group":"Group2","full_date":"2025-12-07T04:49:59.816Z","date":"2025-12-07","time":"04:49:59"},{"task":"memory_phase","broad_category":"I","image_png":"I_Andesite_03.png","image_id":3,"category_name":"Andesite","category":1,"distinct_rating":3.17,"distinct_type":"Bottom","rt":null,"stimulus":"Stimuli_Rocks480/I_Andesite_03.png","response":null,"trial_type":"image-keyboard-response","trial_index":171,"plugin_version":"2.1.0","time_elapsed":409664,"subject_id":"89018","group":"Group2","full_date":"2025-12-07T04:49:59.816Z","date":"2025-12-07","time":"04:49:59"},{"rt":null,"stimulus":"<p style=\"font-size: 50px; margin: 0; text-align: center;\">+</p>","response":null,"trial_type":"html-keyboard-response","trial_index":172,"plugin_version":"2.1.0","time_elapsed":410675,"subject_id":"89018","group":"Group2","full_date":"2025-12-07T04:49:59.816Z","date":"2025-12-07","time":"04:49:59"},{"task":"memory_phase","broad_category":"I","image_png":"I_Rhyolite_08.png","image_id":152,"category_name":"Rhyolite","category":10,"distinct_rating":1.38,"distinct_type":"Bottom","rt":null,"stimulus":"Stimuli_Rocks480/I_Rhyolite_08.png","response":null,"trial_type":"image-keyboard-response","trial_index":173,"plugin_version":"2.1.0","time_elapsed":413185,"subject_id":"89018","group":"Group2","full_date":"2025-12-07T04:49:59.816Z","date":"2025-12-07","time":"04:49:59"},{"rt":null,"stimulus":"<p style=\"font-size: 50px; margin: 0; text-align: center;\">+</p>","response":null,"trial_type":"html-keyboard-response","trial_index":174,"plugin_version":"2.1.0","time_elapsed":414190,"subject_id":"89018","group":"Group2","full_date":"2025-12-07T04:49:59.816Z","date":"2025-12-07","time":"04:49:59"},{"task":"memory_phase","broad_category":"I","image_png":"I_Andesite_04.png","image_id":4,"category_name":"Andesite","category":1,"distinct_rating":3.18,"distinct_type":"Bottom","rt":null,"stimulus":"Stimuli_Rocks480/I_Andesite_04.png","response":null,"trial_type":"image-keyboard-response","trial_index":175,"plugin_version":"2.1.0","time_elapsed":416693,"subject_id":"89018","group":"Group2","full_date":"2025-12-07T04:49:59.816Z","date":"2025-12-07","time":"04:49:59"},{"rt":null,"stimulus":"<p style=\"font-size: 50px; margin: 0; text-align: center;\">+</p>","response":null,"trial_type":"html-keyboard-response","trial_index":176,"plugin_version":"2.1.0","time_elapsed":417707,"subject_id":"89018","group":"Group2","full_date":"2025-12-07T04:49:59.816Z","date":"2025-12-07","time":"04:49:59"},{"task":"memory_phase","broad_category":"I","image_png":"I_Diorite_01.png","image_id":33,"category_name":"Diorite","category":3,"distinct_rating":2.97,"distinct_type":"Bottom","rt":null,"stimulus":"Stimuli_Rocks480/I_Diorite_01.png","response":null,"trial_type":"image-keyboard-response","trial_index":177,"plugin_version":"2.1.0","time_elapsed":420222,"subject_id":"89018","group":"Group2","full_date":"2025-12-07T04:49:59.816Z","date":"2025-12-07","time":"04:49:59"},{"rt":null,"stimulus":"<p style=\"font-size: 50px; margin: 0; text-align: center;\">+</p>","response":null,"trial_type":"html-keyboard-response","trial_index":178,"plugin_version":"2.1.0","time_elapsed":421240,"subject_id":"89018","group":"Group2","full_date":"2025-12-07T04:49:59.816Z","date":"2025-12-07","time":"04:49:59"},{"task":"memory_phase","broad_category":"M","image_png":"M_Phyllite_13.png","image_id":269,"category_name":"Phyllite","category":17,"distinct_rating":2.8,"distinct_type":"Bottom","rt":null,"stimulus":"Stimuli_Rocks480/M_Phyllite_13.png","response":null,"trial_type":"image-keyboard-response","trial_index":179,"plugin_version":"2.1.0","time_elapsed":423753,"subject_id":"89018","group":"Group2","full_date":"2025-12-07T04:49:59.816Z","date":"2025-12-07","time":"04:49:59"},{"rt":null,"stimulus":"<p style=\"font-size: 50px; margin: 0; text-align: center;\">+</p>","response":null,"trial_type":"html-keyboard-response","trial_index":180,"plugin_version":"2.1.0","time_elapsed":424764,"subject_id":"89018","group":"Group2","full_date":"2025-12-07T04:49:59.816Z","date":"2025-12-07","time":"04:49:59"},{"task":"memory_phase","broad_category":"I","image_png":"I_Diorite_10.png","image_id":42,"category_name":"Diorite","category":3,"distinct_rating":2.84,"distinct_type":"Bottom","rt":null,"stimulus":"Stimuli_Rocks480/I_Diorite_10.png","response":null,"trial_type":"image-keyboard-response","trial_index":181,"plugin_version":"2.1.0","time_elapsed":427271,"subject_id":"89018","group":"Group2","full_date":"2025-12-07T04:49:59.816Z","date":"2025-12-07","time":"04:49:59"},{"rt":null,"stimulus":"<p style=\"font-size: 50px; margin: 0; text-align: center;\">+</p>","response":null,"trial_type":"html-keyboard-response","trial_index":182,"plugin_version":"2.1.0","time_elapsed":428274,"subject_id":"89018","group":"Group2","full_date":"2025-12-07T04:49:59.816Z","date":"2025-12-07","time":"04:49:59"},{"task":"memory_phase","broad_category":"S","image_png":"S_Sandstone_08.png","image_id":456,"category_name":"Sandstone","category":29,"distinct_rating":1.5,"distinct_type":"Bottom","rt":null,"stimulus":"Stimuli_Rocks480/S_Sandstone_08.png","response":null,"trial_type":"image-keyboard-response","trial_index":183,"plugin_version":"2.1.0","time_elapsed":430789,"subject_id":"89018","group":"Group2","full_date":"2025-12-07T04:49:59.816Z","date":"2025-12-07","time":"04:49:59"},{"rt":null,"stimulus":"<p style=\"font-size: 50px; margin: 0; text-align: center;\">+</p>","response":null,"trial_type":"html-keyboard-response","trial_index":184,"plugin_version":"2.1.0","time_elapsed":431791,"subject_id":"89018","group":"Group2","full_date":"2025-12-07T04:49:59.816Z","date":"2025-12-07","time":"04:49:59"},{"task":"memory_phase","broad_category":"I","image_png":"I_Obsidian_06.png","image_id":86,"category_name":"Obsidian","category":6,"distinct_rating":8.01,"distinct_type":"Top","rt":null,"stimulus":"Stimuli_Rocks480/I_Obsidian_06.png","response":null,"trial_type":"image-keyboard-response","trial_index":185,"plugin_version":"2.1.0","time_elapsed":434293,"subject_id":"89018","group":"Group2","full_date":"2025-12-07T04:49:59.816Z","date":"2025-12-07","time":"04:49:59"},{"rt":null,"stimulus":"<p style=\"font-size: 50px; margin: 0; text-align: center;\">+</p>","response":null,"trial_type":"html-keyboard-response","trial_index":186,"plugin_version":"2.1.0","time_elapsed":435309,"subject_id":"89018","group":"Group2","full_date":"2025-12-07T04:49:59.816Z","date":"2025-12-07","time":"04:49:59"},{"task":"memory_phase","broad_category":"M","image_png":"M_Gneiss_15.png","image_id":207,"category_name":"Gneiss","category":13,"distinct_rating":3.11,"distinct_type":"Bottom","rt":null,"stimulus":"Stimuli_Rocks480/M_Gneiss_15.png","response":null,"trial_type":"image-keyboard-response","trial_index":187,"plugin_version":"2.1.0","time_elapsed":437822,"subject_id":"89018","group":"Group2","full_date":"2025-12-07T04:49:59.816Z","date":"2025-12-07","time":"04:49:59"},{"rt":null,"stimulus":"<p style=\"font-size: 50px; margin: 0; text-align: center;\">+</p>","response":null,"trial_type":"html-keyboard-response","trial_index":188,"plugin_version":"2.1.0","time_elapsed":438824,"subject_id":"89018","group":"Group2","full_date":"2025-12-07T04:49:59.816Z","date":"2025-12-07","time":"04:49:59"},{"task":"memory_phase","broad_category":"M","image_png":"M_Marble_03.png","image_id":227,"category_name":"Marble","category":15,"distinct_rating":2.67,"distinct_type":"Bottom","rt":null,"stimulus":"Stimuli_Rocks480/M_Marble_03.png","response":null,"trial_type":"image-keyboard-response","trial_index":189,"plugin_version":"2.1.0","time_elapsed":441340,"subject_id":"89018","group":"Group2","full_date":"2025-12-07T04:49:59.816Z","date":"2025-12-07","time":"04:49:59"},{"rt":null,"stimulus":"<p style=\"font-size: 50px; margin: 0; text-align: center;\">+</p>","response":null,"trial_type":"html-keyboard-response","trial_index":190,"plugin_version":"2.1.0","time_elapsed":442342,"subject_id":"89018","group":"Group2","full_date":"2025-12-07T04:49:59.816Z","date":"2025-12-07","time":"04:49:59"},{"task":"memory_phase","broad_category":"I","image_png":"I_Basalt_08.png","image_id":24,"category_name":"Basalt","category":2,"distinct_rating":2.31,"distinct_type":"Bottom","rt":null,"stimulus":"Stimuli_Rocks480/I_Basalt_08.png","response":null,"trial_type":"image-keyboard-response","trial_index":191,"plugin_version":"2.1.0","time_elapsed":444858,"subject_id":"89018","group":"Group2","full_date":"2025-12-07T04:49:59.816Z","date":"2025-12-07","time":"04:49:59"},{"rt":null,"stimulus":"<p style=\"font-size: 50px; margin: 0; text-align: center;\">+</p>","response":null,"trial_type":"html-keyboard-response","trial_index":192,"plugin_version":"2.1.0","time_elapsed":445876,"subject_id":"89018","group":"Group2","full_date":"2025-12-07T04:49:59.816Z","date":"2025-12-07","time":"04:49:59"},{"task":"memory_phase","broad_category":"I","image_png":"I_Gabbro_02.png","image_id":50,"category_name":"Gabbro","category":4,"distinct_rating":2.73,"distinct_type":"Bottom","rt":null,"stimulus":"Stimuli_Rocks480/I_Gabbro_02.png","response":null,"trial_type":"image-keyboard-response","trial_index":193,"plugin_version":"2.1.0","time_elapsed":448391,"subject_id":"89018","group":"Group2","full_date":"2025-12-07T04:49:59.816Z","date":"2025-12-07","time":"04:49:59"},{"rt":null,"stimulus":"<p style=\"font-size: 50px; margin: 0; text-align: center;\">+</p>","response":null,"trial_type":"html-keyboard-response","trial_index":194,"plugin_version":"2.1.0","time_elapsed":449407,"subject_id":"89018","group":"Group2","full_date":"2025-12-07T04:49:59.816Z","date":"2025-12-07","time":"04:49:59"},{"task":"memory_phase","broad_category":"M","image_png":"M_Gneiss_14.png","image_id":206,"category_name":"Gneiss","category":13,"distinct_rating":3.41,"distinct_type":"Bottom","rt":null,"stimulus":"Stimuli_Rocks480/M_Gneiss_14.png","response":null,"trial_type":"image-keyboard-response","trial_index":195,"plugin_version":"2.1.0","time_elapsed":451911,"subject_id":"89018","group":"Group2","full_date":"2025-12-07T04:49:59.816Z","date":"2025-12-07","time":"04:49:59"},{"rt":null,"stimulus":"<p style=\"font-size: 50px; margin: 0; text-align: center;\">+</p>","response":null,"trial_type":"html-keyboard-response","trial_index":196,"plugin_version":"2.1.0","time_elapsed":452922,"subject_id":"89018","group":"Group2","full_date":"2025-12-07T04:49:59.816Z","date":"2025-12-07","time":"04:49:59"},{"task":"memory_phase","broad_category":"I","image_png":"I_Basalt_13.png","image_id":29,"category_name":"Basalt","category":2,"distinct_rating":2.68,"distinct_type":"Bottom","rt":null,"stimulus":"Stimuli_Rocks480/I_Basalt_13.png","response":null,"trial_type":"image-keyboard-response","trial_index":197,"plugin_version":"2.1.0","time_elapsed":455427,"subject_id":"89018","group":"Group2","full_date":"2025-12-07T04:49:59.816Z","date":"2025-12-07","time":"04:49:59"},{"rt":null,"stimulus":"<p style=\"font-size: 50px; margin: 0; text-align: center;\">+</p>","response":null,"trial_type":"html-keyboard-response","trial_index":198,"plugin_version":"2.1.0","time_elapsed":456439,"subject_id":"89018","group":"Group2","full_date":"2025-12-07T04:49:59.816Z","date":"2025-12-07","time":"04:49:59"},{"task":"memory_phase","broad_category":"M","image_png":"M_Phyllite_02.png","image_id":258,"category_name":"Phyllite","category":17,"distinct_rating":2.89,"distinct_type":"Bottom","rt":null,"stimulus":"Stimuli_Rocks480/M_Phyllite_02.png","response":null,"trial_type":"image-keyboard-response","trial_index":199,"plugin_version":"2.1.0","time_elapsed":458952,"subject_id":"89018","group":"Group2","full_date":"2025-12-07T04:49:59.816Z","date":"2025-12-07","time":"04:49:59"},{"rt":null,"stimulus":"<p style=\"font-size: 50px; margin: 0; text-align: center;\">+</p>","response":null,"trial_type":"html-keyboard-response","trial_index":200,"plugin_version":"2.1.0","time_elapsed":459966,"subject_id":"89018","group":"Group2","full_date":"2025-12-07T04:49:59.816Z","date":"2025-12-07","time":"04:49:59"},{"task":"memory_phase","broad_category":"S","image_png":"S_Shale_07.png","image_id":471,"category_name":"Shale","category":30,"distinct_rating":2.73,"distinct_type":"Bottom","rt":null,"stimulus":"Stimuli_Rocks480/S_Shale_07.png","response":null,"trial_type":"image-keyboard-response","trial_index":201,"plugin_version":"2.1.0","time_elapsed":462480,"subject_id":"89018","group":"Group2","full_date":"2025-12-07T04:49:59.816Z","date":"2025-12-07","time":"04:49:59"},{"rt":null,"stimulus":"<p style=\"font-size: 50px; margin: 0; text-align: center;\">+</p>","response":null,"trial_type":"html-keyboard-response","trial_index":202,"plugin_version":"2.1.0","time_elapsed":463487,"subject_id":"89018","group":"Group2","full_date":"2025-12-07T04:49:59.816Z","date":"2025-12-07","time":"04:49:59"},{"task":"memory_phase","broad_category":"M","image_png":"M_Slate_04.png","image_id":308,"category_name":"Slate","category":20,"distinct_rating":2.2,"distinct_type":"Bottom","rt":null,"stimulus":"Stimuli_Rocks480/M_Slate_04.png","response":null,"trial_type":"image-keyboard-response","trial_index":203,"plugin_version":"2.1.0","time_elapsed":465992,"subject_id":"89018","group":"Group2","full_date":"2025-12-07T04:49:59.816Z","date":"2025-12-07","time":"04:49:59"},{"rt":null,"stimulus":"<p style=\"font-size: 50px; margin: 0; text-align: center;\">+</p>","response":null,"trial_type":"html-keyboard-response","trial_index":204,"plugin_version":"2.1.0","time_elapsed":466999,"subject_id":"89018","group":"Group2","full_date":"2025-12-07T04:49:59.816Z","date":"2025-12-07","time":"04:49:59"},{"task":"memory_phase","broad_category":"S","image_png":"S_Rock Salt_15.png","image_id":447,"category_name":"Rock Salt","category":28,"distinct_rating":7.79,"distinct_type":"Top","rt":null,"stimulus":"Stimuli_Rocks480/S_Rock Salt_15.png","response":null,"trial_type":"image-keyboard-response","trial_index":205,"plugin_version":"2.1.0","time_elapsed":469508,"subject_id":"89018","group":"Group2","full_date":"2025-12-07T04:49:59.816Z","date":"2025-12-07","time":"04:49:59"},{"rt":null,"stimulus":"<p style=\"font-size: 50px; margin: 0; text-align: center;\">+</p>","response":null,"trial_type":"html-keyboard-response","trial_index":206,"plugin_version":"2.1.0","time_elapsed":470523,"subject_id":"89018","group":"Group2","full_date":"2025-12-07T04:49:59.816Z","date":"2025-12-07","time":"04:49:59"},{"task":"memory_phase","broad_category":"I","image_png":"I_Gabbro_12.png","image_id":60,"category_name":"Gabbro","category":4,"distinct_rating":2.6,"distinct_type":"Bottom","rt":null,"stimulus":"Stimuli_Rocks480/I_Gabbro_12.png","response":null,"trial_type":"image-keyboard-response","trial_index":207,"plugin_version":"2.1.0","time_elapsed":473035,"subject_id":"89018","group":"Group2","full_date":"2025-12-07T04:49:59.816Z","date":"2025-12-07","time":"04:49:59"},{"rt":3384,"stimulus":"<p style=\"max-width: 760px; margin: auto; font-size: 35px; line-height: 1.5;\">You have completed 2 study phases. Now, we'll show you all the images again 1 more time.<br><br>Press SPACE to continue</p>","response":" ","trial_type":"html-keyboard-response","trial_index":208,"plugin_version":"2.1.0","time_elapsed":476420,"subject_id":"89018","group":"Group2","full_date":"2025-12-07T04:49:59.816Z","date":"2025-12-07","time":"04:49:59"},{"rt":null,"stimulus":"<p style=\"font-size: 50px; margin: 0; text-align: center;\">+</p>","response":null,"trial_type":"html-keyboard-response","trial_index":209,"plugin_version":"2.1.0","time_elapsed":477433,"subject_id":"89018","group":"Group2","full_date":"2025-12-07T04:49:59.816Z","date":"2025-12-07","time":"04:49:59"},{"task":"memory_phase","broad_category":"I","image_png":"I_Basalt_10.png","image_id":26,"category_name":"Basalt","category":2,"distinct_rating":2.76,"distinct_type":"Bottom","rt":null,"stimulus":"Stimuli_Rocks480/I_Basalt_10.png","response":null,"trial_type":"image-keyboard-response","trial_index":210,"plugin_version":"2.1.0","time_elapsed":479941,"subject_id":"89018","group":"Group2","full_date":"2025-12-07T04:49:59.816Z","date":"2025-12-07","time":"04:49:59"},{"rt":null,"stimulus":"<p style=\"font-size: 50px; margin: 0; text-align: center;\">+</p>","response":null,"trial_type":"html-keyboard-response","trial_index":211,"plugin_version":"2.1.0","time_elapsed":480951,"subject_id":"89018","group":"Group2","full_date":"2025-12-07T04:49:59.816Z","date":"2025-12-07","time":"04:49:59"},{"task":"memory_phase","broad_category":"M","image_png":"M_Marble_02.png","image_id":226,"category_name":"Marble","category":15,"distinct_rating":3.2,"distinct_type":"Bottom","rt":null,"stimulus":"Stimuli_Rocks480/M_Marble_02.png","response":null,"trial_type":"image-keyboard-response","trial_index":212,"plugin_version":"2.1.0","time_elapsed":483459,"subject_id":"89018","group":"Group2","full_date":"2025-12-07T04:49:59.816Z","date":"2025-12-07","time":"04:49:59"},{"rt":null,"stimulus":"<p style=\"font-size: 50px; margin: 0; text-align: center;\">+</p>","response":null,"trial_type":"html-keyboard-response","trial_index":213,"plugin_version":"2.1.0","time_elapsed":484465,"subject_id":"89018","group":"Group2","full_date":"2025-12-07T04:49:59.816Z","date":"2025-12-07","time":"04:49:59"},{"task":"memory_phase","broad_category":"I","image_png":"I_Gabbro_12.png","image_id":60,"category_name":"Gabbro","category":4,"distinct_rating":2.6,"distinct_type":"Bottom","rt":null,"stimulus":"Stimuli_Rocks480/I_Gabbro_12.png","response":null,"trial_type":"image-keyboard-response","trial_index":214,"plugin_version":"2.1.0","time_elapsed":486981,"subject_id":"89018","group":"Group2","full_date":"2025-12-07T04:49:59.816Z","date":"2025-12-07","time":"04:49:59"},{"rt":null,"stimulus":"<p style=\"font-size: 50px; margin: 0; text-align: center;\">+</p>","response":null,"trial_type":"html-keyboard-response","trial_index":215,"plugin_version":"2.1.0","time_elapsed":487990,"subject_id":"89018","group":"Group2","full_date":"2025-12-07T04:49:59.816Z","date":"2025-12-07","time":"04:49:59"},{"task":"memory_phase","broad_category":"I","image_png":"I_Rhyolite_10.png","image_id":154,"category_name":"Rhyolite","category":10,"distinct_rating":2.88,"distinct_type":"Bottom","rt":null,"stimulus":"Stimuli_Rocks480/I_Rhyolite_10.png","response":null,"trial_type":"image-keyboard-response","trial_index":216,"plugin_version":"2.1.0","time_elapsed":490495,"subject_id":"89018","group":"Group2","full_date":"2025-12-07T04:49:59.816Z","date":"2025-12-07","time":"04:49:59"},{"rt":null,"stimulus":"<p style=\"font-size: 50px; margin: 0; text-align: center;\">+</p>","response":null,"trial_type":"html-keyboard-response","trial_index":217,"plugin_version":"2.1.0","time_elapsed":491502,"subject_id":"89018","group":"Group2","full_date":"2025-12-07T04:49:59.816Z","date":"2025-12-07","time":"04:49:59"},{"task":"memory_phase","broad_category":"I","image_png":"I_Rhyolite_05.png","image_id":149,"category_name":"Rhyolite","category":10,"distinct_rating":3.02,"distinct_type":"Bottom","rt":null,"stimulus":"Stimuli_Rocks480/I_Rhyolite_05.png","response":null,"trial_type":"image-keyboard-response","trial_index":218,"plugin_version":"2.1.0","time_elapsed":494005,"subject_id":"89018","group":"Group2","full_date":"2025-12-07T04:49:59.816Z","date":"2025-12-07","time":"04:49:59"},{"rt":null,"stimulus":"<p style=\"font-size: 50px; margin: 0; text-align: center;\">+</p>","response":null,"trial_type":"html-keyboard-response","trial_index":219,"plugin_version":"2.1.0","time_elapsed":495017,"subject_id":"89018","group":"Group2","full_date":"2025-12-07T04:49:59.816Z","date":"2025-12-07","time":"04:49:59"},{"task":"memory_phase","broad_category":"S","image_png":"S_Shale_07.png","image_id":471,"category_name":"Shale","category":30,"distinct_rating":2.73,"distinct_type":"Bottom","rt":null,"stimulus":"Stimuli_Rocks480/S_Shale_07.png","response":null,"trial_type":"image-keyboard-response","trial_index":220,"plugin_version":"2.1.0","time_elapsed":497530,"subject_id":"89018","group":"Group2","full_date":"2025-12-07T04:49:59.816Z","date":"2025-12-07","time":"04:49:59"},{"rt":null,"stimulus":"<p style=\"font-size: 50px; margin: 0; text-align: center;\">+</p>","response":null,"trial_type":"html-keyboard-response","trial_index":221,"plugin_version":"2.1.0","time_elapsed":498547,"subject_id":"89018","group":"Group2","full_date":"2025-12-07T04:49:59.816Z","date":"2025-12-07","time":"04:49:59"},{"task":"memory_phase","broad_category":"S","image_png":"S_Shale_03.png","image_id":467,"category_name":"Shale","category":30,"distinct_rating":1.95,"distinct_type":"Bottom","rt":null,"stimulus":"Stimuli_Rocks480/S_Shale_03.png","response":null,"trial_type":"image-keyboard-response","trial_index":222,"plugin_version":"2.1.0","time_elapsed":501055,"subject_id":"89018","group":"Group2","full_date":"2025-12-07T04:49:59.816Z","date":"2025-12-07","time":"04:49:59"},{"rt":null,"stimulus":"<p style=\"font-size: 50px; margin: 0; text-align: center;\">+</p>","response":null,"trial_type":"html-keyboard-response","trial_index":223,"plugin_version":"2.1.0","time_elapsed":502070,"subject_id":"89018","group":"Group2","full_date":"2025-12-07T04:49:59.816Z","date":"2025-12-07","time":"04:49:59"},{"task":"memory_phase","broad_category":"M","image_png":"M_Gneiss_10.png","image_id":202,"category_name":"Gneiss","category":13,"distinct_rating":3.09,"distinct_type":"Bottom","rt":null,"stimulus":"Stimuli_Rocks480/M_Gneiss_10.png","response":null,"trial_type":"image-keyboard-response","trial_index":224,"plugin_version":"2.1.0","time_elapsed":504585,"subject_id":"89018","group":"Group2","full_date":"2025-12-07T04:49:59.816Z","date":"2025-12-07","time":"04:49:59"},{"rt":null,"stimulus":"<p style=\"font-size: 50px; margin: 0; text-align: center;\">+</p>","response":null,"trial_type":"html-keyboard-response","trial_index":225,"plugin_version":"2.1.0","time_elapsed":505588,"subject_id":"89018","group":"Group2","full_date":"2025-12-07T04:49:59.816Z","date":"2025-12-07","time":"04:49:59"},{"task":"memory_phase","broad_category":"M","image_png":"M_Quartzite_07.png","image_id":279,"category_name":"Quartzite","category":18,"distinct_rating":1.97,"distinct_type":"Bottom","rt":null,"stimulus":"Stimuli_Rocks480/M_Quartzite_07.png","response":null,"trial_type":"image-keyboard-response","trial_index":226,"plugin_version":"2.1.0","time_elapsed":508093,"subject_id":"89018","group":"Group2","full_date":"2025-12-07T04:49:59.816Z","date":"2025-12-07","time":"04:49:59"},{"rt":null,"stimulus":"<p style=\"font-size: 50px; margin: 0; text-align: center;\">+</p>","response":null,"trial_type":"html-keyboard-response","trial_index":227,"plugin_version":"2.1.0","time_elapsed":509101,"subject_id":"89018","group":"Group2","full_date":"2025-12-07T04:49:59.816Z","date":"2025-12-07","time":"04:49:59"},{"task":"memory_phase","broad_category":"S","image_png":"S_Sandstone_08.png","image_id":456,"category_name":"Sandstone","category":29,"distinct_rating":1.5,"distinct_type":"Bottom","rt":null,"stimulus":"Stimuli_Rocks480/S_Sandstone_08.png","response":null,"trial_type":"image-keyboard-response","trial_index":228,"plugin_version":"2.1.0","time_elapsed":511606,"subject_id":"89018","group":"Group2","full_date":"2025-12-07T04:49:59.816Z","date":"2025-12-07","time":"04:49:59"},{"rt":null,"stimulus":"<p style=\"font-size: 50px; margin: 0; text-align: center;\">+</p>","response":null,"trial_type":"html-keyboard-response","trial_index":229,"plugin_version":"2.1.0","time_elapsed":512611,"subject_id":"89018","group":"Group2","full_date":"2025-12-07T04:49:59.816Z","date":"2025-12-07","time":"04:49:59"},{"task":"memory_phase","broad_category":"M","image_png":"M_Gneiss_15.png","image_id":207,"category_name":"Gneiss","category":13,"distinct_rating":3.11,"distinct_type":"Bottom","rt":null,"stimulus":"Stimuli_Rocks480/M_Gneiss_15.png","response":null,"trial_type":"image-keyboard-response","trial_index":230,"plugin_version":"2.1.0","time_elapsed":515124,"subject_id":"89018","group":"Group2","full_date":"2025-12-07T04:49:59.816Z","date":"2025-12-07","time":"04:49:59"},{"rt":null,"stimulus":"<p style=\"font-size: 50px; margin: 0; text-align: center;\">+</p>","response":null,"trial_type":"html-keyboard-response","trial_index":231,"plugin_version":"2.1.0","time_elapsed":516134,"subject_id":"89018","group":"Group2","full_date":"2025-12-07T04:49:59.816Z","date":"2025-12-07","time":"04:49:59"},{"task":"memory_phase","broad_category":"I","image_png":"I_Pumice_13.png","image_id":141,"category_name":"Pumice","category":9,"distinct_rating":3.12,"distinct_type":"Bottom","rt":null,"stimulus":"Stimuli_Rocks480/I_Pumice_13.png","response":null,"trial_type":"image-keyboard-response","trial_index":232,"plugin_version":"2.1.0","time_elapsed":518637,"subject_id":"89018","group":"Group2","full_date":"2025-12-07T04:49:59.816Z","date":"2025-12-07","time":"04:49:59"},{"rt":null,"stimulus":"<p style=\"font-size: 50px; margin: 0; text-align: center;\">+</p>","response":null,"trial_type":"html-keyboard-response","trial_index":233,"plugin_version":"2.1.0","time_elapsed":519650,"subject_id":"89018","group":"Group2","full_date":"2025-12-07T04:49:59.816Z","date":"2025-12-07","time":"04:49:59"},{"task":"memory_phase","broad_category":"S","image_png":"S_Dolomite_16.png","image_id":400,"category_name":"Dolomite","category":25,"distinct_rating":1.71,"distinct_type":"Bottom","rt":null,"stimulus":"Stimuli_Rocks480/S_Dolomite_16.png","response":null,"trial_type":"image-keyboard-response","trial_index":234,"plugin_version":"2.1.0","time_elapsed":522157,"subject_id":"89018","group":"Group2","full_date":"2025-12-07T04:49:59.816Z","date":"2025-12-07","time":"04:49:59"},{"rt":null,"stimulus":"<p style=\"font-size: 50px; margin: 0; text-align: center;\">+</p>","response":null,"trial_type":"html-keyboard-response","trial_index":235,"plugin_version":"2.1.0","time_elapsed":523165,"subject_id":"89018","group":"Group2","full_date":"2025-12-07T04:49:59.816Z","date":"2025-12-07","time":"04:49:59"},{"task":"memory_phase","broad_category":"S","image_png":"S_Sandstone_04.png","image_id":452,"category_name":"Sandstone","category":29,"distinct_rating":1.8,"distinct_type":"Bottom","rt":null,"stimulus":"Stimuli_Rocks480/S_Sandstone_04.png","response":null,"trial_type":"image-keyboard-response","trial_index":236,"plugin_version":"2.1.0","time_elapsed":525678,"subject_id":"89018","group":"Group2","full_date":"2025-12-07T04:49:59.816Z","date":"2025-12-07","time":"04:49:59"},{"rt":null,"stimulus":"<p style=\"font-size: 50px; margin: 0; text-align: center;\">+</p>","response":null,"trial_type":"html-keyboard-response","trial_index":237,"plugin_version":"2.1.0","time_elapsed":526689,"subject_id":"89018","group":"Group2","full_date":"2025-12-07T04:49:59.816Z","date":"2025-12-07","time":"04:49:59"},{"task":"memory_phase","broad_category":"I","image_png":"I_Pegmatite_11.png","image_id":107,"category_name":"Pegmatite","category":7,"distinct_rating":7.11,"distinct_type":"Top","rt":null,"stimulus":"Stimuli_Rocks480/I_Pegmatite_11.png","response":null,"trial_type":"image-keyboard-response","trial_index":238,"plugin_version":"2.1.0","time_elapsed":529195,"subject_id":"89018","group":"Group2","full_date":"2025-12-07T04:49:59.816Z","date":"2025-12-07","time":"04:49:59"},{"rt":null,"stimulus":"<p style=\"font-size: 50px; margin: 0; text-align: center;\">+</p>","response":null,"trial_type":"html-keyboard-response","trial_index":239,"plugin_version":"2.1.0","time_elapsed":530200,"subject_id":"89018","group":"Group2","full_date":"2025-12-07T04:49:59.816Z","date":"2025-12-07","time":"04:49:59"},{"task":"memory_phase","broad_category":"M","image_png":"M_Phyllite_02.png","image_id":258,"category_name":"Phyllite","category":17,"distinct_rating":2.89,"distinct_type":"Bottom","rt":null,"stimulus":"Stimuli_Rocks480/M_Phyllite_02.png","response":null,"trial_type":"image-keyboard-response","trial_index":240,"plugin_version":"2.1.0","time_elapsed":532707,"subject_id":"89018","group":"Group2","full_date":"2025-12-07T04:49:59.816Z","date":"2025-12-07","time":"04:49:59"},{"rt":null,"stimulus":"<p style=\"font-size: 50px; margin: 0; text-align: center;\">+</p>","response":null,"trial_type":"html-keyboard-response","trial_index":241,"plugin_version":"2.1.0","time_elapsed":533723,"subject_id":"89018","group":"Group2","full_date":"2025-12-07T04:49:59.816Z","date":"2025-12-07","time":"04:49:59"},{"task":"memory_phase","broad_category":"I","image_png":"I_Rhyolite_08.png","image_id":152,"category_name":"Rhyolite","category":10,"distinct_rating":1.38,"distinct_type":"Bottom","rt":null,"stimulus":"Stimuli_Rocks480/I_Rhyolite_08.png","response":null,"trial_type":"image-keyboard-response","trial_index":242,"plugin_version":"2.1.0","time_elapsed":536228,"subject_id":"89018","group":"Group2","full_date":"2025-12-07T04:49:59.816Z","date":"2025-12-07","time":"04:49:59"},{"rt":null,"stimulus":"<p style=\"font-size: 50px; margin: 0; text-align: center;\">+</p>","response":null,"trial_type":"html-keyboard-response","trial_index":243,"plugin_version":"2.1.0","time_elapsed":537235,"subject_id":"89018","group":"Group2","full_date":"2025-12-07T04:49:59.816Z","date":"2025-12-07","time":"04:49:59"},{"task":"memory_phase","broad_category":"S","image_png":"S_Dolomite_07.png","image_id":391,"category_name":"Dolomite","category":25,"distinct_rating":1.73,"distinct_type":"Bottom","rt":null,"stimulus":"Stimuli_Rocks480/S_Dolomite_07.png","response":null,"trial_type":"image-keyboard-response","trial_index":244,"plugin_version":"2.1.0","time_elapsed":539740,"subject_id":"89018","group":"Group2","full_date":"2025-12-07T04:49:59.816Z","date":"2025-12-07","time":"04:49:59"},{"rt":null,"stimulus":"<p style=\"font-size: 50px; margin: 0; text-align: center;\">+</p>","response":null,"trial_type":"html-keyboard-response","trial_index":245,"plugin_version":"2.1.0","time_elapsed":540750,"subject_id":"89018","group":"Group2","full_date":"2025-12-07T04:49:59.816Z","date":"2025-12-07","time":"04:49:59"},{"task":"memory_phase","broad_category":"S","image_png":"S_Rock Salt_13.png","image_id":445,"category_name":"Rock Salt","category":28,"distinct_rating":7.58,"distinct_type":"Top","rt":null,"stimulus":"Stimuli_Rocks480/S_Rock Salt_13.png","response":null,"trial_type":"image-keyboard-response","trial_index":246,"plugin_version":"2.1.0","time_elapsed":543260,"subject_id":"89018","group":"Group2","full_date":"2025-12-07T04:49:59.816Z","date":"2025-12-07","time":"04:49:59"},{"rt":null,"stimulus":"<p style=\"font-size: 50px; margin: 0; text-align: center;\">+</p>","response":null,"trial_type":"html-keyboard-response","trial_index":247,"plugin_version":"2.1.0","time_elapsed":544270,"subject_id":"89018","group":"Group2","full_date":"2025-12-07T04:49:59.816Z","date":"2025-12-07","time":"04:49:59"},{"task":"memory_phase","broad_category":"S","image_png":"S_Sandstone_11.png","image_id":459,"category_name":"Sandstone","category":29,"distinct_rating":1.82,"distinct_type":"Bottom","rt":null,"stimulus":"Stimuli_Rocks480/S_Sandstone_11.png","response":null,"trial_type":"image-keyboard-response","trial_index":248,"plugin