[{"width":1470,"height":831,"webaudio":true,"browser":"chrome","browser_version":"142.0.0","mobile":false,"os":"Mac OS","fullscreen":true,"vsync_rate":60,"webcam":true,"microphone":true,"trial_type":"browser-check","trial_index":0,"plugin_version":"2.1.0","time_elapsed":1012,"subject_id":"87644","group":"Group1","full_date":"2025-12-03T19:33:50.324Z","date":"2025-12-03","time":"19:33:50"},{"success":true,"timeout":false,"failed_images":[],"failed_audio":[],"failed_video":[],"trial_type":"preload","trial_index":1,"plugin_version":"2.1.0","time_elapsed":4064,"subject_id":"87644","group":"Group1","full_date":"2025-12-03T19:33:50.324Z","date":"2025-12-03","time":"19:33:50"},{"rt":4646,"url":"SONA_consent_memorability.html","trial_type":"external-html","trial_index":2,"plugin_version":"2.1.0","time_elapsed":8759,"subject_id":"87644","group":"Group1","full_date":"2025-12-03T19:33:50.324Z","date":"2025-12-03","time":"19:33:50"},{"success":true,"rt":1214,"trial_type":"fullscreen","trial_index":3,"plugin_version":"2.1.0","time_elapsed":10976,"subject_id":"87644","group":"Group1","full_date":"2025-12-03T19:33:50.324Z","date":"2025-12-03","time":"19:33:50"},{"rt":1746,"stimulus":"<div style=\"max-width: 760px; margin: auto; font-size: 20px; line-height: 1.5;\">\n      <h1 style=\"text-align:center; font-size: 30px;\">Instructions</h1>\n      <p>\n        Welcome to the study on <b>visual memory</b>. This experiment consists of <b>two phases</b>: \n        a <b>study phase</b> and a <b>test phase</b>.\n      </p>\n      <p>\n        In the study phase, you will see a series of rock images along with their category labels.\n        The images will appear one at a time.\n        <b>Your task</b> is to learn the categories to which the rock images belong \n        and to remember each image as accurately as possible.\n      </p> \n      <p>\n        Note that we will repeat the study phase <b>3 times</b>, \n        so you will have multiple opportunities to see and remember each image.\n      </p>\n      <p>\n        After the study phase, <b>your memory will be tested</b>. \n        Additional instructions for the test phase will be provided at that time.\n      </p>\n      <p>\n        If your computer has multiple <b>language settings</b> (e.g., English and another language),\n        please make sure it is set to English before starting.\n      </p>\n      <p>\n        You can track your progress using the <b>completion bar</b> at the top of the screen. \n        Please note that the bar will refresh when the test phase begins \n        to give you an accurate sense of your progress in both phases.\n      </p> \n      <p>\n        Press the button below when you are ready to begin.\n      </p>\n    </div>","response":0,"trial_type":"html-button-response","trial_index":4,"plugin_version":"2.1.0","time_elapsed":12725,"subject_id":"87644","group":"Group1","full_date":"2025-12-03T19:33:50.324Z","date":"2025-12-03","time":"19:33:50"},{"rt":null,"stimulus":"<p style=\"font-size: 50px; margin: 0; text-align: center;\">+</p>","response":null,"trial_type":"html-keyboard-response","trial_index":5,"plugin_version":"2.1.0","time_elapsed":13728,"subject_id":"87644","group":"Group1","full_date":"2025-12-03T19:33:50.324Z","date":"2025-12-03","time":"19:33:50"},{"task":"memory_phase","broad_category":"I","image_png":"I_Rhyolite_16.png","image_id":160,"category_name":"Rhyolite","category":10,"distinct_rating":2.19,"distinct_type":"Bottom","rt":null,"stimulus":"Stimuli_Rocks480/I_Rhyolite_16.png","response":null,"trial_type":"image-keyboard-response","trial_index":6,"plugin_version":"2.1.0","time_elapsed":16232,"subject_id":"87644","group":"Group1","full_date":"2025-12-03T19:33:50.324Z","date":"2025-12-03","time":"19:33:50"},{"rt":null,"stimulus":"<p style=\"font-size: 50px; margin: 0; text-align: center;\">+</p>","response":null,"trial_type":"html-keyboard-response","trial_index":7,"plugin_version":"2.1.0","time_elapsed":17234,"subject_id":"87644","group":"Group1","full_date":"2025-12-03T19:33:50.324Z","date":"2025-12-03","time":"19:33:50"},{"task":"memory_phase","broad_category":"I","image_png":"I_Obsidian_05.png","image_id":85,"category_name":"Obsidian","category":6,"distinct_rating":7.32,"distinct_type":"Top","rt":null,"stimulus":"Stimuli_Rocks480/I_Obsidian_05.png","response":null,"trial_type":"image-keyboard-response","trial_index":8,"plugin_version":"2.1.0","time_elapsed":19737,"subject_id":"87644","group":"Group1","full_date":"2025-12-03T19:33:50.324Z","date":"2025-12-03","time":"19:33:50"},{"rt":null,"stimulus":"<p style=\"font-size: 50px; margin: 0; text-align: center;\">+</p>","response":null,"trial_type":"html-keyboard-response","trial_index":9,"plugin_version":"2.1.0","time_elapsed":20740,"subject_id":"87644","group":"Group1","full_date":"2025-12-03T19:33:50.324Z","date":"2025-12-03","time":"19:33:50"},{"task":"memory_phase","broad_category":"S","image_png":"S_Dolomite_14.png","image_id":398,"category_name":"Dolomite","category":25,"distinct_rating":1.43,"distinct_type":"Bottom","rt":null,"stimulus":"Stimuli_Rocks480/S_Dolomite_14.png","response":null,"trial_type":"image-keyboard-response","trial_index":10,"plugin_version":"2.1.0","time_elapsed":23242,"subject_id":"87644","group":"Group1","full_date":"2025-12-03T19:33:50.324Z","date":"2025-12-03","time":"19:33:50"},{"rt":null,"stimulus":"<p style=\"font-size: 50px; margin: 0; text-align: center;\">+</p>","response":null,"trial_type":"html-keyboard-response","trial_index":11,"plugin_version":"2.1.0","time_elapsed":24244,"subject_id":"87644","group":"Group1","full_date":"2025-12-03T19:33:50.324Z","date":"2025-12-03","time":"19:33:50"},{"task":"memory_phase","broad_category":"S","image_png":"S_Dolomite_13.png","image_id":397,"category_name":"Dolomite","category":25,"distinct_rating":1.77,"distinct_type":"Bottom","rt":null,"stimulus":"Stimuli_Rocks480/S_Dolomite_13.png","response":null,"trial_type":"image-keyboard-response","trial_index":12,"plugin_version":"2.1.0","time_elapsed":26747,"subject_id":"87644","group":"Group1","full_date":"2025-12-03T19:33:50.324Z","date":"2025-12-03","time":"19:33:50"},{"rt":null,"stimulus":"<p style=\"font-size: 50px; margin: 0; text-align: center;\">+</p>","response":null,"trial_type":"html-keyboard-response","trial_index":13,"plugin_version":"2.1.0","time_elapsed":27750,"subject_id":"87644","group":"Group1","full_date":"2025-12-03T19:33:50.324Z","date":"2025-12-03","time":"19:33:50"},{"task":"memory_phase","broad_category":"M","image_png":"M_Slate_03.png","image_id":307,"category_name":"Slate","category":20,"distinct_rating":1.87,"distinct_type":"Bottom","rt":null,"stimulus":"Stimuli_Rocks480/M_Slate_03.png","response":null,"trial_type":"image-keyboard-response","trial_index":14,"plugin_version":"2.1.0","time_elapsed":30253,"subject_id":"87644","group":"Group1","full_date":"2025-12-03T19:33:50.324Z","date":"2025-12-03","time":"19:33:50"},{"rt":null,"stimulus":"<p style=\"font-size: 50px; margin: 0; text-align: center;\">+</p>","response":null,"trial_type":"html-keyboard-response","trial_index":15,"plugin_version":"2.1.0","time_elapsed":31256,"subject_id":"87644","group":"Group1","full_date":"2025-12-03T19:33:50.324Z","date":"2025-12-03","time":"19:33:50"},{"task":"memory_phase","broad_category":"M","image_png":"M_Phyllite_07.png","image_id":263,"category_name":"Phyllite","category":17,"distinct_rating":2.59,"distinct_type":"Bottom","rt":null,"stimulus":"Stimuli_Rocks480/M_Phyllite_07.png","response":null,"trial_type":"image-keyboard-response","trial_index":16,"plugin_version":"2.1.0","time_elapsed":33758,"subject_id":"87644","group":"Group1","full_date":"2025-12-03T19:33:50.324Z","date":"2025-12-03","time":"19:33:50"},{"rt":null,"stimulus":"<p style=\"font-size: 50px; margin: 0; text-align: center;\">+</p>","response":null,"trial_type":"html-keyboard-response","trial_index":17,"plugin_version":"2.1.0","time_elapsed":34759,"subject_id":"87644","group":"Group1","full_date":"2025-12-03T19:33:50.324Z","date":"2025-12-03","time":"19:33:50"},{"task":"memory_phase","broad_category":"M","image_png":"M_Gneiss_05.png","image_id":197,"category_name":"Gneiss","category":13,"distinct_rating":2.97,"distinct_type":"Bottom","rt":null,"stimulus":"Stimuli_Rocks480/M_Gneiss_05.png","response":null,"trial_type":"image-keyboard-response","trial_index":18,"plugin_version":"2.1.0","time_elapsed":37264,"subject_id":"87644","group":"Group1","full_date":"2025-12-03T19:33:50.324Z","date":"2025-12-03","time":"19:33:50"},{"rt":null,"stimulus":"<p style=\"font-size: 50px; margin: 0; text-align: center;\">+</p>","response":null,"trial_type":"html-keyboard-response","trial_index":19,"plugin_version":"2.1.0","time_elapsed":38266,"subject_id":"87644","group":"Group1","full_date":"2025-12-03T19:33:50.324Z","date":"2025-12-03","time":"19:33:50"},{"task":"memory_phase","broad_category":"S","image_png":"S_Breccia_11.png","image_id":347,"category_name":"Breccia","category":22,"distinct_rating":6.7,"distinct_type":"Top","rt":null,"stimulus":"Stimuli_Rocks480/S_Breccia_11.png","response":null,"trial_type":"image-keyboard-response","trial_index":20,"plugin_version":"2.1.0","time_elapsed":40770,"subject_id":"87644","group":"Group1","full_date":"2025-12-03T19:33:50.324Z","date":"2025-12-03","time":"19:33:50"},{"rt":null,"stimulus":"<p style=\"font-size: 50px; margin: 0; text-align: center;\">+</p>","response":null,"trial_type":"html-keyboard-response","trial_index":21,"plugin_version":"2.1.0","time_elapsed":41772,"subject_id":"87644","group":"Group1","full_date":"2025-12-03T19:33:50.324Z","date":"2025-12-03","time":"19:33:50"},{"task":"memory_phase","broad_category":"S","image_png":"S_Sandstone_15.png","image_id":463,"category_name":"Sandstone","category":29,"distinct_rating":2,"distinct_type":"Bottom","rt":null,"stimulus":"Stimuli_Rocks480/S_Sandstone_15.png","response":null,"trial_type":"image-keyboard-response","trial_index":22,"plugin_version":"2.1.0","time_elapsed":44275,"subject_id":"87644","group":"Group1","full_date":"2025-12-03T19:33:50.324Z","date":"2025-12-03","time":"19:33:50"},{"rt":null,"stimulus":"<p style=\"font-size: 50px; margin: 0; text-align: center;\">+</p>","response":null,"trial_type":"html-keyboard-response","trial_index":23,"plugin_version":"2.1.0","time_elapsed":45277,"subject_id":"87644","group":"Group1","full_date":"2025-12-03T19:33:50.324Z","date":"2025-12-03","time":"19:33:50"},{"task":"memory_phase","broad_category":"S","image_png":"S_Rock Salt_01.png","image_id":433,"category_name":"Rock Salt","category":28,"distinct_rating":7.18,"distinct_type":"Top","rt":null,"stimulus":"Stimuli_Rocks480/S_Rock Salt_01.png","response":null,"trial_type":"image-keyboard-response","trial_index":24,"plugin_version":"2.1.0","time_elapsed":47781,"subject_id":"87644","group":"Group1","full_date":"2025-12-03T19:33:50.324Z","date":"2025-12-03","time":"19:33:50"},{"rt":null,"stimulus":"<p style=\"font-size: 50px; margin: 0; text-align: center;\">+</p>","response":null,"trial_type":"html-keyboard-response","trial_index":25,"plugin_version":"2.1.0","time_elapsed":48788,"subject_id":"87644","group":"Group1","full_date":"2025-12-03T19:33:50.324Z","date":"2025-12-03","time":"19:33:50"},{"task":"memory_phase","broad_category":"S","image_png":"S_Sandstone_16.png","image_id":464,"category_name":"Sandstone","category":29,"distinct_rating":1.93,"distinct_type":"Bottom","rt":null,"stimulus":"Stimuli_Rocks480/S_Sandstone_16.png","response":null,"trial_type":"image-keyboard-response","trial_index":26,"plugin_version":"2.1.0","time_elapsed":51291,"subject_id":"87644","group":"Group1","full_date":"2025-12-03T19:33:50.324Z","date":"2025-12-03","time":"19:33:50"},{"rt":null,"stimulus":"<p style=\"font-size: 50px; margin: 0; text-align: center;\">+</p>","response":null,"trial_type":"html-keyboard-response","trial_index":27,"plugin_version":"2.1.0","time_elapsed":52294,"subject_id":"87644","group":"Group1","full_date":"2025-12-03T19:33:50.324Z","date":"2025-12-03","time":"19:33:50"},{"task":"memory_phase","broad_category":"I","image_png":"I_Pumice_08.png","image_id":136,"category_name":"Pumice","category":9,"distinct_rating":3.1,"distinct_type":"Bottom","rt":null,"stimulus":"Stimuli_Rocks480/I_Pumice_08.png","response":null,"trial_type":"image-keyboard-response","trial_index":28,"plugin_version":"2.1.0","time_elapsed":54797,"subject_id":"87644","group":"Group1","full_date":"2025-12-03T19:33:50.324Z","date":"2025-12-03","time":"19:33:50"},{"rt":null,"stimulus":"<p style=\"font-size: 50px; margin: 0; text-align: center;\">+</p>","response":null,"trial_type":"html-keyboard-response","trial_index":29,"plugin_version":"2.1.0","time_elapsed":55799,"subject_id":"87644","group":"Group1","full_date":"2025-12-03T19:33:50.324Z","date":"2025-12-03","time":"19:33:50"},{"task":"memory_phase","broad_category":"S","image_png":"S_Rock Gypsum_04.png","image_id":420,"category_name":"Rock Gypsum","category":27,"distinct_rating":7.61,"distinct_type":"Top","rt":null,"stimulus":"Stimuli_Rocks480/S_Rock Gypsum_04.png","response":null,"trial_type":"image-keyboard-response","trial_index":30,"plugin_version":"2.1.0","time_elapsed":58303,"subject_id":"87644","group":"Group1","full_date":"2025-12-03T19:33:50.324Z","date":"2025-12-03","time":"19:33:50"},{"rt":null,"stimulus":"<p style=\"font-size: 50px; margin: 0; text-align: center;\">+</p>","response":null,"trial_type":"html-keyboard-response","trial_index":31,"plugin_version":"2.1.0","time_elapsed":59305,"subject_id":"87644","group":"Group1","full_date":"2025-12-03T19:33:50.324Z","date":"2025-12-03","time":"19:33:50"},{"task":"memory_phase","broad_category":"I","image_png":"I_Diorite_05.png","image_id":37,"category_name":"Diorite","category":3,"distinct_rating":3.08,"distinct_type":"Bottom","rt":null,"stimulus":"Stimuli_Rocks480/I_Diorite_05.png","response":null,"trial_type":"image-keyboard-response","trial_index":32,"plugin_version":"2.1.0","time_elapsed":61808,"subject_id":"87644","group":"Group1","full_date":"2025-12-03T19:33:50.324Z","date":"2025-12-03","time":"19:33:50"},{"rt":null,"stimulus":"<p style=\"font-size: 50px; margin: 0; text-align: center;\">+</p>","response":null,"trial_type":"html-keyboard-response","trial_index":33,"plugin_version":"2.1.0","time_elapsed":62811,"subject_id":"87644","group":"Group1","full_date":"2025-12-03T19:33:50.324Z","date":"2025-12-03","time":"19:33:50"},{"task":"memory_phase","broad_category":"M","image_png":"M_Slate_11.png","image_id":315,"category_name":"Slate","category":20,"distinct_rating":2.75,"distinct_type":"Bottom","rt":null,"stimulus":"Stimuli_Rocks480/M_Slate_11.png","response":null,"trial_type":"image-keyboard-response","trial_index":34,"plugin_version":"2.1.0","time_elapsed":65314,"subject_id":"87644","group":"Group1","full_date":"2025-12-03T19:33:50.324Z","date":"2025-12-03","time":"19:33:50"},{"rt":null,"stimulus":"<p style=\"font-size: 50px; margin: 0; text-align: center;\">+</p>","response":null,"trial_type":"html-keyboard-response","trial_index":35,"plugin_version":"2.1.0","time_elapsed":66317,"subject_id":"87644","group":"Group1","full_date":"2025-12-03T19:33:50.324Z","date":"2025-12-03","time":"19:33:50"},{"task":"memory_phase","broad_category":"M","image_png":"M_Marble_06.png","image_id":230,"category_name":"Marble","category":15,"distinct_rating":3.4,"distinct_type":"Bottom","rt":null,"stimulus":"Stimuli_Rocks480/M_Marble_06.png","response":null,"trial_type":"image-keyboard-response","trial_index":36,"plugin_version":"2.1.0","time_elapsed":68820,"subject_id":"87644","group":"Group1","full_date":"2025-12-03T19:33:50.324Z","date":"2025-12-03","time":"19:33:50"},{"rt":null,"stimulus":"<p style=\"font-size: 50px; margin: 0; text-align: center;\">+</p>","response":null,"trial_type":"html-keyboard-response","trial_index":37,"plugin_version":"2.1.0","time_elapsed":69822,"subject_id":"87644","group":"Group1","full_date":"2025-12-03T19:33:50.324Z","date":"2025-12-03","time":"19:33:50"},{"task":"memory_phase","broad_category":"I","image_png":"I_Rhyolite_11.png","image_id":155,"category_name":"Rhyolite","category":10,"distinct_rating":1.73,"distinct_type":"Bottom","rt":null,"stimulus":"Stimuli_Rocks480/I_Rhyolite_11.png","response":null,"trial_type":"image-keyboard-response","trial_index":38,"plugin_version":"2.1.0","time_elapsed":72325,"subject_id":"87644","group":"Group1","full_date":"2025-12-03T19:33:50.324Z","date":"2025-12-03","time":"19:33:50"},{"rt":null,"stimulus":"<p style=\"font-size: 50px; margin: 0; text-align: center;\">+</p>","response":null,"trial_type":"html-keyboard-response","trial_index":39,"plugin_version":"2.1.0","time_elapsed":73328,"subject_id":"87644","group":"Group1","full_date":"2025-12-03T19:33:50.324Z","date":"2025-12-03","time":"19:33:50"},{"task":"memory_phase","broad_category":"I","image_png":"I_Basalt_09.png","image_id":25,"category_name":"Basalt","category":2,"distinct_rating":1.89,"distinct_type":"Bottom","rt":null,"stimulus":"Stimuli_Rocks480/I_Basalt_09.png","response":null,"trial_type":"image-keyboard-response","trial_index":40,"plugin_version":"2.1.0","time_elapsed":75831,"subject_id":"87644","group":"Group1","full_date":"2025-12-03T19:33:50.324Z","date":"2025-12-03","time":"19:33:50"},{"rt":null,"stimulus":"<p style=\"font-size: 50px; margin: 0; text-align: center;\">+</p>","response":null,"trial_type":"html-keyboard-response","trial_index":41,"plugin_version":"2.1.0","time_elapsed":76833,"subject_id":"87644","group":"Group1","full_date":"2025-12-03T19:33:50.324Z","date":"2025-12-03","time":"19:33:50"},{"task":"memory_phase","broad_category":"M","image_png":"M_Phyllite_10.png","image_id":266,"category_name":"Phyllite","category":17,"distinct_rating":2.6,"distinct_type":"Bottom","rt":null,"stimulus":"Stimuli_Rocks480/M_Phyllite_10.png","response":null,"trial_type":"image-keyboard-response","trial_index":42,"plugin_version":"2.1.0","time_elapsed":79336,"subject_id":"87644","group":"Group1","full_date":"2025-12-03T19:33:50.324Z","date":"2025-12-03","time":"19:33:50"},{"rt":null,"stimulus":"<p style=\"font-size: 50px; margin: 0; text-align: center;\">+</p>","response":null,"trial_type":"html-keyboard-response","trial_index":43,"plugin_version":"2.1.0","time_elapsed":80338,"subject_id":"87644","group":"Group1","full_date":"2025-12-03T19:33:50.324Z","date":"2025-12-03","time":"19:33:50"},{"task":"memory_phase","broad_category":"M","image_png":"M_Phyllite_03.png","image_id":259,"category_name":"Phyllite","category":17,"distinct_rating":2.5,"distinct_type":"Bottom","rt":null,"stimulus":"Stimuli_Rocks480/M_Phyllite_03.png","response":null,"trial_type":"image-keyboard-response","trial_index":44,"plugin_version":"2.1.0","time_elapsed":82841,"subject_id":"87644","group":"Group1","full_date":"2025-12-03T19:33:50.324Z","date":"2025-12-03","time":"19:33:50"},{"rt":null,"stimulus":"<p style=\"font-size: 50px; margin: 0; text-align: center;\">+</p>","response":null,"trial_type":"html-keyboard-response","trial_index":45,"plugin_version":"2.1.0","time_elapsed":83843,"subject_id":"87644","group":"Group1","full_date":"2025-12-03T19:33:50.324Z","date":"2025-12-03","time":"19:33:50"},{"task":"memory_phase","broad_category":"I","image_png":"I_Andesite_10.png","image_id":10,"category_name":"Andesite","category":1,"distinct_rating":3.15,"distinct_type":"Bottom","rt":null,"stimulus":"Stimuli_Rocks480/I_Andesite_10.png","response":null,"trial_type":"image-keyboard-response","trial_index":46,"plugin_version":"2.1.0","time_elapsed":86346,"subject_id":"87644","group":"Group1","full_date":"2025-12-03T19:33:50.324Z","date":"2025-12-03","time":"19:33:50"},{"rt":null,"stimulus":"<p style=\"font-size: 50px; margin: 0; text-align: center;\">+</p>","response":null,"trial_type":"html-keyboard-response","trial_index":47,"plugin_version":"2.1.0","time_elapsed":87348,"subject_id":"87644","group":"Group1","full_date":"2025-12-03T19:33:50.324Z","date":"2025-12-03","time":"19:33:50"},{"task":"memory_phase","broad_category":"I","image_png":"I_Diorite_04.png","image_id":36,"category_name":"Diorite","category":3,"distinct_rating":2.98,"distinct_type":"Bottom","rt":null,"stimulus":"Stimuli_Rocks480/I_Diorite_04.png","response":null,"trial_type":"image-keyboard-response","trial_index":48,"plugin_version":"2.1.0","time_elapsed":89852,"subject_id":"87644","group":"Group1","full_date":"2025-12-03T19:33:50.324Z","date":"2025-12-03","time":"19:33:50"},{"rt":null,"stimulus":"<p style=\"font-size: 50px; margin: 0; text-align: center;\">+</p>","response":null,"trial_type":"html-keyboard-response","trial_index":49,"plugin_version":"2.1.0","time_elapsed":90854,"subject_id":"87644","group":"Group1","full_date":"2025-12-03T19:33:50.324Z","date":"2025-12-03","time":"19:33:50"},{"task":"memory_phase","broad_category":"M","image_png":"M_Gneiss_06.png","image_id":198,"category_name":"Gneiss","category":13,"distinct_rating":2.65,"distinct_type":"Bottom","rt":null,"stimulus":"Stimuli_Rocks480/M_Gneiss_06.png","response":null,"trial_type":"image-keyboard-response","trial_index":50,"plugin_version":"2.1.0","time_elapsed":93358,"subject_id":"87644","group":"Group1","full_date":"2025-12-03T19:33:50.324Z","date":"2025-12-03","time":"19:33:50"},{"rt":null,"stimulus":"<p style=\"font-size: 50px; margin: 0; text-align: center;\">+</p>","response":null,"trial_type":"html-keyboard-response","trial_index":51,"plugin_version":"2.1.0","time_elapsed":94360,"subject_id":"87644","group":"Group1","full_date":"2025-12-03T19:33:50.324Z","date":"2025-12-03","time":"19:33:50"},{"task":"memory_phase","broad_category":"S","image_png":"S_Chert_10.png","image_id":362,"category_name":"Chert","category":23,"distinct_rating":7.17,"distinct_type":"Top","rt":null,"stimulus":"Stimuli_Rocks480/S_Chert_10.png","response":null,"trial_type":"image-keyboard-response","trial_index":52,"plugin_version":"2.1.0","time_elapsed":96864,"subject_id":"87644","group":"Group1","full_date":"2025-12-03T19:33:50.324Z","date":"2025-12-03","time":"19:33:50"},{"rt":null,"stimulus":"<p style=\"font-size: 50px; margin: 0; text-align: center;\">+</p>","response":null,"trial_type":"html-keyboard-response","trial_index":53,"plugin_version":"2.1.0","time_elapsed":97866,"subject_id":"87644","group":"Group1","full_date":"2025-12-03T19:33:50.324Z","date":"2025-12-03","time":"19:33:50"},{"task":"memory_phase","broad_category":"S","image_png":"S_Shale_01.png","image_id":465,"category_name":"Shale","category":30,"distinct_rating":2.7,"distinct_type":"Bottom","rt":null,"stimulus":"Stimuli_Rocks480/S_Shale_01.png","response":null,"trial_type":"image-keyboard-response","trial_index":54,"plugin_version":"2.1.0","time_elapsed":100370,"subject_id":"87644","group":"Group1","full_date":"2025-12-03T19:33:50.324Z","date":"2025-12-03","time":"19:33:50"},{"rt":41913,"stimulus":"<p style=\"max-width: 760px; margin: auto; font-size: 35px; line-height: 1.5;\">Press SPACE to continue study phase</p>","response":" ","trial_type":"html-keyboard-response","trial_index":55,"plugin_version":"2.1.0","time_elapsed":142284,"subject_id":"87644","group":"Group1","full_date":"2025-12-03T19:33:50.324Z","date":"2025-12-03","time":"19:33:50"},{"rt":null,"stimulus":"<p style=\"font-size: 50px; margin: 0; text-align: center;\">+</p>","response":null,"trial_type":"html-keyboard-response","trial_index":56,"plugin_version":"2.1.0","time_elapsed":143286,"subject_id":"87644","group":"Group1","full_date":"2025-12-03T19:33:50.324Z","date":"2025-12-03","time":"19:33:50"},{"task":"memory_phase","broad_category":"I","image_png":"I_Pegmatite_10.png","image_id":106,"category_name":"Pegmatite","category":7,"distinct_rating":7.66,"distinct_type":"Top","rt":null,"stimulus":"Stimuli_Rocks480/I_Pegmatite_10.png","response":null,"trial_type":"image-keyboard-response","trial_index":57,"plugin_version":"2.1.0","time_elapsed":145790,"subject_id":"87644","group":"Group1","full_date":"2025-12-03T19:33:50.324Z","date":"2025-12-03","time":"19:33:50"},{"rt":null,"stimulus":"<p style=\"font-size: 50px; margin: 0; text-align: center;\">+</p>","response":null,"trial_type":"html-keyboard-response","trial_index":58,"plugin_version":"2.1.0","time_elapsed":146792,"subject_id":"87644","group":"Group1","full_date":"2025-12-03T19:33:50.324Z","date":"2025-12-03","time":"19:33:50"},{"task":"memory_phase","broad_category":"M","image_png":"M_Slate_15.png","image_id":319,"category_name":"Slate","category":20,"distinct_rating":2.13,"distinct_type":"Bottom","rt":null,"stimulus":"Stimuli_Rocks480/M_Slate_15.png","response":null,"trial_type":"image-keyboard-response","trial_index":59,"plugin_version":"2.1.0","time_elapsed":149295,"subject_id":"87644","group":"Group1","full_date":"2025-12-03T19:33:50.324Z","date":"2025-12-03","time":"19:33:50"},{"rt":null,"stimulus":"<p style=\"font-size: 50px; margin: 0; text-align: center;\">+</p>","response":null,"trial_type":"html-keyboard-response","trial_index":60,"plugin_version":"2.1.0","time_elapsed":150298,"subject_id":"87644","group":"Group1","full_date":"2025-12-03T19:33:50.324Z","date":"2025-12-03","time":"19:33:50"},{"task":"memory_phase","broad_category":"S","image_png":"S_Shale_12.png","image_id":476,"category_name":"Shale","category":30,"distinct_rating":2.48,"distinct_type":"Bottom","rt":null,"stimulus":"Stimuli_Rocks480/S_Shale_12.png","response":null,"trial_type":"image-keyboard-response","trial_index":61,"plugin_version":"2.1.0","time_elapsed":152801,"subject_id":"87644","group":"Group1","full_date":"2025-12-03T19:33:50.324Z","date":"2025-12-03","time":"19:33:50"},{"rt":null,"stimulus":"<p style=\"font-size: 50px; margin: 0; text-align: center;\">+</p>","response":null,"trial_type":"html-keyboard-response","trial_index":62,"plugin_version":"2.1.0","time_elapsed":153803,"subject_id":"87644","group":"Group1","full_date":"2025-12-03T19:33:50.324Z","date":"2025-12-03","time":"19:33:50"},{"task":"memory_phase","broad_category":"I","image_png":"I_Andesite_08.png","image_id":8,"category_name":"Andesite","category":1,"distinct_rating":1.95,"distinct_type":"Bottom","rt":null,"stimulus":"Stimuli_Rocks480/I_Andesite_08.png","response":null,"trial_type":"image-keyboard-response","trial_index":63,"plugin_version":"2.1.0","time_elapsed":156306,"subject_id":"87644","group":"Group1","full_date":"2025-12-03T19:33:50.324Z","date":"2025-12-03","time":"19:33:50"},{"rt":null,"stimulus":"<p style=\"font-size: 50px; margin: 0; text-align: center;\">+</p>","response":null,"trial_type":"html-keyboard-response","trial_index":64,"plugin_version":"2.1.0","time_elapsed":157308,"subject_id":"87644","group":"Group1","full_date":"2025-12-03T19:33:50.324Z","date":"2025-12-03","time":"19:33:50"},{"task":"memory_phase","broad_category":"M","image_png":"M_Gneiss_13.png","image_id":205,"category_name":"Gneiss","category":13,"distinct_rating":3.26,"distinct_type":"Bottom","rt":null,"stimulus":"Stimuli_Rocks480/M_Gneiss_13.png","response":null,"trial_type":"image-keyboard-response","trial_index":65,"plugin_version":"2.1.0","time_elapsed":159811,"subject_id":"87644","group":"Group1","full_date":"2025-12-03T19:33:50.324Z","date":"2025-12-03","time":"19:33:50"},{"rt":null,"stimulus":"<p style=\"font-size: 50px; margin: 0; text-align: center;\">+</p>","response":null,"trial_type":"html-keyboard-response","trial_index":66,"plugin_version":"2.1.0","time_elapsed":160880,"subject_id":"87644","group":"Group1","full_date":"2025-12-03T19:33:50.324Z","date":"2025-12-03","time":"19:33:50"},{"task":"memory_phase","broad_category":"I","image_png":"I_Pumice_12.png","image_id":140,"category_name":"Pumice","category":9,"distinct_rating":2.97,"distinct_type":"Bottom","rt":null,"stimulus":"Stimuli_Rocks480/I_Pumice_12.png","response":null,"trial_type":"image-keyboard-response","trial_index":67,"plugin_version":"2.1.0","time_elapsed":163880,"subject_id":"87644","group":"Group1","full_date":"2025-12-03T19:33:50.324Z","date":"2025-12-03","time":"19:33:50"},{"rt":null,"stimulus":"<p style=\"font-size: 50px; margin: 0; text-align: center;\">+</p>","response":null,"trial_type":"html-keyboard-response","trial_index":68,"plugin_version":"2.1.0","time_elapsed":165880,"subject_id":"87644","group":"Group1","full_date":"2025-12-03T19:33:50.324Z","date":"2025-12-03","time":"19:33:50"},{"task":"memory_phase","broad_category":"I","image_png":"I_Rhyolite_14.png","image_id":158,"category_name":"Rhyolite","category":10,"distinct_rating":2.59,"distinct_type":"Bottom","rt":null,"stimulus":"Stimuli_Rocks480/I_Rhyolite_14.png","response":null,"trial_type":"image-keyboard-response","trial_index":69,"plugin_version":"2.1.0","time_elapsed":168386,"subject_id":"87644","group":"Group1","full_date":"2025-12-03T19:33:50.324Z","date":"2025-12-03","time":"19:33:50"},{"rt":null,"stimulus":"<p style=\"font-size: 50px; margin: 0; text-align: center;\">+</p>","response":null,"trial_type":"html-keyboard-response","trial_index":70,"plugin_version":"2.1.0","time_elapsed":169389,"subject_id":"87644","group":"Group1","full_date":"2025-12-03T19:33:50.324Z","date":"2025-12-03","time":"19:33:50"},{"task":"memory_phase","broad_category":"M","image_png":"M_Marble_04.png","image_id":228,"category_name":"Marble","category":15,"distinct_rating":3.15,"distinct_type":"Bottom","rt":null,"stimulus":"Stimuli_Rocks480/M_Marble_04.png","response":null,"trial_type":"image-keyboard-response","trial_index":71,"plugin_version":"2.1.0","time_elapsed":171891,"subject_id":"87644","group":"Group1","full_date":"2025-12-03T19:33:50.324Z","date":"2025-12-03","time":"19:33:50"},{"rt":null,"stimulus":"<p style=\"font-size: 50px; margin: 0; text-align: center;\">+</p>","response":null,"trial_type":"html-keyboard-response","trial_index":72,"plugin_version":"2.1.0","time_elapsed":172893,"subject_id":"87644","group":"Group1","full_date":"2025-12-03T19:33:50.324Z","date":"2025-12-03","time":"19:33:50"},{"task":"memory_phase","broad_category":"I","image_png":"I_Basalt_02.png","image_id":18,"category_name":"Basalt","category":2,"distinct_rating":1.84,"distinct_type":"Bottom","rt":null,"stimulus":"Stimuli_Rocks480/I_Basalt_02.png","response":null,"trial_type":"image-keyboard-response","trial_index":73,"plugin_version":"2.1.0","time_elapsed":175880,"subject_id":"87644","group":"Group1","full_date":"2025-12-03T19:33:50.324Z","date":"2025-12-03","time":"19:33:50"},{"rt":null,"stimulus":"<p style=\"font-size: 50px; margin: 0; text-align: center;\">+</p>","response":null,"trial_type":"html-keyboard-response","trial_index":74,"plugin_version":"2.1.0","time_elapsed":177880,"subject_id":"87644","group":"Group1","full_date":"2025-12-03T19:33:50.324Z","date":"2025-12-03","time":"19:33:50"},{"task":"memory_phase","broad_category":"M","image_png":"M_Quartzite_05.png","image_id":277,"category_name":"Quartzite","category":18,"distinct_rating":2.23,"distinct_type":"Bottom","rt":null,"stimulus":"Stimuli_Rocks480/M_Quartzite_05.png","response":null,"trial_type":"image-keyboard-response","trial_index":75,"plugin_version":"2.1.0","time_elapsed":180880,"subject_id":"87644","group":"Group1","full_date":"2025-12-03T19:33:50.324Z","date":"2025-12-03","time":"19:33:50"},{"rt":null,"stimulus":"<p style=\"font-size: 50px; margin: 0; text-align: center;\">+</p>","response":null,"trial_type":"html-keyboard-response","trial_index":76,"plugin_version":"2.1.0","time_elapsed":182880,"subject_id":"87644","group":"Group1","full_date":"2025-12-03T19:33:50.324Z","date":"2025-12-03","time":"19:33:50"},{"task":"memory_phase","broad_category":"I","image_png":"I_Gabbro_11.png","image_id":59,"category_name":"Gabbro","category":4,"distinct_rating":1.99,"distinct_type":"Bottom","rt":null,"stimulus":"Stimuli_Rocks480/I_Gabbro_11.png","response":null,"trial_type":"image-keyboard-response","trial_index":77,"plugin_version":"2.1.0","time_elapsed":185880,"subject_id":"87644","group":"Group1","full_date":"2025-12-03T19:33:50.324Z","date":"2025-12-03","time":"19:33:50"},{"rt":null,"stimulus":"<p style=\"font-size: 50px; margin: 0; text-align: center;\">+</p>","response":null,"trial_type":"html-keyboard-response","trial_index":78,"plugin_version":"2.1.0","time_elapsed":187880,"subject_id":"87644","group":"Group1","full_date":"2025-12-03T19:33:50.324Z","date":"2025-12-03","time":"19:33:50"},{"task":"memory_phase","broad_category":"I","image_png":"I_Gabbro_16.png","image_id":64,"category_name":"Gabbro","category":4,"distinct_rating":2.52,"distinct_type":"Bottom","rt":null,"stimulus":"Stimuli_Rocks480/I_Gabbro_16.png","response":null,"trial_type":"image-keyboard-response","trial_index":79,"plugin_version":"2.1.0","time_elapsed":190880,"subject_id":"87644","group":"Group1","full_date":"2025-12-03T19:33:50.324Z","date":"2025-12-03","time":"19:33:50"},{"rt":null,"stimulus":"<p style=\"font-size: 50px; margin: 0; text-align: center;\">+</p>","response":null,"trial_type":"html-keyboard-response","trial_index":80,"plugin_version":"2.1.0","time_elapsed":192880,"subject_id":"87644","group":"Group1","full_date":"2025-12-03T19:33:50.324Z","date":"2025-12-03","time":"19:33:50"},{"task":"memory_phase","broad_category":"I","image_png":"I_Pegmatite_16.png","image_id":112,"category_name":"Pegmatite","category":7,"distinct_rating":7.03,"distinct_type":"Top","rt":null,"stimulus":"Stimuli_Rocks480/I_Pegmatite_16.png","response":null,"trial_type":"image-keyboard-response","trial_index":81,"plugin_version":"2.1.0","time_elapsed":195881,"subject_id":"87644","group":"Group1","full_date":"2025-12-03T19:33:50.324Z","date":"2025-12-03","time":"19:33:50"},{"rt":null,"stimulus":"<p style=\"font-size: 50px; margin: 0; text-align: center;\">+</p>","response":null,"trial_type":"html-keyboard-response","trial_index":82,"plugin_version":"2.1.0","time_elapsed":197880,"subject_id":"87644","group":"Group1","full_date":"2025-12-03T19:33:50.324Z","date":"2025-12-03","time":"19:33:50"},{"task":"memory_phase","broad_category":"I","image_png":"I_Pumice_11.png","image_id":139,"category_name":"Pumice","category":9,"distinct_rating":1.74,"distinct_type":"Bottom","rt":null,"stimulus":"Stimuli_Rocks480/I_Pumice_11.png","response":null,"trial_type":"image-keyboard-response","trial_index":83,"plugin_version":"2.1.0","time_elapsed":200880,"subject_id":"87644","group":"Group1","full_date":"2025-12-03T19:33:50.324Z","date":"2025-12-03","time":"19:33:50"},{"rt":null,"stimulus":"<p style=\"font-size: 50px; margin: 0; text-align: center;\">+</p>","response":null,"trial_type":"html-keyboard-response","trial_index":84,"plugin_version":"2.1.0","time_elapsed":202880,"subject_id":"87644","group":"Group1","full_date":"2025-12-03T19:33:50.324Z","date":"2025-12-03","time":"19:33:50"},{"task":"memory_phase","broad_category":"I","image_png":"I_Gabbro_08.png","image_id":56,"category_name":"Gabbro","category":4,"distinct_rating":3.02,"distinct_type":"Bottom","rt":null,"stimulus":"Stimuli_Rocks480/I_Gabbro_08.png","response":null,"trial_type":"image-keyboard-response","trial_index":85,"plugin_version":"2.1.0","time_elapsed":205881,"subject_id":"87644","group":"Group1","full_date":"2025-12-03T19:33:50.324Z","date":"2025-12-03","time":"19:33:50"},{"rt":null,"stimulus":"<p style=\"font-size: 50px; margin: 0; text-align: center;\">+</p>","response":null,"trial_type":"html-keyboard-response","trial_index":86,"plugin_version":"2.1.0","time_elapsed":207880,"subject_id":"87644","group":"Group1","full_date":"2025-12-03T19:33:50.324Z","date":"2025-12-03","time":"19:33:50"},{"task":"memory_phase","broad_category":"M","image_png":"M_Marble_16.png","image_id":240,"category_name":"Marble","category":15,"distinct_rating":2.57,"distinct_type":"Bottom","rt":null,"stimulus":"Stimuli_Rocks480/M_Marble_16.png","response":null,"trial_type":"image-keyboard-response","trial_index":87,"plugin_version":"2.1.0","time_elapsed":210384,"subject_id":"87644","group":"Group1","full_date":"2025-12-03T19:33:50.324Z","date":"2025-12-03","time":"19:33:50"},{"rt":null,"stimulus":"<p style=\"font-size: 50px; margin: 0; text-align: center;\">+</p>","response":null,"trial_type":"html-keyboard-response","trial_index":88,"plugin_version":"2.1.0","time_elapsed":211386,"subject_id":"87644","group":"Group1","full_date":"2025-12-03T19:33:50.324Z","date":"2025-12-03","time":"19:33:50"},{"task":"memory_phase","broad_category":"S","image_png":"S_Shale_08.png","image_id":472,"category_name":"Shale","category":30,"distinct_rating":2.55,"distinct_type":"Bottom","rt":null,"stimulus":"Stimuli_Rocks480/S_Shale_08.png","response":null,"trial_type":"image-keyboard-response","trial_index":89,"plugin_version":"2.1.0","time_elapsed":213889,"subject_id":"87644","group":"Group1","full_date":"2025-12-03T19:33:50.324Z","date":"2025-12-03","time":"19:33:50"},{"rt":null,"stimulus":"<p style=\"font-size: 50px; margin: 0; text-align: center;\">+</p>","response":null,"trial_type":"html-keyboard-response","trial_index":90,"plugin_version":"2.1.0","time_elapsed":214891,"subject_id":"87644","group":"Group1","full_date":"2025-12-03T19:33:50.324Z","date":"2025-12-03","time":"19:33:50"},{"task":"memory_phase","broad_category":"M","image_png":"M_Quartzite_08.png","image_id":280,"category_name":"Quartzite","category":18,"distinct_rating":2.15,"distinct_type":"Bottom","rt":null,"stimulus":"Stimuli_Rocks480/M_Quartzite_08.png","response":null,"trial_type":"image-keyboard-response","trial_index":91,"plugin_version":"2.1.0","time_elapsed":217394,"subject_id":"87644","group":"Group1","full_date":"2025-12-03T19:33:50.324Z","date":"2025-12-03","time":"19:33:50"},{"rt":null,"stimulus":"<p style=\"font-size: 50px; margin: 0; text-align: center;\">+</p>","response":null,"trial_type":"html-keyboard-response","trial_index":92,"plugin_version":"2.1.0","time_elapsed":218397,"subject_id":"87644","group":"Group1","full_date":"2025-12-03T19:33:50.324Z","date":"2025-12-03","time":"19:33:50"},{"task":"memory_phase","broad_category":"S","image_png":"S_Sandstone_03.png","image_id":451,"category_name":"Sandstone","category":29,"distinct_rating":1.86,"distinct_type":"Bottom","rt":null,"stimulus":"Stimuli_Rocks480/S_Sandstone_03.png","response":null,"trial_type":"image-keyboard-response","trial_index":93,"plugin_version":"2.1.0","time_elapsed":221881,"subject_id":"87644","group":"Group1","full_date":"2025-12-03T19:33:50.324Z","date":"2025-12-03","time":"19:33:50"},{"rt":null,"stimulus":"<p style=\"font-size: 50px; margin: 0; text-align: center;\">+</p>","response":null,"trial_type":"html-keyboard-response","trial_index":94,"plugin_version":"2.1.0","time_elapsed":223881,"subject_id":"87644","group":"Group1","full_date":"2025-12-03T19:33:50.324Z","date":"2025-12-03","time":"19:33:50"},{"task":"memory_phase","broad_category":"S","image_png":"S_Conglomerate_05.png","image_id":373,"category_name":"Conglomerate","category":24,"distinct_rating":7.32,"distinct_type":"Top","rt":null,"stimulus":"Stimuli_Rocks480/S_Conglomerate_05.png","response":null,"trial_type":"image-keyboard-response","trial_index":95,"plugin_version":"2.1.0","time_elapsed":226882,"subject_id":"87644","group":"Group1","full_date":"2025-12-03T19:33:50.324Z","date":"2025-12-03","time":"19:33:50"},{"rt":null,"stimulus":"<p style=\"font-size: 50px; margin: 0; text-align: center;\">+</p>","response":null,"trial_type":"html-keyboard-response","trial_index":96,"plugin_version":"2.1.0","time_elapsed":228880,"subject_id":"87644","group":"Group1","full_date":"2025-12-03T19:33:50.324Z","date":"2025-12-03","time":"19:33:50"},{"task":"memory_phase","broad_category":"I","image_png":"I_Diorite_03.png","image_id":35,"category_name":"Diorite","category":3,"distinct_rating":3.14,"distinct_type":"Bottom","rt":null,"stimulus":"Stimuli_Rocks480/I_Diorite_03.png","response":null,"trial_type":"image-keyboard-response","trial_index":97,"plugin_version":"2.1.0","time_elapsed":231883,"subject_id":"87644","group":"Group1","full_date":"2025-12-03T19:33:50.324Z","date":"2025-12-03","time":"19:33:50"},{"rt":null,"stimulus":"<p style=\"font-size: 50px; margin: 0; text-align: center;\">+</p>","response":null,"trial_type":"html-keyboard-response","trial_index":98,"plugin_version":"2.1.0","time_elapsed":233880,"subject_id":"87644","group":"Group1","full_date":"2025-12-03T19:33:50.324Z","date":"2025-12-03","time":"19:33:50"},{"task":"memory_phase","broad_category":"I","image_png":"I_Basalt_01.png","image_id":17,"category_name":"Basalt","category":2,"distinct_rating":1.92,"distinct_type":"Bottom","rt":null,"stimulus":"Stimuli_Rocks480/I_Basalt_01.png","response":null,"trial_type":"image-keyboard-response","trial_index":99,"plugin_version":"2.1.0","time_elapsed":236880,"subject_id":"87644","group":"Group1","full_date":"2025-12-03T19:33:50.324Z","date":"2025-12-03","time":"19:33:50"},{"rt":null,"stimulus":"<p style=\"font-size: 50px; margin: 0; text-align: center;\">+</p>","response":null,"trial_type":"html-keyboard-response","trial_index":100,"plugin_version":"2.1.0","time_elapsed":238880,"subject_id":"87644","group":"Group1","full_date":"2025-12-03T19:33:50.324Z","date":"2025-12-03","time":"19:33:50"},{"task":"memory_phase","broad_category":"I","image_png":"I_Andesite_06.png","image_id":6,"category_name":"Andesite","category":1,"distinct_rating":3.17,"distinct_type":"Bottom","rt":null,"stimulus":"Stimuli_Rocks480/I_Andesite_06.png","response":null,"trial_type":"image-keyboard-response","trial_index":101,"plugin_version":"2.1.0","time_elapsed":241880,"subject_id":"87644","group":"Group1","full_date":"2025-12-03T19:33:50.324Z","date":"2025-12-03","time":"19:33:50"},{"rt":null,"stimulus":"<p style=\"font-size: 50px; margin: 0; text-align: center;\">+</p>","response":null,"trial_type":"html-keyboard-response","trial_index":102,"plugin_version":"2.1.0","time_elapsed":243882,"subject_id":"87644","group":"Group1","full_date":"2025-12-03T19:33:50.324Z","date":"2025-12-03","time":"19:33:50"},{"task":"memory_phase","broad_category":"S","image_png":"S_Dolomite_12.png","image_id":396,"category_name":"Dolomite","category":25,"distinct_rating":1.85,"distinct_type":"Bottom","rt":null,"stimulus":"Stimuli_Rocks480/S_Dolomite_12.png","response":null,"trial_type":"image-keyboard-response","trial_index":103,"plugin_version":"2.1.0","time_elapsed":246900,"subject_id":"87644","group":"Group1","full_date":"2025-12-03T19:33:50.324Z","date":"2025-12-03","time":"19:33:50"},{"rt":null,"stimulus":"<p style=\"font-size: 50px; margin: 0; text-align: center;\">+</p>","response":null,"trial_type":"html-keyboard-response","trial_index":104,"plugin_version":"2.1.0","time_elapsed":248880,"subject_id":"87644","group":"Group1","full_date":"2025-12-03T19:33:50.324Z","date":"2025-12-03","time":"19:33:50"},{"task":"memory_phase","broad_category":"M","image_png":"M_Quartzite_13.png","image_id":285,"category_name":"Quartzite","category":18,"distinct_rating":2.27,"distinct_type":"Bottom","rt":null,"stimulus":"Stimuli_Rocks480/M_Quartzite_13.png","response":null,"trial_type":"image-keyboard-response","trial_index":105,"plugin_version":"2.1.0","time_elapsed":251881,"subject_id":"87644","group":"Group1","full_date":"2025-12-03T19:33:50.324Z","date":"2025-12-03","time":"19:33:50"},{"rt":52243,"stimulus":"<p style=\"max-width: 760px; margin: auto; font-size: 35px; line-height: 1.5;\">You have completed 1 study phase. Now, we'll show you all the images again 2 more times.<br><br>Press SPACE to continue</p>","response":" ","trial_type":"html-keyboard-response","trial_index":106,"plugin_version":"2.1.0","time_elapsed":304125,"subject_id":"87644","group":"Group1","full_date":"2025-12-03T19:33:50.324Z","date":"2025-12-03","time":"19:33:50"},{"rt":null,"stimulus":"<p style=\"font-size: 50px; margin: 0; text-align: center;\">+</p>","response":null,"trial_type":"html-keyboard-response","trial_index":107,"plugin_version":"2.1.0","time_elapsed":305127,"subject_id":"87644","group":"Group1","full_date":"2025-12-03T19:33:50.324Z","date":"2025-12-03","time":"19:33:50"},{"task":"memory_phase","broad_category":"I","image_png":"I_Obsidian_05.png","image_id":85,"category_name":"Obsidian","category":6,"distinct_rating":7.32,"distinct_type":"Top","rt":null,"stimulus":"Stimuli_Rocks480/I_Obsidian_05.png","response":null,"trial_type":"image-keyboard-response","trial_index":108,"plugin_version":"2.1.0","time_elapsed":307630,"subject_id":"87644","group":"Group1","full_date":"2025-12-03T19:33:50.324Z","date":"2025-12-03","time":"19:33:50"},{"rt":null,"stimulus":"<p style=\"font-size: 50px; margin: 0; text-align: center;\">+</p>","response":null,"trial_type":"html-keyboard-response","trial_index":109,"plugin_version":"2.1.0","time_elapsed":308633,"subject_id":"87644","group":"Group1","full_date":"2025-12-03T19:33:50.324Z","date":"2025-12-03","time":"19:33:50"},{"task":"memory_phase","broad_category":"I","image_png":"I_Andesite_10.png","image_id":10,"category_name":"Andesite","category":1,"distinct_rating":3.15,"distinct_type":"Bottom","rt":null,"stimulus":"Stimuli_Rocks480/I_Andesite_10.png","response":null,"trial_type":"image-keyboard-response","trial_index":110,"plugin_version":"2.1.0","time_elapsed":311881,"subject_id":"87644","group":"Group1","full_date":"2025-12-03T19:33:50.324Z","date":"2025-12-03","time":"19:33:50"},{"rt":null,"stimulus":"<p style=\"font-size: 50px; margin: 0; text-align: center;\">+</p>","response":null,"trial_type":"html-keyboard-response","trial_index":111,"plugin_version":"2.1.0","time_elapsed":313880,"subject_id":"87644","group":"Group1","full_date":"2025-12-03T19:33:50.324Z","date":"2025-12-03","time":"19:33:50"},{"task":"memory_phase","broad_category":"M","image_png":"M_Quartzite_13.png","image_id":285,"category_name":"Quartzite","category":18,"distinct_rating":2.27,"distinct_type":"Bottom","rt":null,"stimulus":"Stimuli_Rocks480/M_Quartzite_13.png","response":null,"trial_type":"image-keyboard-response","trial_index":112,"plugin_version":"2.1.0","time_elapsed":316881,"subject_id":"87644","group":"Group1","full_date":"2025-12-03T19:33:50.324Z","date":"2025-12-03","time":"19:33:50"},{"rt":null,"stimulus":"<p style=\"font-size: 50px; margin: 0; text-align: center;\">+</p>","response":null,"trial_type":"html-keyboard-response","trial_index":113,"plugin_version":"2.1.0","time_elapsed":318881,"subject_id":"87644","group":"Group1","full_date":"2025-12-03T19:33:50.324Z","date":"2025-12-03","time":"19:33:50"},{"task":"memory_phase","broad_category":"S","image_png":"S_Sandstone_15.png","image_id":463,"category_name":"Sandstone","category":29,"distinct_rating":2,"distinct_type":"Bottom","rt":null,"stimulus":"Stimuli_Rocks480/S_Sandstone_15.png","response":null,"trial_type":"image-keyboard-response","trial_index":114,"plugin_version":"2.1.0","time_elapsed":321886,"subject_id":"87644","group":"Group1","full_date":"2025-12-03T19:33:50.324Z","date":"2025-12-03","time":"19:33:50"},{"rt":null,"stimulus":"<p style=\"font-size: 50px; margin: 0; text-align: center;\">+</p>","response":null,"trial_type":"html-keyboard-response","trial_index":115,"plugin_version":"2.1.0","time_elapsed":323881,"subject_id":"87644","group":"Group1","full_date":"2025-12-03T19:33:50.324Z","date":"2025-12-03","time":"19:33:50"},{"task":"memory_phase","broad_category":"I","image_png":"I_Diorite_05.png","image_id":37,"category_name":"Diorite","category":3,"distinct_rating":3.08,"distinct_type":"Bottom","rt":null,"stimulus":"Stimuli_Rocks480/I_Diorite_05.png","response":null,"trial_type":"image-keyboard-response","trial_index":116,"plugin_version":"2.1.0","time_elapsed":326881,"subject_id":"87644","group":"Group1","full_date":"2025-12-03T19:33:50.324Z","date":"2025-12-03","time":"19:33:50"},{"rt":null,"stimulus":"<p style=\"font-size: 50px; margin: 0; text-align: center;\">+</p>","response":null,"trial_type":"html-keyboard-response","trial_index":117,"plugin_version":"2.1.0","time_elapsed":328880,"subject_id":"87644","group":"Group1","full_date":"2025-12-03T19:33:50.324Z","date":"2025-12-03","time":"19:33:50"},{"task":"memory_phase","broad_category":"S","image_png":"S_Breccia_11.png","image_id":347,"category_name":"Breccia","category":22,"distinct_rating":6.7,"distinct_type":"Top","rt":null,"stimulus":"Stimuli_Rocks480/S_Breccia_11.png","response":null,"trial_type":"image-keyboard-response","trial_index":118,"plugin_version":"2.1.0","time_elapsed":331881,"subject_id":"87644","group":"Group1","full_date":"2025-12-03T19:33:50.324Z","date":"2025-12-03","time":"19:33:50"},{"rt":null,"stimulus":"<p style=\"font-size: 50px; margin: 0; text-align: center;\">+</p>","response":null,"trial_type":"html-keyboard-response","trial_index":119,"plugin_version":"2.1.0","time_elapsed":333880,"subject_id":"87644","group":"Group1","full_date":"2025-12-03T19:33:50.324Z","date":"2025-12-03","time":"19:33:50"},{"task":"memory_phase","broad_category":"S","image_png":"S_Dolomite_12.png","image_id":396,"category_name":"Dolomite","category":25,"distinct_rating":1.85,"distinct_type":"Bottom","rt":null,"stimulus":"Stimuli_Rocks480/S_Dolomite_12.png","response":null,"trial_type":"image-keyboard-response","trial_index":120,"plugin_version":"2.1.0","time_elapsed":336881,"subject_id":"87644","group":"Group1","full_date":"2025-12-03T19:33:50.324Z","date":"2025-12-03","time":"19:33:50"},{"rt":null,"stimulus":"<p style=\"font-size: 50px; margin: 0; text-align: center;\">+</p>","response":null,"trial_type":"html-keyboard-response","trial_index":121,"plugin_version":"2.1.0","time_elapsed":338880,"subject_id":"87644","group":"Group1","full_date":"2025-12-03T19:33:50.324Z","date":"2025-12-03","time":"19:33:50"},{"task":"memory_phase","broad_category":"I","image_png":"I_Pegmatite_10.png","image_id":106,"category_name":"Pegmatite","category":7,"distinct_rating":7.66,"distinct_type":"Top","rt":null,"stimulus":"Stimuli_Rocks480/I_Pegmatite_10.png","response":null,"trial_type":"image-keyboard-response","trial_index":122,"plugin_version":"2.1.0","time_elapsed":341881,"subject_id":"87644","group":"Group1","full_date":"2025-12-03T19:33:50.324Z","date":"2025-12-03","time":"19:33:50"},{"rt":null,"stimulus":"<p style=\"font-size: 50px; margin: 0; text-align: center;\">+</p>","response":null,"trial_type":"html-keyboard-response","trial_index":123,"plugin_version":"2.1.0","time_elapsed":343881,"subject_id":"87644","group":"Group1","full_date":"2025-12-03T19:33:50.324Z","date":"2025-12-03","time":"19:33:50"},{"task":"memory_phase","broad_category":"I","image_png":"I_Gabbro_11.png","image_id":59,"category_name":"Gabbro","category":4,"distinct_rating":1.99,"distinct_type":"Bottom","rt":null,"stimulus":"Stimuli_Rocks480/I_Gabbro_11.png","response":null,"trial_type":"image-keyboard-response","trial_index":124,"plugin_version":"2.1.0","time_elapsed":346881,"subject_id":"87644","group":"Group1","full_date":"2025-12-03T19:33:50.324Z","date":"2025-12-03","time":"19:33:50"},{"rt":null,"stimulus":"<p style=\"font-size: 50px; margin: 0; text-align: center;\">+</p>","response":null,"trial_type":"html-keyboard-response","trial_index":125,"plugin_version":"2.1.0","time_elapsed":348881,"subject_id":"87644","group":"Group1","full_date":"2025-12-03T19:33:50.324Z","date":"2025-12-03","time":"19:33:50"},{"task":"memory_phase","broad_category":"S","image_png":"S_Rock Salt_01.png","image_id":433,"category_name":"Rock Salt","category":28,"distinct_rating":7.18,"distinct_type":"Top","rt":null,"stimulus":"Stimuli_Rocks480/S_Rock Salt_01.png","response":null,"trial_type":"image-keyboard-response","trial_index":126,"plugin_version":"2.1.0","time_elapsed":351881,"subject_id":"87644","group":"Group1","full_date":"2025-12-03T19:33:50.324Z","date":"2025-12-03","time":"19:33:50"},{"rt":null,"stimulus":"<p style=\"font-size: 50px; margin: 0; text-align: center;\">+</p>","response":null,"trial_type":"html-keyboard-response","trial_index":127,"plugin_version":"2.1.0","time_elapsed":353881,"subject_id":"87644","group":"Group1","full_date":"2025-12-03T19:33:50.324Z","date":"2025-12-03","time":"19:33:50"},{"task":"memory_phase","broad_category":"M","image_png":"M_Quartzite_08.png","image_id":280,"category_name":"Quartzite","category":18,"distinct_rating":2.15,"distinct_type":"Bottom","rt":null,"stimulus":"Stimuli_Rocks480/M_Quartzite_08.png","response":null,"trial_type":"image-keyboard-response","trial_index":128,"plugin_version":"2.1.0","time_elapsed":356880,"subject_id":"87644","group":"Group1","full_date":"2025-12-03T19:33:50.324Z","date":"2025-12-03","time":"19:33:50"},{"rt":null,"stimulus":"<p style=\"font-size: 50px; margin: 0; text-align: center;\">+</p>","response":null,"trial_type":"html-keyboard-response","trial_index":129,"plugin_version":"2.1.0","time_elapsed":358880,"subject_id":"87644","group":"Group1","full_date":"2025-12-03T19:33:50.324Z","date":"2025-12-03","time":"19:33:50"},{"task":"memory_phase","broad_category":"I","image_png":"I_Pumice_12.png","image_id":140,"category_name":"Pumice","category":9,"distinct_rating":2.97,"distinct_type":"Bottom","rt":null,"stimulus":"Stimuli_Rocks480/I_Pumice_12.png","response":null,"trial_type":"image-keyboard-response","trial_index":130,"plugin_version":"2.1.0","time_elapsed":361881,"subject_id":"87644","group":"Group1","full_date":"2025-12-03T19:33:50.324Z","date":"2025-12-03","time":"19:33:50"},{"rt":null,"stimulus":"<p style=\"font-size: 50px; margin: 0; text-align: center;\">+</p>","response":null,"trial_type":"html-keyboard-response","trial_index":131,"plugin_version":"2.1.0","time_elapsed":363881,"subject_id":"87644","group":"Group1","full_date":"2025-12-03T19:33:50.324Z","date":"2025-12-03","time":"19:33:50"},{"task":"memory_phase","broad_category":"I","image_png":"I_Andesite_08.png","image_id":8,"category_name":"Andesite","category":1,"distinct_rating":1.95,"distinct_type":"Bottom","rt":null,"stimulus":"Stimuli_Rocks480/I_Andesite_08.png","response":null,"trial_type":"image-keyboard-response","trial_index":132,"plugin_version":"2.1.0","time_elapsed":366882,"subject_id":"87644","group":"Group1","full_date":"2025-12-03T19:33:50.324Z","date":"2025-12-03","time":"19:33:50"},{"rt":null,"stimulus":"<p style=\"font-size: 50px; margin: 0; text-align: center;\">+</p>","response":null,"trial_type":"html-keyboard-response","trial_index":133,"plugin_version":"2.1.0","time_elapsed":368880,"subject_id":"87644","group":"Group1","full_date":"2025-12-03T19:33:50.324Z","date":"2025-12-03","time":"19:33:50"},{"task":"memory_phase","broad_category":"I","image_png":"I_Diorite_03.png","image_id":35,"category_name":"Diorite","category":3,"distinct_rating":3.14,"distinct_type":"Bottom","rt":null,"stimulus":"Stimuli_Rocks480/I_Diorite_03.png","response":null,"trial_type":"image-keyboard-response","trial_index":134,"plugin_version":"2.1.0","time_elapsed":371384,"subject_id":"87644","group":"Group1","full_date":"2025-12-03T19:33:50.324Z","date":"2025-12-03","time":"19:33:50"},{"rt":null,"stimulus":"<p style=\"font-size: 50px; margin: 0; text-align: center;\">+</p>","response":null,"trial_type":"html-keyboard-response","trial_index":135,"plugin_version":"2.1.0","time_elapsed":372881,"subject_id":"87644","group":"Group1","full_date":"2025-12-03T19:33:50.324Z","date":"2025-12-03","time":"19:33:50"},{"task":"memory_phase","broad_category":"M","image_png":"M_Slate_15.png","image_id":319,"category_name":"Slate","category":20,"distinct_rating":2.13,"distinct_type":"Bottom","rt":null,"stimulus":"Stimuli_Rocks480/M_Slate_15.png","response":null,"trial_type":"image-keyboard-response","trial_index":136,"plugin_version":"2.1.0","time_elapsed":375881,"subject_id":"87644","group":"Group1","full_date":"2025-12-03T19:33:50.324Z","date":"2025-12-03","time":"19:33:50"},{"rt":null,"stimulus":"<p style=\"font-size: 50px; margin: 0; text-align: center;\">+</p>","response":null,"trial_type":"html-keyboard-response","trial_index":137,"plugin_version":"2.1.0","time_elapsed":377880,"subject_id":"87644","group":"Group1","full_date":"2025-12-03T19:33:50.324Z","date":"2025-12-03","time":"19:33:50"},{"task":"memory_phase","broad_category":"I","image_png":"I_Rhyolite_16.png","image_id":160,"category_name":"Rhyolite","category":10,"distinct_rating":2.19,"distinct_type":"Bottom","rt":null,"stimulus":"Stimuli_Rocks480/I_Rhyolite_16.png","response":null,"trial_type":"image-keyboard-response","trial_index":138,"plugin_version":"2.1.0","time_elapsed":380881,"subject_id":"87644","group":"Group1","full_date":"2025-12-03T19:33:50.324Z","date":"2025-12-03","time":"19:33:50"},{"rt":null,"stimulus":"<p style=\"font-size: 50px; margin: 0; text-align: center;\">+</p>","response":null,"trial_type":"html-keyboard-response","trial_index":139,"plugin_version":"2.1.0","time_elapsed":382880,"subject_id":"87644","group":"Group1","full_date":"2025-12-03T19:33:50.324Z","date":"2025-12-03","time":"19:33:50"},{"task":"memory_phase","broad_category":"M","image_png":"M_Marble_06.png","image_id":230,"category_name":"Marble","category":15,"distinct_rating":3.4,"distinct_type":"Bottom","rt":null,"stimulus":"Stimuli_Rocks480/M_Marble_06.png","response":null,"trial_type":"image-keyboard-response","trial_index":140,"plugin_version":"2.1.0","time_elapsed":385384,"subject_id":"87644","group":"Group1","full_date":"2025-12-03T19:33:50.324Z","date":"2025-12-03","time":"19:33:50"},{"rt":null,"stimulus":"<p style=\"font-size: 50px; margin: 0; text-align: center;\">+</p>","response":null,"trial_type":"html-keyboard-response","trial_index":141,"plugin_version":"2.1.0","time_elapsed":386386,"subject_id":"87644","group":"Group1","full_date":"2025-12-03T19:33:50.324Z","date":"2025-12-03","time":"19:33:50"},{"task":"memory_phase","broad_category":"S","image_png":"S_Shale_01.png","image_id":465,"category_name":"Shale","category":30,"distinct_rating":2.7,"distinct_type":"Bottom","rt":null,"stimulus":"Stimuli_Rocks480/S_Shale_01.png","response":null,"trial_type":"image-keyboard-response","trial_index":142,"plugin_version":"2.1.0","time_elapsed":388889,"subject_id":"87644","group":"Group1","full_date":"2025-12-03T19:33:50.324Z","date":"2025-12-03","time":"19:33:50"},{"rt":null,"stimulus":"<p style=\"font-size: 50px; margin: 0; text-align: center;\">+</p>","response":null,"trial_type":"html-keyboard-response","trial_index":143,"plugin_version":"2.1.0","time_elapsed":389891,"subject_id":"87644","group":"Group1","full_date":"2025-12-03T19:33:50.324Z","date":"2025-12-03","time":"19:33:50"},{"task":"memory_phase","broad_category":"M","image_png":"M_Gneiss_06.png","image_id":198,"category_name":"Gneiss","category":13,"distinct_rating":2.65,"distinct_type":"Bottom","rt":null,"stimulus":"Stimuli_Rocks480/M_Gneiss_06.png","response":null,"trial_type":"image-keyboard-response","trial_index":144,"plugin_version":"2.1.0","time_elapsed":392881,"subject_id":"87644","group":"Group1","full_date":"2025-12-03T19:33:50.324Z","date":"2025-12-03","time":"19:33:50"},{"rt":null,"stimulus":"<p style=\"font-size: 50px; margin: 0; text-align: center;\">+</p>","response":null,"trial_type":"html-keyboard-response","trial_index":145,"plugin_version":"2.1.0","time_elapsed":394881,"subject_id":"87644","group":"Group1","full_date":"2025-12-03T19:33:50.324Z","date":"2025-12-03","time":"19:33:50"},{"task":"memory_phase","broad_category":"S","image_png":"S_Conglomerate_05.png","image_id":373,"category_name":"Conglomerate","category":24,"distinct_rating":7.32,"distinct_type":"Top","rt":null,"stimulus":"Stimuli_Rocks480/S_Conglomerate_05.png","response":null,"trial_type":"image-keyboard-response","trial_index":146,"plugin_version":"2.1.0","time_elapsed":397881,"subject_id":"87644","group":"Group1","full_date":"2025-12-03T19:33:50.324Z","date":"2025-12-03","time":"19:33:50"},{"rt":null,"stimulus":"<p style=\"font-size: 50px; margin: 0; text-align: center;\">+</p>","response":null,"trial_type":"html-keyboard-response","trial_index":147,"plugin_version":"2.1.0","time_elapsed":398883,"subject_id":"87644","group":"Group1","full_date":"2025-12-03T19:33:50.324Z","date":"2025-12-03","time":"19:33:50"},{"task":"memory_phase","broad_category":"I","image_png":"I_Andesite_06.png","image_id":6,"category_name":"Andesite","category":1,"distinct_rating":3.17,"distinct_type":"Bottom","rt":null,"stimulus":"Stimuli_Rocks480/I_Andesite_06.png","response":null,"trial_type":"image-keyboard-response","trial_index":148,"plugin_version":"2.1.0","time_elapsed":401385,"subject_id":"87644","group":"Group1","full_date":"2025-12-03T19:33:50.324Z","date":"2025-12-03","time":"19:33:50"},{"rt":null,"stimulus":"<p style=\"font-size: 50px; margin: 0; text-align: center;\">+</p>","response":null,"trial_type":"html-keyboard-response","trial_index":149,"plugin_version":"2.1.0","time_elapsed":402387,"subject_id":"87644","group":"Group1","full_date":"2025-12-03T19:33:50.324Z","date":"2025-12-03","time":"19:33:50"},{"task":"memory_phase","broad_category":"M","image_png":"M_Quartzite_05.png","image_id":277,"category_name":"Quartzite","category":18,"distinct_rating":2.23,"distinct_type":"Bottom","rt":null,"stimulus":"Stimuli_Rocks480/M_Quartzite_05.png","response":null,"trial_type":"image-keyboard-response","trial_index":150,"plugin_version":"2.1.0","time_elapsed":405880,"subject_id":"87644","group":"Group1","full_date":"2025-12-03T19:33:50.324Z","date":"2025-12-03","time":"19:33:50"},{"rt":null,"stimulus":"<p style=\"font-size: 50px; margin: 0; text-align: center;\">+</p>","response":null,"trial_type":"html-keyboard-response","trial_index":151,"plugin_version":"2.1.0","time_elapsed":407881,"subject_id":"87644","group":"Group1","full_date":"2025-12-03T19:33:50.324Z","date":"2025-12-03","time":"19:33:50"},{"task":"memory_phase","broad_category":"M","image_png":"M_Gneiss_13.png","image_id":205,"category_name":"Gneiss","category":13,"distinct_rating":3.26,"distinct_type":"Bottom","rt":null,"stimulus":"Stimuli_Rocks480/M_Gneiss_13.png","response":null,"trial_type":"image-keyboard-response","trial_index":152,"plugin_version":"2.1.0","time_elapsed":410880,"subject_id":"87644","group":"Group1","full_date":"2025-12-03T19:33:50.324Z","date":"2025-12-03","time":"19:33:50"},{"rt":null,"stimulus":"<p style=\"font-size: 50px; margin: 0; text-align: center;\">+</p>","response":null,"trial_type":"html-keyboard-response","trial_index":153,"plugin_version":"2.1.0","time_elapsed":412881,"subject_id":"87644","group":"Group1","full_date":"2025-12-03T19:33:50.324Z","date":"2025-12-03","time":"19:33:50"},{"task":"memory_phase","broad_category":"I","image_png":"I_Gabbro_16.png","image_id":64,"category_name":"Gabbro","category":4,"distinct_rating":2.52,"distinct_type":"Bottom","rt":null,"stimulus":"Stimuli_Rocks480/I_Gabbro_16.png","response":null,"trial_type":"image-keyboard-response","trial_index":154,"plugin_version":"2.1.0","time_elapsed":415880,"subject_id":"87644","group":"Group1","full_date":"2025-12-03T19:33:50.324Z","date":"2025-12-03","time":"19:33:50"},{"rt":null,"stimulus":"<p style=\"font-size: 50px; margin: 0; text-align: center;\">+</p>","response":null,"trial_type":"html-keyboard-response","trial_index":155,"plugin_version":"2.1.0","time_elapsed":417881,"subject_id":"87644","group":"Group1","full_date":"2025-12-03T19:33:50.324Z","date":"2025-12-03","time":"19:33:50"},{"task":"memory_phase","broad_category":"S","image_png":"S_Shale_12.png","image_id":476,"category_name":"Shale","category":30,"distinct_rating":2.48,"distinct_type":"Bottom","rt":null,"stimulus":"Stimuli_Rocks480/S_Shale_12.png","response":null,"trial_type":"image-keyboard-response","trial_index":156,"plugin_version":"2.1.0","time_elapsed":420881,"subject_id":"87644","group":"Group1","full_date":"2025-12-03T19:33:50.324Z","date":"2025-12-03","time":"19:33:50"},{"rt":7617,"stimulus":"<p style=\"max-width: 760px; margin: auto; font-size: 35px; line-height: 1.5;\">Press SPACE to continue study phase</p>","response":" ","trial_type":"html-keyboard-response","trial_index":157,"plugin_version":"2.1.0","time_elapsed":428500,"subject_id":"87644","group":"Group1","full_date":"2025-12-03T19:33:50.324Z","date":"2025-12-03","time":"19:33:50"},{"rt":null,"stimulus":"<p style=\"font-size: 50px; margin: 0; text-align: center;\">+</p>","response":null,"trial_type":"html-keyboard-response","trial_index":158,"plugin_version":"2.1.0","time_elapsed":429502,"subject_id":"87644","group":"Group1","full_date":"2025-12-03T19:33:50.324Z","date":"2025-12-03","time":"19:33:50"},{"task":"memory_phase","broad_category":"S","image_png":"S_Sandstone_16.png","image_id":464,"category_name":"Sandstone","category":29,"distinct_rating":1.93,"distinct_type":"Bottom","rt":null,"stimulus":"Stimuli_Rocks480/S_Sandstone_16.png","response":null,"trial_type":"image-keyboard-response","trial_index":159,"plugin_version":"2.1.0","time_elapsed":432005,"subject_id":"87644","group":"Group1","full_date":"2025-12-03T19:33:50.324Z","date":"2025-12-03","time":"19:33:50"},{"rt":null,"stimulus":"<p style=\"font-size: 50px; margin: 0; text-align: center;\">+</p>","response":null,"trial_type":"html-keyboard-response","trial_index":160,"plugin_version":"2.1.0","time_elapsed":433008,"subject_id":"87644","group":"Group1","full_date":"2025-12-03T19:33:50.324Z","date":"2025-12-03","time":"19:33:50"},{"task":"memory_phase","broad_category":"I","image_png":"I_Basalt_02.png","image_id":18,"category_name":"Basalt","category":2,"distinct_rating":1.84,"distinct_type":"Bottom","rt":null,"stimulus":"Stimuli_Rocks480/I_Basalt_02.png","response":null,"trial_type":"image-keyboard-response","trial_index":161,"plugin_version":"2.1.0","time_elapsed":435511,"subject_id":"87644","group":"Group1","full_date":"2025-12-03T19:33:50.324Z","date":"2025-12-03","time":"19:33:50"},{"rt":null,"stimulus":"<p style=\"font-size: 50px; margin: 0; text-align: center;\">+</p>","response":null,"trial_type":"html-keyboard-response","trial_index":162,"plugin_version":"2.1.0","time_elapsed":436513,"subject_id":"87644","group":"Group1","full_date":"2025-12-03T19:33:50.324Z","date":"2025-12-03","time":"19:33:50"},{"task":"memory_phase","broad_category":"M","image_png":"M_Phyllite_10.png","image_id":266,"category_name":"Phyllite","category":17,"distinct_rating":2.6,"distinct_type":"Bottom","rt":null,"stimulus":"Stimuli_Rocks480/M_Phyllite_10.png","response":null,"trial_type":"image-keyboard-response","trial_index":163,"plugin_version":"2.1.0","time_elapsed":439017,"subject_id":"87644","group":"Group1","full_date":"2025-12-03T19:33:50.324Z","date":"2025-12-03","time":"19:33:50"},{"rt":null,"stimulus":"<p style=\"font-size: 50px; margin: 0; text-align: center;\">+</p>","response":null,"trial_type":"html-keyboard-response","trial_index":164,"plugin_version":"2.1.0","time_elapsed":440019,"subject_id":"87644","group":"Group1","full_date":"2025-12-03T19:33:50.324Z","date":"2025-12-03","time":"19:33:50"},{"task":"memory_phase","broad_category":"S","image_png":"S_Dolomite_14.png","image_id":398,"category_name":"Dolomite","category":25,"distinct_rating":1.43,"distinct_type":"Bottom","rt":null,"stimulus":"Stimuli_Rocks480/S_Dolomite_14.png","response":null,"trial_type":"image-keyboard-response","trial_index":165,"plugin_version":"2.1.0","time_elapsed":442522,"subject_id":"87644","group":"Group1","full_date":"2025-12-03T19:33:50.324Z","date":"2025-12-03","time":"19:33:50"},{"rt":null,"stimulus":"<p style=\"font-size: 50px; margin: 0; text-align: center;\">+</p>","response":null,"trial_type":"html-keyboard-response","trial_index":166,"plugin_version":"2.1.0","time_elapsed":443525,"subject_id":"87644","group":"Group1","full_date":"2025-12-03T19:33:50.324Z","date":"2025-12-03","time":"19:33:50"},{"task":"memory_phase","broad_category":"S","image_png":"S_Dolomite_13.png","image_id":397,"category_name":"Dolomite","category":25,"distinct_rating":1.77,"distinct_type":"Bottom","rt":null,"stimulus":"Stimuli_Rocks480/S_Dolomite_13.png","response":null,"trial_type":"image-keyboard-response","trial_index":167,"plugin_version":"2.1.0","time_elapsed":446028,"subject_id":"87644","group":"Group1","full_date":"2025-12-03T19:33:50.324Z","date":"2025-12-03","time":"19:33:50"},{"rt":null,"stimulus":"<p style=\"font-size: 50px; margin: 0; text-align: center;\">+</p>","response":null,"trial_type":"html-keyboard-response","trial_index":168,"plugin_version":"2.1.0","time_elapsed":447030,"subject_id":"87644","group":"Group1","full_date":"2025-12-03T19:33:50.324Z","date":"2025-12-03","time":"19:33:50"},{"task":"memory_phase","broad_category":"M","image_png":"M_Slate_11.png","image_id":315,"category_name":"Slate","category":20,"distinct_rating":2.75,"distinct_type":"Bottom","rt":null,"stimulus":"Stimuli_Rocks480/M_Slate_11.png","response":null,"trial_type":"image-keyboard-response","trial_index":169,"plugin_version":"2.1.0","time_elapsed":449533,"subject_id":"87644","group":"Group1","full_date":"2025-12-03T19:33:50.324Z","date":"2025-12-03","time":"19:33:50"},{"rt":null,"stimulus":"<p style=\"font-size: 50px; margin: 0; text-align: center;\">+</p>","response":null,"trial_type":"html-keyboard-response","trial_index":170,"plugin_version":"2.1.0","time_elapsed":450536,"subject_id":"87644","group":"Group1","full_date":"2025-12-03T19:33:50.324Z","date":"2025-12-03","time":"19:33:50"},{"task":"memory_phase","broad_category":"M","image_png":"M_Marble_16.png","image_id":240,"category_name":"Marble","category":15,"distinct_rating":2.57,"distinct_type":"Bottom","rt":null,"stimulus":"Stimuli_Rocks480/M_Marble_16.png","response":null,"trial_type":"image-keyboard-response","trial_index":171,"plugin_version":"2.1.0","time_elapsed":453039,"subject_id":"87644","group":"Group1","full_date":"2025-12-03T19:33:50.324Z","date":"2025-12-03","time":"19:33:50"},{"rt":null,"stimulus":"<p style=\"font-size: 50px; margin: 0; text-align: center;\">+</p>","response":null,"trial_type":"html-keyboard-response","trial_index":172,"plugin_version":"2.1.0","time_elapsed":454041,"subject_id":"87644","group":"Group1","full_date":"2025-12-03T19:33:50.324Z","date":"2025-12-03","time":"19:33:50"},{"task":"memory_phase","broad_category":"M","image_png":"M_Phyllite_07.png","image_id":263,"category_name":"Phyllite","category":17,"distinct_rating":2.59,"distinct_type":"Bottom","rt":null,"stimulus":"Stimuli_Rocks480/M_Phyllite_07.png","response":null,"trial_type":"image-keyboard-response","trial_index":173,"plugin_version":"2.1.0","time_elapsed":456545,"subject_id":"87644","group":"Group1","full_date":"2025-12-03T19:33:50.324Z","date":"2025-12-03","time":"19:33:50"},{"rt":null,"stimulus":"<p style=\"font-size: 50px; margin: 0; text-align: center;\">+</p>","response":null,"trial_type":"html-keyboard-response","trial_index":174,"plugin_version":"2.1.0","time_elapsed":457547,"subject_id":"87644","group":"Group1","full_date":"2025-12-03T19:33:50.324Z","date":"2025-12-03","time":"19:33:50"},{"task":"memory_phase","broad_category":"I","image_png":"I_Diorite_04.png","image_id":36,"category_name":"Diorite","category":3,"distinct_rating":2.98,"distinct_type":"Bottom","rt":null,"stimulus":"Stimuli_Rocks480/I_Diorite_04.png","response":null,"trial_type":"image-keyboard-response","trial_index":175,"plugin_version":"2.1.0","time_elapsed":460051,"subject_id":"87644","group":"Group1","full_date":"2025-12-03T19:33:50.324Z","date":"2025-12-03","time":"19:33:50"},{"rt":null,"stimulus":"<p style=\"font-size: 50px; margin: 0; text-align: center;\">+</p>","response":null,"trial_type":"html-keyboard-response","trial_index":176,"plugin_version":"2.1.0","time_elapsed":461053,"subject_id":"87644","group":"Group1","full_date":"2025-12-03T19:33:50.324Z","date":"2025-12-03","time":"19:33:50"},{"task":"memory_phase","broad_category":"S","image_png":"S_Rock Gypsum_04.png","image_id":420,"category_name":"Rock Gypsum","category":27,"distinct_rating":7.61,"distinct_type":"Top","rt":null,"stimulus":"Stimuli_Rocks480/S_Rock Gypsum_04.png","response":null,"trial_type":"image-keyboard-response","trial_index":177,"plugin_version":"2.1.0","time_elapsed":463556,"subject_id":"87644","group":"Group1","full_date":"2025-12-03T19:33:50.324Z","date":"2025-12-03","time":"19:33:50"},{"rt":null,"stimulus":"<p style=\"font-size: 50px; margin: 0; text-align: center;\">+</p>","response":null,"trial_type":"html-keyboard-response","trial_index":178,"plugin_version":"2.1.0","time_elapsed":464559,"subject_id":"87644","group":"Group1","full_date":"2025-12-03T19:33:50.324Z","date":"2025-12-03","time":"19:33:50"},{"task":"memory_phase","broad_category":"S","image_png":"S_Sandstone_03.png","image_id":451,"category_name":"Sandstone","category":29,"distinct_rating":1.86,"distinct_type":"Bottom","rt":null,"stimulus":"Stimuli_Rocks480/S_Sandstone_03.png","response":null,"trial_type":"image-keyboard-response","trial_index":179,"plugin_version":"2.1.0","time_elapsed":467062,"subject_id":"87644","group":"Group1","full_date":"2025-12-03T19:33:50.324Z","date":"2025-12-03","time":"19:33:50"},{"rt":null,"stimulus":"<p style=\"font-size: 50px; margin: 0; text-align: center;\">+</p>","response":null,"trial_type":"html-keyboard-response","trial_index":180,"plugin_version":"2.1.0","time_elapsed":468065,"subject_id":"87644","group":"Group1","full_date":"2025-12-03T19:33:50.324Z","date":"2025-12-03","time":"19:33:50"},{"task":"memory_phase","broad_category":"M","image_png":"M_Marble_04.png","image_id":228,"category_name":"Marble","category":15,"distinct_rating":3.15,"distinct_type":"Bottom","rt":null,"stimulus":"Stimuli_Rocks480/M_Marble_04.png","response":null,"trial_type":"image-keyboard-response","trial_index":181,"plugin_version":"2.1.0","time_elapsed":470568,"subject_id":"87644","group":"Group1","full_date":"2025-12-03T19:33:50.324Z","date":"2025-12-03","time":"19:33:50"},{"rt":null,"stimulus":"<p style=\"font-size: 50px; margin: 0; text-align: center;\">+</p>","response":null,"trial_type":"html-keyboard-response","trial_index":182,"plugin_version":"2.1.0","time_elapsed":471571,"subject_id":"87644","group":"Group1","full_date":"2025-12-03T19:33:50.324Z","date":"2025-12-03","time":"19:33:50"},{"task":"memory_phase","broad_category":"I","image_png":"I_Pumice_08.png","image_id":136,"category_name":"Pumice","category":9,"distinct_rating":3.1,"distinct_type":"Bottom","rt":null,"stimulus":"Stimuli_Rocks480/I_Pumice_08.png","response":null,"trial_type":"image-keyboard-response","trial_index":183,"plugin_version":"2.1.0","time_elapsed":474075,"subject_id":"87644","group":"Group1","full_date":"2025-12-03T19:33:50.324Z","date":"2025-12-03","time":"19:33:50"},{"rt":null,"stimulus":"<p style=\"font-size: 50px; margin: 0; text-align: center;\">+</p>","response":null,"trial_type":"html-keyboard-response","trial_index":184,"plugin_version":"2.1.0","time_elapsed":475077,"subject_id":"87644","group":"Group1","full_date":"2025-12-03T19:33:50.324Z","date":"2025-12-03","time":"19:33:50"},{"task":"memory_phase","broad_category":"S","image_png":"S_Chert_10.png","image_id":362,"category_name":"Chert","category":23,"distinct_rating":7.17,"distinct_type":"Top","rt":null,"stimulus":"Stimuli_Rocks480/S_Chert_10.png","response":null,"trial_type":"image-keyboard-response","trial_index":185,"plugin_version":"2.1.0","time_elapsed":477580,"subject_id":"87644","group":"Group1","full_date":"2025-12-03T19:33:50.324Z","date":"2025-12-03","time":"19:33:50"},{"rt":null,"stimulus":"<p style=\"font-size: 50px; margin: 0; text-align: center;\">+</p>","response":null,"trial_type":"html-keyboard-response","trial_index":186,"plugin_version":"2.1.0","time_elapsed":478583,"subject_id":"87644","group":"Group1","full_date":"2025-12-03T19:33:50.324Z","date":"2025-12-03","time":"19:33:50"},{"task":"memory_phase","broad_category":"I","image_png":"I_Pumice_11.png","image_id":139,"category_name":"Pumice","category":9,"distinct_rating":1.74,"distinct_type":"Bottom","rt":null,"stimulus":"Stimuli_Rocks480/I_Pumice_11.png","response":null,"trial_type":"image-keyboard-response","trial_index":187,"plugin_version":"2.1.0","time_elapsed":481087,"subject_id":"87644","group":"Group1","full_date":"2025-12-03T19:33:50.324Z","date":"2025-12-03","time":"19:33:50"},{"rt":null,"stimulus":"<p style=\"font-size: 50px; margin: 0; text-align: center;\">+</p>","response":null,"trial_type":"html-keyboard-response","trial_index":188,"plugin_version":"2.1.0","time_elapsed":482089,"subject_id":"87644","group":"Group1","full_date":"2025-12-03T19:33:50.324Z","date":"2025-12-03","time":"19:33:50"},{"task":"memory_phase","broad_category":"I","image_png":"I_Rhyolite_14.png","image_id":158,"category_name":"Rhyolite","category":10,"distinct_rating":2.59,"distinct_type":"Bottom","rt":null,"stimulus":"Stimuli_Rocks480/I_Rhyolite_14.png","response":null,"trial_type":"image-keyboard-response","trial_index":189,"plugin_version":"2.1.0","time_elapsed":484592,"subject_id":"87644","group":"Group1","full_date":"2025-12-03T19:33:50.324Z","date":"2025-12-03","time":"19:33:50"},{"rt":null,"stimulus":"<p style=\"font-size: 50px; margin: 0; text-align: center;\">+</p>","response":null,"trial_type":"html-keyboard-response","trial_index":190,"plugin_version":"2.1.0","time_elapsed":485594,"subject_id":"87644","group":"Group1","full_date":"2025-12-03T19:33:50.324Z","date":"2025-12-03","time":"19:33:50"},{"task":"memory_phase","broad_category":"I","image_png":"I_Basalt_01.png","image_id":17,"category_name":"Basalt","category":2,"distinct_rating":1.92,"distinct_type":"Bottom","rt":null,"stimulus":"Stimuli_Rocks480/I_Basalt_01.png","response":null,"trial_type":"image-keyboard-response","trial_index":191,"plugin_version":"2.1.0","time_elapsed":488098,"subject_id":"87644","group":"Group1","full_date":"2025-12-03T19:33:50.324Z","date":"2025-12-03","time":"19:33:50"},{"rt":null,"stimulus":"<p style=\"font-size: 50px; margin: 0; text-align: center;\">+</p>","response":null,"trial_type":"html-keyboard-response","trial_index":192,"plugin_version":"2.1.0","time_elapsed":489100,"subject_id":"87644","group":"Group1","full_date":"2025-12-03T19:33:50.324Z","date":"2025-12-03","time":"19:33:50"},{"task":"memory_phase","broad_category":"I","image_png":"I_Basalt_09.png","image_id":25,"category_name":"Basalt","category":2,"distinct_rating":1.89,"distinct_type":"Bottom","rt":null,"stimulus":"Stimuli_Rocks480/I_Basalt_09.png","response":null,"trial_type":"image-keyboard-response","trial_index":193,"plugin_version":"2.1.0","time_elapsed":491604,"subject_id":"87644","group":"Group1","full_date":"2025-12-03T19:33:50.324Z","date":"2025-12-03","time":"19:33:50"},{"rt":null,"stimulus":"<p style=\"font-size: 50px; margin: 0; text-align: center;\">+</p>","response":null,"trial_type":"html-keyboard-response","trial_index":194,"plugin_version":"2.1.0","time_elapsed":492606,"subject_id":"87644","group":"Group1","full_date":"2025-12-03T19:33:50.324Z","date":"2025-12-03","time":"19:33:50"},{"task":"memory_phase","broad_category":"M","image_png":"M_Phyllite_03.png","image_id":259,"category_name":"Phyllite","category":17,"distinct_rating":2.5,"distinct_type":"Bottom","rt":null,"stimulus":"Stimuli_Rocks480/M_Phyllite_03.png","response":null,"trial_type":"image-keyboard-response","trial_index":195,"plugin_version":"2.1.0","time_elapsed":495109,"subject_id":"87644","group":"Group1","full_date":"2025-12-03T19:33:50.324Z","date":"2025-12-03","time":"19:33:50"},{"rt":null,"stimulus":"<p style=\"font-size: 50px; margin: 0; text-align: center;\">+</p>","response":null,"trial_type":"html-keyboard-response","trial_index":196,"plugin_version":"2.1.0","time_elapsed":496111,"subject_id":"87644","group":"Group1","full_date":"2025-12-03T19:33:50.324Z","date":"2025-12-03","time":"19:33:50"},{"task":"memory_phase","broad_category":"I","image_png":"I_Rhyolite_11.png","image_id":155,"category_name":"Rhyolite","category":10,"distinct_rating":1.73,"distinct_type":"Bottom","rt":null,"stimulus":"Stimuli_Rocks480/I_Rhyolite_11.png","response":null,"trial_type":"image-keyboard-response","trial_index":197,"plugin_version":"2.1.0","time_elapsed":498613,"subject_id":"87644","group":"Group1","full_date":"2025-12-03T19:33:50.324Z","date":"2025-12-03","time":"19:33:50"},{"rt":null,"stimulus":"<p style=\"font-size: 50px; margin: 0; text-align: center;\">+</p>","response":null,"trial_type":"html-keyboard-response","trial_index":198,"plugin_version":"2.1.0","time_elapsed":499615,"subject_id":"87644","group":"Group1","full_date":"2025-12-03T19:33:50.324Z","date":"2025-12-03","time":"19:33:50"},{"task":"memory_phase","broad_category":"M","image_png":"M_Slate_03.png","image_id":307,"category_name":"Slate","category":20,"distinct_rating":1.87,"distinct_type":"Bottom","rt":null,"stimulus":"Stimuli_Rocks480/M_Slate_03.png","response":null,"trial_type":"image-keyboard-response","trial_index":199,"plugin_version":"2.1.0","time_elapsed":502118,"subject_id":"87644","group":"Group1","full_date":"2025-12-03T19:33:50.324Z","date":"2025-12-03","time":"19:33:50"},{"rt":null,"stimulus":"<p style=\"font-size: 50px; margin: 0; text-align: center;\">+</p>","response":null,"trial_type":"html-keyboard-response","trial_index":200,"plugin_version":"2.1.0","time_elapsed":503124,"subject_id":"87644","group":"Group1","full_date":"2025-12-03T19:33:50.324Z","date":"2025-12-03","time":"19:33:50"},{"task":"memory_phase","broad_category":"S","image_png":"S_Shale_08.png","image_id":472,"category_name":"Shale","category":30,"distinct_rating":2.55,"distinct_type":"Bottom","rt":null,"stimulus":"Stimuli_Rocks480/S_Shale_08.png","response":null,"trial_type":"image-keyboard-response","trial_index":201,"plugin_version":"2.1.0","time_elapsed":505628,"subject_id":"87644","group":"Group1","full_date":"2025-12-03T19:33:50.324Z","date":"2025-12-03","time":"19:33:50"},{"rt":null,"stimulus":"<p style=\"font-size: 50px; margin: 0; text-align: center;\">+</p>","response":null,"trial_type":"html-keyboard-response","trial_index":202,"plugin_version":"2.1.0","time_elapsed":506630,"subject_id":"87644","group":"Group1","full_date":"2025-12-03T19:33:50.324Z","date":"2025-12-03","time":"19:33:50"},{"task":"memory_phase","broad_category":"I","image_png":"I_Pegmatite_16.png","image_id":112,"category_name":"Pegmatite","category":7,"distinct_rating":7.03,"distinct_type":"Top","rt":null,"stimulus":"Stimuli_Rocks480/I_Pegmatite_16.png","response":null,"trial_type":"image-keyboard-response","trial_index":203,"plugin_version":"2.1.0","time_elapsed":509133,"subject_id":"87644","group":"Group1","full_date":"2025-12-03T19:33:50.324Z","date":"2025-12-03","time":"19:33:50"},{"rt":null,"stimulus":"<p style=\"font-size: 50px; margin: 0; text-align: center;\">+</p>","response":null,"trial_type":"html-keyboard-response","trial_index":204,"plugin_version":"2.1.0","time_elapsed":510135,"subject_id":"87644","group":"Group1","full_date":"2025-12-03T19:33:50.324Z","date":"2025-12-03","time":"19:33:50"},{"task":"memory_phase","broad_category":"I","image_png":"I_Gabbro_08.png","image_id":56,"category_name":"Gabbro","category":4,"distinct_rating":3.02,"distinct_type":"Bottom","rt":null,"stimulus":"Stimuli_Rocks480/I_Gabbro_08.png","response":null,"trial_type":"image-keyboard-response","trial_index":205,"plugin_version":"2.1.0","time_elapsed":512638,"subject_id":"87644","group":"Group1","full_date":"2025-12-03T19:33:50.324Z","date":"2025-12-03","time":"19:33:50"},{"rt":null,"stimulus":"<p style=\"font-size: 50px; margin: 0; text-align: center;\">+</p>","response":null,"trial_type":"html-keyboard-response","trial_index":206,"plugin_version":"2.1.0","time_elapsed":513641,"subject_id":"87644","group":"Group1","full_date":"2025-12-03T19:33:50.324Z","date":"2025-12-03","time":"19:33:50"},{"task":"memory_phase","broad_category":"M","image_png":"M_Gneiss_05.png","image_id":197,"category_name":"Gneiss","category":13,"distinct_rating":2.97,"distinct_type":"Bottom","rt":null,"stimulus":"Stimuli_Rocks480/M_Gneiss_05.png","response":null,"trial_type":"image-keyboard-response","trial_index":207,"plugin_version":"2.1.0","time_elapsed":516144,"subject_id":"87644","group":"Group1","full_date":"2025-12-03T19:33:50.324Z","date":"2025-12-03","time":"19:33:50"},{"rt":8350,"stimulus":"<p style=\"max-width: 760px; margin: auto; font-size: 35px; line-height: 1.5;\">You have completed 2 study phases. Now, we'll show you all the images again 1 more time.<br><br>Press SPACE to continue</p>","response":" ","trial_type":"html-keyboard-response","trial_index":208,"plugin_version":"2.1.0","time_elapsed":524494,"subject_id":"87644","group":"Group1","full_date":"2025-12-03T19:33:50.324Z","date":"2025-12-03","time":"19:33:50"},{"rt":null,"stimulus":"<p style=\"font-size: 50px; margin: 0; text-align: center;\">+</p>","response":null,"trial_type":"html-keyboard-response","trial_index":209,"plugin_version":"2.1.0","time_elapsed":525497,"subject_id":"87644","group":"Group1","full_date":"2025-12-03T19:33:50.324Z","date":"2025-12-03","time":"19:33:50"},{"task":"memory_phase","broad_category":"I","image_png":"I_Diorite_03.png","image_id":35,"category_name":"Diorite","category":3,"distinct_rating":3.14,"distinct_type":"Bottom","rt":null,"stimulus":"Stimuli_Rocks480/I_Diorite_03.png","response":null,"trial_type":"image-keyboard-response","trial_index":210,"plugin_version":"2.1.0","time_elapsed":528000,"subject_id":"87644","group":"Group1","full_date":"2025-12-03T19:33:50.324Z","date":"2025-12-03","time":"19:33:50"},{"rt":null,"stimulus":"<p style=\"font-size: 50px; margin: 0; text-align: center;\">+</p>","response":null,"trial_type":"html-keyboard-response","trial_index":211,"plugin_version":"2.1.0","time_elapsed":529002,"subject_id":"87644","group":"Group1","full_date":"2025-12-03T19:33:50.324Z","date":"2025-12-03","time":"19:33:50"},{"task":"memory_phase","broad_category":"M","image_png":"M_Marble_04.png","image_id":228,"category_name":"Marble","category":15,"distinct_rating":3.15,"distinct_type":"Bottom","rt":null,"stimulus":"Stimuli_Rocks480/M_Marble_04.png","response":null,"trial_type":"image-keyboard-response","trial_index":212,"plugin_version":"2.1.0","time_elapsed":531505,"subject_id":"87644","group":"Group1","full_date":"2025-12-03T19:33:50.324Z","date":"2025-12-03","time":"19:33:50"},{"rt":null,"stimulus":"<p style=\"font-size: 50px; margin: 0; text-align: center;\">+</p>","response":null,"trial_type":"html-keyboard-response","trial_index":213,"plugin_version":"2.1.0","time_elapsed":532507,"subject_id":"87644","group":"Group1","full_date":"2025-12-03T19:33:50.324Z","date":"2025-12-03","time":"19:33:50"},{"task":"memory_phase","broad_category":"I","image_png":"I_Diorite_05.png","image_id":37,"category_name":"Diorite","category":3,"distinct_rating":3.08,"distinct_type":"Bottom","rt":null,"stimulus":"Stimuli_Rocks480/I_Diorite_05.png","response":null,"trial_type":"image-keyboard-response","trial_index":214,"plugin_version":"2.1.0","time_elapsed":535009,"subject_id":"87644","group":"Group1","full_date":"2025-12-03T19:33:50.324Z","date":"2025-12-03","time":"19:33:50"},{"rt":null,"stimulus":"<p style=\"font-size: 50px; margin: 0; text-align: center;\">+</p>","response":null,"trial_type":"html-keyboard-response","trial_index":215,"plugin_version":"2.1.0","time_elapsed":536011,"subject_id":"87644","group":"Group1","full_date":"2025-12-03T19:33:50.324Z","date":"2025-12-03","time":"19:33:50"},{"task":"memory_phase","broad_category":"I","image_png":"I_Rhyolite_16.png","image_id":160,"category_name":"Rhyolite","category":10,"distinct_rating":2.19,"distinct_type":"Bottom","rt":null,"stimulus":"Stimuli_Rocks480/I_Rhyolite_16.png","response":null,"trial_type":"image-keyboard-response","trial_index":216,"plugin_version":"2.1.0","time_elapsed":538514,"subject_id":"87644","group":"Group1","full_date":"2025-12-03T19:33:50.324Z","date":"2025-12-03","time":"19:33:50"},{"rt":null,"stimulus":"<p style=\"font-size: 50px; margin: 0; text-align: center;\">+</p>","response":null,"trial_type":"html-keyboard-response","trial_index":217,"plugin_version":"2.1.0","time_elapsed":539516,"subject_id":"87644","group":"Group1","full_date":"2025-12-03T19:33:50.324Z","date":"2025-12-03","time":"19:33:50"},{"task":"memory_phase","broad_category":"S","image_png":"S_Dolomite_12.png","image_id":396,"category_name":"Dolomite","category":25,"distinct_rating":1.85,"distinct_type":"Bottom","rt":null,"stimulus":"Stimuli_Rocks480/S_Dolomite_12.png","response":null,"trial_type":"image-keyboard-response","trial_index":218,"plugin_version":"2.1.0","time_elapsed":542019,"subject_id":"87644","group":"Group1","full_date":"2025-12-03T19:33:50.324Z","date":"2025-12-03","time":"19:33:50"},{"rt":null,"stimulus":"<p style=\"font-size: 50px; margin: 0; text-align: center;\">+</p>","response":null,"trial_type":"html-keyboard-response","trial_index":219,"plugin_version":"2.1.0","time_elapsed":543021,"subject_id":"87644","group":"Group1","full_date":"2025-12-03T19:33:50.324Z","date":"2025-12-03","time":"19:33:50"},{"task":"memory_phase","broad_category":"I","image_png":"I_Pumice_11.png","image_id":139,"category_name":"Pumice","category":9,"distinct_rating":1.74,"distinct_type":"Bottom","rt":null,"stimulus":"Stimuli_Rocks480/I_Pumice_11.png","response":null,"trial_type":"image-keyboard-response","trial_index":220,"plugin_version":"2.1.0","time_elapsed":545524,"subject_id":"87644","group":"Group1","full_date":"2025-12-03T19:33:50.324Z","date":"2025-12-03","time":"19:33:50"},{"rt":null,"stimulus":"<p style=\"font-size: 50px; margin: 0; text-align: center;\">+</p>","response":null,"trial_type":"html-keyboard-response","trial_index":221,"plugin_version":"2.1.0","time_elapsed":546526,"subject_id":"87644","group":"Group1","full_date":"2025-12-03T19:33:50.324Z","date":"2025-12-03","time":"19:33:50"},{"task":"memory_phase","broad_category":"S","image_png":"S_Dolomite_13.png","image_id":397,"category_name":"Dolomite","category":25,"distinct_rating":1.77,"distinct_type":"Bottom","rt":null,"stimulus":"Stimuli_Rocks480/S_Dolomite_13.png","response":null,"trial_type":"image-keyboard-response","trial_index":222,"plugin_version":"2.1.0","time_elapsed":549030,"subject_id":"87644","group":"Group1","full_date":"2025-12-03T19:33:50.324Z","date":"2025-12-03","time":"19:33:50"},{"rt":null,"stimulus":"<p style=\"font-size: 50px; margin: 0; text-align: center;\">+</p>","response":null,"trial_type":"html-keyboard-response","trial_index":223,"plugin_version":"2.1.0","time_elapsed":550032,"subject_id":"87644","group":"Group1","full_date":"2025-12-03T19:33:50.324Z","date":"2025-12-03","time":"19:33:50"},{"task":"memory_phase","broad_category":"S","image_png":"S_Rock Salt_01.png","image_id":433,"category_name":"Rock Salt","category":28,"distinct_rating":7.18,"distinct_type":"Top","rt":null,"stimulus":"Stimuli_Rocks480/S_Rock Salt_01.png","response":null,"trial_type":"image-keyboard-response","trial_index":224,"plugin_version":"2.1.0","time_elapsed":552535,"subject_id":"87644","group":"Group1","full_date":"2025-12-03T19:33:50.324Z","date":"2025-12-03","time":"19:33:50"},{"rt":null,"stimulus":"<p style=\"font-size: 50px; margin: 0; text-align: center;\">+</p>","response":null,"trial_type":"html-keyboard-response","trial_index":225,"plugin_version":"2.1.0","time_elapsed":553538,"subject_id":"87644","group":"Group1","full_date":"2025-12-03T19:33:50.324Z","date":"2025-12-03","time":"19:33:50"},{"task":"memory_phase","broad_category":"S","image_png":"S_Sandstone_16.png","image_id":464,"category_name":"Sandstone","category":29,"distinct_rating":1.93,"distinct_type":"Bottom","rt":null,"stimulus":"Stimuli_Rocks480/S_Sandstone_16.png","response":null,"trial_type":"image-keyboard-response","trial_index":226,"plugin_version":"2.1.0","time_elapsed":556041,"subject_id":"87644","group":"Group1","full_date":"2025-12-03T19:33:50.324Z","date":"2025-12-03","time":"19:33:50"},{"rt":null,"stimulus":"<p style=\"font-size: 50px; margin: 0; text-align: center;\">+</p>","response":null,"trial_type":"html-keyboard-response","trial_index":227,"plugin_version":"2.1.0","time_elapsed":557043,"subject_id":"87644","group":"Group1","full_date":"2025-12-03T19:33:50.324Z","date":"2025-12-03","time":"19:33:50"},{"task":"memory_phase","broad_category":"I","image_png":"I_Gabbro_11.png","image_id":59,"category_name":"Gabbro","category":4,"distinct_rating":1.99,"distinct_type":"Bottom","rt":null,"stimulus":"Stimuli_Rocks480/I_Gabbro_11.png","response":null,"trial_type":"image-keyboard-response","trial_index":228,"plugin_version":"2.1.0","time_elapsed":559546,"subject_id":"87644","group":"Group1","full_date":"2025-12-03T19:33:50.324Z","date":"2025-12-03","time":"19:33:50"},{"rt":null,"stimulus":"<p style=\"font-size: 50px; margin: 0; text-align: center;\">+</p>","response":null,"trial_type":"html-keyboard-response","trial_index":229,"plugin_version":"2.1.0","time_elapsed":560549,"subject_id":"87644","group":"Group1","full_date":"2025-12-03T19:33:50.324Z","date":"2025-12-03","time":"19:33:50"},{"task":"memory_phase","broad_category":"M","image_png":"M_Gneiss_06.png","image_id":198,"category_name":"Gneiss","category":13,"distinct_rating":2.65,"distinct_type":"Bottom","rt":null,"stimulus":"Stimuli_Rocks480/M_Gneiss_06.png","response":null,"trial_type":"image-keyboard-response","trial_index":230,"plugin_version":"2.1.0","time_elapsed":563052,"subject_id":"87644","group":"Group1","full_date":"2025-12-03T19:33:50.324Z","date":"2025-12-03","time":"19:33:50"},{"rt":null,"stimulus":"<p style=\"font-size: 50px; margin: 0; text-align: center;\">+</p>","response":null,"trial_type":"html-keyboard-response","trial_index":231,"plugin_version":"2.1.0","time_elapsed":564881,"subject_id":"87644","group":"Group1","full_date":"2025-12-03T19:33:50.324Z","date":"2025-12-03","time":"19:33:50"},{"task":"memory_phase","broad_category":"S","image_png":"S_Conglomerate_05.png","image_id":373,"category_name":"Conglomerate","category":24,"distinct_rating":7.32,"distinct_type":"Top","rt":null,"stimulus":"Stimuli_Rocks480/S_Conglomerate_05.png","response":null,"trial_type":"image-keyboard-response","trial_index":232,"plugin_version":"2.1.0","time_elapsed":567881,"subject_id":"87644","group":"Group1","full_date":"2025-12-03T19:33:50.324Z","date":"2025-12-03","time":"19:33:50"},{"rt":null,"stimulus":"<p style=\"font-size: 50px; margin: 0; text-align: center;\">+</p>","response":null,"trial_type":"html-keyboard-response","trial_index":233,"plugin_version":"2.1.0","time_elapsed":569881,"subject_id":"87644","group":"Group1","full_date":"2025-12-03T19:33:50.324Z","date":"2025-12-03","time":"19:33:50"},{"task":"memory_phase","broad_category":"I","image_png":"I_Pegmatite_16.png","image_id":112,"category_name":"Pegmatite","category":7,"distinct_rating":7.03,"distinct_type":"Top","rt":null,"stimulus":"Stimuli_Rocks480/I_Pegmatite_16.png","response":null,"trial_type":"image-keyboard-response","trial_index":234,"plugin_version":"2.1.0","time_elapsed":572881,"subject_id":"87644","group":"Group1","full_date":"2025-12-03T19:33:50.324Z","date":"2025-12-03","time":"19:33:50"},{"rt":null,"stimulus":"<p style=\"font-size: 50px; margin: 0; text-align: center;\">+</p>","response":null,"trial_type":"html-keyboard-response","trial_index":235,"plugin_version":"2.1.0","time_elapsed":574882,"subject_id":"87644","group":"Group1","full_date":"2025-12-03T19:33:50.324Z","date":"2025-12-03","time":"19:33:50"},{"task":"memory_phase","broad_category":"M","image_png":"M_Quartzite_13.png","image_id":285,"category_name":"Quartzite","category":18,"distinct_rating":2.27,"distinct_type":"Bottom","rt":null,"stimulus":"Stimuli_Rocks480/M_Quartzite_13.png","response":null,"trial_type":"image-keyboard-response","trial_index":236,"plugin_version":"2.1.0","time_elapsed":577881,"subject_id":"87644","group":"Group1","full_date":"2025-12-03T19:33:50.324Z","date":"2025-12-03","time":"19:33:50"},{"rt":null,"stimulus":"<p style=\"font-size: 50px; margin: 0; text-align: center;\">+</p>","response":null,"trial_type":"html-keyboard-response","trial_index":237,"plugin_version":"2.1.0","time_elapsed":579881,"subject_id":"87644","group":"Group1","full_date":"2025-12-03T19:33:50.324Z","date":"2025-12-03","time":"19:33:50"},{"task":"memory_phase","broad_category":"S","image_png":"S_Shale_01.png","image_id":465,"category_name":"Shale","category":30,"distinct_rating":2.7,"distinct_type":"Bottom","rt":null,"stimulus":"Stimuli_Rocks480/S_Shale_01.png","response":null,"trial_type":"image-keyboard-response","trial_index":238,"plugin_version":"2.1.0","time_elapsed":582881,"subject_id":"87644","group":"Group1","full_date":"2025-12-03T19:33:50.324Z","date":"2025-12-03","time":"19:33:50"},{"rt":null,"stimulus":"<p style=\"font-size: 50px; margin: 0; text-align: center;\">+</p>","response":null,"trial_type":"html-keyboard-response","trial_index":239,"plugin_version":"2.1.0","time_elapsed":584882,"subject_id":"87644","group":"Group1","full_date":"2025-12-03T19:33:50.324Z","date":"2025-12-03","time":"19:33:50"},{"task":"memory_phase","broad_category":"I","image_png":"I_Obsidian_05.png","image_id":85,"category_name":"Obsidian","category":6,"distinct_rating":7.32,"distinct_type":"Top","rt":null,"stimulus":"Stimuli_Rocks480/I_Obsidian_05.png","response":null,"trial_type":"image-keyboard-response","trial_index":240,"plugin_version":"2.1.0","time_elapsed":587881,"subject_id":"87644","group":"Group1","full_date":"2025-12-03T19:33:50.324Z","date":"2025-12-03","time":"19:33:50"},{"rt":null,"stimulus":"<p style=\"font-size: 50px; margin: 0; text-align: center;\">+</p>","response":null,"trial_type":"html-keyboard-response","trial_index":241,"plugin_version":"2.1.0","time_elapsed":589881,"subject_id":"87644","group":"Group1","full_date":"2025-12-03T19:33:50.324Z","date":"2025-12-03","time":"19:33:50"},{"task":"memory_phase","broad_category":"I","image_png":"I_Basalt_09.png","image_id":25,"category_name":"Basalt","category":2,"distinct_rating":1.89,"distinct_type":"Bottom","rt":null,"stimulus":"Stimuli_Rocks480/I_Basalt_09.png","response":null,"trial_type":"image-keyboard-response","trial_index":242,"plugin_version":"2.1.0","time_elapsed":592882,"subject_id":"87644","group":"Group1","full_date":"2025-12-03T19:33:50.324Z","date":"2025-12-03","time":"19:33:50"},{"rt":null,"stimulus":"<p style=\"font-size: 50px; margin: 0; text-align: center;\">+</p>","response":null,"trial_type":"html-keyboard-response","trial_index":243,"plugin_version":"2.1.0","time_elapsed":594882,"subject_id":"87644","group":"Group1","full_date":"2025-12-03T19:33:50.324Z","date":"2025-12-03","time":"19:33:50"},{"task":"memory_phase","broad_category":"I","image_png":"I_Pegmatite_10.png","image_id":106,"category_name":"Pegmatite","category":7,"distinct_rating":7.66,"distinct_type":"Top","rt":null,"stimulus":"Stimuli_Rocks480/I_Pegmatite_10.png","response":null,"trial_type":"image-keyboard-response","trial_index":244,"plugin_version":"2.1.0","time_elapsed":597881,"subject_id":"87644","group":"Group1","full_date":"2025-12-03T19:33:50.324Z","date":"2025-12-03","time":"19:33:50"},{"rt":null,"stimulus":"<p style=\"font-size: 50px; margin: 0; text-align: center;\">+</p>","response":null,"trial_type":"html-keyboard-response","trial_index":245,"plugin_version":"2.1.0","time_elapsed":599882,"subject_id":"87644","group":"Group1","full_date":"2025-12-03T19:33:50.324Z","date":"2025-12-03","time":"19:33:50"},{"task":"memory_phase","broad_category":"I","image_png":"I_Rhyolite_14.png","image_id":158,"category_name":"Rhyolite","category":10,"distinct_rating":2.59,"distinct_type":"Bottom","rt":null,"stimulus":"Stimuli_Rocks480/I_Rhyolite_14.png","response":null,"trial_type":"image-keyboard-response","trial_index":246,"plugin_version":"2.1.0","time_elapsed":602881,"subject_id":"87644","group":"Group1","full_date":"2025-12-03T19:33:50.324Z","date":"2025-12-03","time":"19:33:50"},{"rt":null,"stimulus":"<p style=\"font-size: 50px; margin: 0; text-align: center;\">+</p>","response":null,"trial_type":"html-keyboard-response","trial_index":247,"plugin_version":"2.1.0","time_elapsed":604881,"subject_id":"87644","group":"Group1","full_date":"2025-12-03T19:33:50.324Z","date":"2025-12-03","time":"19:33:50"},{"task":"memory_phase","broad_category":"I","image_png":"I_Gabbro_16.png","image_id":64,"category_name":"Gabbro","category":4,"distinct_rating":2.52,"distinct_type":"Bottom","rt":null,"stimulus":"Stimuli_Rocks480/I_Gabbro_16.png","response":null,"trial_type":"image-keyboard-response","trial_index":248,"plugin_version":"2.1.0","time_elapsed":607881,"subject_id":"87644","group":"Gr