[{"width":1440,"height":820,"webaudio":true,"browser":"safari","browser_version":"17.4.1","mobile":false,"os":"Mac OS","fullscreen":true,"vsync_rate":59.35,"webcam":true,"microphone":true,"trial_type":"browser-check","trial_index":0,"plugin_version":"2.1.0","time_elapsed":1020,"subject_id":"88052","group":"Group1","full_date":"2025-12-03T18:24:39.784Z","date":"2025-12-03","time":"18:24:39"},{"success":true,"timeout":false,"failed_images":[],"failed_audio":[],"failed_video":[],"trial_type":"preload","trial_index":1,"plugin_version":"2.1.0","time_elapsed":4154,"subject_id":"88052","group":"Group1","full_date":"2025-12-03T18:24:39.784Z","date":"2025-12-03","time":"18:24:39"},{"rt":9702,"url":"SONA_consent_memorability.html","trial_type":"external-html","trial_index":2,"plugin_version":"2.1.0","time_elapsed":13902,"subject_id":"88052","group":"Group1","full_date":"2025-12-03T18:24:39.784Z","date":"2025-12-03","time":"18:24:39"},{"success":true,"rt":2204,"trial_type":"fullscreen","trial_index":3,"plugin_version":"2.1.0","time_elapsed":17109,"subject_id":"88052","group":"Group1","full_date":"2025-12-03T18:24:39.784Z","date":"2025-12-03","time":"18:24:39"},{"rt":35401,"stimulus":"<div style=\"max-width: 760px; margin: auto; font-size: 20px; line-height: 1.5;\">\n      <h1 style=\"text-align:center; font-size: 30px;\">Instructions</h1>\n      <p>\n        Welcome to the study on <b>visual memory</b>. This experiment consists of <b>two phases</b>: \n        a <b>study phase</b> and a <b>test phase</b>.\n      </p>\n      <p>\n        In the study phase, you will see a series of rock images along with their category labels.\n        The images will appear one at a time.\n        <b>Your task</b> is to learn the categories to which the rock images belong \n        and to remember each image as accurately as possible.\n      </p> \n      <p>\n        Note that we will repeat the study phase <b>3 times</b>, \n        so you will have multiple opportunities to see and remember each image.\n      </p>\n      <p>\n        After the study phase, <b>your memory will be tested</b>. \n        Additional instructions for the test phase will be provided at that time.\n      </p>\n      <p>\n        If your computer has multiple <b>language settings</b> (e.g., English and another language),\n        please make sure it is set to English before starting.\n      </p>\n      <p>\n        You can track your progress using the <b>completion bar</b> at the top of the screen. \n        Please note that the bar will refresh when the test phase begins \n        to give you an accurate sense of your progress in both phases.\n      </p> \n      <p>\n        Press the button below when you are ready to begin.\n      </p>\n    </div>","response":0,"trial_type":"html-button-response","trial_index":4,"plugin_version":"2.1.0","time_elapsed":52512,"subject_id":"88052","group":"Group1","full_date":"2025-12-03T18:24:39.784Z","date":"2025-12-03","time":"18:24:39"},{"rt":null,"stimulus":"<p style=\"font-size: 50px; margin: 0; text-align: center;\">+</p>","response":null,"trial_type":"html-keyboard-response","trial_index":5,"plugin_version":"2.1.0","time_elapsed":53515,"subject_id":"88052","group":"Group1","full_date":"2025-12-03T18:24:39.784Z","date":"2025-12-03","time":"18:24:39"},{"task":"memory_phase","broad_category":"S","image_png":"S_Breccia_11.png","image_id":347,"category_name":"Breccia","category":22,"distinct_rating":6.7,"distinct_type":"Top","rt":null,"stimulus":"Stimuli_Rocks480/S_Breccia_11.png","response":null,"trial_type":"image-keyboard-response","trial_index":6,"plugin_version":"2.1.0","time_elapsed":56043,"subject_id":"88052","group":"Group1","full_date":"2025-12-03T18:24:39.784Z","date":"2025-12-03","time":"18:24:39"},{"rt":null,"stimulus":"<p style=\"font-size: 50px; margin: 0; text-align: center;\">+</p>","response":null,"trial_type":"html-keyboard-response","trial_index":7,"plugin_version":"2.1.0","time_elapsed":57046,"subject_id":"88052","group":"Group1","full_date":"2025-12-03T18:24:39.784Z","date":"2025-12-03","time":"18:24:39"},{"task":"memory_phase","broad_category":"I","image_png":"I_Andesite_08.png","image_id":8,"category_name":"Andesite","category":1,"distinct_rating":1.95,"distinct_type":"Bottom","rt":null,"stimulus":"Stimuli_Rocks480/I_Andesite_08.png","response":null,"trial_type":"image-keyboard-response","trial_index":8,"plugin_version":"2.1.0","time_elapsed":59568,"subject_id":"88052","group":"Group1","full_date":"2025-12-03T18:24:39.784Z","date":"2025-12-03","time":"18:24:39"},{"rt":null,"stimulus":"<p style=\"font-size: 50px; margin: 0; text-align: center;\">+</p>","response":null,"trial_type":"html-keyboard-response","trial_index":9,"plugin_version":"2.1.0","time_elapsed":60571,"subject_id":"88052","group":"Group1","full_date":"2025-12-03T18:24:39.784Z","date":"2025-12-03","time":"18:24:39"},{"task":"memory_phase","broad_category":"M","image_png":"M_Gneiss_13.png","image_id":205,"category_name":"Gneiss","category":13,"distinct_rating":3.26,"distinct_type":"Bottom","rt":null,"stimulus":"Stimuli_Rocks480/M_Gneiss_13.png","response":null,"trial_type":"image-keyboard-response","trial_index":10,"plugin_version":"2.1.0","time_elapsed":63086,"subject_id":"88052","group":"Group1","full_date":"2025-12-03T18:24:39.784Z","date":"2025-12-03","time":"18:24:39"},{"rt":null,"stimulus":"<p style=\"font-size: 50px; margin: 0; text-align: center;\">+</p>","response":null,"trial_type":"html-keyboard-response","trial_index":11,"plugin_version":"2.1.0","time_elapsed":64089,"subject_id":"88052","group":"Group1","full_date":"2025-12-03T18:24:39.784Z","date":"2025-12-03","time":"18:24:39"},{"task":"memory_phase","broad_category":"M","image_png":"M_Gneiss_06.png","image_id":198,"category_name":"Gneiss","category":13,"distinct_rating":2.65,"distinct_type":"Bottom","rt":null,"stimulus":"Stimuli_Rocks480/M_Gneiss_06.png","response":null,"trial_type":"image-keyboard-response","trial_index":12,"plugin_version":"2.1.0","time_elapsed":66610,"subject_id":"88052","group":"Group1","full_date":"2025-12-03T18:24:39.784Z","date":"2025-12-03","time":"18:24:39"},{"rt":null,"stimulus":"<p style=\"font-size: 50px; margin: 0; text-align: center;\">+</p>","response":null,"trial_type":"html-keyboard-response","trial_index":13,"plugin_version":"2.1.0","time_elapsed":67613,"subject_id":"88052","group":"Group1","full_date":"2025-12-03T18:24:39.784Z","date":"2025-12-03","time":"18:24:39"},{"task":"memory_phase","broad_category":"S","image_png":"S_Sandstone_16.png","image_id":464,"category_name":"Sandstone","category":29,"distinct_rating":1.93,"distinct_type":"Bottom","rt":null,"stimulus":"Stimuli_Rocks480/S_Sandstone_16.png","response":null,"trial_type":"image-keyboard-response","trial_index":14,"plugin_version":"2.1.0","time_elapsed":70126,"subject_id":"88052","group":"Group1","full_date":"2025-12-03T18:24:39.784Z","date":"2025-12-03","time":"18:24:39"},{"rt":null,"stimulus":"<p style=\"font-size: 50px; margin: 0; text-align: center;\">+</p>","response":null,"trial_type":"html-keyboard-response","trial_index":15,"plugin_version":"2.1.0","time_elapsed":71128,"subject_id":"88052","group":"Group1","full_date":"2025-12-03T18:24:39.784Z","date":"2025-12-03","time":"18:24:39"},{"task":"memory_phase","broad_category":"I","image_png":"I_Andesite_06.png","image_id":6,"category_name":"Andesite","category":1,"distinct_rating":3.17,"distinct_type":"Bottom","rt":null,"stimulus":"Stimuli_Rocks480/I_Andesite_06.png","response":null,"trial_type":"image-keyboard-response","trial_index":16,"plugin_version":"2.1.0","time_elapsed":73646,"subject_id":"88052","group":"Group1","full_date":"2025-12-03T18:24:39.784Z","date":"2025-12-03","time":"18:24:39"},{"rt":null,"stimulus":"<p style=\"font-size: 50px; margin: 0; text-align: center;\">+</p>","response":null,"trial_type":"html-keyboard-response","trial_index":17,"plugin_version":"2.1.0","time_elapsed":74648,"subject_id":"88052","group":"Group1","full_date":"2025-12-03T18:24:39.784Z","date":"2025-12-03","time":"18:24:39"},{"task":"memory_phase","broad_category":"S","image_png":"S_Rock Gypsum_04.png","image_id":420,"category_name":"Rock Gypsum","category":27,"distinct_rating":7.61,"distinct_type":"Top","rt":null,"stimulus":"Stimuli_Rocks480/S_Rock Gypsum_04.png","response":null,"trial_type":"image-keyboard-response","trial_index":18,"plugin_version":"2.1.0","time_elapsed":77167,"subject_id":"88052","group":"Group1","full_date":"2025-12-03T18:24:39.784Z","date":"2025-12-03","time":"18:24:39"},{"rt":null,"stimulus":"<p style=\"font-size: 50px; margin: 0; text-align: center;\">+</p>","response":null,"trial_type":"html-keyboard-response","trial_index":19,"plugin_version":"2.1.0","time_elapsed":78170,"subject_id":"88052","group":"Group1","full_date":"2025-12-03T18:24:39.784Z","date":"2025-12-03","time":"18:24:39"},{"task":"memory_phase","broad_category":"I","image_png":"I_Rhyolite_11.png","image_id":155,"category_name":"Rhyolite","category":10,"distinct_rating":1.73,"distinct_type":"Bottom","rt":null,"stimulus":"Stimuli_Rocks480/I_Rhyolite_11.png","response":null,"trial_type":"image-keyboard-response","trial_index":20,"plugin_version":"2.1.0","time_elapsed":80686,"subject_id":"88052","group":"Group1","full_date":"2025-12-03T18:24:39.784Z","date":"2025-12-03","time":"18:24:39"},{"rt":null,"stimulus":"<p style=\"font-size: 50px; margin: 0; text-align: center;\">+</p>","response":null,"trial_type":"html-keyboard-response","trial_index":21,"plugin_version":"2.1.0","time_elapsed":81689,"subject_id":"88052","group":"Group1","full_date":"2025-12-03T18:24:39.784Z","date":"2025-12-03","time":"18:24:39"},{"task":"memory_phase","broad_category":"I","image_png":"I_Pegmatite_16.png","image_id":112,"category_name":"Pegmatite","category":7,"distinct_rating":7.03,"distinct_type":"Top","rt":null,"stimulus":"Stimuli_Rocks480/I_Pegmatite_16.png","response":null,"trial_type":"image-keyboard-response","trial_index":22,"plugin_version":"2.1.0","time_elapsed":84206,"subject_id":"88052","group":"Group1","full_date":"2025-12-03T18:24:39.784Z","date":"2025-12-03","time":"18:24:39"},{"rt":null,"stimulus":"<p style=\"font-size: 50px; margin: 0; text-align: center;\">+</p>","response":null,"trial_type":"html-keyboard-response","trial_index":23,"plugin_version":"2.1.0","time_elapsed":85209,"subject_id":"88052","group":"Group1","full_date":"2025-12-03T18:24:39.784Z","date":"2025-12-03","time":"18:24:39"},{"task":"memory_phase","broad_category":"S","image_png":"S_Chert_10.png","image_id":362,"category_name":"Chert","category":23,"distinct_rating":7.17,"distinct_type":"Top","rt":null,"stimulus":"Stimuli_Rocks480/S_Chert_10.png","response":null,"trial_type":"image-keyboard-response","trial_index":24,"plugin_version":"2.1.0","time_elapsed":87726,"subject_id":"88052","group":"Group1","full_date":"2025-12-03T18:24:39.784Z","date":"2025-12-03","time":"18:24:39"},{"rt":null,"stimulus":"<p style=\"font-size: 50px; margin: 0; text-align: center;\">+</p>","response":null,"trial_type":"html-keyboard-response","trial_index":25,"plugin_version":"2.1.0","time_elapsed":88729,"subject_id":"88052","group":"Group1","full_date":"2025-12-03T18:24:39.784Z","date":"2025-12-03","time":"18:24:39"},{"task":"memory_phase","broad_category":"M","image_png":"M_Gneiss_05.png","image_id":197,"category_name":"Gneiss","category":13,"distinct_rating":2.97,"distinct_type":"Bottom","rt":null,"stimulus":"Stimuli_Rocks480/M_Gneiss_05.png","response":null,"trial_type":"image-keyboard-response","trial_index":26,"plugin_version":"2.1.0","time_elapsed":91259,"subject_id":"88052","group":"Group1","full_date":"2025-12-03T18:24:39.784Z","date":"2025-12-03","time":"18:24:39"},{"rt":null,"stimulus":"<p style=\"font-size: 50px; margin: 0; text-align: center;\">+</p>","response":null,"trial_type":"html-keyboard-response","trial_index":27,"plugin_version":"2.1.0","time_elapsed":92261,"subject_id":"88052","group":"Group1","full_date":"2025-12-03T18:24:39.784Z","date":"2025-12-03","time":"18:24:39"},{"task":"memory_phase","broad_category":"I","image_png":"I_Rhyolite_16.png","image_id":160,"category_name":"Rhyolite","category":10,"distinct_rating":2.19,"distinct_type":"Bottom","rt":null,"stimulus":"Stimuli_Rocks480/I_Rhyolite_16.png","response":null,"trial_type":"image-keyboard-response","trial_index":28,"plugin_version":"2.1.0","time_elapsed":94781,"subject_id":"88052","group":"Group1","full_date":"2025-12-03T18:24:39.784Z","date":"2025-12-03","time":"18:24:39"},{"rt":null,"stimulus":"<p style=\"font-size: 50px; margin: 0; text-align: center;\">+</p>","response":null,"trial_type":"html-keyboard-response","trial_index":29,"plugin_version":"2.1.0","time_elapsed":95783,"subject_id":"88052","group":"Group1","full_date":"2025-12-03T18:24:39.784Z","date":"2025-12-03","time":"18:24:39"},{"task":"memory_phase","broad_category":"M","image_png":"M_Slate_15.png","image_id":319,"category_name":"Slate","category":20,"distinct_rating":2.13,"distinct_type":"Bottom","rt":null,"stimulus":"Stimuli_Rocks480/M_Slate_15.png","response":null,"trial_type":"image-keyboard-response","trial_index":30,"plugin_version":"2.1.0","time_elapsed":98298,"subject_id":"88052","group":"Group1","full_date":"2025-12-03T18:24:39.784Z","date":"2025-12-03","time":"18:24:39"},{"rt":null,"stimulus":"<p style=\"font-size: 50px; margin: 0; text-align: center;\">+</p>","response":null,"trial_type":"html-keyboard-response","trial_index":31,"plugin_version":"2.1.0","time_elapsed":99301,"subject_id":"88052","group":"Group1","full_date":"2025-12-03T18:24:39.784Z","date":"2025-12-03","time":"18:24:39"},{"task":"memory_phase","broad_category":"I","image_png":"I_Diorite_03.png","image_id":35,"category_name":"Diorite","category":3,"distinct_rating":3.14,"distinct_type":"Bottom","rt":null,"stimulus":"Stimuli_Rocks480/I_Diorite_03.png","response":null,"trial_type":"image-keyboard-response","trial_index":32,"plugin_version":"2.1.0","time_elapsed":101823,"subject_id":"88052","group":"Group1","full_date":"2025-12-03T18:24:39.784Z","date":"2025-12-03","time":"18:24:39"},{"rt":null,"stimulus":"<p style=\"font-size: 50px; margin: 0; text-align: center;\">+</p>","response":null,"trial_type":"html-keyboard-response","trial_index":33,"plugin_version":"2.1.0","time_elapsed":102825,"subject_id":"88052","group":"Group1","full_date":"2025-12-03T18:24:39.784Z","date":"2025-12-03","time":"18:24:39"},{"task":"memory_phase","broad_category":"M","image_png":"M_Marble_04.png","image_id":228,"category_name":"Marble","category":15,"distinct_rating":3.15,"distinct_type":"Bottom","rt":null,"stimulus":"Stimuli_Rocks480/M_Marble_04.png","response":null,"trial_type":"image-keyboard-response","trial_index":34,"plugin_version":"2.1.0","time_elapsed":105341,"subject_id":"88052","group":"Group1","full_date":"2025-12-03T18:24:39.784Z","date":"2025-12-03","time":"18:24:39"},{"rt":null,"stimulus":"<p style=\"font-size: 50px; margin: 0; text-align: center;\">+</p>","response":null,"trial_type":"html-keyboard-response","trial_index":35,"plugin_version":"2.1.0","time_elapsed":106345,"subject_id":"88052","group":"Group1","full_date":"2025-12-03T18:24:39.784Z","date":"2025-12-03","time":"18:24:39"},{"task":"memory_phase","broad_category":"M","image_png":"M_Phyllite_07.png","image_id":263,"category_name":"Phyllite","category":17,"distinct_rating":2.59,"distinct_type":"Bottom","rt":null,"stimulus":"Stimuli_Rocks480/M_Phyllite_07.png","response":null,"trial_type":"image-keyboard-response","trial_index":36,"plugin_version":"2.1.0","time_elapsed":108861,"subject_id":"88052","group":"Group1","full_date":"2025-12-03T18:24:39.784Z","date":"2025-12-03","time":"18:24:39"},{"rt":null,"stimulus":"<p style=\"font-size: 50px; margin: 0; text-align: center;\">+</p>","response":null,"trial_type":"html-keyboard-response","trial_index":37,"plugin_version":"2.1.0","time_elapsed":109864,"subject_id":"88052","group":"Group1","full_date":"2025-12-03T18:24:39.784Z","date":"2025-12-03","time":"18:24:39"},{"task":"memory_phase","broad_category":"I","image_png":"I_Pumice_08.png","image_id":136,"category_name":"Pumice","category":9,"distinct_rating":3.1,"distinct_type":"Bottom","rt":null,"stimulus":"Stimuli_Rocks480/I_Pumice_08.png","response":null,"trial_type":"image-keyboard-response","trial_index":38,"plugin_version":"2.1.0","time_elapsed":112380,"subject_id":"88052","group":"Group1","full_date":"2025-12-03T18:24:39.784Z","date":"2025-12-03","time":"18:24:39"},{"rt":null,"stimulus":"<p style=\"font-size: 50px; margin: 0; text-align: center;\">+</p>","response":null,"trial_type":"html-keyboard-response","trial_index":39,"plugin_version":"2.1.0","time_elapsed":113382,"subject_id":"88052","group":"Group1","full_date":"2025-12-03T18:24:39.784Z","date":"2025-12-03","time":"18:24:39"},{"task":"memory_phase","broad_category":"I","image_png":"I_Gabbro_11.png","image_id":59,"category_name":"Gabbro","category":4,"distinct_rating":1.99,"distinct_type":"Bottom","rt":null,"stimulus":"Stimuli_Rocks480/I_Gabbro_11.png","response":null,"trial_type":"image-keyboard-response","trial_index":40,"plugin_version":"2.1.0","time_elapsed":115904,"subject_id":"88052","group":"Group1","full_date":"2025-12-03T18:24:39.784Z","date":"2025-12-03","time":"18:24:39"},{"rt":null,"stimulus":"<p style=\"font-size: 50px; margin: 0; text-align: center;\">+</p>","response":null,"trial_type":"html-keyboard-response","trial_index":41,"plugin_version":"2.1.0","time_elapsed":116906,"subject_id":"88052","group":"Group1","full_date":"2025-12-03T18:24:39.784Z","date":"2025-12-03","time":"18:24:39"},{"task":"memory_phase","broad_category":"I","image_png":"I_Pumice_11.png","image_id":139,"category_name":"Pumice","category":9,"distinct_rating":1.74,"distinct_type":"Bottom","rt":null,"stimulus":"Stimuli_Rocks480/I_Pumice_11.png","response":null,"trial_type":"image-keyboard-response","trial_index":42,"plugin_version":"2.1.0","time_elapsed":119418,"subject_id":"88052","group":"Group1","full_date":"2025-12-03T18:24:39.784Z","date":"2025-12-03","time":"18:24:39"},{"rt":null,"stimulus":"<p style=\"font-size: 50px; margin: 0; text-align: center;\">+</p>","response":null,"trial_type":"html-keyboard-response","trial_index":43,"plugin_version":"2.1.0","time_elapsed":120421,"subject_id":"88052","group":"Group1","full_date":"2025-12-03T18:24:39.784Z","date":"2025-12-03","time":"18:24:39"},{"task":"memory_phase","broad_category":"S","image_png":"S_Dolomite_13.png","image_id":397,"category_name":"Dolomite","category":25,"distinct_rating":1.77,"distinct_type":"Bottom","rt":null,"stimulus":"Stimuli_Rocks480/S_Dolomite_13.png","response":null,"trial_type":"image-keyboard-response","trial_index":44,"plugin_version":"2.1.0","time_elapsed":122940,"subject_id":"88052","group":"Group1","full_date":"2025-12-03T18:24:39.784Z","date":"2025-12-03","time":"18:24:39"},{"rt":null,"stimulus":"<p style=\"font-size: 50px; margin: 0; text-align: center;\">+</p>","response":null,"trial_type":"html-keyboard-response","trial_index":45,"plugin_version":"2.1.0","time_elapsed":123943,"subject_id":"88052","group":"Group1","full_date":"2025-12-03T18:24:39.784Z","date":"2025-12-03","time":"18:24:39"},{"task":"memory_phase","broad_category":"M","image_png":"M_Phyllite_10.png","image_id":266,"category_name":"Phyllite","category":17,"distinct_rating":2.6,"distinct_type":"Bottom","rt":null,"stimulus":"Stimuli_Rocks480/M_Phyllite_10.png","response":null,"trial_type":"image-keyboard-response","trial_index":46,"plugin_version":"2.1.0","time_elapsed":126457,"subject_id":"88052","group":"Group1","full_date":"2025-12-03T18:24:39.784Z","date":"2025-12-03","time":"18:24:39"},{"rt":null,"stimulus":"<p style=\"font-size: 50px; margin: 0; text-align: center;\">+</p>","response":null,"trial_type":"html-keyboard-response","trial_index":47,"plugin_version":"2.1.0","time_elapsed":127460,"subject_id":"88052","group":"Group1","full_date":"2025-12-03T18:24:39.784Z","date":"2025-12-03","time":"18:24:39"},{"task":"memory_phase","broad_category":"S","image_png":"S_Shale_01.png","image_id":465,"category_name":"Shale","category":30,"distinct_rating":2.7,"distinct_type":"Bottom","rt":null,"stimulus":"Stimuli_Rocks480/S_Shale_01.png","response":null,"trial_type":"image-keyboard-response","trial_index":48,"plugin_version":"2.1.0","time_elapsed":129976,"subject_id":"88052","group":"Group1","full_date":"2025-12-03T18:24:39.784Z","date":"2025-12-03","time":"18:24:39"},{"rt":null,"stimulus":"<p style=\"font-size: 50px; margin: 0; text-align: center;\">+</p>","response":null,"trial_type":"html-keyboard-response","trial_index":49,"plugin_version":"2.1.0","time_elapsed":130978,"subject_id":"88052","group":"Group1","full_date":"2025-12-03T18:24:39.784Z","date":"2025-12-03","time":"18:24:39"},{"task":"memory_phase","broad_category":"I","image_png":"I_Pegmatite_10.png","image_id":106,"category_name":"Pegmatite","category":7,"distinct_rating":7.66,"distinct_type":"Top","rt":null,"stimulus":"Stimuli_Rocks480/I_Pegmatite_10.png","response":null,"trial_type":"image-keyboard-response","trial_index":50,"plugin_version":"2.1.0","time_elapsed":133499,"subject_id":"88052","group":"Group1","full_date":"2025-12-03T18:24:39.784Z","date":"2025-12-03","time":"18:24:39"},{"rt":null,"stimulus":"<p style=\"font-size: 50px; margin: 0; text-align: center;\">+</p>","response":null,"trial_type":"html-keyboard-response","trial_index":51,"plugin_version":"2.1.0","time_elapsed":134502,"subject_id":"88052","group":"Group1","full_date":"2025-12-03T18:24:39.784Z","date":"2025-12-03","time":"18:24:39"},{"task":"memory_phase","broad_category":"I","image_png":"I_Gabbro_16.png","image_id":64,"category_name":"Gabbro","category":4,"distinct_rating":2.52,"distinct_type":"Bottom","rt":null,"stimulus":"Stimuli_Rocks480/I_Gabbro_16.png","response":null,"trial_type":"image-keyboard-response","trial_index":52,"plugin_version":"2.1.0","time_elapsed":137018,"subject_id":"88052","group":"Group1","full_date":"2025-12-03T18:24:39.784Z","date":"2025-12-03","time":"18:24:39"},{"rt":null,"stimulus":"<p style=\"font-size: 50px; margin: 0; text-align: center;\">+</p>","response":null,"trial_type":"html-keyboard-response","trial_index":53,"plugin_version":"2.1.0","time_elapsed":138020,"subject_id":"88052","group":"Group1","full_date":"2025-12-03T18:24:39.784Z","date":"2025-12-03","time":"18:24:39"},{"task":"memory_phase","broad_category":"S","image_png":"S_Sandstone_15.png","image_id":463,"category_name":"Sandstone","category":29,"distinct_rating":2,"distinct_type":"Bottom","rt":null,"stimulus":"Stimuli_Rocks480/S_Sandstone_15.png","response":null,"trial_type":"image-keyboard-response","trial_index":54,"plugin_version":"2.1.0","time_elapsed":140549,"subject_id":"88052","group":"Group1","full_date":"2025-12-03T18:24:39.784Z","date":"2025-12-03","time":"18:24:39"},{"rt":8649,"stimulus":"<p style=\"max-width: 760px; margin: auto; font-size: 35px; line-height: 1.5;\">Press SPACE to continue study phase</p>","response":" ","trial_type":"html-keyboard-response","trial_index":55,"plugin_version":"2.1.0","time_elapsed":149201,"subject_id":"88052","group":"Group1","full_date":"2025-12-03T18:24:39.784Z","date":"2025-12-03","time":"18:24:39"},{"rt":null,"stimulus":"<p style=\"font-size: 50px; margin: 0; text-align: center;\">+</p>","response":null,"trial_type":"html-keyboard-response","trial_index":56,"plugin_version":"2.1.0","time_elapsed":150204,"subject_id":"88052","group":"Group1","full_date":"2025-12-03T18:24:39.784Z","date":"2025-12-03","time":"18:24:39"},{"task":"memory_phase","broad_category":"S","image_png":"S_Shale_08.png","image_id":472,"category_name":"Shale","category":30,"distinct_rating":2.55,"distinct_type":"Bottom","rt":null,"stimulus":"Stimuli_Rocks480/S_Shale_08.png","response":null,"trial_type":"image-keyboard-response","trial_index":57,"plugin_version":"2.1.0","time_elapsed":152723,"subject_id":"88052","group":"Group1","full_date":"2025-12-03T18:24:39.784Z","date":"2025-12-03","time":"18:24:39"},{"rt":null,"stimulus":"<p style=\"font-size: 50px; margin: 0; text-align: center;\">+</p>","response":null,"trial_type":"html-keyboard-response","trial_index":58,"plugin_version":"2.1.0","time_elapsed":153725,"subject_id":"88052","group":"Group1","full_date":"2025-12-03T18:24:39.784Z","date":"2025-12-03","time":"18:24:39"},{"task":"memory_phase","broad_category":"I","image_png":"I_Obsidian_05.png","image_id":85,"category_name":"Obsidian","category":6,"distinct_rating":7.32,"distinct_type":"Top","rt":null,"stimulus":"Stimuli_Rocks480/I_Obsidian_05.png","response":null,"trial_type":"image-keyboard-response","trial_index":59,"plugin_version":"2.1.0","time_elapsed":156245,"subject_id":"88052","group":"Group1","full_date":"2025-12-03T18:24:39.784Z","date":"2025-12-03","time":"18:24:39"},{"rt":null,"stimulus":"<p style=\"font-size: 50px; margin: 0; text-align: center;\">+</p>","response":null,"trial_type":"html-keyboard-response","trial_index":60,"plugin_version":"2.1.0","time_elapsed":157247,"subject_id":"88052","group":"Group1","full_date":"2025-12-03T18:24:39.784Z","date":"2025-12-03","time":"18:24:39"},{"task":"memory_phase","broad_category":"S","image_png":"S_Conglomerate_05.png","image_id":373,"category_name":"Conglomerate","category":24,"distinct_rating":7.32,"distinct_type":"Top","rt":null,"stimulus":"Stimuli_Rocks480/S_Conglomerate_05.png","response":null,"trial_type":"image-keyboard-response","trial_index":61,"plugin_version":"2.1.0","time_elapsed":159770,"subject_id":"88052","group":"Group1","full_date":"2025-12-03T18:24:39.784Z","date":"2025-12-03","time":"18:24:39"},{"rt":null,"stimulus":"<p style=\"font-size: 50px; margin: 0; text-align: center;\">+</p>","response":null,"trial_type":"html-keyboard-response","trial_index":62,"plugin_version":"2.1.0","time_elapsed":160773,"subject_id":"88052","group":"Group1","full_date":"2025-12-03T18:24:39.784Z","date":"2025-12-03","time":"18:24:39"},{"task":"memory_phase","broad_category":"M","image_png":"M_Quartzite_08.png","image_id":280,"category_name":"Quartzite","category":18,"distinct_rating":2.15,"distinct_type":"Bottom","rt":null,"stimulus":"Stimuli_Rocks480/M_Quartzite_08.png","response":null,"trial_type":"image-keyboard-response","trial_index":63,"plugin_version":"2.1.0","time_elapsed":163290,"subject_id":"88052","group":"Group1","full_date":"2025-12-03T18:24:39.784Z","date":"2025-12-03","time":"18:24:39"},{"rt":null,"stimulus":"<p style=\"font-size: 50px; margin: 0; text-align: center;\">+</p>","response":null,"trial_type":"html-keyboard-response","trial_index":64,"plugin_version":"2.1.0","time_elapsed":164293,"subject_id":"88052","group":"Group1","full_date":"2025-12-03T18:24:39.784Z","date":"2025-12-03","time":"18:24:39"},{"task":"memory_phase","broad_category":"I","image_png":"I_Rhyolite_14.png","image_id":158,"category_name":"Rhyolite","category":10,"distinct_rating":2.59,"distinct_type":"Bottom","rt":null,"stimulus":"Stimuli_Rocks480/I_Rhyolite_14.png","response":null,"trial_type":"image-keyboard-response","trial_index":65,"plugin_version":"2.1.0","time_elapsed":166815,"subject_id":"88052","group":"Group1","full_date":"2025-12-03T18:24:39.784Z","date":"2025-12-03","time":"18:24:39"},{"rt":null,"stimulus":"<p style=\"font-size: 50px; margin: 0; text-align: center;\">+</p>","response":null,"trial_type":"html-keyboard-response","trial_index":66,"plugin_version":"2.1.0","time_elapsed":167818,"subject_id":"88052","group":"Group1","full_date":"2025-12-03T18:24:39.784Z","date":"2025-12-03","time":"18:24:39"},{"task":"memory_phase","broad_category":"M","image_png":"M_Marble_06.png","image_id":230,"category_name":"Marble","category":15,"distinct_rating":3.4,"distinct_type":"Bottom","rt":null,"stimulus":"Stimuli_Rocks480/M_Marble_06.png","response":null,"trial_type":"image-keyboard-response","trial_index":67,"plugin_version":"2.1.0","time_elapsed":170335,"subject_id":"88052","group":"Group1","full_date":"2025-12-03T18:24:39.784Z","date":"2025-12-03","time":"18:24:39"},{"rt":null,"stimulus":"<p style=\"font-size: 50px; margin: 0; text-align: center;\">+</p>","response":null,"trial_type":"html-keyboard-response","trial_index":68,"plugin_version":"2.1.0","time_elapsed":171337,"subject_id":"88052","group":"Group1","full_date":"2025-12-03T18:24:39.784Z","date":"2025-12-03","time":"18:24:39"},{"task":"memory_phase","broad_category":"S","image_png":"S_Dolomite_12.png","image_id":396,"category_name":"Dolomite","category":25,"distinct_rating":1.85,"distinct_type":"Bottom","rt":null,"stimulus":"Stimuli_Rocks480/S_Dolomite_12.png","response":null,"trial_type":"image-keyboard-response","trial_index":69,"plugin_version":"2.1.0","time_elapsed":173856,"subject_id":"88052","group":"Group1","full_date":"2025-12-03T18:24:39.784Z","date":"2025-12-03","time":"18:24:39"},{"rt":null,"stimulus":"<p style=\"font-size: 50px; margin: 0; text-align: center;\">+</p>","response":null,"trial_type":"html-keyboard-response","trial_index":70,"plugin_version":"2.1.0","time_elapsed":174859,"subject_id":"88052","group":"Group1","full_date":"2025-12-03T18:24:39.784Z","date":"2025-12-03","time":"18:24:39"},{"task":"memory_phase","broad_category":"M","image_png":"M_Marble_16.png","image_id":240,"category_name":"Marble","category":15,"distinct_rating":2.57,"distinct_type":"Bottom","rt":null,"stimulus":"Stimuli_Rocks480/M_Marble_16.png","response":null,"trial_type":"image-keyboard-response","trial_index":71,"plugin_version":"2.1.0","time_elapsed":177377,"subject_id":"88052","group":"Group1","full_date":"2025-12-03T18:24:39.784Z","date":"2025-12-03","time":"18:24:39"},{"rt":null,"stimulus":"<p style=\"font-size: 50px; margin: 0; text-align: center;\">+</p>","response":null,"trial_type":"html-keyboard-response","trial_index":72,"plugin_version":"2.1.0","time_elapsed":178379,"subject_id":"88052","group":"Group1","full_date":"2025-12-03T18:24:39.784Z","date":"2025-12-03","time":"18:24:39"},{"task":"memory_phase","broad_category":"S","image_png":"S_Dolomite_14.png","image_id":398,"category_name":"Dolomite","category":25,"distinct_rating":1.43,"distinct_type":"Bottom","rt":null,"stimulus":"Stimuli_Rocks480/S_Dolomite_14.png","response":null,"trial_type":"image-keyboard-response","trial_index":73,"plugin_version":"2.1.0","time_elapsed":180908,"subject_id":"88052","group":"Group1","full_date":"2025-12-03T18:24:39.784Z","date":"2025-12-03","time":"18:24:39"},{"rt":null,"stimulus":"<p style=\"font-size: 50px; margin: 0; text-align: center;\">+</p>","response":null,"trial_type":"html-keyboard-response","trial_index":74,"plugin_version":"2.1.0","time_elapsed":181910,"subject_id":"88052","group":"Group1","full_date":"2025-12-03T18:24:39.784Z","date":"2025-12-03","time":"18:24:39"},{"task":"memory_phase","broad_category":"I","image_png":"I_Basalt_02.png","image_id":18,"category_name":"Basalt","category":2,"distinct_rating":1.84,"distinct_type":"Bottom","rt":null,"stimulus":"Stimuli_Rocks480/I_Basalt_02.png","response":null,"trial_type":"image-keyboard-response","trial_index":75,"plugin_version":"2.1.0","time_elapsed":184427,"subject_id":"88052","group":"Group1","full_date":"2025-12-03T18:24:39.784Z","date":"2025-12-03","time":"18:24:39"},{"rt":null,"stimulus":"<p style=\"font-size: 50px; margin: 0; text-align: center;\">+</p>","response":null,"trial_type":"html-keyboard-response","trial_index":76,"plugin_version":"2.1.0","time_elapsed":185430,"subject_id":"88052","group":"Group1","full_date":"2025-12-03T18:24:39.784Z","date":"2025-12-03","time":"18:24:39"},{"task":"memory_phase","broad_category":"I","image_png":"I_Pumice_12.png","image_id":140,"category_name":"Pumice","category":9,"distinct_rating":2.97,"distinct_type":"Bottom","rt":null,"stimulus":"Stimuli_Rocks480/I_Pumice_12.png","response":null,"trial_type":"image-keyboard-response","trial_index":77,"plugin_version":"2.1.0","time_elapsed":187944,"subject_id":"88052","group":"Group1","full_date":"2025-12-03T18:24:39.784Z","date":"2025-12-03","time":"18:24:39"},{"rt":null,"stimulus":"<p style=\"font-size: 50px; margin: 0; text-align: center;\">+</p>","response":null,"trial_type":"html-keyboard-response","trial_index":78,"plugin_version":"2.1.0","time_elapsed":188946,"subject_id":"88052","group":"Group1","full_date":"2025-12-03T18:24:39.784Z","date":"2025-12-03","time":"18:24:39"},{"task":"memory_phase","broad_category":"S","image_png":"S_Rock Salt_01.png","image_id":433,"category_name":"Rock Salt","category":28,"distinct_rating":7.18,"distinct_type":"Top","rt":null,"stimulus":"Stimuli_Rocks480/S_Rock Salt_01.png","response":null,"trial_type":"image-keyboard-response","trial_index":79,"plugin_version":"2.1.0","time_elapsed":191472,"subject_id":"88052","group":"Group1","full_date":"2025-12-03T18:24:39.784Z","date":"2025-12-03","time":"18:24:39"},{"rt":null,"stimulus":"<p style=\"font-size: 50px; margin: 0; text-align: center;\">+</p>","response":null,"trial_type":"html-keyboard-response","trial_index":80,"plugin_version":"2.1.0","time_elapsed":192474,"subject_id":"88052","group":"Group1","full_date":"2025-12-03T18:24:39.784Z","date":"2025-12-03","time":"18:24:39"},{"task":"memory_phase","broad_category":"I","image_png":"I_Diorite_05.png","image_id":37,"category_name":"Diorite","category":3,"distinct_rating":3.08,"distinct_type":"Bottom","rt":null,"stimulus":"Stimuli_Rocks480/I_Diorite_05.png","response":null,"trial_type":"image-keyboard-response","trial_index":81,"plugin_version":"2.1.0","time_elapsed":194991,"subject_id":"88052","group":"Group1","full_date":"2025-12-03T18:24:39.784Z","date":"2025-12-03","time":"18:24:39"},{"rt":null,"stimulus":"<p style=\"font-size: 50px; margin: 0; text-align: center;\">+</p>","response":null,"trial_type":"html-keyboard-response","trial_index":82,"plugin_version":"2.1.0","time_elapsed":195994,"subject_id":"88052","group":"Group1","full_date":"2025-12-03T18:24:39.784Z","date":"2025-12-03","time":"18:24:39"},{"task":"memory_phase","broad_category":"M","image_png":"M_Phyllite_03.png","image_id":259,"category_name":"Phyllite","category":17,"distinct_rating":2.5,"distinct_type":"Bottom","rt":null,"stimulus":"Stimuli_Rocks480/M_Phyllite_03.png","response":null,"trial_type":"image-keyboard-response","trial_index":83,"plugin_version":"2.1.0","time_elapsed":198511,"subject_id":"88052","group":"Group1","full_date":"2025-12-03T18:24:39.784Z","date":"2025-12-03","time":"18:24:39"},{"rt":null,"stimulus":"<p style=\"font-size: 50px; margin: 0; text-align: center;\">+</p>","response":null,"trial_type":"html-keyboard-response","trial_index":84,"plugin_version":"2.1.0","time_elapsed":199513,"subject_id":"88052","group":"Group1","full_date":"2025-12-03T18:24:39.784Z","date":"2025-12-03","time":"18:24:39"},{"task":"memory_phase","broad_category":"S","image_png":"S_Shale_12.png","image_id":476,"category_name":"Shale","category":30,"distinct_rating":2.48,"distinct_type":"Bottom","rt":null,"stimulus":"Stimuli_Rocks480/S_Shale_12.png","response":null,"trial_type":"image-keyboard-response","trial_index":85,"plugin_version":"2.1.0","time_elapsed":202032,"subject_id":"88052","group":"Group1","full_date":"2025-12-03T18:24:39.784Z","date":"2025-12-03","time":"18:24:39"},{"rt":null,"stimulus":"<p style=\"font-size: 50px; margin: 0; text-align: center;\">+</p>","response":null,"trial_type":"html-keyboard-response","trial_index":86,"plugin_version":"2.1.0","time_elapsed":203035,"subject_id":"88052","group":"Group1","full_date":"2025-12-03T18:24:39.784Z","date":"2025-12-03","time":"18:24:39"},{"task":"memory_phase","broad_category":"I","image_png":"I_Andesite_10.png","image_id":10,"category_name":"Andesite","category":1,"distinct_rating":3.15,"distinct_type":"Bottom","rt":null,"stimulus":"Stimuli_Rocks480/I_Andesite_10.png","response":null,"trial_type":"image-keyboard-response","trial_index":87,"plugin_version":"2.1.0","time_elapsed":205548,"subject_id":"88052","group":"Group1","full_date":"2025-12-03T18:24:39.784Z","date":"2025-12-03","time":"18:24:39"},{"rt":null,"stimulus":"<p style=\"font-size: 50px; margin: 0; text-align: center;\">+</p>","response":null,"trial_type":"html-keyboard-response","trial_index":88,"plugin_version":"2.1.0","time_elapsed":206550,"subject_id":"88052","group":"Group1","full_date":"2025-12-03T18:24:39.784Z","date":"2025-12-03","time":"18:24:39"},{"task":"memory_phase","broad_category":"S","image_png":"S_Sandstone_03.png","image_id":451,"category_name":"Sandstone","category":29,"distinct_rating":1.86,"distinct_type":"Bottom","rt":null,"stimulus":"Stimuli_Rocks480/S_Sandstone_03.png","response":null,"trial_type":"image-keyboard-response","trial_index":89,"plugin_version":"2.1.0","time_elapsed":209065,"subject_id":"88052","group":"Group1","full_date":"2025-12-03T18:24:39.784Z","date":"2025-12-03","time":"18:24:39"},{"rt":null,"stimulus":"<p style=\"font-size: 50px; margin: 0; text-align: center;\">+</p>","response":null,"trial_type":"html-keyboard-response","trial_index":90,"plugin_version":"2.1.0","time_elapsed":210068,"subject_id":"88052","group":"Group1","full_date":"2025-12-03T18:24:39.784Z","date":"2025-12-03","time":"18:24:39"},{"task":"memory_phase","broad_category":"M","image_png":"M_Slate_11.png","image_id":315,"category_name":"Slate","category":20,"distinct_rating":2.75,"distinct_type":"Bottom","rt":null,"stimulus":"Stimuli_Rocks480/M_Slate_11.png","response":null,"trial_type":"image-keyboard-response","trial_index":91,"plugin_version":"2.1.0","time_elapsed":212582,"subject_id":"88052","group":"Group1","full_date":"2025-12-03T18:24:39.784Z","date":"2025-12-03","time":"18:24:39"},{"rt":null,"stimulus":"<p style=\"font-size: 50px; margin: 0; text-align: center;\">+</p>","response":null,"trial_type":"html-keyboard-response","trial_index":92,"plugin_version":"2.1.0","time_elapsed":213584,"subject_id":"88052","group":"Group1","full_date":"2025-12-03T18:24:39.784Z","date":"2025-12-03","time":"18:24:39"},{"task":"memory_phase","broad_category":"I","image_png":"I_Basalt_01.png","image_id":17,"category_name":"Basalt","category":2,"distinct_rating":1.92,"distinct_type":"Bottom","rt":null,"stimulus":"Stimuli_Rocks480/I_Basalt_01.png","response":null,"trial_type":"image-keyboard-response","trial_index":93,"plugin_version":"2.1.0","time_elapsed":216106,"subject_id":"88052","group":"Group1","full_date":"2025-12-03T18:24:39.784Z","date":"2025-12-03","time":"18:24:39"},{"rt":null,"stimulus":"<p style=\"font-size: 50px; margin: 0; text-align: center;\">+</p>","response":null,"trial_type":"html-keyboard-response","trial_index":94,"plugin_version":"2.1.0","time_elapsed":217109,"subject_id":"88052","group":"Group1","full_date":"2025-12-03T18:24:39.784Z","date":"2025-12-03","time":"18:24:39"},{"task":"memory_phase","broad_category":"M","image_png":"M_Quartzite_05.png","image_id":277,"category_name":"Quartzite","category":18,"distinct_rating":2.23,"distinct_type":"Bottom","rt":null,"stimulus":"Stimuli_Rocks480/M_Quartzite_05.png","response":null,"trial_type":"image-keyboard-response","trial_index":95,"plugin_version":"2.1.0","time_elapsed":219629,"subject_id":"88052","group":"Group1","full_date":"2025-12-03T18:24:39.784Z","date":"2025-12-03","time":"18:24:39"},{"rt":null,"stimulus":"<p style=\"font-size: 50px; margin: 0; text-align: center;\">+</p>","response":null,"trial_type":"html-keyboard-response","trial_index":96,"plugin_version":"2.1.0","time_elapsed":220632,"subject_id":"88052","group":"Group1","full_date":"2025-12-03T18:24:39.784Z","date":"2025-12-03","time":"18:24:39"},{"task":"memory_phase","broad_category":"I","image_png":"I_Diorite_04.png","image_id":36,"category_name":"Diorite","category":3,"distinct_rating":2.98,"distinct_type":"Bottom","rt":null,"stimulus":"Stimuli_Rocks480/I_Diorite_04.png","response":null,"trial_type":"image-keyboard-response","trial_index":97,"plugin_version":"2.1.0","time_elapsed":223155,"subject_id":"88052","group":"Group1","full_date":"2025-12-03T18:24:39.784Z","date":"2025-12-03","time":"18:24:39"},{"rt":null,"stimulus":"<p style=\"font-size: 50px; margin: 0; text-align: center;\">+</p>","response":null,"trial_type":"html-keyboard-response","trial_index":98,"plugin_version":"2.1.0","time_elapsed":224157,"subject_id":"88052","group":"Group1","full_date":"2025-12-03T18:24:39.784Z","date":"2025-12-03","time":"18:24:39"},{"task":"memory_phase","broad_category":"I","image_png":"I_Gabbro_08.png","image_id":56,"category_name":"Gabbro","category":4,"distinct_rating":3.02,"distinct_type":"Bottom","rt":null,"stimulus":"Stimuli_Rocks480/I_Gabbro_08.png","response":null,"trial_type":"image-keyboard-response","trial_index":99,"plugin_version":"2.1.0","time_elapsed":226673,"subject_id":"88052","group":"Group1","full_date":"2025-12-03T18:24:39.784Z","date":"2025-12-03","time":"18:24:39"},{"rt":null,"stimulus":"<p style=\"font-size: 50px; margin: 0; text-align: center;\">+</p>","response":null,"trial_type":"html-keyboard-response","trial_index":100,"plugin_version":"2.1.0","time_elapsed":227675,"subject_id":"88052","group":"Group1","full_date":"2025-12-03T18:24:39.784Z","date":"2025-12-03","time":"18:24:39"},{"task":"memory_phase","broad_category":"I","image_png":"I_Basalt_09.png","image_id":25,"category_name":"Basalt","category":2,"distinct_rating":1.89,"distinct_type":"Bottom","rt":null,"stimulus":"Stimuli_Rocks480/I_Basalt_09.png","response":null,"trial_type":"image-keyboard-response","trial_index":101,"plugin_version":"2.1.0","time_elapsed":230189,"subject_id":"88052","group":"Group1","full_date":"2025-12-03T18:24:39.784Z","date":"2025-12-03","time":"18:24:39"},{"rt":null,"stimulus":"<p style=\"font-size: 50px; margin: 0; text-align: center;\">+</p>","response":null,"trial_type":"html-keyboard-response","trial_index":102,"plugin_version":"2.1.0","time_elapsed":231192,"subject_id":"88052","group":"Group1","full_date":"2025-12-03T18:24:39.784Z","date":"2025-12-03","time":"18:24:39"},{"task":"memory_phase","broad_category":"M","image_png":"M_Slate_03.png","image_id":307,"category_name":"Slate","category":20,"distinct_rating":1.87,"distinct_type":"Bottom","rt":null,"stimulus":"Stimuli_Rocks480/M_Slate_03.png","response":null,"trial_type":"image-keyboard-response","trial_index":103,"plugin_version":"2.1.0","time_elapsed":233711,"subject_id":"88052","group":"Group1","full_date":"2025-12-03T18:24:39.784Z","date":"2025-12-03","time":"18:24:39"},{"rt":null,"stimulus":"<p style=\"font-size: 50px; margin: 0; text-align: center;\">+</p>","response":null,"trial_type":"html-keyboard-response","trial_index":104,"plugin_version":"2.1.0","time_elapsed":234713,"subject_id":"88052","group":"Group1","full_date":"2025-12-03T18:24:39.784Z","date":"2025-12-03","time":"18:24:39"},{"task":"memory_phase","broad_category":"M","image_png":"M_Quartzite_13.png","image_id":285,"category_name":"Quartzite","category":18,"distinct_rating":2.27,"distinct_type":"Bottom","rt":null,"stimulus":"Stimuli_Rocks480/M_Quartzite_13.png","response":null,"trial_type":"image-keyboard-response","trial_index":105,"plugin_version":"2.1.0","time_elapsed":237231,"subject_id":"88052","group":"Group1","full_date":"2025-12-03T18:24:39.784Z","date":"2025-12-03","time":"18:24:39"},{"rt":2317075,"stimulus":"<p style=\"max-width: 760px; margin: auto; font-size: 35px; line-height: 1.5;\">You have completed 1 study phase. Now, we'll show you all the images again 2 more times.<br><br>Press SPACE to continue</p>","response":" ","trial_type":"html-keyboard-response","trial_index":106,"plugin_version":"2.1.0","time_elapsed":8895550,"subject_id":"88052","group":"Group1","full_date":"2025-12-03T18:24:39.784Z","date":"2025-12-03","time":"18:24:39"},{"rt":null,"stimulus":"<p style=\"font-size: 50px; margin: 0; text-align: center;\">+</p>","response":null,"trial_type":"html-keyboard-response","trial_index":107,"plugin_version":"2.1.0","time_elapsed":8896559,"subject_id":"88052","group":"Group1","full_date":"2025-12-03T18:24:39.784Z","date":"2025-12-03","time":"18:24:39"},{"task":"memory_phase","broad_category":"I","image_png":"I_Obsidian_05.png","image_id":85,"category_name":"Obsidian","category":6,"distinct_rating":7.32,"distinct_type":"Top","rt":null,"stimulus":"Stimuli_Rocks480/I_Obsidian_05.png","response":null,"trial_type":"image-keyboard-response","trial_index":108,"plugin_version":"2.1.0","time_elapsed":8899104,"subject_id":"88052","group":"Group1","full_date":"2025-12-03T18:24:39.784Z","date":"2025-12-03","time":"18:24:39"},{"rt":null,"stimulus":"<p style=\"font-size: 50px; margin: 0; text-align: center;\">+</p>","response":null,"trial_type":"html-keyboard-response","trial_index":109,"plugin_version":"2.1.0","time_elapsed":8900108,"subject_id":"88052","group":"Group1","full_date":"2025-12-03T18:24:39.784Z","date":"2025-12-03","time":"18:24:39"},{"task":"memory_phase","broad_category":"M","image_png":"M_Phyllite_07.png","image_id":263,"category_name":"Phyllite","category":17,"distinct_rating":2.59,"distinct_type":"Bottom","rt":null,"stimulus":"Stimuli_Rocks480/M_Phyllite_07.png","response":null,"trial_type":"image-keyboard-response","trial_index":110,"plugin_version":"2.1.0","time_elapsed":8902630,"subject_id":"88052","group":"Group1","full_date":"2025-12-03T18:24:39.784Z","date":"2025-12-03","time":"18:24:39"},{"rt":null,"stimulus":"<p style=\"font-size: 50px; margin: 0; text-align: center;\">+</p>","response":null,"trial_type":"html-keyboard-response","trial_index":111,"plugin_version":"2.1.0","time_elapsed":8903634,"subject_id":"88052","group":"Group1","full_date":"2025-12-03T18:24:39.784Z","date":"2025-12-03","time":"18:24:39"},{"task":"memory_phase","broad_category":"M","image_png":"M_Phyllite_10.png","image_id":266,"category_name":"Phyllite","category":17,"distinct_rating":2.6,"distinct_type":"Bottom","rt":null,"stimulus":"Stimuli_Rocks480/M_Phyllite_10.png","response":null,"trial_type":"image-keyboard-response","trial_index":112,"plugin_version":"2.1.0","time_elapsed":8906155,"subject_id":"88052","group":"Group1","full_date":"2025-12-03T18:24:39.784Z","date":"2025-12-03","time":"18:24:39"},{"rt":null,"stimulus":"<p style=\"font-size: 50px; margin: 0; text-align: center;\">+</p>","response":null,"trial_type":"html-keyboard-response","trial_index":113,"plugin_version":"2.1.0","time_elapsed":8907157,"subject_id":"88052","group":"Group1","full_date":"2025-12-03T18:24:39.784Z","date":"2025-12-03","time":"18:24:39"},{"task":"memory_phase","broad_category":"S","image_png":"S_Sandstone_03.png","image_id":451,"category_name":"Sandstone","category":29,"distinct_rating":1.86,"distinct_type":"Bottom","rt":null,"stimulus":"Stimuli_Rocks480/S_Sandstone_03.png","response":null,"trial_type":"image-keyboard-response","trial_index":114,"plugin_version":"2.1.0","time_elapsed":8909693,"subject_id":"88052","group":"Group1","full_date":"2025-12-03T18:24:39.784Z","date":"2025-12-03","time":"18:24:39"},{"rt":null,"stimulus":"<p style=\"font-size: 50px; margin: 0; text-align: center;\">+</p>","response":null,"trial_type":"html-keyboard-response","trial_index":115,"plugin_version":"2.1.0","time_elapsed":8910696,"subject_id":"88052","group":"Group1","full_date":"2025-12-03T18:24:39.784Z","date":"2025-12-03","time":"18:24:39"},{"task":"memory_phase","broad_category":"M","image_png":"M_Gneiss_05.png","image_id":197,"category_name":"Gneiss","category":13,"distinct_rating":2.97,"distinct_type":"Bottom","rt":null,"stimulus":"Stimuli_Rocks480/M_Gneiss_05.png","response":null,"trial_type":"image-keyboard-response","trial_index":116,"plugin_version":"2.1.0","time_elapsed":8913221,"subject_id":"88052","group":"Group1","full_date":"2025-12-03T18:24:39.784Z","date":"2025-12-03","time":"18:24:39"},{"rt":null,"stimulus":"<p style=\"font-size: 50px; margin: 0; text-align: center;\">+</p>","response":null,"trial_type":"html-keyboard-response","trial_index":117,"plugin_version":"2.1.0","time_elapsed":8914224,"subject_id":"88052","group":"Group1","full_date":"2025-12-03T18:24:39.784Z","date":"2025-12-03","time":"18:24:39"},{"task":"memory_phase","broad_category":"S","image_png":"S_Rock Gypsum_04.png","image_id":420,"category_name":"Rock Gypsum","category":27,"distinct_rating":7.61,"distinct_type":"Top","rt":null,"stimulus":"Stimuli_Rocks480/S_Rock Gypsum_04.png","response":null,"trial_type":"image-keyboard-response","trial_index":118,"plugin_version":"2.1.0","time_elapsed":8916758,"subject_id":"88052","group":"Group1","full_date":"2025-12-03T18:24:39.784Z","date":"2025-12-03","time":"18:24:39"},{"rt":null,"stimulus":"<p style=\"font-size: 50px; margin: 0; text-align: center;\">+</p>","response":null,"trial_type":"html-keyboard-response","trial_index":119,"plugin_version":"2.1.0","time_elapsed":8917760,"subject_id":"88052","group":"Group1","full_date":"2025-12-03T18:24:39.784Z","date":"2025-12-03","time":"18:24:39"},{"task":"memory_phase","broad_category":"M","image_png":"M_Gneiss_06.png","image_id":198,"category_name":"Gneiss","category":13,"distinct_rating":2.65,"distinct_type":"Bottom","rt":null,"stimulus":"Stimuli_Rocks480/M_Gneiss_06.png","response":null,"trial_type":"image-keyboard-response","trial_index":120,"plugin_version":"2.1.0","time_elapsed":8920298,"subject_id":"88052","group":"Group1","full_date":"2025-12-03T18:24:39.784Z","date":"2025-12-03","time":"18:24:39"},{"rt":null,"stimulus":"<p style=\"font-size: 50px; margin: 0; text-align: center;\">+</p>","response":null,"trial_type":"html-keyboard-response","trial_index":121,"plugin_version":"2.1.0","time_elapsed":8921301,"subject_id":"88052","group":"Group1","full_date":"2025-12-03T18:24:39.784Z","date":"2025-12-03","time":"18:24:39"},{"task":"memory_phase","broad_category":"S","image_png":"S_Rock Salt_01.png","image_id":433,"category_name":"Rock Salt","category":28,"distinct_rating":7.18,"distinct_type":"Top","rt":null,"stimulus":"Stimuli_Rocks480/S_Rock Salt_01.png","response":null,"trial_type":"image-keyboard-response","trial_index":122,"plugin_version":"2.1.0","time_elapsed":8923843,"subject_id":"88052","group":"Group1","full_date":"2025-12-03T18:24:39.784Z","date":"2025-12-03","time":"18:24:39"},{"rt":null,"stimulus":"<p style=\"font-size: 50px; margin: 0; text-align: center;\">+</p>","response":null,"trial_type":"html-keyboard-response","trial_index":123,"plugin_version":"2.1.0","time_elapsed":8924846,"subject_id":"88052","group":"Group1","full_date":"2025-12-03T18:24:39.784Z","date":"2025-12-03","time":"18:24:39"},{"task":"memory_phase","broad_category":"S","image_png":"S_Sandstone_16.png","image_id":464,"category_name":"Sandstone","category":29,"distinct_rating":1.93,"distinct_type":"Bottom","rt":null,"stimulus":"Stimuli_Rocks480/S_Sandstone_16.png","response":null,"trial_type":"image-keyboard-response","trial_index":124,"plugin_version":"2.1.0","time_elapsed":8927371,"subject_id":"88052","group":"Group1","full_date":"2025-12-03T18:24:39.784Z","date":"2025-12-03","time":"18:24:39"},{"rt":null,"stimulus":"<p style=\"font-size: 50px; margin: 0; text-align: center;\">+</p>","response":null,"trial_type":"html-keyboard-response","trial_index":125,"plugin_version":"2.1.0","time_elapsed":8928374,"subject_id":"88052","group":"Group1","full_date":"2025-12-03T18:24:39.784Z","date":"2025-12-03","time":"18:24:39"},{"task":"memory_phase","broad_category":"M","image_png":"M_Slate_11.png","image_id":315,"category_name":"Slate","category":20,"distinct_rating":2.75,"distinct_type":"Bottom","rt":null,"stimulus":"Stimuli_Rocks480/M_Slate_11.png","response":null,"trial_type":"image-keyboard-response","trial_index":126,"plugin_version":"2.1.0","time_elapsed":8930900,"subject_id":"88052","group":"Group1","full_date":"2025-12-03T18:24:39.784Z","date":"2025-12-03","time":"18:24:39"},{"rt":null,"stimulus":"<p style=\"font-size: 50px; margin: 0; text-align: center;\">+</p>","response":null,"trial_type":"html-keyboard-response","trial_index":127,"plugin_version":"2.1.0","time_elapsed":8931903,"subject_id":"88052","group":"Group1","full_date":"2025-12-03T18:24:39.784Z","date":"2025-12-03","time":"18:24:39"},{"task":"memory_phase","broad_category":"M","image_png":"M_Marble_04.png","image_id":228,"category_name":"Marble","category":15,"distinct_rating":3.15,"distinct_type":"Bottom","rt":null,"stimulus":"Stimuli_Rocks480/M_Marble_04.png","response":null,"trial_type":"image-keyboard-response","trial_index":128,"plugin_version":"2.1.0","time_elapsed":8934427,"subject_id":"88052","group":"Group1","full_date":"2025-12-03T18:24:39.784Z","date":"2025-12-03","time":"18:24:39"},{"rt":null,"stimulus":"<p style=\"font-size: 50px; margin: 0; text-align: center;\">+</p>","response":null,"trial_type":"html-keyboard-response","trial_index":129,"plugin_version":"2.1.0","time_elapsed":8935430,"subject_id":"88052","group":"Group1","full_date":"2025-12-03T18:24:39.784Z","date":"2025-12-03","time":"18:24:39"},{"task":"memory_phase","broad_category":"S","image_png":"S_Dolomite_13.png","image_id":397,"category_name":"Dolomite","category":25,"distinct_rating":1.77,"distinct_type":"Bottom","rt":null,"stimulus":"Stimuli_Rocks480/S_Dolomite_13.png","response":null,"trial_type":"image-keyboard-response","trial_index":130,"plugin_version":"2.1.0","time_elapsed":8937954,"subject_id":"88052","group":"Group1","full_date":"2025-12-03T18:24:39.784Z","date":"2025-12-03","time":"18:24:39"},{"rt":null,"stimulus":"<p style=\"font-size: 50px; margin: 0; text-align: center;\">+</p>","response":null,"trial_type":"html-keyboard-response","trial_index":131,"plugin_version":"2.1.0","time_elapsed":8938957,"subject_id":"88052","group":"Group1","full_date":"2025-12-03T18:24:39.784Z","date":"2025-12-03","time":"18:24:39"},{"task":"memory_phase","broad_category":"I","image_png":"I_Gabbro_11.png","image_id":59,"category_name":"Gabbro","category":4,"distinct_rating":1.99,"distinct_type":"Bottom","rt":null,"stimulus":"Stimuli_Rocks480/I_Gabbro_11.png","response":null,"trial_type":"image-keyboard-response","trial_index":132,"plugin_version":"2.1.0","time_elapsed":8941479,"subject_id":"88052","group":"Group1","full_date":"2025-12-03T18:24:39.784Z","date":"2025-12-03","time":"18:24:39"},{"rt":null,"stimulus":"<p style=\"font-size: 50px; margin: 0; text-align: center;\">+</p>","response":null,"trial_type":"html-keyboard-response","trial_index":133,"plugin_version":"2.1.0","time_elapsed":8942481,"subject_id":"88052","group":"Group1","full_date":"2025-12-03T18:24:39.784Z","date":"2025-12-03","time":"18:24:39"},{"task":"memory_phase","broad_category":"I","image_png":"I_Andesite_08.png","image_id":8,"category_name":"Andesite","category":1,"distinct_rating":1.95,"distinct_type":"Bottom","rt":null,"stimulus":"Stimuli_Rocks480/I_Andesite_08.png","response":null,"trial_type":"image-keyboard-response","trial_index":134,"plugin_version":"2.1.0","time_elapsed":8945023,"subject_id":"88052","group":"Group1","full_date":"2025-12-03T18:24:39.784Z","date":"2025-12-03","time":"18:24:39"},{"rt":null,"stimulus":"<p style=\"font-size: 50px; margin: 0; text-align: center;\">+</p>","response":null,"trial_type":"html-keyboard-response","trial_index":135,"plugin_version":"2.1.0","time_elapsed":8946025,"subject_id":"88052","group":"Group1","full_date":"2025-12-03T18:24:39.784Z","date":"2025-12-03","time":"18:24:39"},{"task":"memory_phase","broad_category":"I","image_png":"I_Basalt_01.png","image_id":17,"category_name":"Basalt","category":2,"distinct_rating":1.92,"distinct_type":"Bottom","rt":null,"stimulus":"Stimuli_Rocks480/I_Basalt_01.png","response":null,"trial_type":"image-keyboard-response","trial_index":136,"plugin_version":"2.1.0","time_elapsed":8948559,"subject_id":"88052","group":"Group1","full_date":"2025-12-03T18:24:39.784Z","date":"2025-12-03","time":"18:24:39"},{"rt":null,"stimulus":"<p style=\"font-size: 50px; margin: 0; text-align: center;\">+</p>","response":null,"trial_type":"html-keyboard-response","trial_index":137,"plugin_version":"2.1.0","time_elapsed":8949562,"subject_id":"88052","group":"Group1","full_date":"2025-12-03T18:24:39.784Z","date":"2025-12-03","time":"18:24:39"},{"task":"memory_phase","broad_category":"I","image_png":"I_Pegmatite_16.png","image_id":112,"category_name":"Pegmatite","category":7,"distinct_rating":7.03,"distinct_type":"Top","rt":null,"stimulus":"Stimuli_Rocks480/I_Pegmatite_16.png","response":null,"trial_type":"image-keyboard-response","trial_index":138,"plugin_version":"2.1.0","time_elapsed":8952090,"subject_id":"88052","group":"Group1","full_date":"2025-12-03T18:24:39.784Z","date":"2025-12-03","time":"18:24:39"},{"rt":null,"stimulus":"<p style=\"font-size: 50px; margin: 0; text-align: center;\">+</p>","response":null,"trial_type":"html-keyboard-response","trial_index":139,"plugin_version":"2.1.0","time_elapsed":8953092,"subject_id":"88052","group":"Group1","full_date":"2025-12-03T18:24:39.784Z","date":"2025-12-03","time":"18:24:39"},{"task":"memory_phase","broad_category":"I","image_png":"I_Pumice_12.png","image_id":140,"category_name":"Pumice","category":9,"distinct_rating":2.97,"distinct_type":"Bottom","rt":null,"stimulus":"Stimuli_Rocks480/I_Pumice_12.png","response":null,"trial_type":"image-keyboard-response","trial_index":140,"plugin_version":"2.1.0","time_elapsed":8955619,"subject_id":"88052","group":"Group1","full_date":"2025-12-03T18:24:39.784Z","date":"2025-12-03","time":"18:24:39"},{"rt":null,"stimulus":"<p style=\"font-size: 50px; margin: 0; text-align: center;\">+</p>","response":null,"trial_type":"html-keyboard-response","trial_index":141,"plugin_version":"2.1.0","time_elapsed":8956621,"subject_id":"88052","group":"Group1","full_date":"2025-12-03T18:24:39.784Z","date":"2025-12-03","time":"18:24:39"},{"task":"memory_phase","broad_category":"I","image_png":"I_Basalt_09.png","image_id":25,"category_name":"Basalt","category":2,"distinct_rating":1.89,"distinct_type":"Bottom","rt":null,"stimulus":"Stimuli_Rocks480/I_Basalt_09.png","response":null,"trial_type":"image-keyboard-response","trial_index":142,"plugin_version":"2.1.0","time_elapsed":8959155,"subject_id":"88052","group":"Group1","full_date":"2025-12-03T18:24:39.784Z","date":"2025-12-03","time":"18:24:39"},{"rt":null,"stimulus":"<p style=\"font-size: 50px; margin: 0; text-align: center;\">+</p>","response":null,"trial_type":"html-keyboard-response","trial_index":143,"plugin_version":"2.1.0","time_elapsed":8960158,"subject_id":"88052","group":"Group1","full_date":"2025-12-03T18:24:39.784Z","date":"2025-12-03","time":"18:24:39"},{"task":"memory_phase","broad_category":"I","image_png":"I_Pegmatite_10.png","image_id":106,"category_name":"Pegmatite","category":7,"distinct_rating":7.66,"distinct_type":"Top","rt":null,"stimulus":"Stimuli_Rocks480/I_Pegmatite_10.png","response":null,"trial_type":"image-keyboard-response","trial_index":144,"plugin_version":"2.1.0","time_elapsed":8962683,"subject_id":"88052","group":"Group1","full_date":"2025-12-03T18:24:39.784Z","date":"2025-12-03","time":"18:24:39"},{"rt":null,"stimulus":"<p style=\"font-size: 50px; margin: 0; text-align: center;\">+</p>","response":null,"trial_type":"html-keyboard-response","trial_index":145,"plugin_version":"2.1.0","time_elapsed":8963686,"subject_id":"88052","group":"Group1","full_date":"2025-12-03T18:24:39.784Z","date":"2025-12-03","time":"18:24:39"},{"task":"memory_phase","broad_category":"M","image_png":"M_Phyllite_03.png","image_id":259,"category_name":"Phyllite","category":17,"distinct_rating":2.5,"distinct_type":"Bottom","rt":null,"stimulus":"Stimuli_Rocks480/M_Phyllite_03.png","response":null,"trial_type":"image-keyboard-response","trial_index":146,"plugin_version":"2.1.0","time_elapsed":8966215,"subject_id":"88052","group":"Group1","full_date":"2025-12-03T18:24:39.784Z","date":"2025-12-03","time":"18:24:39"},{"rt":null,"stimulus":"<p style=\"font-size: 50px; margin: 0; text-align: center;\">+</p>","response":null,"trial_type":"html-keyboard-response","trial_index":147,"plugin_version":"2.1.0","time_elapsed":8967218,"subject_id":"88052","group":"Group1","full_date":"2025-12-03T18:24:39.784Z","date":"2025-12-03","time":"18:24:39"},{"task":"memory_phase","broad_category":"M","image_png":"M_Marble_16.png","image_id":240,"category_name":"Marble","category":15,"distinct_rating":2.57,"distinct_type":"Bottom","rt":null,"stimulus":"Stimuli_Rocks480/M_Marble_16.png","response":null,"trial_type":"image-keyboard-response","trial_index":148,"plugin_version":"2.1.0","time_elapsed":8969750,"subject_id":"88052","group":"Group1","full_date":"2025-12-03T18:24:39.784Z","date":"2025-12-03","time":"18:24:39"},{"rt":null,"stimulus":"<p style=\"font-size: 50px; margin: 0; text-align: center;\">+</p>","response":null,"trial_type":"html-keyboard-response","trial_index":149,"plugin_version":"2.1.0","time_elapsed":8970753,"subject_id":"88052","group":"Group1","full_date":"2025-12-03T18:24:39.784Z","date":"2025-12-03","time":"18:24:39"},{"task":"memory_phase","broad_category":"S","image_png":"S_Shale_12.png","image_id":476,"category_name":"Shale","category":30,"distinct_rating":2.48,"distinct_type":"Bottom","rt":null,"stimulus":"Stimuli_Rocks480/S_Shale_12.png","response":null,"trial_type":"image-keyboard-response","trial_index":150,"plugin_version":"2.1.0","time_elapsed":8973288,"subject_id":"88052","group":"Group1","full_date":"2025-12-03T18:24:39.784Z","date":"2025-12-03","time":"18:24:39"},{"rt":null,"stimulus":"<p style=\"font-size: 50px; margin: 0; text-align: center;\">+</p>","response":null,"trial_type":"html-keyboard-response","trial_index":151,"plugin_version":"2.1.0","time_elapsed":8974290,"subject_id":"88052","group":"Group1","full_date":"2025-12-03T18:24:39.784Z","date":"2025-12-03","time":"18:24:39"},{"task":"memory_phase","broad_category":"I","image_png":"I_Andesite_10.png","image_id":10,"category_name":"Andesite","category":1,"distinct_rating":3.15,"distinct_type":"Bottom","rt":null,"stimulus":"Stimuli_Rocks480/I_Andesite_10.png","response":null,"trial_type":"image-keyboard-response","trial_index":152,"plugin_version":"2.1.0","time_elapsed":8976818,"subject_id":"88052","group":"Group1","full_date":"2025-12-03T18:24:39.784Z","date":"2025-12-03","time":"18:24:39"},{"rt":null,"stimulus":"<p style=\"font-size: 50px; margin: 0; text-align: center;\">+</p>","response":null,"trial_type":"html-keyboard-response","trial_index":153,"plugin_version":"2.1.0","time_elapsed":8977821,"subject_id":"88052","group":"Group1","full_date":"2025-12-03T18:24:39.784Z","date":"2025-12-03","time":"18:24:39"},{"task":"memory_phase","broad_category":"I","image_png":"I_Pumice_11.png","image_id":139,"category_name":"Pumice","category":9,"distinct_rating":1.74,"distinct_type":"Bottom","rt":null,"stimulus":"Stimuli_Rocks480/I_Pumice_11.png","response":null,"trial_type":"image-keyboard-response","trial_index":154,"plugin_version":"2.1.0","time_elapsed":8980342,"subject_id":"88052","group":"Group1","full_date":"2025-12-03T18:24:39.784Z","date":"2025-12-03","time":"18:24:39"},{"rt":null,"stimulus":"<p style=\"font-size: 50px; margin: 0; text-align: center;\">+</p>","response":null,"trial_type":"html-keyboard-response","trial_index":155,"plugin_version":"2.1.0","time_elapsed":8981345,"subject_id":"88052","group":"Group1","full_date":"2025-12-03T18:24:39.784Z","date":"2025-12-03","time":"18:24:39"},{"task":"memory_phase","broad_category":"M","image_png":"M_Quartzite_08.png","image_id":280,"category_name":"Quartzite","category":18,"distinct_rating":2.15,"distinct_type":"Bottom","rt":null,"stimulus":"Stimuli_Rocks480/M_Quartzite_08.png","response":null,"trial_type":"image-keyboard-response","trial_index":156,"plugin_version":"2.1.0","time_elapsed":8983860,"subject_id":"88052","group":"Group1","full_date":"2025-12-03T18:24:39.784Z","date":"2025-12-03","time":"18:24:39"},{"rt":3198,"stimulus":"<p style=\"max-width: 760px; margin: auto; font-size: 35px; line-height: 1.5;\">Press SPACE to continue study phase</p>","response":" ","trial_type":"html-keyboard-response","trial_index":157,"plugin_version":"2.1.0","time_elapsed":8987061,"subject_id":"88052","group":"Group1","full_date":"2025-12-03T18:24:39.784Z","date":"2025-12-03","time":"18:24:39"},{"rt":null,"stimulus":"<p style=\"font-size: 50px; margin: 0; text-align: center;\">+</p>","response":null,"trial_type":"html-keyboard-response","trial_index":158,"plugin_version":"2.1.0","time_elapsed":8988063,"subject_id":"88052","group":"Group1","full_date":"2025-12-03T18:24:39.784Z","date":"2025-12-03","time":"18:24:39"},{"task":"memory_phase","broad_category":"M","image_png":"M_Gneiss_13.png","image_id":205,"category_name":"Gneiss","category":13,"distinct_rating":3.26,"distinct_type":"Bottom","rt":null,"stimulus":"Stimuli_Rocks480/M_Gneiss_13.png","response":null,"trial_type":"image-keyboard-response","trial_index":159,"plugin_version":"2.1.0","time_elapsed":8990588,"subject_id":"88052","group":"Group1","full_date":"2025-12-03T18:24:39.784Z","date":"2025-12-03","time":"18:24:39"},{"rt":null,"stimulus":"<p style=\"font-size: 50px; margin: 0; text-align: center;\">+</p>","response":null,"trial_type":"html-keyboard-response","trial_index":160,"plugin_version":"2.1.0","time_elapsed":8991590,"subject_id":"88052","group":"Group1","full_date":"2025-12-03T18:24:39.784Z","date":"2025-12-03","time":"18:24:39"},{"task":"memory_phase","broad_category":"I","image_png":"I_Andesite_06.png","image_id":6,"category_name":"Andesite","category":1,"distinct_rating":3.17,"distinct_type":"Bottom","rt":null,"stimulus":"Stimuli_Rocks480/I_Andesite_06.png","response":null,"trial_type":"image-keyboard-response","trial_index":161,"plugin_version":"2.1.0","time_elapsed":8994131,"subject_id":"88052","group":"Group1","full_date":"2025-12-03T18:24:39.784Z","date":"2025-12-03","time":"18:24:39"},{"rt":null,"stimulus":"<p style=\"font-size: 50px; margin: 0; text-align: center;\">+</p>","response":null,"trial_type":"html-keyboard-response","trial_index":162,"plugin_version":"2.1.0","time_elapsed":8995134,"subject_id":"88052","group":"Group1","full_date":"2025-12-03T18:24:39.784Z","date":"2025-12-03","time":"18:24:39"},{"task":"memory_phase","broad_category":"M","image_png":"M_Slate_03.png","image_id":307,"category_name":"Slate","category":20,"distinct_rating":1.87,"distinct_type":"Bottom","rt":null,"stimulus":"Stimuli_Rocks480/M_Slate_03.png","response":null,"trial_type":"image-keyboard-response","trial_index":163,"plugin_version":"2.1.0","time_elapsed":8997652,"subject_id":"88052","group":"Group1","full_date":"2025-12-03T18:24:39.784Z","date":"2025-12-03","time":"18:24:39"},{"rt":null,"stimulus":"<p style=\"font-size: 50px; margin: 0; text-align: center;\">+</p>","response":null,"trial_type":"html-keyboard-response","trial_index":164,"plugin_version":"2.1.0","time_elapsed":8998655,"subject_id":"88052","group":"Group1","full_date":"2025-12-03T18:24:39.784Z","date":"2025-12-03","time":"18:24:39"},{"task":"memory_phase","broad_category":"S","image_png":"S_Breccia_11.png","image_id":347,"category_name":"Breccia","category":22,"distinct_rating":6.7,"distinct_type":"Top","rt":null,"stimulus":"Stimuli_Rocks480/S_Breccia_11.png","response":null,"trial_type":"image-keyboard-response","trial_index":165,"plugin_version":"2.1.0","time_elapsed":9001206,"subject_id":"88052","group":"Group1","full_date":"2025-12-03T18:24:39.784Z","date":"2025-12-03","time":"18:24:39"},{"rt":null,"stimulus":"<p style=\"font-size: 50px; margin: 0; text-align: center;\">+</p>","response":null,"trial_type":"html-keyboard-response","trial_index":166,"plugin_version":"2.1.0","time_elapsed":9002208,"subject_id":"88052","group":"Group1","full_date":"2025-12-03T18:24:39.784Z","date":"2025-12-03","time":"18:24:39"},{"task":"memory_phase","broad_category":"I","image_png":"I_Rhyolite_11.png","image_id":155,"category_name":"Rhyolite","category":10,"distinct_rating":1.73,"distinct_type":"Bottom","rt":null,"stimulus":"Stimuli_Rocks480/I_Rhyolite_11.png","response":null,"trial_type":"image-keyboard-response","trial_index":167,"plugin_version":"2.1.0","time_elapsed":9004732,"subject_id":"88052","group":"Group1","full_date":"2025-12-03T18:24:39.784Z","date":"2025-12-03","time":"18:24:39"},{"rt":null,"stimulus":"<p style=\"font-size: 50px; margin: 0; text-align: center;\">+</p>","response":null,"trial_type":"html-keyboard-response","trial_index":168,"plugin_version":"2.1.0","time_elapsed":9005734,"subject_id":"88052","group":"Group1","full_date":"2025-12-03T18:24:39.784Z","date":"2025-12-03","time":"18:24:39"},{"task":"memory_phase","broad_category":"S","image_png":"S_Conglomerate_05.png","image_id":373,"category_name":"Conglomerate","category":24,"distinct_rating":7.32,"distinct_type":"Top","rt":null,"stimulus":"Stimuli_Rocks480/S_Conglomerate_05.png","response":null,"trial_type":"image-keyboard-response","trial_index":169,"plugin_version":"2.1.0","time_elapsed":9008263,"subject_id":"88052","group":"Group1","full_date":"2025-12-03T18:24:39.784Z","date":"2025-12-03","time":"18:24:39"},{"rt":null,"stimulus":"<p style=\"font-size: 50px; margin: 0; text-align: center;\">+</p>","response":null,"trial_type":"html-keyboard-response","trial_index":170,"plugin_version":"2.1.0","time_elapsed":9009266,"subject_id":"88052","group":"Group1","full_date":"2025-12-03T18:24:39.784Z","date":"2025-12-03","time":"18:24:39"},{"task":"memory_phase","broad_category":"S","image_png":"S_Shale_08.png","image_id":472,"category_name":"Shale","category":30,"distinct_rating":2.55,"distinct_type":"Bottom","rt":null,"stimulus":"Stimuli_Rocks480/S_Shale_08.png","response":null,"trial_type":"image-keyboard-response","trial_index":171,"plugin_version":"2.1.0","time_elapsed":9011800,"subject_id":"88052","group":"Group1","full_date":"2025-12-03T18:24:39.784Z","date":"2025-12-03","time":"18:24:39"},{"rt":null,"stimulus":"<p style=\"font-size: 50px; margin: 0; text-align: center;\">+</p>","response":null,"trial_type":"html-keyboard-response","trial_index":172,"plugin_version":"2.1.0","time_elapsed":9012802,"subject_id":"88052","group":"Group1","full_date":"2025-12-03T18:24:39.784Z","date":"2025-12-03","time":"18:24:39"},{"task":"memory_phase","broad_category":"I","image_png":"I_Diorite_03.png","image_id":35,"category_name":"Diorite","category":3,"distinct_rating":3.14,"distinct_type":"Bottom","rt":null,"stimulus":"Stimuli_Rocks480/I_Diorite_03.png","response":null,"trial_type":"image-keyboard-response","trial_index":173,"plugin_version":"2.1.0","time_elapsed":9015339,"subject_id":"88052","group":"Group1","full_date":"2025-12-03T18:24:39.784Z","date":"2025-12-03","time":"18:24:39"},{"rt":null,"stimulus":"<p style=\"font-size: 50px; margin: 0; text-align: center;\">+</p>","response":null,"trial_type":"html-keyboard-response","trial_index":174,"plugin_version":"2.1.0","time_elapsed":9016341,"subject_id":"88052","group":"Group1","full_date":"2025-12-03T18:24:39.784Z","date":"2025-12-03","time":"18:24:39"},{"task":"memory_phase","broad_category":"I","image_png":"I_Diorite_05.png","image_id":37,"category_name":"Diorite","category":3,"distinct_rating":3.08,"distinct_type":"Bottom","rt":null,"stimulus":"Stimuli_Rocks480/I_Diorite_05.png","response":null,"trial_type":"image-keyboard-response","trial_index":175,"plugin_version":"2.1.0","time_elapsed":9018867,"subject_id":"88052","group":"Group1","full_date":"2025-12-03T18:24:39.784Z","date":"2025-12-03","time":"18:24:39"},{"rt":null,"stimulus":"<p style=\"font-size: 50px; margin: 0; text-align: center;\">+</p>","response":null,"trial_type":"html-keyboard-response","trial_index":176,"plugin_version":"2.1.0","time_elapsed":9019871,"subject_id":"88052","group":"Group1","full_date":"2025-12-03T18:24:39.784Z","date":"2025-12-03","time":"18:24:39"},{"task":"memory_phase","broad_category":"S","image_png":"S_Dolomite_14.png","image_id":398,"category_name":"Dolomite","category":25,"distinct_rating":1.43,"distinct_type":"Bottom","rt":null,"stimulus":"Stimuli_Rocks480/S_Dolomite_14.png","response":null,"trial_type":"image-keyboard-response","trial_index":177,"plugin_version":"2.1.0","time_elapsed":9022392,"subject_id":"88052","group":"Group1","full_date":"2025-12-03T18:24:39.784Z","date":"2025-12-03","time":"18:24:39"},{"rt":null,"stimulus":"<p style=\"font-size: 50px; margin: 0; text-align: center;\">+</p>","response":null,"trial_type":"html-keyboard-response","trial_index":178,"plugin_version":"2.1.0","time_elapsed":9023395,"subject_id":"88052","group":"Group1","full_date":"2025-12-03T18:24:39.784Z","date":"2025-12-03","time":"18:24:39"},{"task":"memory_phase","broad_category":"I","image_png":"I_Rhyolite_16.png","image_id":160,"category_name":"Rhyolite","category":10,"distinct_rating":2.19,"distinct_type":"Bottom","rt":null,"stimulus":"Stimuli_Rocks480/I_Rhyolite_16.png","response":null,"trial_type":"image-keyboard-response","trial_index":179,"plugin_version":"2.1.0","time_elapsed":9025919,"subject_id":"88052","group":"Group1","full_date":"2025-12-03T18:24:39.784Z","date":"2025-12-03","time":"18:24:39"},{"rt":null,"stimulus":"<p style=\"font-size: 50px; margin: 0; text-align: center;\">+</p>","response":null,"trial_type":"html-keyboard-response","trial_index":180,"plugin_version":"2.1.0","time_elapsed":9026921,"subject_id":"88052","group":"Group1","full_date":"2025-12-03T18:24:39.784Z","date":"2025-12-03","time":"18:24:39"},{"task":"memory_phase","broad_category":"I","image_png":"I_Gabbro_08.png","image_id":56,"category_name":"Gabbro","category":4,"distinct_rating":3.02,"distinct_type":"Bottom","rt":null,"stimulus":"Stimuli_Rocks480/I_Gabbro_08.png","response":null,"trial_type":"image-keyboard-response","trial_index":181,"plugin_version":"2.1.0","time_elapsed":9029439,"subject_id":"88052","group":"Group1","full_date":"2025-12-03T18:24:39.784Z","date":"2025-12-03","time":"18:24:39"},{"rt":null,"stimulus":"<p style=\"font-size: 50px; margin: 0; text-align: center;\">+</p>","response":null,"trial_type":"html-keyboard-response","trial_index":182,"plugin_version":"2.1.0","time_elapsed":9030441,"subject_id":"88052","group":"Group1","full_date":"2025-12-03T18:24:39.784Z","date":"2025-12-03","time":"18:24:39"},{"task":"memory_phase","broad_category":"I","image_png":"I_Gabbro_16.png","image_id":64,"category_name":"Gabbro","category":4,"distinct_rating":2.52,"distinct_type":"Bottom","rt":null,"stimulus":"Stimuli_Rocks480/I_Gabbro_16.png","response":null,"trial_type":"image-keyboard-response","trial_index":183,"plugin_version":"2.1.0","time_elapsed":9032957,"subject_id":"88052","group":"Group1","full_date":"2025-12-03T18:24:39.784Z","date":"2025-12-03","time":"18:24:39"},{"rt":null,"stimulus":"<p style=\"font-size: 50px; margin: 0; text-align: center;\">+</p>","response":null,"trial_type":"html-keyboard-response","trial_index":184,"plugin_version":"2.1.0","time_elapsed":9033961,"subject_id":"88052","group":"Group1","full_date":"2025-12-03T18:24:39.784Z","date":"2025-12-03","time":"18:24:39"},{"task":"memory_phase","broad_category":"M","image_png":"M_Quartzite_13.png","image_id":285,"category_name":"Quartzite","category":18,"distinct_rating":2.27,"distinct_type":"Bottom","rt":null,"stimulus":"Stimuli_Rocks480/M_Quartzite_13.png","response":null,"trial_type":"image-keyboard-response","trial_index":185,"plugin_version":"2.1.0","time_elapsed":9036491,"subject_id":"88052","group":"Group1","full_date":"2025-12-03T18:24:39.784Z","date":"2025-12-03","time":"18:24:39"},{"rt":null,"stimulus":"<p style=\"font-size: 50px; margin: 0; text-align: center;\">+</p>","response":null,"trial_type":"html-keyboard-response","trial_index":186,"plugin_version":"2.1.0","time_elapsed":9037493,"subject_id":"88052","group":"Group1","full_date":"2025-12-03T18:24:39.784Z","date":"2025-12-03","time":"18:24:39"},{"task":"memory_phase","broad_category":"I","image_png":"I_Basalt_02.png","image_id":18,"category_name":"Basalt","category":2,"distinct_rating":1.84,"distinct_type":"Bottom","rt":null,"stimulus":"Stimuli_Rocks480/I_Basalt_02.png","response":null,"trial_type":"image-keyboard-response","trial_index":187,"plugin_version":"2.1.0","time_elapsed":9040026,"subject_id":"88052","group":"Group1","full_date":"2025-12-03T18:24:39.784Z","date":"2025-12-03","time":"18:24:39"},{"rt":null,"stimulus":"<p style=\"font-size: 50px; margin: 0; text-align: center;\">+</p>","response":null,"trial_type":"html-keyboard-response","trial_index":188,"plugin_version":"2.1.0","time_elapsed":9041030,"subject_id":"88052","group":"Group1","full_date":"2025-12-03T18:24:39.784Z","date":"2025-12-03","time":"18:24:39"},{"task":"memory_phase","broad_category":"S","image_png":"S_Shale_01.png","image_id":465,"category_name":"Shale","category":30,"distinct_rating":2.7,"distinct_type":"Bottom","rt":null,"stimulus":"Stimuli_Rocks480/S_Shale_01.png","response":null,"trial_type":"image-keyboard-response","trial_index":189,"plugin_version":"2.1.0","time_elapsed":9043555,"subject_id":"88052","group":"Group1","full_date":"2025-12-03T18:24:39.784Z","date":"2025-12-03","time":"18:24:39"},{"rt":null,"stimulus":"<p style=\"font-size: 50px; margin: 0; text-align: center;\">+</p>","response":null,"trial_type":"html-keyboard-response","trial_index":190,"plugin_version":"2.1.0","time_elapsed":9044557,"subject_id":"88052","group":"Group1","full_date":"2025-12-03T18:24:39.784Z","date":"2025-12-03","time":"18:24:39"},{"task":"memory_phase","broad_category":"M","image_png":"M_Quartzite_05.png","image_id":277,"category_name":"Quartzite","category":18,"distinct_rating":2.23,"distinct_type":"Bottom","rt":null,"stimulus":"Stimuli_Rocks480/M_Quartzite_05.png","response":null,"trial_type":"image-keyboard-response","trial_index":191,"plugin_version":"2.1.0","time_elapsed":9047090,"subject_id":"88052","group":"Group1","full_date":"2025-12-03T18:24:39.784Z","date":"2025-12-03","time":"18:24:39"},{"rt":null,"stimulus":"<p style=\"font-size: 50px; margin: 0; text-align: center;\">+</p>","response":null,"trial_type":"html-keyboard-response","trial_index":192,"plugin_version":"2.1.0","time_elapsed":9048093,"subject_id":"88052","group":"Group1","full_date":"2025-12-03T18:24:39.784Z","date":"2025-12-03","time":"18:24:39"},{"task":"memory_phase","broad_category":"S","image_png":"S_Chert_10.png","image_id":362,"category_name":"Chert","category":23,"distinct_rating":7.17,"distinct_type":"Top","rt":null,"stimulus":"Stimuli_Rocks480/S_Chert_10.png","response":null,"trial_type":"image-keyboard-response","trial_index":193,"plugin_version":"2.1.0","time_elapsed":9050622,"subject_id":"88052","group":"Group1","full_date":"2025-12-03T18:24:39.784Z","date":"2025-12-03","time":"18:24:39"},{"rt":null,"stimulus":"<p style=\"font-size: 50px; margin: 0; text-align: center;\">+</p>","response":null,"trial_type":"html-keyboard-response","trial_index":194,"plugin_version":"2.1.0","time_elapsed":9051624,"subject_id":"88052","group":"Group1","full_date":"2025-12-03T18:24:39.784Z","date":"2025-12-03","time":"18:24:39"},{"task":"memory_phase","broad_category":"I","image_png":"I_Rhyolite_14.png","image_id":158,"category_name":"Rhyolite","category":10,"distinct_rating":2.59,"distinct_type":"Bottom","rt":null,"stimulus":"Stimuli_Rocks480/I_Rhyolite_14.png","response":null,"trial_type":"image-keyboard-response","trial_index":195,"plugin_version":"2.1.0","time_elapsed":9054149,"subject_id":"88052","group":"Group1","full_date":"2025-12-03T18:24:39.784Z","date":"2025-12-03","time":"18:24:39"},{"rt":null,"stimulus":"<p style=\"font-size: 50px; margin: 0; text-align: center;\">+</p>","response":null,"trial_type":"html-keyboard-response","trial_index":196,"plugin_version":"2.1.0","time_elapsed":9055152,"subject_id":"88052","group":"Group1","full_date":"2025-12-03T18:24:39.784Z","date":"2025-12-03","time":"18:24:39"},{"task":"memory_phase","broad_category":"M","image_png":"M_Marble_06.png","image_id":230,"category_name":"Marble","category":15,"distinct_rating":3.4,"distinct_type":"Bottom","rt":null,"stimulus":"Stimuli_Rocks480/M_Marble_06.png","response":null,"trial_type":"image-keyboard-response","trial_index":197,"plugin_version":"2.1.0","time_elapsed":9057686,"subject_id":"88052","group":"Group1","full_date":"2025-12-03T18:24:39.784Z","date":"2025-12-03","time":"18:24:39"},{"rt":null,"stimulus":"<p style=\"font-size: 50px; margin: 0; text-align: center;\">+</p>","response":null,"trial_type":"html-keyboard-response","trial_index":198,"plugin_version":"2.1.0","time_elapsed":9058689,"subject_id":"88052","group":"Group1","full_date":"2025-12-03T18:24:39.784Z","date":"2025-12-03","time":"18:24:39"},{"task":"memory_phase","broad_category":"S","image_png":"S_Dolomite_12.png","image_id":396,"category_name":"Dolomite","category":25,"distinct_rating":1.85,"distinct_type":"Bottom","rt":null,"stimulus":"Stimuli_Rocks480/S_Dolomite_12.png","response":null,"trial_type":"image-keyboard-response","trial_index":199,"plugin_version":"2.1.0","time_elapsed":9061216,"subject_id":"88052","group":"Group1","full_date":"2025-12-03T18:24:39.784Z","date":"2025-12-03","time":"18:24:39"},{"rt":null,"stimulus":"<p style=\"font-size: 50px; margin: 0; text-align: center;\">+</p>","response":null,"trial_type":"html-keyboard-response","trial_index":200,"plugin_version":"2.1.0","time_elapsed":9062218,"subject_id":"88052","group":"Group1","full_date":"2025-12-03T18:24:39.784Z","date":"2025-12-03","time":"18:24:39"},{"task":"memory_phase","broad_category":"S","image_png":"S_Sandstone_15.png","image_id":463,"category_name":"Sandstone","category":29,"distinct_rating":2,"distinct_type":"Bottom","rt":null,"stimulus":"Stimuli_Rocks480/S_Sandstone_15.png","response":null,"trial_type":"image-keyboard-response","trial_index":201,"plugin_version":"2.1.0","time_elapsed":9064754,"subject_id":"88052","group":"Group1","full_date":"2025-12-03T18:24:39.784Z","date":"2025-12-03","time":"18:24:39"},{"rt":null,"stimulus":"<p style=\"font-size: 50px; margin: 0; text-align: center;\">+</p>","response":null,"trial_type":"html-keyboard-response","trial_index":202,"plugin_version":"2.1.0","time_elapsed":9065757,"subject_id":"88052","group":"Group1","full_date":"2025-12-03T18:24:39.784Z","date":"2025-12-03","time":"18:24:39"},{"task":"memory_phase","broad_category":"I","image_png":"I_Diorite_04.png","image_id":36,"category_name":"Diorite","category":3,"distinct_rating":2.98,"distinct_type":"Bottom","rt":null,"stimulus":"Stimuli_Rocks480/I_Diorite_04.png","response":null,"trial_type":"image-keyboard-response","trial_index":203,"plugin_version":"2.1.0","time_elapsed":9068298,"subject_id":"88052","group":"Group1","full_date":"2025-12-03T18:24:39.784Z","date":"2025-12-03","time":"18:24:39"},{"rt":null,"stimulus":"<p style=\"font-size: 50px; margin: 0; text-align: center;\">+</p>","response":null,"trial_type":"html-keyboard-response","trial_index":204,"plugin_version":"2.1.0","time_elapsed":9069300,"subject_id":"88052","group":"Group1","full_date":"2025-12-03T18:24:39.784Z","date":"2025-12-03","time":"18:24:39"},{"task":"memory_phase","broad_category":"M","image_png":"M_Slate_15.png","image_id":319,"category_name":"Slate","category":20,"distinct_rating":2.13,"distinct_type":"Bottom","rt":null,"stimulus":"Stimuli_Rocks480/M_Slate_15.png","response":null,"trial_type":"image-keyboard-response","trial_index":205,"plugin_version":"2.1.0","time_elapsed":9071822,"subject_id":"88052","group":"Group1","full_date":"2025-12-03T18:24:39.784Z","date":"2025-12-03","time":"18:24:39"},{"rt":null,"stimulus":"<p style=\"font-size: 50px; margin: 0; text-align: center;\">+</p>","response":null,"trial_type":"html-keyboard-response","trial_index":206,"plugin_version":"2.1.0","time_elapsed":9072824,"subject_id":"88052","group":"Group1","full_date":"2025-12-03T18:24:39.784Z","date":"2025-12-03","time":"18:24:39"},{"task":"memory_phase","broad_category":"I","image_png":"I_Pumice_08.png","image_id":136,"category_name":"Pumice","category":9,"distinct_rating":3.1,"distinct_type":"Bottom","rt":null,"stimulus":"Stimuli_Rocks480/I_Pumice_08.png","response":null,"trial_type":"image-keyboard-response","trial_index":207,"plugin_version":"2.1.0","time_elapsed":9075353,"subject_id":"88052","group":"Group1","full_date":"2025-12-03T18:24:39.784Z","date":"2025-12-03","time":"18:24:39"},{"rt":4788,"stimulus":"<p style=\"max-width: 760px; margin: auto; font-size: 35px; line-height: 1.5;\">You have completed 2 study phases. Now, we'll show you all the images again 1 more time.<br><br>Press SPACE to continue</p>","response":" ","trial_type":"html-keyboard-response","trial_index":208,"plugin_version":"2.1.0","time_elapsed":9080143,"subject_id":"88052","group":"Group1","full_date":"2025-12-03T18:24:39.784Z","date":"2025-12-03","time":"18:24:39"},{"rt":null,"stimulus":"<p style=\"font-size: 50px; margin: 0; text-align: center;\">+</p>","response":null,"trial_type":"html-keyboard-response","trial_index":209,"plugin_version":"2.1.0","time_elapsed":9081145,"subject_id":"88052","group":"Group1","full_date":"2025-12-03T18:24:39.784Z","date":"2025-12-03","time":"18:24:39"},{"task":"memory_phase","broad_category":"I","image_png":"I_Pumice_11.png","image_id":139,"category_name":"Pumice","category":9,"distinct_rating":1.74,"distinct_type":"Bottom","rt":null,"stimulus":"Stimuli_Rocks480/I_Pumice_11.png","response":null,"trial_type":"image-keyboard-response","trial_index":210,"plugin_version":"2.1.0","time_elapsed":9083649,"subject_id":"88052","group":"Group1","full_date":"2025-12-03T18:24:39.784Z","date":"2025-12-03","time":"18:24:39"},{"rt":null,"stimulus":"<p style=\"font-size: 50px; margin: 0; text-align: center;\">+</p>","response":null,"trial_type":"html-keyboard-response","trial_index":211,"plugin_version":"2.1.0","time_elapsed":9084652,"subject_id":"88052","group":"Group1","full_date":"2025-12-03T18:24:39.784Z","date":"2025-12-03","time":"18:24:39"},{"task":"memory_phase","broad_category":"S","image_png":"S_Rock Gypsum_04.png","image_id":420,"category_name":"Rock Gypsum","category":27,"distinct_rating":7.61,"distinct_type":"Top","rt":null,"stimulus":"Stimuli_Rocks480/S_Rock Gypsum_04.png","response":null,"trial_type":"image-keyboard-response","trial_index":212,"plugin_version":"2.1.0","time_elapsed":9087178,"subject_id":"88052","group":"Group1","full_date":"2025-12-03T18:24:39.784Z","date":"2025-12-03","time":"18:24:39"},{"rt":null,"stimulus":"<p style=\"font-size: 50px; margin: 0; text-align: center;\">+</p>","response":null,"trial_type":"html-keyboard-response","trial_index":213,"plugin_version":"2.1.0","time_elapsed":9088180,"subject_id":"88052","group":"Group1","full_date":"2025-12-03T18:24:39.784Z","date":"2025-12-03","time":"18:24:39"},{"task":"memory_phase","broad_category":"M","image_png":"M_Quartzite_05.png","image_id":277,"category_name":"Quartzite","category":18,"distinct_rating":2.23,"distinct_type":"Bottom","rt":null,"stimulus":"Stimuli_Rocks480/M_Quartzite_05.png","response":null,"trial_type":"image-keyboard-response","trial_index":214,"plugin_version":"2.1.0","time_elapsed":9090683,"subject_id":"88052","group":"Group1","full_date":"2025-12-03T18:24:39.784Z","date":"2025-12-03","time":"18:24:39"},{"rt":null,"stimulus":"<p style=\"font-size: 50px; margin: 0; text-align: center;\">+</p>","response":null,"trial_type":"html-keyboard-response","trial_index":215,"plugin_version":"2.1.0","time_elapsed":9091686,"subject_id":"88052","group":"Group1","full_date":"2025-12-03T18:24:39.784Z","date":"2025-12-03","time":"18:24:39"},{"task":"memory_phase","broad_category":"M","image_png":"M_Marble_06.png","image_id":230,"category_name":"Marble","category":15,"distinct_rating":3.4,"distinct_type":"Bottom","rt":null,"stimulus":"Stimuli_Rocks480/M_Marble_06.png","response":null,"trial_type":"image-keyboard-response","trial_index":216,"plugin_version":"2.1.0","time_elapsed":9094188,"subject_id":"88052","group":"Group1","full_date":"2025-12-03T18:24:39.784Z","date":"2025-12-03","time":"18:24:39"},{"rt":null,"stimulus":"<p style=\"font-size: 50px; margin: 0; text-align: center;\">+</p>","response":null,"trial_type":"html-keyboard-response","trial_index":217,"plugin_version":"2.1.0","time_elapsed":9095189,"subject_id":"88052","group":"Group1","full_date":"2025-12-03T18:24:39.784Z","date":"2025-12-03","time":"18:24:39"},{"task":"memory_phase","broad_category":"I","image_png":"I_Pegmatite_16.png","image_id":112,"category_name":"Pegmatite","category":7,"distinct_rating":7.03,"distinct_type":"Top","rt":null,"stimulus":"Stimuli_Rocks480/I_Pegmatite_16.png","response":null,"trial_type":"image-keyboard-response","trial_index":218,"plugin_version":"2.1.0","time_elapsed":9097705,"subject_id":"88052","group":"Group1","full_date":"2025-12-03T18:24:39.784Z","date":"2025-12-03","time":"18:24:39"},{"rt":null,"stimulus":"<p style=\"font-size: 50px; margin: 0; text-align: center;\">+</p>","response":null,"trial_type":"html-keyboard-response","trial_index":219,"plugin_version":"2.1.0","time_elapsed":9098707,"subject_id":"88052","group":"Group1","full_date":"2025-12-03T18:24:39.784Z","date":"2025-12-03","time":"18:24:39"},{"task":"memory_phase","broad_category":"I","image_png":"I_Diorite_03.png","image_id":35,"category_name":"Diorite","category":3,"distinct_rating":3.14,"distinct_type":"Bottom","rt":null,"stimulus":"Stimuli_Rocks480/I_Diorite_03.png","response":null,"trial_type":"image-keyboard-response","trial_index":220,"plugin_version":"2.1.0","time_elapsed":9101239,"subject_id":"88052","group":"Group1","full_date":"2025-12-03T18:24:39.784Z","date":"2025-12-03","time":"18:24:39"},{"rt":null,"stimulus":"<p style=\"font-size: 50px; margin: 0; text-align: center;\">+</p>","response":null,"trial_type":"html-keyboard-response","trial_index":221,"plugin_version":"2.1.0","time_elapsed":9102241,"subject_id":"88052","group":"Group1","full_date":"2025-12-03T18:24:39.784Z","date":"2025-12-03","time":"18:24:39"},{"task":"memory_phase","broad_category":"I","image_png":"I_Pumice_12.png","image_id":140,"category_name":"Pumice","category":9,"distinct_rating":2.97,"distinct_type":"Bottom","rt":null,"stimulus":"Stimuli_Rocks480/I_Pumice_12.png","response":null,"trial_type":"image-keyboard-response","trial_index":222,"plugin_version":"2.1.0","time_elapsed":9104756,"subject_id":"88052","group":"Group1","full_date":"2025-12-03T18:24:39.784Z","date":"2025-12-03","time":"18:24:39"},{"rt":null,"stimulus":"<p style=\"font-size: 50px; margin: 0; text-align: center;\">+</p>","response":null,"trial_type":"html-keyboard-response","trial_index":223,"plugin_version":"2.1.0","time_elapsed":9105759,"subject_id":"88052","group":"Group1","full_date":"2025-12-03T18:24:39.784Z","date":"2025-12-03","time":"18:24:39"},{"task":"memory_phase","broad_category":"I","image_png":"I_Diorite_04.png","image_id":36,"category_name":"Diorite","category":3,"distinct_rating":2.98,"distinct_type":"Bottom","rt":null,"stimulus":"Stimuli_Rocks480/I_Diorite_04.png","response":null,"trial_type":"image-keyboard-response","trial_index":224,"plugin_version":"2.1.0","time_elapsed":9108262,"subject_id":"88052","group":"Group1","full_date":"2025-12-03T18:24:39.784Z","date":"2025-12-03","time":"18:24:39"},{"rt":null,"stimulus":"<p style=\"font-size: 50px; margin: 0; text-align: center;\">+</p>","response":null,"trial_type":"html-keyboard-response","trial_index":225,"plugin_version":"2.1.0","time_elapsed":9109265,"subject_id":"88052","group":"Group1","full_date":"2025-12-03T18:24:39.784Z","date":"2025-12-03","time":"18:24:39"},{"task":"memory_phase","broad_category":"I","image_png":"I_Obsidian_05.png","image_id":85,"category_name":"Obsidian","category":6,"distinct_rating":7.32,"distinct_type":"Top","rt":null,"stimulus":"Stimuli_Rocks480/I_Obsidian_05.png","response":null,"trial_type":"image-keyboard-response","trial_index":226,"plugin_version":"2.1.0","time_elapsed":9111793,"subject_id":"88052","group":"Group1","full_date":"2025-12-03T18:24:39.784Z","date":"2025-12-03","time":"18:24:39"},{"rt":null,"stimulus":"<p style=\"font-size: 50px; margin: 0; text-align: center;\">+</p>","response":null,"trial_type":"html-keyboard-response","trial_index":227,"plugin_version":"2.1.0","time_elapsed":9112796,"subject_id":"88052","group":"Group1","full_date":"2025-12-03T18:24:39.784Z","date":"2025-12-03","time":"18:24:39"},{"task":"memory_phase","broad_category":"M","image_png":"M_Marble_16.png","image_id":240,"category_name":"Marble","category":15,"distinct_rating":2.57,"distinct_type":"Bottom","rt":null,"stimulus":"Stimuli_Rocks480/M_Marble_16.png","response":null,"trial_type":"image-keyboard-response","trial_index":228,"plugin_version":"2.1.0","time_elapsed":9115323,"subject_id":"88052","group":"Group1","full_date":"2025-12-03T18:24:39.784Z","date":"2025-12-03","time":"18:24:39"},{"rt":null,"stimulus":"<p style=\"font-size: 50px; margin: 0; text-align: center;\">+</p>","response":null,"trial_type":"html-keyboard-response","trial_index":229,"plugin_version":"2.1.0","time_elapsed":9116325,"subject_id":"88052","group":"Group1","full_date":"2025-12-03T18:24:39.784Z","date":"2025-12-03","time":"18:24:39"},{"task":"memory_phase","broad_category":"I","image_png":"I_Andesite_08.png","image_id":8,"category_name":"Andesite","category":1,"distinct_rating":1.95,"distinct_type":"Bottom","rt":null,"stimulus":"Stimuli_Rocks480/I_Andesite_08.png","response":null,"trial_type":"image-keyboard-response","trial_index":230,"plugin_version":"2.1.0","time_elapsed":9118852,"subject_id":"88052","group":"Group1","full_date":"2025-12-03T18:24:39.784Z","date":"2025-12-03","time":"18:24:39"},{"rt":null,"stimulus":"<p style=\"font-size: 50px; margin: 0; text-align: center;\">+</p>","response":null,"trial_type":"html-keyboard-response","trial_index":231,"plugin_version":"2.1.0","time_elapsed":9119854,"subject_id":"88052","group":"Group1","full_date":"2025-12-03T18:24:39.784Z","date":"2025-12-03","time":"18:24:39"},{"task":"memory_phase","broad_category":"S","image_png":"S_Dolomite_12.png","image_id":396,"category_name":"Dolomite","category":25,"distinct_rating":1.85,"distinct_type":"Bottom","rt":null,"stimulus":"Stimuli_Rocks480/S_Dolomite_12.png","response":null,"trial_type":"image-keyboard-response","trial_index":232,"plugin_version":"2.1.0","time_elapsed":9122357,"subject_id":"88052","group":"Group1","full_date":"2025-12-03T18:24:39.784Z","date":"2025-12-03","time":"18:24:39"},{"rt":null,"stimulus":"<p style=\"font-size: 50px; margin: 0; text-align: center;\">+</p>","response":null,"trial_type":"html-keyboard-response","trial_index":233,"plugin_version":"2.1.0","time_elapsed":9123359,"subject_id":"88052","group":"Group1","full_date":"2025-12-03T18:24:39.784Z","date":"2025-12-03","time":"18:24:39"},{"task":"memory_phase","broad_category":"I","image_png":"I_Rhyolite_11.png","image_id":155,"category_name":"Rhyolite","category":10,"distinct_rating":1.73,"distinct_type":"Bottom","rt":null,"stimulus":"Stimuli_Rocks480/I_Rhyolite_11.png","response":null,"trial_type":"image-keyboard-response","trial_index":234,"plugin_version":"2.1.0","time_elapsed":9125876,"subject_id":"88052","group":"Group1","full_date":"2025-12-03T18:24:39.784Z","date":"2025-12-03","time":"18:24:39"},{"rt":null,"stimulus":"<p style=\"font-size: 50px; margin: 0; text-align: center;\">+</p>","response":null,"trial_type":"html-keyboard-response","trial_index":235,"plugin_version":"2.1.0","time_elapsed":9126878,"subject_id":"88052","group":"Group1","full_date":"2025-12-03T18:24:39.784Z","date":"2025-12-03","time":"18:24:39"},{"task":"memory_phase","broad_category":"I","image_png":"I_Rhyolite_14.png","image_id":158,"category_name":"Rhyolite","category":10,"distinct_rating":2.59,"distinct_type":"Bottom","rt":null,"stimulus":"Stimuli_Rocks480/I_Rhyolite_14.png","response":null,"trial_type":"image-keyboard-response","trial_index":236,"plugin_version":"2.1.0","time_elapsed":9129380,"subject_id":"88052","group":"Group1","full_date":"2025-12-03T18:24:39.784Z","date":"2025-12-03","time":"18:24:39"},{"rt":null,"stimulus":"<p style=\"font-size: 50px; margin: 0; text-align: center;\">+</p>","response":null,"trial_type":"html-keyboard-response","trial_index":237,"plugin_version":"2.1.0","time_elapsed":9130383,"subject_id":"88052","group":"Group1","full_date":"2025-12-03T18:24:39.784Z","date":"2025-12-03","time":"18:24:39"},{"task":"memory_phase","broad_category":"I","image_png":"I_Pumice_08.png","image_id":136,"category_name":"Pumice","category":9,"distinct_rating":3.1,"distinct_type":"Bottom","rt":null,"stimulus":"Stimuli_Rocks480/I_Pumice_08.png","response":null,"trial_type":"image-keyboard-response","trial_index":238,"plugin_version":"2.1.0","time_elapsed":9132886,"subject_id":"88052","group":"Group1","full_date":"2025-12-03T18:24:39.784Z","date":"2025-12-03","time":"18:24:39"},{"rt":null,"stimulus":"<p style=\"font-size: 50px; margin: 0; text-align: center;\">+</p>","response":null,"trial_type":"html-keyboard-response","trial_index":239,"plugin_version":"2.1.0","time_elapsed":9133888,"subject_id":"88052","group":"Group1","full_date":"2025-12-03T18:24:39.784Z","date":"2025-12-03","time":"18:24:39"},{"task":"memory_phase","broad_category":"I","image_png":"I_Basalt_09.png","image_id":25,"category_name":"Basalt","category":2,"distinct_rating":1.89,"distinct_type":"Bottom","rt":null,"stimulus":"Stimuli_Rocks480/I_Basalt_09.png","response":null,"trial_type":"image-keyboard-response","trial_index":240,"plugin_version":"2.1.0","time_elapsed":9136409,"subject_id":"88052","group":"Group1","full_date":"2025-12-03T18:24:39.784Z","date":"2025-12-03","time":"18:24:39"},{"rt":null,"stimulus":"<p style=\"font-size: 50px; margin: 0; text-align: center;\">+</p>","response":null,"trial_type":"html-keyboard-response","trial_index":241,"plugin_version":"2.1.0","time_elapsed":9137412,"subject_id":"88052","group":"Group1","full_date":"2025-12-03T18:24:39.784Z","date":"2025-12-03","time":"18:24:39"},{"task":"memory_phase","broad_category":"S","image_png":"S_Rock Salt_01.png","image_id":433,"category_name":"Rock Salt","category":28,"distinct_rating":7.18,"distinct_type":"Top","rt":null,"stimulus":"Stimuli_Rocks480/S_Rock Salt_01.png","response":null,"trial_type":"image-keyboard-response","trial_index":242,"plugin_version":"2.1.0","time_elapsed":9139945,"subject_id":"88052","group":"Group1","full_date":"2025-12-03T18:24:39.784Z","date":"2025-12-03","time":"18:24:39"},{"rt":null,"stimulus":"<p style=\"font-size: 50px; margin: 0; text-align: center;\">+</p>","response":null,"trial_type":"html-keyboard-response","trial_index":243,"plugin_version":"2.1.0","time_elapsed":9140947,"subject_id":"88052","group":"Group1","full_date":"2025-12-03T18:24:39.784Z","date":"2025-12-03","time":"18:24:39"},{"task":"memory_phase","broad_category":"S","image_png":"S_Chert_10.png","image_id":362,"category_name":"Chert","category":23,"distinct_rating":7.17,"distinct_type":"Top","rt":null,"stimulus":"Stimuli_Rocks480/S_Chert_10.png","response":null,"trial_type":"image-keyboard-response","trial_index":244,"plugin_version":"2.1.0","time_elapsed":9143472,"subject_id":"88052","group":"Group1","full_date":"2025-12-03T18:24:39.784Z","date":"2025-12-03","time":"18:24:39"},{"rt":null,"stimulus":"<p style=\"font-size: 50px; margin: 0; text-align: center;\">+</p>","response":null,"trial_type":"html-keyboard-response","trial_index":245,"plugin_version":"2.1.0","time_elapsed":9144475,"subject_id":"88052","group":"Group1","full_date":"2025-12-03T18:24:39.784Z","date":"2025-12-03","time":"18:24:39"},{"task":"memory_phase","broad_category":"M","image_png":"M_Slate_03.png","image_id":307,"category_name":"Slate","category":20,"distinct_rating":1.87,"distinct_type":"Bottom","rt":null,"stimulus":"Stimuli_Rocks480/M_Slate_03.png","response":null,"trial_type":"image-keyboard-response","trial_index":246,"plugin_version":"2.1.0","time_elapsed":9147001,"subject_id":"88052","group":"Group1","full_date":"2025-12-03T18:24:39.784Z","date":"2025-12-03","time":"18:24:39"},{"rt":null,"stimulus":"<p style=\"font-size: 50px; margin: 0; text-align: center;\">+</p>","response":null,"trial_type":"html-keyboard-response","trial_index":247,"plugin_version":"2.1.0","time_elapsed":9148004,"subject_id":"88052","group":"Group1","full_date":"2025-12-03T18:24:39.784Z","date":"2025-12-03","time":"18:24:39"},{"task":"memory_phase","broad_category":"S","image_png":"S_Shale_08.png","image_id":472,"category_name":"Shale","category":30,"distinct_rating":2.55,"distinct_type":"Bottom","rt":null,"stimulus":"Stimuli_Rocks480/S_Shale_08.png","response":