[{"width":1440,"height":720,"webaudio":true,"browser":"chrome","browser_version":"141.0.0","mobile":false,"os":"Mac OS","fullscreen":true,"vsync_rate":59.94,"webcam":true,"microphone":true,"trial_type":"browser-check","trial_index":0,"plugin_version":"2.1.0","time_elapsed":1015,"subject_id":"88853","group":"Group2","full_date":"2025-12-02T20:15:00.432Z","date":"2025-12-02","time":"20:15:00"},{"success":true,"timeout":false,"failed_images":[],"failed_audio":[],"failed_video":[],"trial_type":"preload","trial_index":1,"plugin_version":"2.1.0","time_elapsed":4884,"subject_id":"88853","group":"Group2","full_date":"2025-12-02T20:15:00.432Z","date":"2025-12-02","time":"20:15:00"},{"rt":265659,"url":"SONA_consent_memorability.html","trial_type":"external-html","trial_index":2,"plugin_version":"2.1.0","time_elapsed":419182,"subject_id":"88853","group":"Group2","full_date":"2025-12-02T20:15:00.432Z","date":"2025-12-02","time":"20:15:00"},{"success":true,"rt":1255,"trial_type":"fullscreen","trial_index":3,"plugin_version":"2.1.0","time_elapsed":421448,"subject_id":"88853","group":"Group2","full_date":"2025-12-02T20:15:00.432Z","date":"2025-12-02","time":"20:15:00"},{"rt":1908,"stimulus":"<div style=\"max-width: 760px; margin: auto; font-size: 20px; line-height: 1.5;\">\n      <h1 style=\"text-align:center; font-size: 30px;\">Instructions</h1>\n      <p>\n        Welcome to the study on <b>visual memory</b>. This experiment consists of <b>two phases</b>: \n        a <b>study phase</b> and a <b>test phase</b>.\n      </p>\n      <p>\n        In the study phase, you will see a series of rock images along with their category labels.\n        The images will appear one at a time.\n        <b>Your task</b> is to learn the categories to which the rock images belong \n        and to remember each image as accurately as possible.\n      </p> \n      <p>\n        Note that we will repeat the study phase <b>3 times</b>, \n        so you will have multiple opportunities to see and remember each image.\n      </p>\n      <p>\n        After the study phase, <b>your memory will be tested</b>. \n        Additional instructions for the test phase will be provided at that time.\n      </p>\n      <p>\n        If your computer has multiple <b>language settings</b> (e.g., English and another language),\n        please make sure it is set to English before starting.\n      </p>\n      <p>\n        You can track your progress using the <b>completion bar</b> at the top of the screen. \n        Please note that the bar will refresh when the test phase begins \n        to give you an accurate sense of your progress in both phases.\n      </p> \n      <p>\n        Press the button below when you are ready to begin.\n      </p>\n    </div>","response":0,"trial_type":"html-button-response","trial_index":4,"plugin_version":"2.1.0","time_elapsed":423362,"subject_id":"88853","group":"Group2","full_date":"2025-12-02T20:15:00.432Z","date":"2025-12-02","time":"20:15:00"},{"rt":null,"stimulus":"<p style=\"font-size: 50px; margin: 0; text-align: center;\">+</p>","response":null,"trial_type":"html-keyboard-response","trial_index":5,"plugin_version":"2.1.0","time_elapsed":424367,"subject_id":"88853","group":"Group2","full_date":"2025-12-02T20:15:00.432Z","date":"2025-12-02","time":"20:15:00"},{"task":"memory_phase","broad_category":"I","image_png":"I_Pumice_13.png","image_id":141,"category_name":"Pumice","category":9,"distinct_rating":3.12,"distinct_type":"Bottom","rt":null,"stimulus":"Stimuli_Rocks480/I_Pumice_13.png","response":null,"trial_type":"image-keyboard-response","trial_index":6,"plugin_version":"2.1.0","time_elapsed":426877,"subject_id":"88853","group":"Group2","full_date":"2025-12-02T20:15:00.432Z","date":"2025-12-02","time":"20:15:00"},{"rt":null,"stimulus":"<p style=\"font-size: 50px; margin: 0; text-align: center;\">+</p>","response":null,"trial_type":"html-keyboard-response","trial_index":7,"plugin_version":"2.1.0","time_elapsed":427880,"subject_id":"88853","group":"Group2","full_date":"2025-12-02T20:15:00.432Z","date":"2025-12-02","time":"20:15:00"},{"task":"memory_phase","broad_category":"I","image_png":"I_Andesite_04.png","image_id":4,"category_name":"Andesite","category":1,"distinct_rating":3.18,"distinct_type":"Bottom","rt":null,"stimulus":"Stimuli_Rocks480/I_Andesite_04.png","response":null,"trial_type":"image-keyboard-response","trial_index":8,"plugin_version":"2.1.0","time_elapsed":430384,"subject_id":"88853","group":"Group2","full_date":"2025-12-02T20:15:00.432Z","date":"2025-12-02","time":"20:15:00"},{"rt":null,"stimulus":"<p style=\"font-size: 50px; margin: 0; text-align: center;\">+</p>","response":null,"trial_type":"html-keyboard-response","trial_index":9,"plugin_version":"2.1.0","time_elapsed":431388,"subject_id":"88853","group":"Group2","full_date":"2025-12-02T20:15:00.432Z","date":"2025-12-02","time":"20:15:00"},{"task":"memory_phase","broad_category":"S","image_png":"S_Shale_02.png","image_id":466,"category_name":"Shale","category":30,"distinct_rating":2.9,"distinct_type":"Bottom","rt":null,"stimulus":"Stimuli_Rocks480/S_Shale_02.png","response":null,"trial_type":"image-keyboard-response","trial_index":10,"plugin_version":"2.1.0","time_elapsed":433892,"subject_id":"88853","group":"Group2","full_date":"2025-12-02T20:15:00.432Z","date":"2025-12-02","time":"20:15:00"},{"rt":null,"stimulus":"<p style=\"font-size: 50px; margin: 0; text-align: center;\">+</p>","response":null,"trial_type":"html-keyboard-response","trial_index":11,"plugin_version":"2.1.0","time_elapsed":434895,"subject_id":"88853","group":"Group2","full_date":"2025-12-02T20:15:00.432Z","date":"2025-12-02","time":"20:15:00"},{"task":"memory_phase","broad_category":"I","image_png":"I_Rhyolite_10.png","image_id":154,"category_name":"Rhyolite","category":10,"distinct_rating":2.88,"distinct_type":"Bottom","rt":null,"stimulus":"Stimuli_Rocks480/I_Rhyolite_10.png","response":null,"trial_type":"image-keyboard-response","trial_index":12,"plugin_version":"2.1.0","time_elapsed":437400,"subject_id":"88853","group":"Group2","full_date":"2025-12-02T20:15:00.432Z","date":"2025-12-02","time":"20:15:00"},{"rt":null,"stimulus":"<p style=\"font-size: 50px; margin: 0; text-align: center;\">+</p>","response":null,"trial_type":"html-keyboard-response","trial_index":13,"plugin_version":"2.1.0","time_elapsed":438403,"subject_id":"88853","group":"Group2","full_date":"2025-12-02T20:15:00.432Z","date":"2025-12-02","time":"20:15:00"},{"task":"memory_phase","broad_category":"M","image_png":"M_Marble_02.png","image_id":226,"category_name":"Marble","category":15,"distinct_rating":3.2,"distinct_type":"Bottom","rt":null,"stimulus":"Stimuli_Rocks480/M_Marble_02.png","response":null,"trial_type":"image-keyboard-response","trial_index":14,"plugin_version":"2.1.0","time_elapsed":440906,"subject_id":"88853","group":"Group2","full_date":"2025-12-02T20:15:00.432Z","date":"2025-12-02","time":"20:15:00"},{"rt":null,"stimulus":"<p style=\"font-size: 50px; margin: 0; text-align: center;\">+</p>","response":null,"trial_type":"html-keyboard-response","trial_index":15,"plugin_version":"2.1.0","time_elapsed":441909,"subject_id":"88853","group":"Group2","full_date":"2025-12-02T20:15:00.432Z","date":"2025-12-02","time":"20:15:00"},{"task":"memory_phase","broad_category":"I","image_png":"I_Pegmatite_03.png","image_id":99,"category_name":"Pegmatite","category":7,"distinct_rating":7.24,"distinct_type":"Top","rt":null,"stimulus":"Stimuli_Rocks480/I_Pegmatite_03.png","response":null,"trial_type":"image-keyboard-response","trial_index":16,"plugin_version":"2.1.0","time_elapsed":444413,"subject_id":"88853","group":"Group2","full_date":"2025-12-02T20:15:00.432Z","date":"2025-12-02","time":"20:15:00"},{"rt":null,"stimulus":"<p style=\"font-size: 50px; margin: 0; text-align: center;\">+</p>","response":null,"trial_type":"html-keyboard-response","trial_index":17,"plugin_version":"2.1.0","time_elapsed":445416,"subject_id":"88853","group":"Group2","full_date":"2025-12-02T20:15:00.432Z","date":"2025-12-02","time":"20:15:00"},{"task":"memory_phase","broad_category":"I","image_png":"I_Gabbro_12.png","image_id":60,"category_name":"Gabbro","category":4,"distinct_rating":2.6,"distinct_type":"Bottom","rt":null,"stimulus":"Stimuli_Rocks480/I_Gabbro_12.png","response":null,"trial_type":"image-keyboard-response","trial_index":18,"plugin_version":"2.1.0","time_elapsed":447921,"subject_id":"88853","group":"Group2","full_date":"2025-12-02T20:15:00.432Z","date":"2025-12-02","time":"20:15:00"},{"rt":null,"stimulus":"<p style=\"font-size: 50px; margin: 0; text-align: center;\">+</p>","response":null,"trial_type":"html-keyboard-response","trial_index":19,"plugin_version":"2.1.0","time_elapsed":448924,"subject_id":"88853","group":"Group2","full_date":"2025-12-02T20:15:00.432Z","date":"2025-12-02","time":"20:15:00"},{"task":"memory_phase","broad_category":"I","image_png":"I_Pegmatite_11.png","image_id":107,"category_name":"Pegmatite","category":7,"distinct_rating":7.11,"distinct_type":"Top","rt":null,"stimulus":"Stimuli_Rocks480/I_Pegmatite_11.png","response":null,"trial_type":"image-keyboard-response","trial_index":20,"plugin_version":"2.1.0","time_elapsed":451428,"subject_id":"88853","group":"Group2","full_date":"2025-12-02T20:15:00.432Z","date":"2025-12-02","time":"20:15:00"},{"rt":null,"stimulus":"<p style=\"font-size: 50px; margin: 0; text-align: center;\">+</p>","response":null,"trial_type":"html-keyboard-response","trial_index":21,"plugin_version":"2.1.0","time_elapsed":452431,"subject_id":"88853","group":"Group2","full_date":"2025-12-02T20:15:00.432Z","date":"2025-12-02","time":"20:15:00"},{"task":"memory_phase","broad_category":"I","image_png":"I_Pumice_14.png","image_id":142,"category_name":"Pumice","category":9,"distinct_rating":3.22,"distinct_type":"Bottom","rt":null,"stimulus":"Stimuli_Rocks480/I_Pumice_14.png","response":null,"trial_type":"image-keyboard-response","trial_index":22,"plugin_version":"2.1.0","time_elapsed":454936,"subject_id":"88853","group":"Group2","full_date":"2025-12-02T20:15:00.432Z","date":"2025-12-02","time":"20:15:00"},{"rt":null,"stimulus":"<p style=\"font-size: 50px; margin: 0; text-align: center;\">+</p>","response":null,"trial_type":"html-keyboard-response","trial_index":23,"plugin_version":"2.1.0","time_elapsed":455939,"subject_id":"88853","group":"Group2","full_date":"2025-12-02T20:15:00.432Z","date":"2025-12-02","time":"20:15:00"},{"task":"memory_phase","broad_category":"S","image_png":"S_Chert_13.png","image_id":365,"category_name":"Chert","category":23,"distinct_rating":6.57,"distinct_type":"Top","rt":null,"stimulus":"Stimuli_Rocks480/S_Chert_13.png","response":null,"trial_type":"image-keyboard-response","trial_index":24,"plugin_version":"2.1.0","time_elapsed":458443,"subject_id":"88853","group":"Group2","full_date":"2025-12-02T20:15:00.432Z","date":"2025-12-02","time":"20:15:00"},{"rt":null,"stimulus":"<p style=\"font-size: 50px; margin: 0; text-align: center;\">+</p>","response":null,"trial_type":"html-keyboard-response","trial_index":25,"plugin_version":"2.1.0","time_elapsed":459446,"subject_id":"88853","group":"Group2","full_date":"2025-12-02T20:15:00.432Z","date":"2025-12-02","time":"20:15:00"},{"task":"memory_phase","broad_category":"M","image_png":"M_Quartzite_07.png","image_id":279,"category_name":"Quartzite","category":18,"distinct_rating":1.97,"distinct_type":"Bottom","rt":null,"stimulus":"Stimuli_Rocks480/M_Quartzite_07.png","response":null,"trial_type":"image-keyboard-response","trial_index":26,"plugin_version":"2.1.0","time_elapsed":461950,"subject_id":"88853","group":"Group2","full_date":"2025-12-02T20:15:00.432Z","date":"2025-12-02","time":"20:15:00"},{"rt":null,"stimulus":"<p style=\"font-size: 50px; margin: 0; text-align: center;\">+</p>","response":null,"trial_type":"html-keyboard-response","trial_index":27,"plugin_version":"2.1.0","time_elapsed":462952,"subject_id":"88853","group":"Group2","full_date":"2025-12-02T20:15:00.432Z","date":"2025-12-02","time":"20:15:00"},{"task":"memory_phase","broad_category":"I","image_png":"I_Peridotite_13.png","image_id":125,"category_name":"Peridotite","category":8,"distinct_rating":7.28,"distinct_type":"Top","rt":null,"stimulus":"Stimuli_Rocks480/I_Peridotite_13.png","response":null,"trial_type":"image-keyboard-response","trial_index":28,"plugin_version":"2.1.0","time_elapsed":465457,"subject_id":"88853","group":"Group2","full_date":"2025-12-02T20:15:00.432Z","date":"2025-12-02","time":"20:15:00"},{"rt":null,"stimulus":"<p style=\"font-size: 50px; margin: 0; text-align: center;\">+</p>","response":null,"trial_type":"html-keyboard-response","trial_index":29,"plugin_version":"2.1.0","time_elapsed":466459,"subject_id":"88853","group":"Group2","full_date":"2025-12-02T20:15:00.432Z","date":"2025-12-02","time":"20:15:00"},{"task":"memory_phase","broad_category":"I","image_png":"I_Andesite_03.png","image_id":3,"category_name":"Andesite","category":1,"distinct_rating":3.17,"distinct_type":"Bottom","rt":null,"stimulus":"Stimuli_Rocks480/I_Andesite_03.png","response":null,"trial_type":"image-keyboard-response","trial_index":30,"plugin_version":"2.1.0","time_elapsed":468962,"subject_id":"88853","group":"Group2","full_date":"2025-12-02T20:15:00.432Z","date":"2025-12-02","time":"20:15:00"},{"rt":null,"stimulus":"<p style=\"font-size: 50px; margin: 0; text-align: center;\">+</p>","response":null,"trial_type":"html-keyboard-response","trial_index":31,"plugin_version":"2.1.0","time_elapsed":469965,"subject_id":"88853","group":"Group2","full_date":"2025-12-02T20:15:00.432Z","date":"2025-12-02","time":"20:15:00"},{"task":"memory_phase","broad_category":"I","image_png":"I_Pumice_01.png","image_id":129,"category_name":"Pumice","category":9,"distinct_rating":3.25,"distinct_type":"Bottom","rt":null,"stimulus":"Stimuli_Rocks480/I_Pumice_01.png","response":null,"trial_type":"image-keyboard-response","trial_index":32,"plugin_version":"2.1.0","time_elapsed":472469,"subject_id":"88853","group":"Group2","full_date":"2025-12-02T20:15:00.432Z","date":"2025-12-02","time":"20:15:00"},{"rt":null,"stimulus":"<p style=\"font-size: 50px; margin: 0; text-align: center;\">+</p>","response":null,"trial_type":"html-keyboard-response","trial_index":33,"plugin_version":"2.1.0","time_elapsed":473472,"subject_id":"88853","group":"Group2","full_date":"2025-12-02T20:15:00.432Z","date":"2025-12-02","time":"20:15:00"},{"task":"memory_phase","broad_category":"M","image_png":"M_Slate_10.png","image_id":314,"category_name":"Slate","category":20,"distinct_rating":1.94,"distinct_type":"Bottom","rt":null,"stimulus":"Stimuli_Rocks480/M_Slate_10.png","response":null,"trial_type":"image-keyboard-response","trial_index":34,"plugin_version":"2.1.0","time_elapsed":475976,"subject_id":"88853","group":"Group2","full_date":"2025-12-02T20:15:00.432Z","date":"2025-12-02","time":"20:15:00"},{"rt":null,"stimulus":"<p style=\"font-size: 50px; margin: 0; text-align: center;\">+</p>","response":null,"trial_type":"html-keyboard-response","trial_index":35,"plugin_version":"2.1.0","time_elapsed":476980,"subject_id":"88853","group":"Group2","full_date":"2025-12-02T20:15:00.432Z","date":"2025-12-02","time":"20:15:00"},{"task":"memory_phase","broad_category":"I","image_png":"I_Andesite_09.png","image_id":9,"category_name":"Andesite","category":1,"distinct_rating":2.49,"distinct_type":"Bottom","rt":null,"stimulus":"Stimuli_Rocks480/I_Andesite_09.png","response":null,"trial_type":"image-keyboard-response","trial_index":36,"plugin_version":"2.1.0","time_elapsed":479484,"subject_id":"88853","group":"Group2","full_date":"2025-12-02T20:15:00.432Z","date":"2025-12-02","time":"20:15:00"},{"rt":null,"stimulus":"<p style=\"font-size: 50px; margin: 0; text-align: center;\">+</p>","response":null,"trial_type":"html-keyboard-response","trial_index":37,"plugin_version":"2.1.0","time_elapsed":480487,"subject_id":"88853","group":"Group2","full_date":"2025-12-02T20:15:00.432Z","date":"2025-12-02","time":"20:15:00"},{"task":"memory_phase","broad_category":"M","image_png":"M_Quartzite_15.png","image_id":287,"category_name":"Quartzite","category":18,"distinct_rating":2.19,"distinct_type":"Bottom","rt":null,"stimulus":"Stimuli_Rocks480/M_Quartzite_15.png","response":null,"trial_type":"image-keyboard-response","trial_index":38,"plugin_version":"2.1.0","time_elapsed":482992,"subject_id":"88853","group":"Group2","full_date":"2025-12-02T20:15:00.432Z","date":"2025-12-02","time":"20:15:00"},{"rt":null,"stimulus":"<p style=\"font-size: 50px; margin: 0; text-align: center;\">+</p>","response":null,"trial_type":"html-keyboard-response","trial_index":39,"plugin_version":"2.1.0","time_elapsed":483994,"subject_id":"88853","group":"Group2","full_date":"2025-12-02T20:15:00.432Z","date":"2025-12-02","time":"20:15:00"},{"task":"memory_phase","broad_category":"I","image_png":"I_Rhyolite_05.png","image_id":149,"category_name":"Rhyolite","category":10,"distinct_rating":3.02,"distinct_type":"Bottom","rt":null,"stimulus":"Stimuli_Rocks480/I_Rhyolite_05.png","response":null,"trial_type":"image-keyboard-response","trial_index":40,"plugin_version":"2.1.0","time_elapsed":486498,"subject_id":"88853","group":"Group2","full_date":"2025-12-02T20:15:00.432Z","date":"2025-12-02","time":"20:15:00"},{"rt":null,"stimulus":"<p style=\"font-size: 50px; margin: 0; text-align: center;\">+</p>","response":null,"trial_type":"html-keyboard-response","trial_index":41,"plugin_version":"2.1.0","time_elapsed":487500,"subject_id":"88853","group":"Group2","full_date":"2025-12-02T20:15:00.432Z","date":"2025-12-02","time":"20:15:00"},{"task":"memory_phase","broad_category":"I","image_png":"I_Diorite_01.png","image_id":33,"category_name":"Diorite","category":3,"distinct_rating":2.97,"distinct_type":"Bottom","rt":null,"stimulus":"Stimuli_Rocks480/I_Diorite_01.png","response":null,"trial_type":"image-keyboard-response","trial_index":42,"plugin_version":"2.1.0","time_elapsed":490004,"subject_id":"88853","group":"Group2","full_date":"2025-12-02T20:15:00.432Z","date":"2025-12-02","time":"20:15:00"},{"rt":null,"stimulus":"<p style=\"font-size: 50px; margin: 0; text-align: center;\">+</p>","response":null,"trial_type":"html-keyboard-response","trial_index":43,"plugin_version":"2.1.0","time_elapsed":491007,"subject_id":"88853","group":"Group2","full_date":"2025-12-02T20:15:00.432Z","date":"2025-12-02","time":"20:15:00"},{"task":"memory_phase","broad_category":"I","image_png":"I_Diorite_15.png","image_id":47,"category_name":"Diorite","category":3,"distinct_rating":3.05,"distinct_type":"Bottom","rt":null,"stimulus":"Stimuli_Rocks480/I_Diorite_15.png","response":null,"trial_type":"image-keyboard-response","trial_index":44,"plugin_version":"2.1.0","time_elapsed":493511,"subject_id":"88853","group":"Group2","full_date":"2025-12-02T20:15:00.432Z","date":"2025-12-02","time":"20:15:00"},{"rt":null,"stimulus":"<p style=\"font-size: 50px; margin: 0; text-align: center;\">+</p>","response":null,"trial_type":"html-keyboard-response","trial_index":45,"plugin_version":"2.1.0","time_elapsed":494513,"subject_id":"88853","group":"Group2","full_date":"2025-12-02T20:15:00.432Z","date":"2025-12-02","time":"20:15:00"},{"task":"memory_phase","broad_category":"M","image_png":"M_Phyllite_05.png","image_id":261,"category_name":"Phyllite","category":17,"distinct_rating":2.14,"distinct_type":"Bottom","rt":null,"stimulus":"Stimuli_Rocks480/M_Phyllite_05.png","response":null,"trial_type":"image-keyboard-response","trial_index":46,"plugin_version":"2.1.0","time_elapsed":497017,"subject_id":"88853","group":"Group2","full_date":"2025-12-02T20:15:00.432Z","date":"2025-12-02","time":"20:15:00"},{"rt":null,"stimulus":"<p style=\"font-size: 50px; margin: 0; text-align: center;\">+</p>","response":null,"trial_type":"html-keyboard-response","trial_index":47,"plugin_version":"2.1.0","time_elapsed":498019,"subject_id":"88853","group":"Group2","full_date":"2025-12-02T20:15:00.432Z","date":"2025-12-02","time":"20:15:00"},{"task":"memory_phase","broad_category":"S","image_png":"S_Sandstone_11.png","image_id":459,"category_name":"Sandstone","category":29,"distinct_rating":1.82,"distinct_type":"Bottom","rt":null,"stimulus":"Stimuli_Rocks480/S_Sandstone_11.png","response":null,"trial_type":"image-keyboard-response","trial_index":48,"plugin_version":"2.1.0","time_elapsed":500526,"subject_id":"88853","group":"Group2","full_date":"2025-12-02T20:15:00.432Z","date":"2025-12-02","time":"20:15:00"},{"rt":null,"stimulus":"<p style=\"font-size: 50px; margin: 0; text-align: center;\">+</p>","response":null,"trial_type":"html-keyboard-response","trial_index":49,"plugin_version":"2.1.0","time_elapsed":501529,"subject_id":"88853","group":"Group2","full_date":"2025-12-02T20:15:00.432Z","date":"2025-12-02","time":"20:15:00"},{"task":"memory_phase","broad_category":"I","image_png":"I_Gabbro_02.png","image_id":50,"category_name":"Gabbro","category":4,"distinct_rating":2.73,"distinct_type":"Bottom","rt":null,"stimulus":"Stimuli_Rocks480/I_Gabbro_02.png","response":null,"trial_type":"image-keyboard-response","trial_index":50,"plugin_version":"2.1.0","time_elapsed":504033,"subject_id":"88853","group":"Group2","full_date":"2025-12-02T20:15:00.432Z","date":"2025-12-02","time":"20:15:00"},{"rt":null,"stimulus":"<p style=\"font-size: 50px; margin: 0; text-align: center;\">+</p>","response":null,"trial_type":"html-keyboard-response","trial_index":51,"plugin_version":"2.1.0","time_elapsed":505036,"subject_id":"88853","group":"Group2","full_date":"2025-12-02T20:15:00.432Z","date":"2025-12-02","time":"20:15:00"},{"task":"memory_phase","broad_category":"I","image_png":"I_Obsidian_06.png","image_id":86,"category_name":"Obsidian","category":6,"distinct_rating":8.01,"distinct_type":"Top","rt":null,"stimulus":"Stimuli_Rocks480/I_Obsidian_06.png","response":null,"trial_type":"image-keyboard-response","trial_index":52,"plugin_version":"2.1.0","time_elapsed":507540,"subject_id":"88853","group":"Group2","full_date":"2025-12-02T20:15:00.432Z","date":"2025-12-02","time":"20:15:00"},{"rt":null,"stimulus":"<p style=\"font-size: 50px; margin: 0; text-align: center;\">+</p>","response":null,"trial_type":"html-keyboard-response","trial_index":53,"plugin_version":"2.1.0","time_elapsed":508543,"subject_id":"88853","group":"Group2","full_date":"2025-12-02T20:15:00.432Z","date":"2025-12-02","time":"20:15:00"},{"task":"memory_phase","broad_category":"S","image_png":"S_Sandstone_04.png","image_id":452,"category_name":"Sandstone","category":29,"distinct_rating":1.8,"distinct_type":"Bottom","rt":null,"stimulus":"Stimuli_Rocks480/S_Sandstone_04.png","response":null,"trial_type":"image-keyboard-response","trial_index":54,"plugin_version":"2.1.0","time_elapsed":511048,"subject_id":"88853","group":"Group2","full_date":"2025-12-02T20:15:00.432Z","date":"2025-12-02","time":"20:15:00"},{"rt":2104,"stimulus":"<p style=\"max-width: 760px; margin: auto; font-size: 35px; line-height: 1.5;\">Press SPACE to continue study phase</p>","response":" ","trial_type":"html-keyboard-response","trial_index":55,"plugin_version":"2.1.0","time_elapsed":513154,"subject_id":"88853","group":"Group2","full_date":"2025-12-02T20:15:00.432Z","date":"2025-12-02","time":"20:15:00"},{"rt":null,"stimulus":"<p style=\"font-size: 50px; margin: 0; text-align: center;\">+</p>","response":null,"trial_type":"html-keyboard-response","trial_index":56,"plugin_version":"2.1.0","time_elapsed":514157,"subject_id":"88853","group":"Group2","full_date":"2025-12-02T20:15:00.432Z","date":"2025-12-02","time":"20:15:00"},{"task":"memory_phase","broad_category":"M","image_png":"M_Slate_14.png","image_id":318,"category_name":"Slate","category":20,"distinct_rating":2.58,"distinct_type":"Bottom","rt":null,"stimulus":"Stimuli_Rocks480/M_Slate_14.png","response":null,"trial_type":"image-keyboard-response","trial_index":57,"plugin_version":"2.1.0","time_elapsed":516661,"subject_id":"88853","group":"Group2","full_date":"2025-12-02T20:15:00.432Z","date":"2025-12-02","time":"20:15:00"},{"rt":null,"stimulus":"<p style=\"font-size: 50px; margin: 0; text-align: center;\">+</p>","response":null,"trial_type":"html-keyboard-response","trial_index":58,"plugin_version":"2.1.0","time_elapsed":517664,"subject_id":"88853","group":"Group2","full_date":"2025-12-02T20:15:00.432Z","date":"2025-12-02","time":"20:15:00"},{"task":"memory_phase","broad_category":"M","image_png":"M_Quartzite_12.png","image_id":284,"category_name":"Quartzite","category":18,"distinct_rating":1.92,"distinct_type":"Bottom","rt":null,"stimulus":"Stimuli_Rocks480/M_Quartzite_12.png","response":null,"trial_type":"image-keyboard-response","trial_index":59,"plugin_version":"2.1.0","time_elapsed":520169,"subject_id":"88853","group":"Group2","full_date":"2025-12-02T20:15:00.432Z","date":"2025-12-02","time":"20:15:00"},{"rt":null,"stimulus":"<p style=\"font-size: 50px; margin: 0; text-align: center;\">+</p>","response":null,"trial_type":"html-keyboard-response","trial_index":60,"plugin_version":"2.1.0","time_elapsed":521172,"subject_id":"88853","group":"Group2","full_date":"2025-12-02T20:15:00.432Z","date":"2025-12-02","time":"20:15:00"},{"task":"memory_phase","broad_category":"M","image_png":"M_Marble_14.png","image_id":238,"category_name":"Marble","category":15,"distinct_rating":3.31,"distinct_type":"Bottom","rt":null,"stimulus":"Stimuli_Rocks480/M_Marble_14.png","response":null,"trial_type":"image-keyboard-response","trial_index":61,"plugin_version":"2.1.0","time_elapsed":523676,"subject_id":"88853","group":"Group2","full_date":"2025-12-02T20:15:00.432Z","date":"2025-12-02","time":"20:15:00"},{"rt":null,"stimulus":"<p style=\"font-size: 50px; margin: 0; text-align: center;\">+</p>","response":null,"trial_type":"html-keyboard-response","trial_index":62,"plugin_version":"2.1.0","time_elapsed":524679,"subject_id":"88853","group":"Group2","full_date":"2025-12-02T20:15:00.432Z","date":"2025-12-02","time":"20:15:00"},{"task":"memory_phase","broad_category":"I","image_png":"I_Diorite_10.png","image_id":42,"category_name":"Diorite","category":3,"distinct_rating":2.84,"distinct_type":"Bottom","rt":null,"stimulus":"Stimuli_Rocks480/I_Diorite_10.png","response":null,"trial_type":"image-keyboard-response","trial_index":63,"plugin_version":"2.1.0","time_elapsed":527183,"subject_id":"88853","group":"Group2","full_date":"2025-12-02T20:15:00.432Z","date":"2025-12-02","time":"20:15:00"},{"rt":null,"stimulus":"<p style=\"font-size: 50px; margin: 0; text-align: center;\">+</p>","response":null,"trial_type":"html-keyboard-response","trial_index":64,"plugin_version":"2.1.0","time_elapsed":528186,"subject_id":"88853","group":"Group2","full_date":"2025-12-02T20:15:00.432Z","date":"2025-12-02","time":"20:15:00"},{"task":"memory_phase","broad_category":"S","image_png":"S_Conglomerate_14.png","image_id":382,"category_name":"Conglomerate","category":24,"distinct_rating":6.86,"distinct_type":"Top","rt":null,"stimulus":"Stimuli_Rocks480/S_Conglomerate_14.png","response":null,"trial_type":"image-keyboard-response","trial_index":65,"plugin_version":"2.1.0","time_elapsed":530689,"subject_id":"88853","group":"Group2","full_date":"2025-12-02T20:15:00.432Z","date":"2025-12-02","time":"20:15:00"},{"rt":null,"stimulus":"<p style=\"font-size: 50px; margin: 0; text-align: center;\">+</p>","response":null,"trial_type":"html-keyboard-response","trial_index":66,"plugin_version":"2.1.0","time_elapsed":531692,"subject_id":"88853","group":"Group2","full_date":"2025-12-02T20:15:00.432Z","date":"2025-12-02","time":"20:15:00"},{"task":"memory_phase","broad_category":"M","image_png":"M_Phyllite_13.png","image_id":269,"category_name":"Phyllite","category":17,"distinct_rating":2.8,"distinct_type":"Bottom","rt":null,"stimulus":"Stimuli_Rocks480/M_Phyllite_13.png","response":null,"trial_type":"image-keyboard-response","trial_index":67,"plugin_version":"2.1.0","time_elapsed":534196,"subject_id":"88853","group":"Group2","full_date":"2025-12-02T20:15:00.432Z","date":"2025-12-02","time":"20:15:00"},{"rt":null,"stimulus":"<p style=\"font-size: 50px; margin: 0; text-align: center;\">+</p>","response":null,"trial_type":"html-keyboard-response","trial_index":68,"plugin_version":"2.1.0","time_elapsed":535198,"subject_id":"88853","group":"Group2","full_date":"2025-12-02T20:15:00.432Z","date":"2025-12-02","time":"20:15:00"},{"task":"memory_phase","broad_category":"S","image_png":"S_Dolomite_07.png","image_id":391,"category_name":"Dolomite","category":25,"distinct_rating":1.73,"distinct_type":"Bottom","rt":null,"stimulus":"Stimuli_Rocks480/S_Dolomite_07.png","response":null,"trial_type":"image-keyboard-response","trial_index":69,"plugin_version":"2.1.0","time_elapsed":537703,"subject_id":"88853","group":"Group2","full_date":"2025-12-02T20:15:00.432Z","date":"2025-12-02","time":"20:15:00"},{"rt":null,"stimulus":"<p style=\"font-size: 50px; margin: 0; text-align: center;\">+</p>","response":null,"trial_type":"html-keyboard-response","trial_index":70,"plugin_version":"2.1.0","time_elapsed":538706,"subject_id":"88853","group":"Group2","full_date":"2025-12-02T20:15:00.432Z","date":"2025-12-02","time":"20:15:00"},{"task":"memory_phase","broad_category":"S","image_png":"S_Sandstone_08.png","image_id":456,"category_name":"Sandstone","category":29,"distinct_rating":1.5,"distinct_type":"Bottom","rt":null,"stimulus":"Stimuli_Rocks480/S_Sandstone_08.png","response":null,"trial_type":"image-keyboard-response","trial_index":71,"plugin_version":"2.1.0","time_elapsed":541210,"subject_id":"88853","group":"Group2","full_date":"2025-12-02T20:15:00.432Z","date":"2025-12-02","time":"20:15:00"},{"rt":null,"stimulus":"<p style=\"font-size: 50px; margin: 0; text-align: center;\">+</p>","response":null,"trial_type":"html-keyboard-response","trial_index":72,"plugin_version":"2.1.0","time_elapsed":542213,"subject_id":"88853","group":"Group2","full_date":"2025-12-02T20:15:00.432Z","date":"2025-12-02","time":"20:15:00"},{"task":"memory_phase","broad_category":"M","image_png":"M_Marble_03.png","image_id":227,"category_name":"Marble","category":15,"distinct_rating":2.67,"distinct_type":"Bottom","rt":null,"stimulus":"Stimuli_Rocks480/M_Marble_03.png","response":null,"trial_type":"image-keyboard-response","trial_index":73,"plugin_version":"2.1.0","time_elapsed":544716,"subject_id":"88853","group":"Group2","full_date":"2025-12-02T20:15:00.432Z","date":"2025-12-02","time":"20:15:00"},{"rt":null,"stimulus":"<p style=\"font-size: 50px; margin: 0; text-align: center;\">+</p>","response":null,"trial_type":"html-keyboard-response","trial_index":74,"plugin_version":"2.1.0","time_elapsed":545719,"subject_id":"88853","group":"Group2","full_date":"2025-12-02T20:15:00.432Z","date":"2025-12-02","time":"20:15:00"},{"task":"memory_phase","broad_category":"S","image_png":"S_Rock Salt_13.png","image_id":445,"category_name":"Rock Salt","category":28,"distinct_rating":7.58,"distinct_type":"Top","rt":null,"stimulus":"Stimuli_Rocks480/S_Rock Salt_13.png","response":null,"trial_type":"image-keyboard-response","trial_index":75,"plugin_version":"2.1.0","time_elapsed":548224,"subject_id":"88853","group":"Group2","full_date":"2025-12-02T20:15:00.432Z","date":"2025-12-02","time":"20:15:00"},{"rt":null,"stimulus":"<p style=\"font-size: 50px; margin: 0; text-align: center;\">+</p>","response":null,"trial_type":"html-keyboard-response","trial_index":76,"plugin_version":"2.1.0","time_elapsed":549226,"subject_id":"88853","group":"Group2","full_date":"2025-12-02T20:15:00.432Z","date":"2025-12-02","time":"20:15:00"},{"task":"memory_phase","broad_category":"I","image_png":"I_Basalt_13.png","image_id":29,"category_name":"Basalt","category":2,"distinct_rating":2.68,"distinct_type":"Bottom","rt":null,"stimulus":"Stimuli_Rocks480/I_Basalt_13.png","response":null,"trial_type":"image-keyboard-response","trial_index":77,"plugin_version":"2.1.0","time_elapsed":551730,"subject_id":"88853","group":"Group2","full_date":"2025-12-02T20:15:00.432Z","date":"2025-12-02","time":"20:15:00"},{"rt":null,"stimulus":"<p style=\"font-size: 50px; margin: 0; text-align: center;\">+</p>","response":null,"trial_type":"html-keyboard-response","trial_index":78,"plugin_version":"2.1.0","time_elapsed":552732,"subject_id":"88853","group":"Group2","full_date":"2025-12-02T20:15:00.432Z","date":"2025-12-02","time":"20:15:00"},{"task":"memory_phase","broad_category":"S","image_png":"S_Shale_07.png","image_id":471,"category_name":"Shale","category":30,"distinct_rating":2.73,"distinct_type":"Bottom","rt":null,"stimulus":"Stimuli_Rocks480/S_Shale_07.png","response":null,"trial_type":"image-keyboard-response","trial_index":79,"plugin_version":"2.1.0","time_elapsed":555236,"subject_id":"88853","group":"Group2","full_date":"2025-12-02T20:15:00.432Z","date":"2025-12-02","time":"20:15:00"},{"rt":null,"stimulus":"<p style=\"font-size: 50px; margin: 0; text-align: center;\">+</p>","response":null,"trial_type":"html-keyboard-response","trial_index":80,"plugin_version":"2.1.0","time_elapsed":556239,"subject_id":"88853","group":"Group2","full_date":"2025-12-02T20:15:00.432Z","date":"2025-12-02","time":"20:15:00"},{"task":"memory_phase","broad_category":"S","image_png":"S_Rock Salt_15.png","image_id":447,"category_name":"Rock Salt","category":28,"distinct_rating":7.79,"distinct_type":"Top","rt":null,"stimulus":"Stimuli_Rocks480/S_Rock Salt_15.png","response":null,"trial_type":"image-keyboard-response","trial_index":81,"plugin_version":"2.1.0","time_elapsed":558744,"subject_id":"88853","group":"Group2","full_date":"2025-12-02T20:15:00.432Z","date":"2025-12-02","time":"20:15:00"},{"rt":null,"stimulus":"<p style=\"font-size: 50px; margin: 0; text-align: center;\">+</p>","response":null,"trial_type":"html-keyboard-response","trial_index":82,"plugin_version":"2.1.0","time_elapsed":559747,"subject_id":"88853","group":"Group2","full_date":"2025-12-02T20:15:00.432Z","date":"2025-12-02","time":"20:15:00"},{"task":"memory_phase","broad_category":"I","image_png":"I_Rhyolite_08.png","image_id":152,"category_name":"Rhyolite","category":10,"distinct_rating":1.38,"distinct_type":"Bottom","rt":null,"stimulus":"Stimuli_Rocks480/I_Rhyolite_08.png","response":null,"trial_type":"image-keyboard-response","trial_index":83,"plugin_version":"2.1.0","time_elapsed":562251,"subject_id":"88853","group":"Group2","full_date":"2025-12-02T20:15:00.432Z","date":"2025-12-02","time":"20:15:00"},{"rt":null,"stimulus":"<p style=\"font-size: 50px; margin: 0; text-align: center;\">+</p>","response":null,"trial_type":"html-keyboard-response","trial_index":84,"plugin_version":"2.1.0","time_elapsed":563252,"subject_id":"88853","group":"Group2","full_date":"2025-12-02T20:15:00.432Z","date":"2025-12-02","time":"20:15:00"},{"task":"memory_phase","broad_category":"I","image_png":"I_Basalt_10.png","image_id":26,"category_name":"Basalt","category":2,"distinct_rating":2.76,"distinct_type":"Bottom","rt":null,"stimulus":"Stimuli_Rocks480/I_Basalt_10.png","response":null,"trial_type":"image-keyboard-response","trial_index":85,"plugin_version":"2.1.0","time_elapsed":565757,"subject_id":"88853","group":"Group2","full_date":"2025-12-02T20:15:00.432Z","date":"2025-12-02","time":"20:15:00"},{"rt":null,"stimulus":"<p style=\"font-size: 50px; margin: 0; text-align: center;\">+</p>","response":null,"trial_type":"html-keyboard-response","trial_index":86,"plugin_version":"2.1.0","time_elapsed":566760,"subject_id":"88853","group":"Group2","full_date":"2025-12-02T20:15:00.432Z","date":"2025-12-02","time":"20:15:00"},{"task":"memory_phase","broad_category":"M","image_png":"M_Phyllite_02.png","image_id":258,"category_name":"Phyllite","category":17,"distinct_rating":2.89,"distinct_type":"Bottom","rt":null,"stimulus":"Stimuli_Rocks480/M_Phyllite_02.png","response":null,"trial_type":"image-keyboard-response","trial_index":87,"plugin_version":"2.1.0","time_elapsed":569264,"subject_id":"88853","group":"Group2","full_date":"2025-12-02T20:15:00.432Z","date":"2025-12-02","time":"20:15:00"},{"rt":null,"stimulus":"<p style=\"font-size: 50px; margin: 0; text-align: center;\">+</p>","response":null,"trial_type":"html-keyboard-response","trial_index":88,"plugin_version":"2.1.0","time_elapsed":570267,"subject_id":"88853","group":"Group2","full_date":"2025-12-02T20:15:00.432Z","date":"2025-12-02","time":"20:15:00"},{"task":"memory_phase","broad_category":"S","image_png":"S_Dolomite_16.png","image_id":400,"category_name":"Dolomite","category":25,"distinct_rating":1.71,"distinct_type":"Bottom","rt":null,"stimulus":"Stimuli_Rocks480/S_Dolomite_16.png","response":null,"trial_type":"image-keyboard-response","trial_index":89,"plugin_version":"2.1.0","time_elapsed":572771,"subject_id":"88853","group":"Group2","full_date":"2025-12-02T20:15:00.432Z","date":"2025-12-02","time":"20:15:00"},{"rt":null,"stimulus":"<p style=\"font-size: 50px; margin: 0; text-align: center;\">+</p>","response":null,"trial_type":"html-keyboard-response","trial_index":90,"plugin_version":"2.1.0","time_elapsed":573773,"subject_id":"88853","group":"Group2","full_date":"2025-12-02T20:15:00.432Z","date":"2025-12-02","time":"20:15:00"},{"task":"memory_phase","broad_category":"M","image_png":"M_Slate_04.png","image_id":308,"category_name":"Slate","category":20,"distinct_rating":2.2,"distinct_type":"Bottom","rt":null,"stimulus":"Stimuli_Rocks480/M_Slate_04.png","response":null,"trial_type":"image-keyboard-response","trial_index":91,"plugin_version":"2.1.0","time_elapsed":576278,"subject_id":"88853","group":"Group2","full_date":"2025-12-02T20:15:00.432Z","date":"2025-12-02","time":"20:15:00"},{"rt":null,"stimulus":"<p style=\"font-size: 50px; margin: 0; text-align: center;\">+</p>","response":null,"trial_type":"html-keyboard-response","trial_index":92,"plugin_version":"2.1.0","time_elapsed":577280,"subject_id":"88853","group":"Group2","full_date":"2025-12-02T20:15:00.432Z","date":"2025-12-02","time":"20:15:00"},{"task":"memory_phase","broad_category":"M","image_png":"M_Gneiss_10.png","image_id":202,"category_name":"Gneiss","category":13,"distinct_rating":3.09,"distinct_type":"Bottom","rt":null,"stimulus":"Stimuli_Rocks480/M_Gneiss_10.png","response":null,"trial_type":"image-keyboard-response","trial_index":93,"plugin_version":"2.1.0","time_elapsed":579784,"subject_id":"88853","group":"Group2","full_date":"2025-12-02T20:15:00.432Z","date":"2025-12-02","time":"20:15:00"},{"rt":null,"stimulus":"<p style=\"font-size: 50px; margin: 0; text-align: center;\">+</p>","response":null,"trial_type":"html-keyboard-response","trial_index":94,"plugin_version":"2.1.0","time_elapsed":580787,"subject_id":"88853","group":"Group2","full_date":"2025-12-02T20:15:00.432Z","date":"2025-12-02","time":"20:15:00"},{"task":"memory_phase","broad_category":"M","image_png":"M_Gneiss_15.png","image_id":207,"category_name":"Gneiss","category":13,"distinct_rating":3.11,"distinct_type":"Bottom","rt":null,"stimulus":"Stimuli_Rocks480/M_Gneiss_15.png","response":null,"trial_type":"image-keyboard-response","trial_index":95,"plugin_version":"2.1.0","time_elapsed":583290,"subject_id":"88853","group":"Group2","full_date":"2025-12-02T20:15:00.432Z","date":"2025-12-02","time":"20:15:00"},{"rt":null,"stimulus":"<p style=\"font-size: 50px; margin: 0; text-align: center;\">+</p>","response":null,"trial_type":"html-keyboard-response","trial_index":96,"plugin_version":"2.1.0","time_elapsed":584293,"subject_id":"88853","group":"Group2","full_date":"2025-12-02T20:15:00.432Z","date":"2025-12-02","time":"20:15:00"},{"task":"memory_phase","broad_category":"I","image_png":"I_Basalt_08.png","image_id":24,"category_name":"Basalt","category":2,"distinct_rating":2.31,"distinct_type":"Bottom","rt":null,"stimulus":"Stimuli_Rocks480/I_Basalt_08.png","response":null,"trial_type":"image-keyboard-response","trial_index":97,"plugin_version":"2.1.0","time_elapsed":586797,"subject_id":"88853","group":"Group2","full_date":"2025-12-02T20:15:00.432Z","date":"2025-12-02","time":"20:15:00"},{"rt":null,"stimulus":"<p style=\"font-size: 50px; margin: 0; text-align: center;\">+</p>","response":null,"trial_type":"html-keyboard-response","trial_index":98,"plugin_version":"2.1.0","time_elapsed":587800,"subject_id":"88853","group":"Group2","full_date":"2025-12-02T20:15:00.432Z","date":"2025-12-02","time":"20:15:00"},{"task":"memory_phase","broad_category":"S","image_png":"S_Shale_03.png","image_id":467,"category_name":"Shale","category":30,"distinct_rating":1.95,"distinct_type":"Bottom","rt":null,"stimulus":"Stimuli_Rocks480/S_Shale_03.png","response":null,"trial_type":"image-keyboard-response","trial_index":99,"plugin_version":"2.1.0","time_elapsed":590304,"subject_id":"88853","group":"Group2","full_date":"2025-12-02T20:15:00.432Z","date":"2025-12-02","time":"20:15:00"},{"rt":null,"stimulus":"<p style=\"font-size: 50px; margin: 0; text-align: center;\">+</p>","response":null,"trial_type":"html-keyboard-response","trial_index":100,"plugin_version":"2.1.0","time_elapsed":591307,"subject_id":"88853","group":"Group2","full_date":"2025-12-02T20:15:00.432Z","date":"2025-12-02","time":"20:15:00"},{"task":"memory_phase","broad_category":"I","image_png":"I_Gabbro_14.png","image_id":62,"category_name":"Gabbro","category":4,"distinct_rating":2.95,"distinct_type":"Bottom","rt":null,"stimulus":"Stimuli_Rocks480/I_Gabbro_14.png","response":null,"trial_type":"image-keyboard-response","trial_index":101,"plugin_version":"2.1.0","time_elapsed":593811,"subject_id":"88853","group":"Group2","full_date":"2025-12-02T20:15:00.432Z","date":"2025-12-02","time":"20:15:00"},{"rt":null,"stimulus":"<p style=\"font-size: 50px; margin: 0; text-align: center;\">+</p>","response":null,"trial_type":"html-keyboard-response","trial_index":102,"plugin_version":"2.1.0","time_elapsed":594814,"subject_id":"88853","group":"Group2","full_date":"2025-12-02T20:15:00.432Z","date":"2025-12-02","time":"20:15:00"},{"task":"memory_phase","broad_category":"M","image_png":"M_Gneiss_14.png","image_id":206,"category_name":"Gneiss","category":13,"distinct_rating":3.41,"distinct_type":"Bottom","rt":null,"stimulus":"Stimuli_Rocks480/M_Gneiss_14.png","response":null,"trial_type":"image-keyboard-response","trial_index":103,"plugin_version":"2.1.0","time_elapsed":597318,"subject_id":"88853","group":"Group2","full_date":"2025-12-02T20:15:00.432Z","date":"2025-12-02","time":"20:15:00"},{"rt":null,"stimulus":"<p style=\"font-size: 50px; margin: 0; text-align: center;\">+</p>","response":null,"trial_type":"html-keyboard-response","trial_index":104,"plugin_version":"2.1.0","time_elapsed":598321,"subject_id":"88853","group":"Group2","full_date":"2025-12-02T20:15:00.432Z","date":"2025-12-02","time":"20:15:00"},{"task":"memory_phase","broad_category":"S","image_png":"S_Dolomite_01.png","image_id":385,"category_name":"Dolomite","category":25,"distinct_rating":1.43,"distinct_type":"Bottom","rt":null,"stimulus":"Stimuli_Rocks480/S_Dolomite_01.png","response":null,"trial_type":"image-keyboard-response","trial_index":105,"plugin_version":"2.1.0","time_elapsed":600825,"subject_id":"88853","group":"Group2","full_date":"2025-12-02T20:15:00.432Z","date":"2025-12-02","time":"20:15:00"},{"rt":41277,"stimulus":"<p style=\"max-width: 760px; margin: auto; font-size: 35px; line-height: 1.5;\">You have completed 1 study phase. Now, we'll show you all the images again 2 more times.<br><br>Press SPACE to continue</p>","response":" ","trial_type":"html-keyboard-response","trial_index":106,"plugin_version":"2.1.0","time_elapsed":642104,"subject_id":"88853","group":"Group2","full_date":"2025-12-02T20:15:00.432Z","date":"2025-12-02","time":"20:15:00"},{"rt":null,"stimulus":"<p style=\"font-size: 50px; margin: 0; text-align: center;\">+</p>","response":null,"trial_type":"html-keyboard-response","trial_index":107,"plugin_version":"2.1.0","time_elapsed":643107,"subject_id":"88853","group":"Group2","full_date":"2025-12-02T20:15:00.432Z","date":"2025-12-02","time":"20:15:00"},{"task":"memory_phase","broad_category":"I","image_png":"I_Rhyolite_05.png","image_id":149,"category_name":"Rhyolite","category":10,"distinct_rating":3.02,"distinct_type":"Bottom","rt":null,"stimulus":"Stimuli_Rocks480/I_Rhyolite_05.png","response":null,"trial_type":"image-keyboard-response","trial_index":108,"plugin_version":"2.1.0","time_elapsed":645611,"subject_id":"88853","group":"Group2","full_date":"2025-12-02T20:15:00.432Z","date":"2025-12-02","time":"20:15:00"},{"rt":null,"stimulus":"<p style=\"font-size: 50px; margin: 0; text-align: center;\">+</p>","response":null,"trial_type":"html-keyboard-response","trial_index":109,"plugin_version":"2.1.0","time_elapsed":646616,"subject_id":"88853","group":"Group2","full_date":"2025-12-02T20:15:00.432Z","date":"2025-12-02","time":"20:15:00"},{"task":"memory_phase","broad_category":"I","image_png":"I_Basalt_10.png","image_id":26,"category_name":"Basalt","category":2,"distinct_rating":2.76,"distinct_type":"Bottom","rt":null,"stimulus":"Stimuli_Rocks480/I_Basalt_10.png","response":null,"trial_type":"image-keyboard-response","trial_index":110,"plugin_version":"2.1.0","time_elapsed":649120,"subject_id":"88853","group":"Group2","full_date":"2025-12-02T20:15:00.432Z","date":"2025-12-02","time":"20:15:00"},{"rt":null,"stimulus":"<p style=\"font-size: 50px; margin: 0; text-align: center;\">+</p>","response":null,"trial_type":"html-keyboard-response","trial_index":111,"plugin_version":"2.1.0","time_elapsed":650123,"subject_id":"88853","group":"Group2","full_date":"2025-12-02T20:15:00.432Z","date":"2025-12-02","time":"20:15:00"},{"task":"memory_phase","broad_category":"I","image_png":"I_Obsidian_06.png","image_id":86,"category_name":"Obsidian","category":6,"distinct_rating":8.01,"distinct_type":"Top","rt":null,"stimulus":"Stimuli_Rocks480/I_Obsidian_06.png","response":null,"trial_type":"image-keyboard-response","trial_index":112,"plugin_version":"2.1.0","time_elapsed":652627,"subject_id":"88853","group":"Group2","full_date":"2025-12-02T20:15:00.432Z","date":"2025-12-02","time":"20:15:00"},{"rt":null,"stimulus":"<p style=\"font-size: 50px; margin: 0; text-align: center;\">+</p>","response":null,"trial_type":"html-keyboard-response","trial_index":113,"plugin_version":"2.1.0","time_elapsed":653629,"subject_id":"88853","group":"Group2","full_date":"2025-12-02T20:15:00.432Z","date":"2025-12-02","time":"20:15:00"},{"task":"memory_phase","broad_category":"M","image_png":"M_Marble_02.png","image_id":226,"category_name":"Marble","category":15,"distinct_rating":3.2,"distinct_type":"Bottom","rt":null,"stimulus":"Stimuli_Rocks480/M_Marble_02.png","response":null,"trial_type":"image-keyboard-response","trial_index":114,"plugin_version":"2.1.0","time_elapsed":656134,"subject_id":"88853","group":"Group2","full_date":"2025-12-02T20:15:00.432Z","date":"2025-12-02","time":"20:15:00"},{"rt":null,"stimulus":"<p style=\"font-size: 50px; margin: 0; text-align: center;\">+</p>","response":null,"trial_type":"html-keyboard-response","trial_index":115,"plugin_version":"2.1.0","time_elapsed":657136,"subject_id":"88853","group":"Group2","full_date":"2025-12-02T20:15:00.432Z","date":"2025-12-02","time":"20:15:00"},{"task":"memory_phase","broad_category":"I","image_png":"I_Diorite_10.png","image_id":42,"category_name":"Diorite","category":3,"distinct_rating":2.84,"distinct_type":"Bottom","rt":null,"stimulus":"Stimuli_Rocks480/I_Diorite_10.png","response":null,"trial_type":"image-keyboard-response","trial_index":116,"plugin_version":"2.1.0","time_elapsed":659641,"subject_id":"88853","group":"Group2","full_date":"2025-12-02T20:15:00.432Z","date":"2025-12-02","time":"20:15:00"},{"rt":null,"stimulus":"<p style=\"font-size: 50px; margin: 0; text-align: center;\">+</p>","response":null,"trial_type":"html-keyboard-response","trial_index":117,"plugin_version":"2.1.0","time_elapsed":660643,"subject_id":"88853","group":"Group2","full_date":"2025-12-02T20:15:00.432Z","date":"2025-12-02","time":"20:15:00"},{"task":"memory_phase","broad_category":"I","image_png":"I_Basalt_08.png","image_id":24,"category_name":"Basalt","category":2,"distinct_rating":2.31,"distinct_type":"Bottom","rt":null,"stimulus":"Stimuli_Rocks480/I_Basalt_08.png","response":null,"trial_type":"image-keyboard-response","trial_index":118,"plugin_version":"2.1.0","time_elapsed":663148,"subject_id":"88853","group":"Group2","full_date":"2025-12-02T20:15:00.432Z","date":"2025-12-02","time":"20:15:00"},{"rt":null,"stimulus":"<p style=\"font-size: 50px; margin: 0; text-align: center;\">+</p>","response":null,"trial_type":"html-keyboard-response","trial_index":119,"plugin_version":"2.1.0","time_elapsed":664150,"subject_id":"88853","group":"Group2","full_date":"2025-12-02T20:15:00.432Z","date":"2025-12-02","time":"20:15:00"},{"task":"memory_phase","broad_category":"S","image_png":"S_Dolomite_07.png","image_id":391,"category_name":"Dolomite","category":25,"distinct_rating":1.73,"distinct_type":"Bottom","rt":null,"stimulus":"Stimuli_Rocks480/S_Dolomite_07.png","response":null,"trial_type":"image-keyboard-response","trial_index":120,"plugin_version":"2.1.0","time_elapsed":666655,"subject_id":"88853","group":"Group2","full_date":"2025-12-02T20:15:00.432Z","date":"2025-12-02","time":"20:15:00"},{"rt":null,"stimulus":"<p style=\"font-size: 50px; margin: 0; text-align: center;\">+</p>","response":null,"trial_type":"html-keyboard-response","trial_index":121,"plugin_version":"2.1.0","time_elapsed":667658,"subject_id":"88853","group":"Group2","full_date":"2025-12-02T20:15:00.432Z","date":"2025-12-02","time":"20:15:00"},{"task":"memory_phase","broad_category":"S","image_png":"S_Sandstone_11.png","image_id":459,"category_name":"Sandstone","category":29,"distinct_rating":1.82,"distinct_type":"Bottom","rt":null,"stimulus":"Stimuli_Rocks480/S_Sandstone_11.png","response":null,"trial_type":"image-keyboard-response","trial_index":122,"plugin_version":"2.1.0","time_elapsed":670162,"subject_id":"88853","group":"Group2","full_date":"2025-12-02T20:15:00.432Z","date":"2025-12-02","time":"20:15:00"},{"rt":null,"stimulus":"<p style=\"font-size: 50px; margin: 0; text-align: center;\">+</p>","response":null,"trial_type":"html-keyboard-response","trial_index":123,"plugin_version":"2.1.0","time_elapsed":671165,"subject_id":"88853","group":"Group2","full_date":"2025-12-02T20:15:00.432Z","date":"2025-12-02","time":"20:15:00"},{"task":"memory_phase","broad_category":"S","image_png":"S_Shale_07.png","image_id":471,"category_name":"Shale","category":30,"distinct_rating":2.73,"distinct_type":"Bottom","rt":null,"stimulus":"Stimuli_Rocks480/S_Shale_07.png","response":null,"trial_type":"image-keyboard-response","trial_index":124,"plugin_version":"2.1.0","time_elapsed":673668,"subject_id":"88853","group":"Group2","full_date":"2025-12-02T20:15:00.432Z","date":"2025-12-02","time":"20:15:00"},{"rt":null,"stimulus":"<p style=\"font-size: 50px; margin: 0; text-align: center;\">+</p>","response":null,"trial_type":"html-keyboard-response","trial_index":125,"plugin_version":"2.1.0","time_elapsed":674671,"subject_id":"88853","group":"Group2","full_date":"2025-12-02T20:15:00.432Z","date":"2025-12-02","time":"20:15:00"},{"task":"memory_phase","broad_category":"M","image_png":"M_Quartzite_12.png","image_id":284,"category_name":"Quartzite","category":18,"distinct_rating":1.92,"distinct_type":"Bottom","rt":null,"stimulus":"Stimuli_Rocks480/M_Quartzite_12.png","response":null,"trial_type":"image-keyboard-response","trial_index":126,"plugin_version":"2.1.0","time_elapsed":677176,"subject_id":"88853","group":"Group2","full_date":"2025-12-02T20:15:00.432Z","date":"2025-12-02","time":"20:15:00"},{"rt":null,"stimulus":"<p style=\"font-size: 50px; margin: 0; text-align: center;\">+</p>","response":null,"trial_type":"html-keyboard-response","trial_index":127,"plugin_version":"2.1.0","time_elapsed":678178,"subject_id":"88853","group":"Group2","full_date":"2025-12-02T20:15:00.432Z","date":"2025-12-02","time":"20:15:00"},{"task":"memory_phase","broad_category":"M","image_png":"M_Slate_04.png","image_id":308,"category_name":"Slate","category":20,"distinct_rating":2.2,"distinct_type":"Bottom","rt":null,"stimulus":"Stimuli_Rocks480/M_Slate_04.png","response":null,"trial_type":"image-keyboard-response","trial_index":128,"plugin_version":"2.1.0","time_elapsed":680683,"subject_id":"88853","group":"Group2","full_date":"2025-12-02T20:15:00.432Z","date":"2025-12-02","time":"20:15:00"},{"rt":null,"stimulus":"<p style=\"font-size: 50px; margin: 0; text-align: center;\">+</p>","response":null,"trial_type":"html-keyboard-response","trial_index":129,"plugin_version":"2.1.0","time_elapsed":681685,"subject_id":"88853","group":"Group2","full_date":"2025-12-02T20:15:00.432Z","date":"2025-12-02","time":"20:15:00"},{"task":"memory_phase","broad_category":"M","image_png":"M_Slate_14.png","image_id":318,"category_name":"Slate","category":20,"distinct_rating":2.58,"distinct_type":"Bottom","rt":null,"stimulus":"Stimuli_Rocks480/M_Slate_14.png","response":null,"trial_type":"image-keyboard-response","trial_index":130,"plugin_version":"2.1.0","time_elapsed":684189,"subject_id":"88853","group":"Group2","full_date":"2025-12-02T20:15:00.432Z","date":"2025-12-02","time":"20:15:00"},{"rt":null,"stimulus":"<p style=\"font-size: 50px; margin: 0; text-align: center;\">+</p>","response":null,"trial_type":"html-keyboard-response","trial_index":131,"plugin_version":"2.1.0","time_elapsed":685192,"subject_id":"88853","group":"Group2","full_date":"2025-12-02T20:15:00.432Z","date":"2025-12-02","time":"20:15:00"},{"task":"memory_phase","broad_category":"S","image_png":"S_Conglomerate_14.png","image_id":382,"category_name":"Conglomerate","category":24,"distinct_rating":6.86,"distinct_type":"Top","rt":null,"stimulus":"Stimuli_Rocks480/S_Conglomerate_14.png","response":null,"trial_type":"image-keyboard-response","trial_index":132,"plugin_version":"2.1.0","time_elapsed":687697,"subject_id":"88853","group":"Group2","full_date":"2025-12-02T20:15:00.432Z","date":"2025-12-02","time":"20:15:00"},{"rt":null,"stimulus":"<p style=\"font-size: 50px; margin: 0; text-align: center;\">+</p>","response":null,"trial_type":"html-keyboard-response","trial_index":133,"plugin_version":"2.1.0","time_elapsed":688700,"subject_id":"88853","group":"Group2","full_date":"2025-12-02T20:15:00.432Z","date":"2025-12-02","time":"20:15:00"},{"task":"memory_phase","broad_category":"S","image_png":"S_Chert_13.png","image_id":365,"category_name":"Chert","category":23,"distinct_rating":6.57,"distinct_type":"Top","rt":null,"stimulus":"Stimuli_Rocks480/S_Chert_13.png","response":null,"trial_type":"image-keyboard-response","trial_index":134,"plugin_version":"2.1.0","time_elapsed":691204,"subject_id":"88853","group":"Group2","full_date":"2025-12-02T20:15:00.432Z","date":"2025-12-02","time":"20:15:00"},{"rt":null,"stimulus":"<p style=\"font-size: 50px; margin: 0; text-align: center;\">+</p>","response":null,"trial_type":"html-keyboard-response","trial_index":135,"plugin_version":"2.1.0","time_elapsed":692206,"subject_id":"88853","group":"Group2","full_date":"2025-12-02T20:15:00.432Z","date":"2025-12-02","time":"20:15:00"},{"task":"memory_phase","broad_category":"M","image_png":"M_Gneiss_14.png","image_id":206,"category_name":"Gneiss","category":13,"distinct_rating":3.41,"distinct_type":"Bottom","rt":null,"stimulus":"Stimuli_Rocks480/M_Gneiss_14.png","response":null,"trial_type":"image-keyboard-response","trial_index":136,"plugin_version":"2.1.0","time_elapsed":694711,"subject_id":"88853","group":"Group2","full_date":"2025-12-02T20:15:00.432Z","date":"2025-12-02","time":"20:15:00"},{"rt":null,"stimulus":"<p style=\"font-size: 50px; margin: 0; text-align: center;\">+</p>","response":null,"trial_type":"html-keyboard-response","trial_index":137,"plugin_version":"2.1.0","time_elapsed":695713,"subject_id":"88853","group":"Group2","full_date":"2025-12-02T20:15:00.432Z","date":"2025-12-02","time":"20:15:00"},{"task":"memory_phase","broad_category":"I","image_png":"I_Pegmatite_11.png","image_id":107,"category_name":"Pegmatite","category":7,"distinct_rating":7.11,"distinct_type":"Top","rt":null,"stimulus":"Stimuli_Rocks480/I_Pegmatite_11.png","response":null,"trial_type":"image-keyboard-response","trial_index":138,"plugin_version":"2.1.0","time_elapsed":698217,"subject_id":"88853","group":"Group2","full_date":"2025-12-02T20:15:00.432Z","date":"2025-12-02","time":"20:15:00"},{"rt":null,"stimulus":"<p style=\"font-size: 50px; margin: 0; text-align: center;\">+</p>","response":null,"trial_type":"html-keyboard-response","trial_index":139,"plugin_version":"2.1.0","time_elapsed":699220,"subject_id":"88853","group":"Group2","full_date":"2025-12-02T20:15:00.432Z","date":"2025-12-02","time":"20:15:00"},{"task":"memory_phase","broad_category":"M","image_png":"M_Marble_03.png","image_id":227,"category_name":"Marble","category":15,"distinct_rating":2.67,"distinct_type":"Bottom","rt":null,"stimulus":"Stimuli_Rocks480/M_Marble_03.png","response":null,"trial_type":"image-keyboard-response","trial_index":140,"plugin_version":"2.1.0","time_elapsed":701724,"subject_id":"88853","group":"Group2","full_date":"2025-12-02T20:15:00.432Z","date":"2025-12-02","time":"20:15:00"},{"rt":null,"stimulus":"<p style=\"font-size: 50px; margin: 0; text-align: center;\">+</p>","response":null,"trial_type":"html-keyboard-response","trial_index":141,"plugin_version":"2.1.0","time_elapsed":702727,"subject_id":"88853","group":"Group2","full_date":"2025-12-02T20:15:00.432Z","date":"2025-12-02","time":"20:15:00"},{"task":"memory_phase","broad_category":"S","image_png":"S_Dolomite_16.png","image_id":400,"category_name":"Dolomite","category":25,"distinct_rating":1.71,"distinct_type":"Bottom","rt":null,"stimulus":"Stimuli_Rocks480/S_Dolomite_16.png","response":null,"trial_type":"image-keyboard-response","trial_index":142,"plugin_version":"2.1.0","time_elapsed":705231,"subject_id":"88853","group":"Group2","full_date":"2025-12-02T20:15:00.432Z","date":"2025-12-02","time":"20:15:00"},{"rt":null,"stimulus":"<p style=\"font-size: 50px; margin: 0; text-align: center;\">+</p>","response":null,"trial_type":"html-keyboard-response","trial_index":143,"plugin_version":"2.1.0","time_elapsed":706234,"subject_id":"88853","group":"Group2","full_date":"2025-12-02T20:15:00.432Z","date":"2025-12-02","time":"20:15:00"},{"task":"memory_phase","broad_category":"M","image_png":"M_Marble_14.png","image_id":238,"category_name":"Marble","category":15,"distinct_rating":3.31,"distinct_type":"Bottom","rt":null,"stimulus":"Stimuli_Rocks480/M_Marble_14.png","response":null,"trial_type":"image-keyboard-response","trial_index":144,"plugin_version":"2.1.0","time_elapsed":708738,"subject_id":"88853","group":"Group2","full_date":"2025-12-02T20:15:00.432Z","date":"2025-12-02","time":"20:15:00"},{"rt":null,"stimulus":"<p style=\"font-size: 50px; margin: 0; text-align: center;\">+</p>","response":null,"trial_type":"html-keyboard-response","trial_index":145,"plugin_version":"2.1.0","time_elapsed":709741,"subject_id":"88853","group":"Group2","full_date":"2025-12-02T20:15:00.432Z","date":"2025-12-02","time":"20:15:00"},{"task":"memory_phase","broad_category":"I","image_png":"I_Diorite_01.png","image_id":33,"category_name":"Diorite","category":3,"distinct_rating":2.97,"distinct_type":"Bottom","rt":null,"stimulus":"Stimuli_Rocks480/I_Diorite_01.png","response":null,"trial_type":"image-keyboard-response","trial_index":146,"plugin_version":"2.1.0","time_elapsed":712245,"subject_id":"88853","group":"Group2","full_date":"2025-12-02T20:15:00.432Z","date":"2025-12-02","time":"20:15:00"},{"rt":null,"stimulus":"<p style=\"font-size: 50px; margin: 0; text-align: center;\">+</p>","response":null,"trial_type":"html-keyboard-response","trial_index":147,"plugin_version":"2.1.0","time_elapsed":713248,"subject_id":"88853","group":"Group2","full_date":"2025-12-02T20:15:00.432Z","date":"2025-12-02","time":"20:15:00"},{"task":"memory_phase","broad_category":"I","image_png":"I_Pumice_13.png","image_id":141,"category_name":"Pumice","category":9,"distinct_rating":3.12,"distinct_type":"Bottom","rt":null,"stimulus":"Stimuli_Rocks480/I_Pumice_13.png","response":null,"trial_type":"image-keyboard-response","trial_index":148,"plugin_version":"2.1.0","time_elapsed":715753,"subject_id":"88853","group":"Group2","full_date":"2025-12-02T20:15:00.432Z","date":"2025-12-02","time":"20:15:00"},{"rt":null,"stimulus":"<p style=\"font-size: 50px; margin: 0; text-align: center;\">+</p>","response":null,"trial_type":"html-keyboard-response","trial_index":149,"plugin_version":"2.1.0","time_elapsed":716755,"subject_id":"88853","group":"Group2","full_date":"2025-12-02T20:15:00.432Z","date":"2025-12-02","time":"20:15:00"},{"task":"memory_phase","broad_category":"S","image_png":"S_Sandstone_04.png","image_id":452,"category_name":"Sandstone","category":29,"distinct_rating":1.8,"distinct_type":"Bottom","rt":null,"stimulus":"Stimuli_Rocks480/S_Sandstone_04.png","response":null,"trial_type":"image-keyboard-response","trial_index":150,"plugin_version":"2.1.0","time_elapsed":719259,"subject_id":"88853","group":"Group2","full_date":"2025-12-02T20:15:00.432Z","date":"2025-12-02","time":"20:15:00"},{"rt":null,"stimulus":"<p style=\"font-size: 50px; margin: 0; text-align: center;\">+</p>","response":null,"trial_type":"html-keyboard-response","trial_index":151,"plugin_version":"2.1.0","time_elapsed":720262,"subject_id":"88853","group":"Group2","full_date":"2025-12-02T20:15:00.432Z","date":"2025-12-02","time":"20:15:00"},{"task":"memory_phase","broad_category":"I","image_png":"I_Andesite_09.png","image_id":9,"category_name":"Andesite","category":1,"distinct_rating":2.49,"distinct_type":"Bottom","rt":null,"stimulus":"Stimuli_Rocks480/I_Andesite_09.png","response":null,"trial_type":"image-keyboard-response","trial_index":152,"plugin_version":"2.1.0","time_elapsed":722766,"subject_id":"88853","group":"Group2","full_date":"2025-12-02T20:15:00.432Z","date":"2025-12-02","time":"20:15:00"},{"rt":null,"stimulus":"<p style=\"font-size: 50px; margin: 0; text-align: center;\">+</p>","response":null,"trial_type":"html-keyboard-response","trial_index":153,"plugin_version":"2.1.0","time_elapsed":723769,"subject_id":"88853","group":"Group2","full_date":"2025-12-02T20:15:00.432Z","date":"2025-12-02","time":"20:15:00"},{"task":"memory_phase","broad_category":"M","image_png":"M_Quartzite_15.png","image_id":287,"category_name":"Quartzite","category":18,"distinct_rating":2.19,"distinct_type":"Bottom","rt":null,"stimulus":"Stimuli_Rocks480/M_Quartzite_15.png","response":null,"trial_type":"image-keyboard-response","trial_index":154,"plugin_version":"2.1.0","time_elapsed":726273,"subject_id":"88853","group":"Group2","full_date":"2025-12-02T20:15:00.432Z","date":"2025-12-02","time":"20:15:00"},{"rt":null,"stimulus":"<p style=\"font-size: 50px; margin: 0; text-align: center;\">+</p>","response":null,"trial_type":"html-keyboard-response","trial_index":155,"plugin_version":"2.1.0","time_elapsed":727276,"subject_id":"88853","group":"Group2","full_date":"2025-12-02T20:15:00.432Z","date":"2025-12-02","time":"20:15:00"},{"task":"memory_phase","broad_category":"I","image_png":"I_Andesite_03.png","image_id":3,"category_name":"Andesite","category":1,"distinct_rating":3.17,"distinct_type":"Bottom","rt":null,"stimulus":"Stimuli_Rocks480/I_Andesite_03.png","response":null,"trial_type":"image-keyboard-response","trial_index":156,"plugin_version":"2.1.0","time_elapsed":729780,"subject_id":"88853","group":"Group2","full_date":"2025-12-02T20:15:00.432Z","date":"2025-12-02","time":"20:15:00"},{"rt":45940,"stimulus":"<p style=\"max-width: 760px; margin: auto; font-size: 35px; line-height: 1.5;\">Press SPACE to continue study phase</p>","response":" ","trial_type":"html-keyboard-response","trial_index":157,"plugin_version":"2.1.0","time_elapsed":775724,"subject_id":"88853","group":"Group2","full_date":"2025-12-02T20:15:00.432Z","date":"2025-12-02","time":"20:15:00"},{"rt":null,"stimulus":"<p style=\"font-size: 50px; margin: 0; text-align: center;\">+</p>","response":null,"trial_type":"html-keyboard-response","trial_index":158,"plugin_version":"2.1.0","time_elapsed":776729,"subject_id":"88853","group":"Group2","full_date":"2025-12-02T20:15:00.432Z","date":"2025-12-02","time":"20:15:00"},{"task":"memory_phase","broad_category":"M","image_png":"M_Gneiss_10.png","image_id":202,"category_name":"Gneiss","category":13,"distinct_rating":3.09,"distinct_type":"Bottom","rt":null,"stimulus":"Stimuli_Rocks480/M_Gneiss_10.png","response":null,"trial_type":"image-keyboard-response","trial_index":159,"plugin_version":"2.1.0","time_elapsed":779234,"subject_id":"88853","group":"Group2","full_date":"2025-12-02T20:15:00.432Z","date":"2025-12-02","time":"20:15:00"},{"rt":null,"stimulus":"<p style=\"font-size: 50px; margin: 0; text-align: center;\">+</p>","response":null,"trial_type":"html-keyboard-response","trial_index":160,"plugin_version":"2.1.0","time_elapsed":780237,"subject_id":"88853","group":"Group2","full_date":"2025-12-02T20:15:00.432Z","date":"2025-12-02","time":"20:15:00"},{"task":"memory_phase","broad_category":"M","image_png":"M_Phyllite_02.png","image_id":258,"category_name":"Phyllite","category":17,"distinct_rating":2.89,"distinct_type":"Bottom","rt":null,"stimulus":"Stimuli_Rocks480/M_Phyllite_02.png","response":null,"trial_type":"image-keyboard-response","trial_index":161,"plugin_version":"2.1.0","time_elapsed":782741,"subject_id":"88853","group":"Group2","full_date":"2025-12-02T20:15:00.432Z","date":"2025-12-02","time":"20:15:00"},{"rt":null,"stimulus":"<p style=\"font-size: 50px; margin: 0; text-align: center;\">+</p>","response":null,"trial_type":"html-keyboard-response","trial_index":162,"plugin_version":"2.1.0","time_elapsed":783743,"subject_id":"88853","group":"Group2","full_date":"2025-12-02T20:15:00.432Z","date":"2025-12-02","time":"20:15:00"},{"task":"memory_phase","broad_category":"S","image_png":"S_Rock Salt_15.png","image_id":447,"category_name":"Rock Salt","category":28,"distinct_rating":7.79,"distinct_type":"Top","rt":null,"stimulus":"Stimuli_Rocks480/S_Rock Salt_15.png","response":null,"trial_type":"image-keyboard-response","trial_index":163,"plugin_version":"2.1.0","time_elapsed":786248,"subject_id":"88853","group":"Group2","full_date":"2025-12-02T20:15:00.432Z","date":"2025-12-02","time":"20:15:00"},{"rt":null,"stimulus":"<p style=\"font-size: 50px; margin: 0; text-align: center;\">+</p>","response":null,"trial_type":"html-keyboard-response","trial_index":164,"plugin_version":"2.1.0","time_elapsed":787250,"subject_id":"88853","group":"Group2","full_date":"2025-12-02T20:15:00.432Z","date":"2025-12-02","time":"20:15:00"},{"task":"memory_phase","broad_category":"M","image_png":"M_Phyllite_13.png","image_id":269,"category_name":"Phyllite","category":17,"distinct_rating":2.8,"distinct_type":"Bottom","rt":null,"stimulus":"Stimuli_Rocks480/M_Phyllite_13.png","response":null,"trial_type":"image-keyboard-response","trial_index":165,"plugin_version":"2.1.0","time_elapsed":789755,"subject_id":"88853","group":"Group2","full_date":"2025-12-02T20:15:00.432Z","date":"2025-12-02","time":"20:15:00"},{"rt":null,"stimulus":"<p style=\"font-size: 50px; margin: 0; text-align: center;\">+</p>","response":null,"trial_type":"html-keyboard-response","trial_index":166,"plugin_version":"2.1.0","time_elapsed":790758,"subject_id":"88853","group":"Group2","full_date":"2025-12-02T20:15:00.432Z","date":"2025-12-02","time":"20:15:00"},{"task":"memory_phase","broad_category":"I","image_png":"I_Rhyolite_10.png","image_id":154,"category_name":"Rhyolite","category":10,"distinct_rating":2.88,"distinct_type":"Bottom","rt":null,"stimulus":"Stimuli_Rocks480/I_Rhyolite_10.png","response":null,"trial_type":"image-keyboard-response","trial_index":167,"plugin_version":"2.1.0","time_elapsed":793263,"subject_id":"88853","group":"Group2","full_date":"2025-12-02T20:15:00.432Z","date":"2025-12-02","time":"20:15:00"},{"rt":null,"stimulus":"<p style=\"font-size: 50px; margin: 0; text-align: center;\">+</p>","response":null,"trial_type":"html-keyboard-response","trial_index":168,"plugin_version":"2.1.0","time_elapsed":794265,"subject_id":"88853","group":"Group2","full_date":"2025-12-02T20:15:00.432Z","date":"2025-12-02","time":"20:15:00"},{"task":"memory_phase","broad_category":"I","image_png":"I_Peridotite_13.png","image_id":125,"category_name":"Peridotite","category":8,"distinct_rating":7.28,"distinct_type":"Top","rt":null,"stimulus":"Stimuli_Rocks480/I_Peridotite_13.png","response":null,"trial_type":"image-keyboard-response","trial_index":169,"plugin_version":"2.1.0","time_elapsed":796769,"subject_id":"88853","group":"Group2","full_date":"2025-12-02T20:15:00.432Z","date":"2025-12-02","time":"20:15:00"},{"rt":null,"stimulus":"<p style=\"font-size: 50px; margin: 0; text-align: center;\">+</p>","response":null,"trial_type":"html-keyboard-response","trial_index":170,"plugin_version":"2.1.0","time_elapsed":797773,"subject_id":"88853","group":"Group2","full_date":"2025-12-02T20:15:00.432Z","date":"2025-12-02","time":"20:15:00"},{"task":"memory_phase","broad_category":"I","image_png":"I_Gabbro_12.png","image_id":60,"category_name":"Gabbro","category":4,"distinct_rating":2.6,"distinct_type":"Bottom","rt":null,"stimulus":"Stimuli_Rocks480/I_Gabbro_12.png","response":null,"trial_type":"image-keyboard-response","trial_index":171,"plugin_version":"2.1.0","time_elapsed":800277,"subject_id":"88853","group":"Group2","full_date":"2025-12-02T20:15:00.432Z","date":"2025-12-02","time":"20:15:00"},{"rt":null,"stimulus":"<p style=\"font-size: 50px; margin: 0; text-align: center;\">+</p>","response":null,"trial_type":"html-keyboard-response","trial_index":172,"plugin_version":"2.1.0","time_elapsed":801280,"subject_id":"88853","group":"Group2","full_date":"2025-12-02T20:15:00.432Z","date":"2025-12-02","time":"20:15:00"},{"task":"memory_phase","broad_category":"I","image_png":"I_Pumice_01.png","image_id":129,"category_name":"Pumice","category":9,"distinct_rating":3.25,"distinct_type":"Bottom","rt":null,"stimulus":"Stimuli_Rocks480/I_Pumice_01.png","response":null,"trial_type":"image-keyboard-response","trial_index":173,"plugin_version":"2.1.0","time_elapsed":803784,"subject_id":"88853","group":"Group2","full_date":"2025-12-02T20:15:00.432Z","date":"2025-12-02","time":"20:15:00"},{"rt":null,"stimulus":"<p style=\"font-size: 50px; margin: 0; text-align: center;\">+</p>","response":null,"trial_type":"html-keyboard-response","trial_index":174,"plugin_version":"2.1.0","time_elapsed":804787,"subject_id":"88853","group":"Group2","full_date":"2025-12-02T20:15:00.432Z","date":"2025-12-02","time":"20:15:00"},{"task":"memory_phase","broad_category":"I","image_png":"I_Pegmatite_03.png","image_id":99,"category_name":"Pegmatite","category":7,"distinct_rating":7.24,"distinct_type":"Top","rt":null,"stimulus":"Stimuli_Rocks480/I_Pegmatite_03.png","response":null,"trial_type":"image-keyboard-response","trial_index":175,"plugin_version":"2.1.0","time_elapsed":807290,"subject_id":"88853","group":"Group2","full_date":"2025-12-02T20:15:00.432Z","date":"2025-12-02","time":"20:15:00"},{"rt":null,"stimulus":"<p style=\"font-size: 50px; margin: 0; text-align: center;\">+</p>","response":null,"trial_type":"html-keyboard-response","trial_index":176,"plugin_version":"2.1.0","time_elapsed":808293,"subject_id":"88853","group":"Group2","full_date":"2025-12-02T20:15:00.432Z","date":"2025-12-02","time":"20:15:00"},{"task":"memory_phase","broad_category":"S","image_png":"S_Sandstone_08.png","image_id":456,"category_name":"Sandstone","category":29,"distinct_rating":1.5,"distinct_type":"Bottom","rt":null,"stimulus":"Stimuli_Rocks480/S_Sandstone_08.png","response":null,"trial_type":"image-keyboard-response","trial_index":177,"plugin_version":"2.1.0","time_elapsed":810797,"subject_id":"88853","group":"Group2","full_date":"2025-12-02T20:15:00.432Z","date":"2025-12-02","time":"20:15:00"},{"rt":null,"stimulus":"<p style=\"font-size: 50px; margin: 0; text-align: center;\">+</p>","response":null,"trial_type":"html-keyboard-response","trial_index":178,"plugin_version":"2.1.0","time_elapsed":811801,"subject_id":"88853","group":"Group2","full_date":"2025-12-02T20:15:00.432Z","date":"2025-12-02","time":"20:15:00"},{"task":"memory_phase","broad_category":"M","image_png":"M_Slate_10.png","image_id":314,"category_name":"Slate","category":20,"distinct_rating":1.94,"distinct_type":"Bottom","rt":null,"stimulus":"Stimuli_Rocks480/M_Slate_10.png","response":null,"trial_type":"image-keyboard-response","trial_index":179,"plugin_version":"2.1.0","time_elapsed":814304,"subject_id":"88853","group":"Group2","full_date":"2025-12-02T20:15:00.432Z","date":"2025-12-02","time":"20:15:00"},{"rt":null,"stimulus":"<p style=\"font-size: 50px; margin: 0; text-align: center;\">+</p>","response":null,"trial_type":"html-keyboard-response","trial_index":180,"plugin_version":"2.1.0","time_elapsed":815307,"subject_id":"88853","group":"Group2","full_date":"2025-12-02T20:15:00.432Z","date":"2025-12-02","time":"20:15:00"},{"task":"memory_phase","broad_category":"I","image_png":"I_Pumice_14.png","image_id":142,"category_name":"Pumice","category":9,"distinct_rating":3.22,"distinct_type":"Bottom","rt":null,"stimulus":"Stimuli_Rocks480/I_Pumice_14.png","response":null,"trial_type":"image-keyboard-response","trial_index":181,"plugin_version":"2.1.0","time_elapsed":817811,"subject_id":"88853","group":"Group2","full_date":"2025-12-02T20:15:00.432Z","date":"2025-12-02","time":"20:15:00"},{"rt":null,"stimulus":"<p style=\"font-size: 50px; margin: 0; text-align: center;\">+</p>","response":null,"trial_type":"html-keyboard-response","trial_index":182,"plugin_version":"2.1.0","time_elapsed":818814,"subject_id":"88853","group":"Group2","full_date":"2025-12-02T20:15:00.432Z","date":"2025-12-02","time":"20:15:00"},{"task":"memory_phase","broad_category":"S","image_png":"S_Rock Salt_13.png","image_id":445,"category_name":"Rock Salt","category":28,"distinct_rating":7.58,"distinct_type":"Top","rt":null,"stimulus":"Stimuli_Rocks480/S_Rock Salt_13.png","response":null,"trial_type":"image-keyboard-response","trial_index":183,"plugin_version":"2.1.0","time_elapsed":821318,"subject_id":"88853","group":"Group2","full_date":"2025-12-02T20:15:00.432Z","date":"2025-12-02","time":"20:15:00"},{"rt":null,"stimulus":"<p style=\"font-size: 50px; margin: 0; text-align: center;\">+</p>","response":null,"trial_type":"html-keyboard-response","trial_index":184,"plugin_version":"2.1.0","time_elapsed":822322,"subject_id":"88853","group":"Group2","full_date":"2025-12-02T20:15:00.432Z","date":"2025-12-02","time":"20:15:00"},{"task":"memory_phase","broad_category":"I","image_png":"I_Andesite_04.png","image_id":4,"category_name":"Andesite","category":1,"distinct_rating":3.18,"distinct_type":"Bottom","rt":null,"stimulus":"Stimuli_Rocks480/I_Andesite_04.png","response":null,"trial_type":"image-keyboard-response","trial_index":185,"plugin_version":"2.1.0","time_elapsed":824825,"subject_id":"88853","group":"Group2","full_date":"2025-12-02T20:15:00.432Z","date":"2025-12-02","time":"20:15:00"},{"rt":null,"stimulus":"<p style=\"font-size: 50px; margin: 0; text-align: center;\">+</p>","response":null,"trial_type":"html-keyboard-response","trial_index":186,"plugin_version":"2.1.0","time_elapsed":825829,"subject_id":"88853","group":"Group2","full_date":"2025-12-02T20:15:00.432Z","date":"2025-12-02","time":"20:15:00"},{"task":"memory_phase","broad_category":"I","image_png":"I_Gabbro_14.png","image_id":62,"category_name":"Gabbro","category":4,"distinct_rating":2.95,"distinct_type":"Bottom","rt":null,"stimulus":"Stimuli_Rocks480/I_Gabbro_14.png","response":null,"trial_type":"image-keyboard-response","trial_index":187,"plugin_version":"2.1.0","time_elapsed":828333,"subject_id":"88853","group":"Group2","full_date":"2025-12-02T20:15:00.432Z","date":"2025-12-02","time":"20:15:00"},{"rt":null,"stimulus":"<p style=\"font-size: 50px; margin: 0; text-align: center;\">+</p>","response":null,"trial_type":"html-keyboard-response","trial_index":188,"plugin_version":"2.1.0","time_elapsed":829336,"subject_id":"88853","group":"Group2","full_date":"2025-12-02T20:15:00.432Z","date":"2025-12-02","time":"20:15:00"},{"task":"memory_phase","broad_category":"S","image_png":"S_Shale_03.png","image_id":467,"category_name":"Shale","category":30,"distinct_rating":1.95,"distinct_type":"Bottom","rt":null,"stimulus":"Stimuli_Rocks480/S_Shale_03.png","response":null,"trial_type":"image-keyboard-response","trial_index":189,"plugin_version":"2.1.0","time_elapsed":831840,"subject_id":"88853","group":"Group2","full_date":"2025-12-02T20:15:00.432Z","date":"2025-12-02","time":"20:15:00"},{"rt":null,"stimulus":"<p style=\"font-size: 50px; margin: 0; text-align: center;\">+</p>","response":null,"trial_type":"html-keyboard-response","trial_index":190,"plugin_version":"2.1.0","time_elapsed":832843,"subject_id":"88853","group":"Group2","full_date":"2025-12-02T20:15:00.432Z","date":"2025-12-02","time":"20:15:00"},{"task":"memory_phase","broad_category":"I","image_png":"I_Rhyolite_08.png","image_id":152,"category_name":"Rhyolite","category":10,"distinct_rating":1.38,"distinct_type":"Bottom","rt":null,"stimulus":"Stimuli_Rocks480/I_Rhyolite_08.png","response":null,"trial_type":"image-keyboard-response","trial_index":191,"plugin_version":"2.1.0","time_elapsed":835347,"subject_id":"88853","group":"Group2","full_date":"2025-12-02T20:15:00.432Z","date":"2025-12-02","time":"20:15:00"},{"rt":null,"stimulus":"<p style=\"font-size: 50px; margin: 0; text-align: center;\">+</p>","response":null,"trial_type":"html-keyboard-response","trial_index":192,"plugin_version":"2.1.0","time_elapsed":836350,"subject_id":"88853","group":"Group2","full_date":"2025-12-02T20:15:00.432Z","date":"2025-12-02","time":"20:15:00"},{"task":"memory_phase","broad_category":"I","image_png":"I_Basalt_13.png","image_id":29,"category_name":"Basalt","category":2,"distinct_rating":2.68,"distinct_type":"Bottom","rt":null,"stimulus":"Stimuli_Rocks480/I_Basalt_13.png","response":null,"trial_type":"image-keyboard-response","trial_index":193,"plugin_version":"2.1.0","time_elapsed":838854,"subject_id":"88853","group":"Group2","full_date":"2025-12-02T20:15:00.432Z","date":"2025-12-02","time":"20:15:00"},{"rt":null,"stimulus":"<p style=\"font-size: 50px; margin: 0; text-align: center;\">+</p>","response":null,"trial_type":"html-keyboard-response","trial_index":194,"plugin_version":"2.1.0","time_elapsed":839857,"subject_id":"88853","group":"Group2","full_date":"2025-12-02T20:15:00.432Z","date":"2025-12-02","time":"20:15:00"},{"task":"memory_phase","broad_category":"M","image_png":"M_Gneiss_15.png","image_id":207,"category_name":"Gneiss","category":13,"distinct_rating":3.11,"distinct_type":"Bottom","rt":null,"stimulus":"Stimuli_Rocks480/M_Gneiss_15.png","response":null,"trial_type":"image-keyboard-response","trial_index":195,"plugin_version":"2.1.0","time_elapsed":842360,"subject_id":"88853","group":"Group2","full_date":"2025-12-02T20:15:00.432Z","date":"2025-12-02","time":"20:15:00"},{"rt":null,"stimulus":"<p style=\"font-size: 50px; margin: 0; text-align: center;\">+</p>","response":null,"trial_type":"html-keyboard-response","trial_index":196,"plugin_version":"2.1.0","time_elapsed":843364,"subject_id":"88853","group":"Group2","full_date":"2025-12-02T20:15:00.432Z","date":"2025-12-02","time":"20:15:00"},{"task":"memory_phase","broad_category":"I","image_png":"I_Gabbro_02.png","image_id":50,"category_name":"Gabbro","category":4,"distinct_rating":2.73,"distinct_type":"Bottom","rt":null,"stimulus":"Stimuli_Rocks480/I_Gabbro_02.png","response":null,"trial_type":"image-keyboard-response","trial_index":197,"plugin_version":"2.1.0","time_elapsed":845868,"subject_id":"88853","group":"Group2","full_date":"2025-12-02T20:15:00.432Z","date":"2025-12-02","time":"20:15:00"},{"rt":null,"stimulus":"<p style=\"font-size: 50px; margin: 0; text-align: center;\">+</p>","response":null,"trial_type":"html-keyboard-response","trial_index":198,"plugin_version":"2.1.0","time_elapsed":846871,"subject_id":"88853","group":"Group2","full_date":"2025-12-02T20:15:00.432Z","date":"2025-12-02","time":"20:15:00"},{"task":"memory_phase","broad_category":"S","image_png":"S_Dolomite_01.png","image_id":385,"category_name":"Dolomite","category":25,"distinct_rating":1.43,"distinct_type":"Bottom","rt":null,"stimulus":"Stimuli_Rocks480/S_Dolomite_01.png","response":null,"trial_type":"image-keyboard-response","trial_index":199,"plugin_version":"2.1.0","time_elapsed":849375,"subject_id":"88853","group":"Group2","full_date":"2025-12-02T20:15:00.432Z","date":"2025-12-02","time":"20:15:00"},{"rt":null,"stimulus":"<p style=\"font-size: 50px; margin: 0; text-align: center;\">+</p>","response":null,"trial_type":"html-keyboard-response","trial_index":200,"plugin_version":"2.1.0","time_elapsed":850379,"subject_id":"88853","group":"Group2","full_date":"2025-12-02T20:15:00.432Z","date":"2025-12-02","time":"20:15:00"},{"task":"memory_phase","broad_category":"S","image_png":"S_Shale_02.png","image_id":466,"category_name":"Shale","category":30,"distinct_rating":2.9,"distinct_type":"Bottom","rt":null,"stimulus":"Stimuli_Rocks480/S_Shale_02.png","response":null,"trial_type":"image-keyboard-response","trial_index":201,"plugin_version":"2.1.0","time_elapsed":852883,"subject_id":"88853","group":"Group2","full_date":"2025-12-02T20:15:00.432Z","date":"2025-12-02","time":"20:15:00"},{"rt":null,"stimulus":"<p style=\"font-size: 50px; margin: 0; text-align: center;\">+</p>","response":null,"trial_type":"html-keyboard-response","trial_index":202,"plugin_version":"2.1.0","time_elapsed":853886,"subject_id":"88853","group":"Group2","full_date":"2025-12-02T20:15:00.432Z","date":"2025-12-02","time":"20:15:00"},{"task":"memory_phase","broad_category":"M","image_png":"M_Quartzite_07.png","image_id":279,"category_name":"Quartzite","category":18,"distinct_rating":1.97,"distinct_type":"Bottom","rt":null,"stimulus":"Stimuli_Rocks480/M_Quartzite_07.png","response":null,"trial_type":"image-keyboard-response","trial_index":203,"plugin_version":"2.1.0","time_elapsed":856390,"subject_id":"88853","group":"Group2","full_date":"2025-12-02T20:15:00.432Z","date":"2025-12-02","time":"20:15:00"},{"rt":null,"stimulus":"<p style=\"font-size: 50px; margin: 0; text-align: center;\">+</p>","response":null,"trial_type":"html-keyboard-response","trial_index":204,"plugin_version":"2.1.0","time_elapsed":857393,"subject_id":"88853","group":"Group2","full_date":"2025-12-02T20:15:00.432Z","date":"2025-12-02","time":"20:15:00"},{"task":"memory_phase","broad_category":"M","image_png":"M_Phyllite_05.png","image_id":261,"category_name":"Phyllite","category":17,"distinct_rating":2.14,"distinct_type":"Bottom","rt":null,"stimulus":"Stimuli_Rocks480/M_Phyllite_05.png","response":null,"trial_type":"image-keyboard-response","trial_index":205,"plugin_version":"2.1.0","time_elapsed":859898,"subject_id":"88853","group":"Group2","full_date":"2025-12-02T20:15:00.432Z","date":"2025-12-02","time":"20:15:00"},{"rt":null,"stimulus":"<p style=\"font-size: 50px; margin: 0; text-align: center;\">+</p>","response":null,"trial_type":"html-keyboard-response","trial_index":206,"plugin_version":"2.1.0","time_elapsed":860901,"subject_id":"88853","group":"Group2","full_date":"2025-12-02T20:15:00.432Z","date":"2025-12-02","time":"20:15:00"},{"task":"memory_phase","broad_category":"I","image_png":"I_Diorite_15.png","image_id":47,"category_name":"Diorite","category":3,"distinct_rating":3.05,"distinct_type":"Bottom","rt":null,"stimulus":"Stimuli_Rocks480/I_Diorite_15.png","response":null,"trial_type":"image-keyboard-response","trial_index":207,"plugin_version":"2.1.0","time_elapsed":863405,"subject_id":"88853","group":"Group2","full_date":"2025-12-02T20:15:00.432Z","date":"2025-12-02","time":"20:15:00"},{"rt":39362,"stimulus":"<p style=\"max-width: 760px; margin: auto; font-size: 35px; line-height: 1.5;\">You have completed 2 study phases. Now, we'll show you all the images again 1 more time.<br><br>Press SPACE to continue</p>","response":" ","trial_type":"html-keyboard-response","trial_index":208,"plugin_version":"2.1.0","time_elapsed":902768,"subject_id":"88853","group":"Group2","full_date":"2025-12-02T20:15:00.432Z","date":"2025-12-02","time":"20:15:00"},{"rt":null,"stimulus":"<p style=\"font-size: 50px; margin: 0; text-align: center;\">+</p>","response":null,"trial_type":"html-keyboard-response","trial_index":209,"plugin_version":"2.1.0","time_elapsed":903771,"subject_id":"88853","group":"Group2","full_date":"2025-12-02T20:15:00.432Z","date":"2025-12-02","time":"20:15:00"},{"task":"memory_phase","broad_category":"I","image_png":"I_Pumice_14.png","image_id":142,"category_name":"Pumice","category":9,"distinct_rating":3.22,"distinct_type":"Bottom","rt":null,"stimulus":"Stimuli_Rocks480/I_Pumice_14.png","response":null,"trial_type":"image-keyboard-response","trial_index":210,"plugin_version":"2.1.0","time_elapsed":906275,"subject_id":"88853","group":"Group2","full_date":"2025-12-02T20:15:00.432Z","date":"2025-12-02","time":"20:15:00"},{"rt":null,"stimulus":"<p style=\"font-size: 50px; margin: 0; text-align: center;\">+</p>","response":null,"trial_type":"html-keyboard-response","trial_index":211,"plugin_version":"2.1.0","time_elapsed":907277,"subject_id":"88853","group":"Group2","full_date":"2025-12-02T20:15:00.432Z","date":"2025-12-02","time":"20:15:00"},{"task":"memory_phase","broad_category":"M","image_png":"M_Phyllite_02.png","image_id":258,"category_name":"Phyllite","category":17,"distinct_rating":2.89,"distinct_type":"Bottom","rt":null,"stimulus":"Stimuli_Rocks480/M_Phyllite_02.png","response":null,"trial_type":"image-keyboard-response","trial_index":212,"plugin_version":"2.1.0","time_elapsed":909780,"subject_id":"88853","group":"Group2","full_date":"2025-12-02T20:15:00.432Z","date":"2025-12-02","time":"20:15:00"},{"rt":null,"stimulus":"<p style=\"font-size: 50px; margin: 0; text-align: center;\">+</p>","response":null,"trial_type":"html-keyboard-response","trial_index":213,"plugin_version":"2.1.0","time_elapsed":910782,"subject_id":"88853","group":"Group2","full_date":"2025-12-02T20:15:00.432Z","date":"2025-12-02","time":"20:15:00"},{"task":"memory_phase","broad_category":"I","image_png":"I_Diorite_15.png","image_id":47,"category_name":"Diorite","category":3,"distinct_rating":3.05,"distinct_type":"Bottom","rt":null,"stimulus":"Stimuli_Rocks480/I_Diorite_15.png","response":null,"trial_type":"image-keyboard-response","trial_index":214,"plugin_version":"2.1.0","time_elapsed":913287,"subject_id":"88853","group":"Group2","full_date":"2025-12-02T20:15:00.432Z","date":"2025-12-02","time":"20:15:00"},{"rt":null,"stimulus":"<p style=\"font-size: 50px; margin: 0; text-align: center;\">+</p>","response":null,"trial_type":"html-keyboard-response","trial_index":215,"plugin_version":"2.1.0","time_elapsed":914289,"subject_id":"88853","group":"Group2","full_date":"2025-12-02T20:15:00.432Z","date":"2025-12-02","time":"20:15:00"},{"task":"memory_phase","broad_category":"M","image_png":"M_Phyllite_13.png","image_id":269,"category_name":"Phyllite","category":17,"distinct_rating":2.8,"distinct_type":"Bottom","rt":null,"stimulus":"Stimuli_Rocks480/M_Phyllite_13.png","response":null,"trial_type":"image-keyboard-response","trial_index":216,"plugin_version":"2.1.0","time_elapsed":916794,"subject_id":"88853","group":"Group2","full_date":"2025-12-02T20:15:00.432Z","date":"2025-12-02","time":"20:15:00"},{"rt":null,"stimulus":"<p style=\"font-size: 50px; margin: 0; text-align: center;\">+</p>","response":null,"trial_type":"html-keyboard-response","trial_index":217,"plugin_version":"2.1.0","time_elapsed":917796,"subject_id":"88853","group":"Group2","full_date":"2025-12-02T20:15:00.432Z","date":"2025-12-02","time":"20:15:00"},{"task":"memory_phase","broad_category":"I","image_png":"I_Rhyolite_10.png","image_id":154,"category_name":"Rhyolite","category":10,"distinct_rating":2.88,"distinct_type":"Bottom","rt":null,"stimulus":"Stimuli_Rocks480/I_Rhyolite_10.png","response":null,"trial_type":"image-keyboard-response","trial_index":218,"plugin_version":"2.1.0","time_elapsed":920300,"subject_id":"88853","group":"Group2","full_date":"2025-12-02T20:15:00.432Z","date":"2025-12-02","time":"20:15:00"},{"rt":null,"stimulus":"<p style=\"font-size: 50px; margin: 0; text-align: center;\">+</p>","response":null,"trial_type":"html-keyboard-response","trial_index":219,"plugin_version":"2.1.0","time_elapsed":921303,"subject_id":"88853","group":"Group2","full_date":"2025-12-02T20:15:00.432Z","date":"2025-12-02","time":"20:15:00"},{"task":"memory_phase","broad_category":"S","image_png":"S_Shale_03.png","image_id":467,"category_name":"Shale","category":30,"distinct_rating":1.95,"distinct_type":"Bottom","rt":null,"stimulus":"Stimuli_Rocks480/S_Shale_03.png","response":null,"trial_type":"image-keyboard-response","trial_index":220,"plugin_version":"2.1.0","time_elapsed":923808,"subject_id":"88853","group":"Group2","full_date":"2025-12-02T20:15:00.432Z","date":"2025-12-02","time":"20:15:00"},{"rt":null,"stimulus":"<p style=\"font-size: 50px; margin: 0; text-align: center;\">+</p>","response":null,"trial_type":"html-keyboard-response","trial_index":221,"plugin_version":"2.1.0","time_elapsed":924810,"subject_id":"88853","group":"Group2","full_date":"2025-12-02T20:15:00.432Z","date":"2025-12-02","time":"20:15:00"},{"task":"memory_phase","broad_category":"I","image_png":"I_Basalt_10.png","image_id":26,"category_name":"Basalt","category":2,"distinct_rating":2.76,"distinct_type":"Bottom","rt":null,"stimulus":"Stimuli_Rocks480/I_Basalt_10.png","response":null,"trial_type":"image-keyboard-response","trial_index":222,"plugin_version":"2.1.0","time_elapsed":927314,"subject_id":"88853","group":"Group2","full_date":"2025-12-02T20:15:00.432Z","date":"2025-12-02","time":"20:15:00"},{"rt":null,"stimulus":"<p style=\"font-size: 50px; margin: 0; text-align: center;\">+</p>","response":null,"trial_type":"html-keyboard-response","trial_index":223,"plugin_version":"2.1.0","time_elapsed":928318,"subject_id":"88853","group":"Group2","full_date":"2025-12-02T20:15:00.432Z","date":"2025-12-02","time":"20:15:00"},{"task":"memory_phase","broad_category":"M","image_png":"M_Quartzite_15.png","image_id":287,"category_name":"Quartzite","category":18,"distinct_rating":2.19,"distinct_type":"Bottom","rt":null,"stimulus":"Stimuli_Rocks480/M_Quartzite_15.png","response":null,"trial_type":"image-keyboard-response","trial_index":224,"plugin_version":"2.1.0","time_elapsed":930822,"subject_id":"88853","group":"Group2","full_date":"2025-12-02T20:15:00.432Z","date":"2025-12-02","time":"20:15:00"},{"rt":null,"stimulus":"<p style=\"font-size: 50px; margin: 0; text-align: center;\">+</p>","response":null,"trial_type":"html-keyboard-response","trial_index":225,"plugin_version":"2.1.0","time_elapsed":931825,"subject_id":"88853","group":"Group2","full_date":"2025-12-02T20:15:00.432Z","date":"2025-12-02","time":"20:15:00"},{"task":"memory_phase","broad_category":"S","image_png":"S_Dolomite_16.png","image_id":400,"category_name":"Dolomite","category":25,"distinct_rating":1.71,"distinct_type":"Bottom","rt":null,"stimulus":"Stimuli_Rocks480/S_Dolomite_16.png","response":null,"trial_type":"image-keyboard-response","trial_index":226,"plugin_version":"2.1.0","time_elapsed":934328,"subject_id":"88853","group":"Group2","full_date":"2025-12-02T20:15:00.432Z","date":"2025-12-02","time":"20:15:00"},{"rt":null,"stimulus":"<p style=\"font-size: 50px; margin: 0; text-align: center;\">+</p>","response":null,"trial_type":"html-keyboard-response","trial_index":227,"plugin_version":"2.1.0","time_elapsed":935332,"subject_id":"88853","group":"Group2","full_date":"2025-12-02T20:15:00.432Z","date":"2025-12-02","time":"20:15:00"},{"task":"memory_phase","broad_category":"M","image_png":"M_Marble_03.png","image_id":227,"category_name":"Marble","category":15,"distinct_rating":2.67,"distinct_type":"Bottom","rt":null,"stimulus":"Stimuli_Rocks480/M_Marble_03.png","response":null,"trial_type":"image-keyboard-response","trial_index":228,"plugin_version":"2.1.0","time_elapsed":937836,"subject_id":"88853","group":"Group2","full_date":"2025-12-02T20:15:00.432Z","date":"2025-12-02","time":"20:15:00"},{"rt":null,"stimulus":"<p style=\"font-size: 50px; margin: 0; text-align: center;\">+</p>","response":null,"trial_type":"html-keyboard-response","trial_index":229,"plugin_version":"2.1.0","time_elapsed":938839,"subject_id":"88853","group":"Group2","full_date":"2025-12-02T20:15:00.432Z","date":"2025-12-02","time":"20:15:00"},{"task":"memory_phase","broad_category":"S","image_png":"S_Chert_13.png","image_id":365,"category_name":"Chert","category":23,"distinct_rating":6.57,"distinct_type":"Top","rt":null,"stimulus":"Stimuli_Rocks480/S_Chert_13.png","response":null,"trial_type":"image-keyboard-response","trial_index":230,"plugin_version":"2.1.0","time_elapsed":941342,"subject_id":"88853","group":"Group2","full_date":"2025-12-02T20:15:00.432Z","date":"2025-12-02","time":"20:15:00"},{"rt":null,"stimulus":"<p style=\"font-size: 50px; margin: 0; text-align: center;\">+</p>","response":null,"trial_type":"html-keyboard-response","trial_index":231,"plugin_version":"2.1.0","time_elapsed":942346,"subject_id":"88853","group":"Group2","full_date":"2025-12-02T20:15:00.432Z","date":"2025-12-02","time":"20:15:00"},{"task":"memory_phase","broad_category":"S","image_png":"S_Rock Salt_13.png","image_id":445,"category_name":"Rock Salt","category":28,"distinct_rating":7.58,"distinct_type":"Top","rt":null,"stimulus":"Stimuli_Rocks480/S_Rock Salt_13.png","response":null,"trial_type":"image-keyboard-response","trial_index":232,"plugin_version":"2.1.0","time_elapsed":944850,"subject_id":"88853","group":"Group2","full_date":"2025-12-02T20:15:00.432Z","date":"2025-12-02","time":"20:15:00"},{"rt":null,"stimulus":"<p style=\"font-size: 50px; margin: 0; text-align: center;\">+</p>","response":null,"trial_type":"html-keyboard-response","trial_index":233,"plugin_version":"2.1.0","time_elapsed":945852,"subject_id":"88853","group":"Group2","full_date":"2025-12-02T20:15:00.432Z","date":"2025-12-02","time":"20:15:00"},{"task":"memory_phase","broad_category":"S","image_png":"S_Sandstone_04.png","image_id":452,"category_name":"Sandstone","category":29,"distinct_rating":1.8,"distinct_type":"Bottom","rt":null,"stimulus":"Stimuli_Rocks480/S_Sandstone_04.png","response":null,"trial_type":"image-keyboard-response","trial_index":234,"plugin_version":"2.1.0","time_elapsed":948356,"subject_id":"88853","group":"Group2","full_date":"2025-12-02T20:15:00.432Z","date":"2025-12-02","time":"20:15:00"},{"rt":null,"stimulus":"<p style=\"font-size: 50px; margin: 0; text-align: center;\">+</p>","response":null,"trial_type":"html-keyboard-response","trial_index":235,"plugin_version":"2.1.0","time_elapsed":949359,"subject_id":"88853","group":"Group2","full_date":"2025-12-02T20:15:00.432Z","date":"2025-12-02","time":"20:15:00"},{"task":"memory_phase","broad_category":"I","image_png":"I_Obsidian_06.png","image_id":86,"category_name":"Obsidian","category":6,"distinct_rating":8.01,"distinct_type":"Top","rt":null,"stimulus":"Stimuli_Rocks480/I_Obsidian_06.png","response":null,"trial_type":"image-keyboard-response","trial_index":236,"plugin_version":"2.1.0","time_elapsed":951864,"subject_id":"88853","group":"Group2","full_date":"2025-12-02T20:15:00.432Z","date":"2025-12-02","time":"20:15:00"},{"rt":null,"stimulus":"<p style=\"font-size: 50px; margin: 0; text-align: center;\">+</p>","response":null,"trial_type":"html-keyboard-response","trial_index":237,"plugin_version":"2.1.0","time_elapsed":952867,"subject_id":"88853","group":"Group2","full_date":"2025-12-02T20:15:00.432Z","date":"2025-12-02","time":"20:15:00"},{"task":"memory_phase","broad_category":"I","image_png":"I_Pumice_13.png","image_id":141,"category_name":"Pumice","category":9,"distinct_rating":3.12,"distinct_type":"Bottom","rt":null,"stimulus":"Stimuli_Rocks480/I_Pumice_13.png","response":null,"trial_type":"image-keyboard-response","trial_index":238,"plugin_version":"2.1.0","time_elapsed":955371,"subject_id":"88853","group":"Group2","full_date":"2025-12-02T20:15:00.432Z","date":"2025-12-02","time":"20:15:00"},{"rt":null,"stimulus":"<p style=\"font-size: 50px; margin: 0; text-align: center;\">+</p>","response":null,"trial_type":"html-keyboard-response","trial_index":239,"plugin_version":"2.1.0","time_elapsed":956374,"subject_id":"88853","group":"Group2","full_date":"2025-12-02T20:15:00.432Z","date":"2025-12-02","time":"20:15:00"},{"task":"memory_phase","broad_category":"I","image_png":"I_Gabbro_14.png","image_id":62,"category_name":"Gabbro","category":4,"distinct_rating":2.95,"distinct_type":"Bottom","rt":null,"stimulus":"Stimuli_Rocks480/I_Gabbro_14.png","response":null,"trial_type":"image-keyboard-response","trial_index":240,"plugin_version":"2.1.0","time_elapsed":958878,"subject_id":"88853","group":"Group2","full_date":"2025-12-02T20:15:00.432Z","date":"2025-12-02","time":"20:15:00"},{"rt":null,"stimulus":"<p style=\"font-size: 50px; margin: 0; text-align: center;\">+</p>","response":null,"trial_type":"html-keyboard-response","trial_index":241,"plugin_version":"2.1.0","time_elapsed":959881,"subject_id":"88853","group":"Group2","full_date":"2025-12-02T20:15:00.432Z","date":"2025-12-02","time":"20:15:00"},{"task":"memory_phase","broad_category":"I","image_png":"I_Diorite_10.png","image_id":42,"category_name":"Diorite","category":3,"distinct_rating":2.84,"distinct_type":"Bottom","rt":null,"stimulus":"Stimuli_Rocks480/I_Diorite_10.png","response":null,"trial_type":"image-keyboard-response","trial_index":242,"plugin_version":"2.1.0","time_elapsed":962385,"subject_id":"88853","group":"Group2","full_date":"2025-12-02T20:15:00.432Z","date":"2025-12-02","time":"20:15:00"},{"rt":null,"stimulus":"<p style=\"font-size: 50px; margin: 0; text-align: center;\">+</p>","response":null,"trial_type":"html-keyboard-response","trial_index":243,"plugin_version":"2.1.0","time_elapsed":963389,"subject_id":"88853","group":"Group2","full_date":"2025-12-02T20:15:00.432Z","date":"2025-12-02","time":"20:15:00"},{"task":"memory_phase","broad_category":"M","image_png":"M_Slate_04.png","image_id":308,"category_name":"Slate","category":20,"distinct_rating":2.2,"distinct_type":"Bottom","rt":null,"stimulus":"Stimuli_Rocks480/M_Slate_04.png","response":null,"trial_type":"image-keyboard-response","trial_index":244,"plugin_version":"2.1.0","time_elapsed":965893,"subject_id":"88853","group":"Group2","full_date":"2025-12-02T20:15:00.432Z","date":"2025-12-02","time":"20:15:00"},{"rt":null,"stimulus":"<p style=\"font-size: 50px; margin: 0; text-align: center;\">+</p>","response":null,"trial_type":"html-keyboard-response","trial_index":245,"plugin_version":"2.1.0","time_elapsed":966896,"subject_id":"88853","group":"Group2","full_date":"2025-12-02T20:15:00.432Z","date":"2025-12-02","time":"20:15:00"},{"task":"memory_phase","broad_category":"M","image_png":"M_Phyllite_05.png","image_id":261,"category_name":"Phyllite","category":17,"distinct_rating":2.14,"distinct_type":"Bottom","rt":null,"stimulus":"Stimuli_Rocks480/M_Phyllite_05.png","response":null,"trial_type":"image-keyboard-response","trial_index":246,"plugin_version":"2.1.0","time_elapsed":969401,"subject_id":"88853","group":"Group2","full_date":"2025-12-02T20:15:00.432Z","date":"2025-12-02","time":"20:15:00"},{"rt":null,"stimulus":"<p style=\"font-size: 50px; margin: 0; text-align: center;\">+</p>","response":null,"trial_type":"html-keyboard-response","trial_index":247,"plugin_version":"2.1.0","time_elapsed":970404,"subject_id":"88853","group":"Group2","full_date":"2025-12-02T20:15:00.432Z","date":"2025-12-02","time":"20:15:00"},{"task":"memory_phase","broad_category":"M","image_png":"M_Slate_10.png","image_id":314,"category_name":"Slate","category":20,"distinct_rating":1.94,"distinct_type":"Bottom","rt":null,"stimulus":"Stimuli_Rocks480/M_Slate_10.png","response":null,"trial_type":"image-keyboard-response","trial_index":248,"plugin_version":"2.1.0","time_elapsed":972909,"