[{"width":1536,"height":791,"webaudio":true,"browser":"chrome","browser_version":"143.0.0","mobile":false,"os":"Windows 10","fullscreen":true,"vsync_rate":165.52,"webcam":true,"microphone":true,"trial_type":"browser-check","trial_index":0,"plugin_version":"2.1.0","time_elapsed":456,"subject_id":"87734","group":"Group2","full_date":"2025-12-05T22:30:16.258Z","date":"2025-12-05","time":"22:30:16"},{"success":true,"timeout":false,"failed_images":[],"failed_audio":[],"failed_video":[],"trial_type":"preload","trial_index":1,"plugin_version":"2.1.0","time_elapsed":1818,"subject_id":"87734","group":"Group2","full_date":"2025-12-05T22:30:16.258Z","date":"2025-12-05","time":"22:30:16"},{"rt":7167,"url":"SONA_consent_memorability.html","trial_type":"external-html","trial_index":2,"plugin_version":"2.1.0","time_elapsed":9026,"subject_id":"87734","group":"Group2","full_date":"2025-12-05T22:30:16.258Z","date":"2025-12-05","time":"22:30:16"},{"success":true,"rt":1229,"trial_type":"fullscreen","trial_index":3,"plugin_version":"2.1.0","time_elapsed":11268,"subject_id":"87734","group":"Group2","full_date":"2025-12-05T22:30:16.258Z","date":"2025-12-05","time":"22:30:16"},{"rt":1651270,"stimulus":"<div style=\"max-width: 760px; margin: auto; font-size: 20px; line-height: 1.5;\">\n      <h1 style=\"text-align:center; font-size: 30px;\">Instructions</h1>\n      <p>\n        Welcome to the study on <b>visual memory</b>. This experiment consists of <b>two phases</b>: \n        a <b>study phase</b> and a <b>test phase</b>.\n      </p>\n      <p>\n        In the study phase, you will see a series of rock images along with their category labels.\n        The images will appear one at a time.\n        <b>Your task</b> is to learn the categories to which the rock images belong \n        and to remember each image as accurately as possible.\n      </p> \n      <p>\n        Note that we will repeat the study phase <b>3 times</b>, \n        so you will have multiple opportunities to see and remember each image.\n      </p>\n      <p>\n        After the study phase, <b>your memory will be tested</b>. \n        Additional instructions for the test phase will be provided at that time.\n      </p>\n      <p>\n        If your computer has multiple <b>language settings</b> (e.g., English and another language),\n        please make sure it is set to English before starting.\n      </p>\n      <p>\n        You can track your progress using the <b>completion bar</b> at the top of the screen. \n        Please note that the bar will refresh when the test phase begins \n        to give you an accurate sense of your progress in both phases.\n      </p> \n      <p>\n        Press the button below when you are ready to begin.\n      </p>\n    </div>","response":0,"trial_type":"html-button-response","trial_index":4,"plugin_version":"2.1.0","time_elapsed":1662540,"subject_id":"87734","group":"Group2","full_date":"2025-12-05T22:30:16.258Z","date":"2025-12-05","time":"22:30:16"},{"rt":null,"stimulus":"<p style=\"font-size: 50px; margin: 0; text-align: center;\">+</p>","response":null,"trial_type":"html-keyboard-response","trial_index":5,"plugin_version":"2.1.0","time_elapsed":1663558,"subject_id":"87734","group":"Group2","full_date":"2025-12-05T22:30:16.258Z","date":"2025-12-05","time":"22:30:16"},{"task":"memory_phase","broad_category":"S","image_png":"S_Dolomite_07.png","image_id":391,"category_name":"Dolomite","category":25,"distinct_rating":1.73,"distinct_type":"Bottom","rt":null,"stimulus":"Stimuli_Rocks480/S_Dolomite_07.png","response":null,"trial_type":"image-keyboard-response","trial_index":6,"plugin_version":"2.1.0","time_elapsed":1666067,"subject_id":"87734","group":"Group2","full_date":"2025-12-05T22:30:16.258Z","date":"2025-12-05","time":"22:30:16"},{"rt":null,"stimulus":"<p style=\"font-size: 50px; margin: 0; text-align: center;\">+</p>","response":null,"trial_type":"html-keyboard-response","trial_index":7,"plugin_version":"2.1.0","time_elapsed":1667069,"subject_id":"87734","group":"Group2","full_date":"2025-12-05T22:30:16.258Z","date":"2025-12-05","time":"22:30:16"},{"task":"memory_phase","broad_category":"I","image_png":"I_Pegmatite_03.png","image_id":99,"category_name":"Pegmatite","category":7,"distinct_rating":7.24,"distinct_type":"Top","rt":null,"stimulus":"Stimuli_Rocks480/I_Pegmatite_03.png","response":null,"trial_type":"image-keyboard-response","trial_index":8,"plugin_version":"2.1.0","time_elapsed":1669572,"subject_id":"87734","group":"Group2","full_date":"2025-12-05T22:30:16.258Z","date":"2025-12-05","time":"22:30:16"},{"rt":null,"stimulus":"<p style=\"font-size: 50px; margin: 0; text-align: center;\">+</p>","response":null,"trial_type":"html-keyboard-response","trial_index":9,"plugin_version":"2.1.0","time_elapsed":1670586,"subject_id":"87734","group":"Group2","full_date":"2025-12-05T22:30:16.258Z","date":"2025-12-05","time":"22:30:16"},{"task":"memory_phase","broad_category":"S","image_png":"S_Rock Salt_13.png","image_id":445,"category_name":"Rock Salt","category":28,"distinct_rating":7.58,"distinct_type":"Top","rt":null,"stimulus":"Stimuli_Rocks480/S_Rock Salt_13.png","response":null,"trial_type":"image-keyboard-response","trial_index":10,"plugin_version":"2.1.0","time_elapsed":1673100,"subject_id":"87734","group":"Group2","full_date":"2025-12-05T22:30:16.258Z","date":"2025-12-05","time":"22:30:16"},{"rt":null,"stimulus":"<p style=\"font-size: 50px; margin: 0; text-align: center;\">+</p>","response":null,"trial_type":"html-keyboard-response","trial_index":11,"plugin_version":"2.1.0","time_elapsed":1674110,"subject_id":"87734","group":"Group2","full_date":"2025-12-05T22:30:16.258Z","date":"2025-12-05","time":"22:30:16"},{"task":"memory_phase","broad_category":"S","image_png":"S_Sandstone_08.png","image_id":456,"category_name":"Sandstone","category":29,"distinct_rating":1.5,"distinct_type":"Bottom","rt":null,"stimulus":"Stimuli_Rocks480/S_Sandstone_08.png","response":null,"trial_type":"image-keyboard-response","trial_index":12,"plugin_version":"2.1.0","time_elapsed":1676618,"subject_id":"87734","group":"Group2","full_date":"2025-12-05T22:30:16.258Z","date":"2025-12-05","time":"22:30:16"},{"rt":null,"stimulus":"<p style=\"font-size: 50px; margin: 0; text-align: center;\">+</p>","response":null,"trial_type":"html-keyboard-response","trial_index":13,"plugin_version":"2.1.0","time_elapsed":1677634,"subject_id":"87734","group":"Group2","full_date":"2025-12-05T22:30:16.258Z","date":"2025-12-05","time":"22:30:16"},{"task":"memory_phase","broad_category":"I","image_png":"I_Basalt_08.png","image_id":24,"category_name":"Basalt","category":2,"distinct_rating":2.31,"distinct_type":"Bottom","rt":null,"stimulus":"Stimuli_Rocks480/I_Basalt_08.png","response":null,"trial_type":"image-keyboard-response","trial_index":14,"plugin_version":"2.1.0","time_elapsed":1680141,"subject_id":"87734","group":"Group2","full_date":"2025-12-05T22:30:16.258Z","date":"2025-12-05","time":"22:30:16"},{"rt":null,"stimulus":"<p style=\"font-size: 50px; margin: 0; text-align: center;\">+</p>","response":null,"trial_type":"html-keyboard-response","trial_index":15,"plugin_version":"2.1.0","time_elapsed":1681155,"subject_id":"87734","group":"Group2","full_date":"2025-12-05T22:30:16.258Z","date":"2025-12-05","time":"22:30:16"},{"task":"memory_phase","broad_category":"I","image_png":"I_Rhyolite_05.png","image_id":149,"category_name":"Rhyolite","category":10,"distinct_rating":3.02,"distinct_type":"Bottom","rt":null,"stimulus":"Stimuli_Rocks480/I_Rhyolite_05.png","response":null,"trial_type":"image-keyboard-response","trial_index":16,"plugin_version":"2.1.0","time_elapsed":1683657,"subject_id":"87734","group":"Group2","full_date":"2025-12-05T22:30:16.258Z","date":"2025-12-05","time":"22:30:16"},{"rt":null,"stimulus":"<p style=\"font-size: 50px; margin: 0; text-align: center;\">+</p>","response":null,"trial_type":"html-keyboard-response","trial_index":17,"plugin_version":"2.1.0","time_elapsed":1684661,"subject_id":"87734","group":"Group2","full_date":"2025-12-05T22:30:16.258Z","date":"2025-12-05","time":"22:30:16"},{"task":"memory_phase","broad_category":"M","image_png":"M_Phyllite_02.png","image_id":258,"category_name":"Phyllite","category":17,"distinct_rating":2.89,"distinct_type":"Bottom","rt":null,"stimulus":"Stimuli_Rocks480/M_Phyllite_02.png","response":null,"trial_type":"image-keyboard-response","trial_index":18,"plugin_version":"2.1.0","time_elapsed":1687174,"subject_id":"87734","group":"Group2","full_date":"2025-12-05T22:30:16.258Z","date":"2025-12-05","time":"22:30:16"},{"rt":null,"stimulus":"<p style=\"font-size: 50px; margin: 0; text-align: center;\">+</p>","response":null,"trial_type":"html-keyboard-response","trial_index":19,"plugin_version":"2.1.0","time_elapsed":1688176,"subject_id":"87734","group":"Group2","full_date":"2025-12-05T22:30:16.258Z","date":"2025-12-05","time":"22:30:16"},{"task":"memory_phase","broad_category":"S","image_png":"S_Dolomite_01.png","image_id":385,"category_name":"Dolomite","category":25,"distinct_rating":1.43,"distinct_type":"Bottom","rt":null,"stimulus":"Stimuli_Rocks480/S_Dolomite_01.png","response":null,"trial_type":"image-keyboard-response","trial_index":20,"plugin_version":"2.1.0","time_elapsed":1690681,"subject_id":"87734","group":"Group2","full_date":"2025-12-05T22:30:16.258Z","date":"2025-12-05","time":"22:30:16"},{"rt":null,"stimulus":"<p style=\"font-size: 50px; margin: 0; text-align: center;\">+</p>","response":null,"trial_type":"html-keyboard-response","trial_index":21,"plugin_version":"2.1.0","time_elapsed":1691681,"subject_id":"87734","group":"Group2","full_date":"2025-12-05T22:30:16.258Z","date":"2025-12-05","time":"22:30:16"},{"task":"memory_phase","broad_category":"M","image_png":"M_Gneiss_10.png","image_id":202,"category_name":"Gneiss","category":13,"distinct_rating":3.09,"distinct_type":"Bottom","rt":null,"stimulus":"Stimuli_Rocks480/M_Gneiss_10.png","response":null,"trial_type":"image-keyboard-response","trial_index":22,"plugin_version":"2.1.0","time_elapsed":1694198,"subject_id":"87734","group":"Group2","full_date":"2025-12-05T22:30:16.258Z","date":"2025-12-05","time":"22:30:16"},{"rt":null,"stimulus":"<p style=\"font-size: 50px; margin: 0; text-align: center;\">+</p>","response":null,"trial_type":"html-keyboard-response","trial_index":23,"plugin_version":"2.1.0","time_elapsed":1695210,"subject_id":"87734","group":"Group2","full_date":"2025-12-05T22:30:16.258Z","date":"2025-12-05","time":"22:30:16"},{"task":"memory_phase","broad_category":"I","image_png":"I_Basalt_13.png","image_id":29,"category_name":"Basalt","category":2,"distinct_rating":2.68,"distinct_type":"Bottom","rt":null,"stimulus":"Stimuli_Rocks480/I_Basalt_13.png","response":null,"trial_type":"image-keyboard-response","trial_index":24,"plugin_version":"2.1.0","time_elapsed":1697712,"subject_id":"87734","group":"Group2","full_date":"2025-12-05T22:30:16.258Z","date":"2025-12-05","time":"22:30:16"},{"rt":null,"stimulus":"<p style=\"font-size: 50px; margin: 0; text-align: center;\">+</p>","response":null,"trial_type":"html-keyboard-response","trial_index":25,"plugin_version":"2.1.0","time_elapsed":1698718,"subject_id":"87734","group":"Group2","full_date":"2025-12-05T22:30:16.258Z","date":"2025-12-05","time":"22:30:16"},{"task":"memory_phase","broad_category":"S","image_png":"S_Sandstone_04.png","image_id":452,"category_name":"Sandstone","category":29,"distinct_rating":1.8,"distinct_type":"Bottom","rt":null,"stimulus":"Stimuli_Rocks480/S_Sandstone_04.png","response":null,"trial_type":"image-keyboard-response","trial_index":26,"plugin_version":"2.1.0","time_elapsed":1701223,"subject_id":"87734","group":"Group2","full_date":"2025-12-05T22:30:16.258Z","date":"2025-12-05","time":"22:30:16"},{"rt":null,"stimulus":"<p style=\"font-size: 50px; margin: 0; text-align: center;\">+</p>","response":null,"trial_type":"html-keyboard-response","trial_index":27,"plugin_version":"2.1.0","time_elapsed":1702226,"subject_id":"87734","group":"Group2","full_date":"2025-12-05T22:30:16.258Z","date":"2025-12-05","time":"22:30:16"},{"task":"memory_phase","broad_category":"M","image_png":"M_Phyllite_05.png","image_id":261,"category_name":"Phyllite","category":17,"distinct_rating":2.14,"distinct_type":"Bottom","rt":null,"stimulus":"Stimuli_Rocks480/M_Phyllite_05.png","response":null,"trial_type":"image-keyboard-response","trial_index":28,"plugin_version":"2.1.0","time_elapsed":1704743,"subject_id":"87734","group":"Group2","full_date":"2025-12-05T22:30:16.258Z","date":"2025-12-05","time":"22:30:16"},{"rt":null,"stimulus":"<p style=\"font-size: 50px; margin: 0; text-align: center;\">+</p>","response":null,"trial_type":"html-keyboard-response","trial_index":29,"plugin_version":"2.1.0","time_elapsed":1705756,"subject_id":"87734","group":"Group2","full_date":"2025-12-05T22:30:16.258Z","date":"2025-12-05","time":"22:30:16"},{"task":"memory_phase","broad_category":"I","image_png":"I_Peridotite_13.png","image_id":125,"category_name":"Peridotite","category":8,"distinct_rating":7.28,"distinct_type":"Top","rt":null,"stimulus":"Stimuli_Rocks480/I_Peridotite_13.png","response":null,"trial_type":"image-keyboard-response","trial_index":30,"plugin_version":"2.1.0","time_elapsed":1708260,"subject_id":"87734","group":"Group2","full_date":"2025-12-05T22:30:16.258Z","date":"2025-12-05","time":"22:30:16"},{"rt":null,"stimulus":"<p style=\"font-size: 50px; margin: 0; text-align: center;\">+</p>","response":null,"trial_type":"html-keyboard-response","trial_index":31,"plugin_version":"2.1.0","time_elapsed":1709271,"subject_id":"87734","group":"Group2","full_date":"2025-12-05T22:30:16.258Z","date":"2025-12-05","time":"22:30:16"},{"task":"memory_phase","broad_category":"M","image_png":"M_Gneiss_15.png","image_id":207,"category_name":"Gneiss","category":13,"distinct_rating":3.11,"distinct_type":"Bottom","rt":null,"stimulus":"Stimuli_Rocks480/M_Gneiss_15.png","response":null,"trial_type":"image-keyboard-response","trial_index":32,"plugin_version":"2.1.0","time_elapsed":1711785,"subject_id":"87734","group":"Group2","full_date":"2025-12-05T22:30:16.258Z","date":"2025-12-05","time":"22:30:16"},{"rt":null,"stimulus":"<p style=\"font-size: 50px; margin: 0; text-align: center;\">+</p>","response":null,"trial_type":"html-keyboard-response","trial_index":33,"plugin_version":"2.1.0","time_elapsed":1712799,"subject_id":"87734","group":"Group2","full_date":"2025-12-05T22:30:16.258Z","date":"2025-12-05","time":"22:30:16"},{"task":"memory_phase","broad_category":"I","image_png":"I_Gabbro_14.png","image_id":62,"category_name":"Gabbro","category":4,"distinct_rating":2.95,"distinct_type":"Bottom","rt":null,"stimulus":"Stimuli_Rocks480/I_Gabbro_14.png","response":null,"trial_type":"image-keyboard-response","trial_index":34,"plugin_version":"2.1.0","time_elapsed":1715303,"subject_id":"87734","group":"Group2","full_date":"2025-12-05T22:30:16.258Z","date":"2025-12-05","time":"22:30:16"},{"rt":null,"stimulus":"<p style=\"font-size: 50px; margin: 0; text-align: center;\">+</p>","response":null,"trial_type":"html-keyboard-response","trial_index":35,"plugin_version":"2.1.0","time_elapsed":1716312,"subject_id":"87734","group":"Group2","full_date":"2025-12-05T22:30:16.258Z","date":"2025-12-05","time":"22:30:16"},{"task":"memory_phase","broad_category":"I","image_png":"I_Andesite_03.png","image_id":3,"category_name":"Andesite","category":1,"distinct_rating":3.17,"distinct_type":"Bottom","rt":null,"stimulus":"Stimuli_Rocks480/I_Andesite_03.png","response":null,"trial_type":"image-keyboard-response","trial_index":36,"plugin_version":"2.1.0","time_elapsed":1718823,"subject_id":"87734","group":"Group2","full_date":"2025-12-05T22:30:16.258Z","date":"2025-12-05","time":"22:30:16"},{"rt":null,"stimulus":"<p style=\"font-size: 50px; margin: 0; text-align: center;\">+</p>","response":null,"trial_type":"html-keyboard-response","trial_index":37,"plugin_version":"2.1.0","time_elapsed":1719833,"subject_id":"87734","group":"Group2","full_date":"2025-12-05T22:30:16.258Z","date":"2025-12-05","time":"22:30:16"},{"task":"memory_phase","broad_category":"I","image_png":"I_Rhyolite_10.png","image_id":154,"category_name":"Rhyolite","category":10,"distinct_rating":2.88,"distinct_type":"Bottom","rt":null,"stimulus":"Stimuli_Rocks480/I_Rhyolite_10.png","response":null,"trial_type":"image-keyboard-response","trial_index":38,"plugin_version":"2.1.0","time_elapsed":1722351,"subject_id":"87734","group":"Group2","full_date":"2025-12-05T22:30:16.258Z","date":"2025-12-05","time":"22:30:16"},{"rt":null,"stimulus":"<p style=\"font-size: 50px; margin: 0; text-align: center;\">+</p>","response":null,"trial_type":"html-keyboard-response","trial_index":39,"plugin_version":"2.1.0","time_elapsed":1723358,"subject_id":"87734","group":"Group2","full_date":"2025-12-05T22:30:16.258Z","date":"2025-12-05","time":"22:30:16"},{"task":"memory_phase","broad_category":"M","image_png":"M_Quartzite_15.png","image_id":287,"category_name":"Quartzite","category":18,"distinct_rating":2.19,"distinct_type":"Bottom","rt":null,"stimulus":"Stimuli_Rocks480/M_Quartzite_15.png","response":null,"trial_type":"image-keyboard-response","trial_index":40,"plugin_version":"2.1.0","time_elapsed":1725872,"subject_id":"87734","group":"Group2","full_date":"2025-12-05T22:30:16.258Z","date":"2025-12-05","time":"22:30:16"},{"rt":null,"stimulus":"<p style=\"font-size: 50px; margin: 0; text-align: center;\">+</p>","response":null,"trial_type":"html-keyboard-response","trial_index":41,"plugin_version":"2.1.0","time_elapsed":1726884,"subject_id":"87734","group":"Group2","full_date":"2025-12-05T22:30:16.258Z","date":"2025-12-05","time":"22:30:16"},{"task":"memory_phase","broad_category":"I","image_png":"I_Basalt_10.png","image_id":26,"category_name":"Basalt","category":2,"distinct_rating":2.76,"distinct_type":"Bottom","rt":null,"stimulus":"Stimuli_Rocks480/I_Basalt_10.png","response":null,"trial_type":"image-keyboard-response","trial_index":42,"plugin_version":"2.1.0","time_elapsed":1729386,"subject_id":"87734","group":"Group2","full_date":"2025-12-05T22:30:16.258Z","date":"2025-12-05","time":"22:30:16"},{"rt":null,"stimulus":"<p style=\"font-size: 50px; margin: 0; text-align: center;\">+</p>","response":null,"trial_type":"html-keyboard-response","trial_index":43,"plugin_version":"2.1.0","time_elapsed":1730396,"subject_id":"87734","group":"Group2","full_date":"2025-12-05T22:30:16.258Z","date":"2025-12-05","time":"22:30:16"},{"task":"memory_phase","broad_category":"S","image_png":"S_Dolomite_16.png","image_id":400,"category_name":"Dolomite","category":25,"distinct_rating":1.71,"distinct_type":"Bottom","rt":null,"stimulus":"Stimuli_Rocks480/S_Dolomite_16.png","response":null,"trial_type":"image-keyboard-response","trial_index":44,"plugin_version":"2.1.0","time_elapsed":1732905,"subject_id":"87734","group":"Group2","full_date":"2025-12-05T22:30:16.258Z","date":"2025-12-05","time":"22:30:16"},{"rt":null,"stimulus":"<p style=\"font-size: 50px; margin: 0; text-align: center;\">+</p>","response":null,"trial_type":"html-keyboard-response","trial_index":45,"plugin_version":"2.1.0","time_elapsed":1733914,"subject_id":"87734","group":"Group2","full_date":"2025-12-05T22:30:16.258Z","date":"2025-12-05","time":"22:30:16"},{"task":"memory_phase","broad_category":"I","image_png":"I_Pegmatite_11.png","image_id":107,"category_name":"Pegmatite","category":7,"distinct_rating":7.11,"distinct_type":"Top","rt":null,"stimulus":"Stimuli_Rocks480/I_Pegmatite_11.png","response":null,"trial_type":"image-keyboard-response","trial_index":46,"plugin_version":"2.1.0","time_elapsed":1736424,"subject_id":"87734","group":"Group2","full_date":"2025-12-05T22:30:16.258Z","date":"2025-12-05","time":"22:30:16"},{"rt":null,"stimulus":"<p style=\"font-size: 50px; margin: 0; text-align: center;\">+</p>","response":null,"trial_type":"html-keyboard-response","trial_index":47,"plugin_version":"2.1.0","time_elapsed":1737433,"subject_id":"87734","group":"Group2","full_date":"2025-12-05T22:30:16.258Z","date":"2025-12-05","time":"22:30:16"},{"task":"memory_phase","broad_category":"I","image_png":"I_Andesite_09.png","image_id":9,"category_name":"Andesite","category":1,"distinct_rating":2.49,"distinct_type":"Bottom","rt":null,"stimulus":"Stimuli_Rocks480/I_Andesite_09.png","response":null,"trial_type":"image-keyboard-response","trial_index":48,"plugin_version":"2.1.0","time_elapsed":1739945,"subject_id":"87734","group":"Group2","full_date":"2025-12-05T22:30:16.258Z","date":"2025-12-05","time":"22:30:16"},{"rt":null,"stimulus":"<p style=\"font-size: 50px; margin: 0; text-align: center;\">+</p>","response":null,"trial_type":"html-keyboard-response","trial_index":49,"plugin_version":"2.1.0","time_elapsed":1740959,"subject_id":"87734","group":"Group2","full_date":"2025-12-05T22:30:16.258Z","date":"2025-12-05","time":"22:30:16"},{"task":"memory_phase","broad_category":"I","image_png":"I_Rhyolite_08.png","image_id":152,"category_name":"Rhyolite","category":10,"distinct_rating":1.38,"distinct_type":"Bottom","rt":null,"stimulus":"Stimuli_Rocks480/I_Rhyolite_08.png","response":null,"trial_type":"image-keyboard-response","trial_index":50,"plugin_version":"2.1.0","time_elapsed":1743465,"subject_id":"87734","group":"Group2","full_date":"2025-12-05T22:30:16.258Z","date":"2025-12-05","time":"22:30:16"},{"rt":null,"stimulus":"<p style=\"font-size: 50px; margin: 0; text-align: center;\">+</p>","response":null,"trial_type":"html-keyboard-response","trial_index":51,"plugin_version":"2.1.0","time_elapsed":1744474,"subject_id":"87734","group":"Group2","full_date":"2025-12-05T22:30:16.258Z","date":"2025-12-05","time":"22:30:16"},{"task":"memory_phase","broad_category":"S","image_png":"S_Shale_07.png","image_id":471,"category_name":"Shale","category":30,"distinct_rating":2.73,"distinct_type":"Bottom","rt":null,"stimulus":"Stimuli_Rocks480/S_Shale_07.png","response":null,"trial_type":"image-keyboard-response","trial_index":52,"plugin_version":"2.1.0","time_elapsed":1746989,"subject_id":"87734","group":"Group2","full_date":"2025-12-05T22:30:16.258Z","date":"2025-12-05","time":"22:30:16"},{"rt":null,"stimulus":"<p style=\"font-size: 50px; margin: 0; text-align: center;\">+</p>","response":null,"trial_type":"html-keyboard-response","trial_index":53,"plugin_version":"2.1.0","time_elapsed":1747992,"subject_id":"87734","group":"Group2","full_date":"2025-12-05T22:30:16.258Z","date":"2025-12-05","time":"22:30:16"},{"task":"memory_phase","broad_category":"M","image_png":"M_Gneiss_14.png","image_id":206,"category_name":"Gneiss","category":13,"distinct_rating":3.41,"distinct_type":"Bottom","rt":null,"stimulus":"Stimuli_Rocks480/M_Gneiss_14.png","response":null,"trial_type":"image-keyboard-response","trial_index":54,"plugin_version":"2.1.0","time_elapsed":1750497,"subject_id":"87734","group":"Group2","full_date":"2025-12-05T22:30:16.258Z","date":"2025-12-05","time":"22:30:16"},{"rt":2455,"stimulus":"<p style=\"max-width: 760px; margin: auto; font-size: 35px; line-height: 1.5;\">Press SPACE to continue study phase</p>","response":" ","trial_type":"html-keyboard-response","trial_index":55,"plugin_version":"2.1.0","time_elapsed":1752952,"subject_id":"87734","group":"Group2","full_date":"2025-12-05T22:30:16.258Z","date":"2025-12-05","time":"22:30:16"},{"rt":null,"stimulus":"<p style=\"font-size: 50px; margin: 0; text-align: center;\">+</p>","response":null,"trial_type":"html-keyboard-response","trial_index":56,"plugin_version":"2.1.0","time_elapsed":1753964,"subject_id":"87734","group":"Group2","full_date":"2025-12-05T22:30:16.258Z","date":"2025-12-05","time":"22:30:16"},{"task":"memory_phase","broad_category":"S","image_png":"S_Shale_03.png","image_id":467,"category_name":"Shale","category":30,"distinct_rating":1.95,"distinct_type":"Bottom","rt":null,"stimulus":"Stimuli_Rocks480/S_Shale_03.png","response":null,"trial_type":"image-keyboard-response","trial_index":57,"plugin_version":"2.1.0","time_elapsed":1756473,"subject_id":"87734","group":"Group2","full_date":"2025-12-05T22:30:16.258Z","date":"2025-12-05","time":"22:30:16"},{"rt":null,"stimulus":"<p style=\"font-size: 50px; margin: 0; text-align: center;\">+</p>","response":null,"trial_type":"html-keyboard-response","trial_index":58,"plugin_version":"2.1.0","time_elapsed":1757475,"subject_id":"87734","group":"Group2","full_date":"2025-12-05T22:30:16.258Z","date":"2025-12-05","time":"22:30:16"},{"task":"memory_phase","broad_category":"I","image_png":"I_Pumice_14.png","image_id":142,"category_name":"Pumice","category":9,"distinct_rating":3.22,"distinct_type":"Bottom","rt":null,"stimulus":"Stimuli_Rocks480/I_Pumice_14.png","response":null,"trial_type":"image-keyboard-response","trial_index":59,"plugin_version":"2.1.0","time_elapsed":1759990,"subject_id":"87734","group":"Group2","full_date":"2025-12-05T22:30:16.258Z","date":"2025-12-05","time":"22:30:16"},{"rt":null,"stimulus":"<p style=\"font-size: 50px; margin: 0; text-align: center;\">+</p>","response":null,"trial_type":"html-keyboard-response","trial_index":60,"plugin_version":"2.1.0","time_elapsed":1761000,"subject_id":"87734","group":"Group2","full_date":"2025-12-05T22:30:16.258Z","date":"2025-12-05","time":"22:30:16"},{"task":"memory_phase","broad_category":"M","image_png":"M_Marble_14.png","image_id":238,"category_name":"Marble","category":15,"distinct_rating":3.31,"distinct_type":"Bottom","rt":null,"stimulus":"Stimuli_Rocks480/M_Marble_14.png","response":null,"trial_type":"image-keyboard-response","trial_index":61,"plugin_version":"2.1.0","time_elapsed":1763517,"subject_id":"87734","group":"Group2","full_date":"2025-12-05T22:30:16.258Z","date":"2025-12-05","time":"22:30:16"},{"rt":null,"stimulus":"<p style=\"font-size: 50px; margin: 0; text-align: center;\">+</p>","response":null,"trial_type":"html-keyboard-response","trial_index":62,"plugin_version":"2.1.0","time_elapsed":1764530,"subject_id":"87734","group":"Group2","full_date":"2025-12-05T22:30:16.258Z","date":"2025-12-05","time":"22:30:16"},{"task":"memory_phase","broad_category":"M","image_png":"M_Marble_02.png","image_id":226,"category_name":"Marble","category":15,"distinct_rating":3.2,"distinct_type":"Bottom","rt":null,"stimulus":"Stimuli_Rocks480/M_Marble_02.png","response":null,"trial_type":"image-keyboard-response","trial_index":63,"plugin_version":"2.1.0","time_elapsed":1767037,"subject_id":"87734","group":"Group2","full_date":"2025-12-05T22:30:16.258Z","date":"2025-12-05","time":"22:30:16"},{"rt":null,"stimulus":"<p style=\"font-size: 50px; margin: 0; text-align: center;\">+</p>","response":null,"trial_type":"html-keyboard-response","trial_index":64,"plugin_version":"2.1.0","time_elapsed":1768048,"subject_id":"87734","group":"Group2","full_date":"2025-12-05T22:30:16.258Z","date":"2025-12-05","time":"22:30:16"},{"task":"memory_phase","broad_category":"S","image_png":"S_Sandstone_11.png","image_id":459,"category_name":"Sandstone","category":29,"distinct_rating":1.82,"distinct_type":"Bottom","rt":null,"stimulus":"Stimuli_Rocks480/S_Sandstone_11.png","response":null,"trial_type":"image-keyboard-response","trial_index":65,"plugin_version":"2.1.0","time_elapsed":1770563,"subject_id":"87734","group":"Group2","full_date":"2025-12-05T22:30:16.258Z","date":"2025-12-05","time":"22:30:16"},{"rt":null,"stimulus":"<p style=\"font-size: 50px; margin: 0; text-align: center;\">+</p>","response":null,"trial_type":"html-keyboard-response","trial_index":66,"plugin_version":"2.1.0","time_elapsed":1771564,"subject_id":"87734","group":"Group2","full_date":"2025-12-05T22:30:16.258Z","date":"2025-12-05","time":"22:30:16"},{"task":"memory_phase","broad_category":"I","image_png":"I_Gabbro_02.png","image_id":50,"category_name":"Gabbro","category":4,"distinct_rating":2.73,"distinct_type":"Bottom","rt":null,"stimulus":"Stimuli_Rocks480/I_Gabbro_02.png","response":null,"trial_type":"image-keyboard-response","trial_index":67,"plugin_version":"2.1.0","time_elapsed":1774067,"subject_id":"87734","group":"Group2","full_date":"2025-12-05T22:30:16.258Z","date":"2025-12-05","time":"22:30:16"},{"rt":null,"stimulus":"<p style=\"font-size: 50px; margin: 0; text-align: center;\">+</p>","response":null,"trial_type":"html-keyboard-response","trial_index":68,"plugin_version":"2.1.0","time_elapsed":1775080,"subject_id":"87734","group":"Group2","full_date":"2025-12-05T22:30:16.258Z","date":"2025-12-05","time":"22:30:16"},{"task":"memory_phase","broad_category":"M","image_png":"M_Phyllite_13.png","image_id":269,"category_name":"Phyllite","category":17,"distinct_rating":2.8,"distinct_type":"Bottom","rt":null,"stimulus":"Stimuli_Rocks480/M_Phyllite_13.png","response":null,"trial_type":"image-keyboard-response","trial_index":69,"plugin_version":"2.1.0","time_elapsed":1777595,"subject_id":"87734","group":"Group2","full_date":"2025-12-05T22:30:16.258Z","date":"2025-12-05","time":"22:30:16"},{"rt":null,"stimulus":"<p style=\"font-size: 50px; margin: 0; text-align: center;\">+</p>","response":null,"trial_type":"html-keyboard-response","trial_index":70,"plugin_version":"2.1.0","time_elapsed":1778609,"subject_id":"87734","group":"Group2","full_date":"2025-12-05T22:30:16.258Z","date":"2025-12-05","time":"22:30:16"},{"task":"memory_phase","broad_category":"S","image_png":"S_Shale_02.png","image_id":466,"category_name":"Shale","category":30,"distinct_rating":2.9,"distinct_type":"Bottom","rt":null,"stimulus":"Stimuli_Rocks480/S_Shale_02.png","response":null,"trial_type":"image-keyboard-response","trial_index":71,"plugin_version":"2.1.0","time_elapsed":1781115,"subject_id":"87734","group":"Group2","full_date":"2025-12-05T22:30:16.258Z","date":"2025-12-05","time":"22:30:16"},{"rt":null,"stimulus":"<p style=\"font-size: 50px; margin: 0; text-align: center;\">+</p>","response":null,"trial_type":"html-keyboard-response","trial_index":72,"plugin_version":"2.1.0","time_elapsed":1782121,"subject_id":"87734","group":"Group2","full_date":"2025-12-05T22:30:16.258Z","date":"2025-12-05","time":"22:30:16"},{"task":"memory_phase","broad_category":"M","image_png":"M_Quartzite_07.png","image_id":279,"category_name":"Quartzite","category":18,"distinct_rating":1.97,"distinct_type":"Bottom","rt":null,"stimulus":"Stimuli_Rocks480/M_Quartzite_07.png","response":null,"trial_type":"image-keyboard-response","trial_index":73,"plugin_version":"2.1.0","time_elapsed":1784626,"subject_id":"87734","group":"Group2","full_date":"2025-12-05T22:30:16.258Z","date":"2025-12-05","time":"22:30:16"},{"rt":null,"stimulus":"<p style=\"font-size: 50px; margin: 0; text-align: center;\">+</p>","response":null,"trial_type":"html-keyboard-response","trial_index":74,"plugin_version":"2.1.0","time_elapsed":1785638,"subject_id":"87734","group":"Group2","full_date":"2025-12-05T22:30:16.258Z","date":"2025-12-05","time":"22:30:16"},{"task":"memory_phase","broad_category":"I","image_png":"I_Andesite_04.png","image_id":4,"category_name":"Andesite","category":1,"distinct_rating":3.18,"distinct_type":"Bottom","rt":null,"stimulus":"Stimuli_Rocks480/I_Andesite_04.png","response":null,"trial_type":"image-keyboard-response","trial_index":75,"plugin_version":"2.1.0","time_elapsed":1788144,"subject_id":"87734","group":"Group2","full_date":"2025-12-05T22:30:16.258Z","date":"2025-12-05","time":"22:30:16"},{"rt":null,"stimulus":"<p style=\"font-size: 50px; margin: 0; text-align: center;\">+</p>","response":null,"trial_type":"html-keyboard-response","trial_index":76,"plugin_version":"2.1.0","time_elapsed":1789157,"subject_id":"87734","group":"Group2","full_date":"2025-12-05T22:30:16.258Z","date":"2025-12-05","time":"22:30:16"},{"task":"memory_phase","broad_category":"M","image_png":"M_Quartzite_12.png","image_id":284,"category_name":"Quartzite","category":18,"distinct_rating":1.92,"distinct_type":"Bottom","rt":null,"stimulus":"Stimuli_Rocks480/M_Quartzite_12.png","response":null,"trial_type":"image-keyboard-response","trial_index":77,"plugin_version":"2.1.0","time_elapsed":1791661,"subject_id":"87734","group":"Group2","full_date":"2025-12-05T22:30:16.258Z","date":"2025-12-05","time":"22:30:16"},{"rt":null,"stimulus":"<p style=\"font-size: 50px; margin: 0; text-align: center;\">+</p>","response":null,"trial_type":"html-keyboard-response","trial_index":78,"plugin_version":"2.1.0","time_elapsed":1792669,"subject_id":"87734","group":"Group2","full_date":"2025-12-05T22:30:16.258Z","date":"2025-12-05","time":"22:30:16"},{"task":"memory_phase","broad_category":"I","image_png":"I_Obsidian_06.png","image_id":86,"category_name":"Obsidian","category":6,"distinct_rating":8.01,"distinct_type":"Top","rt":null,"stimulus":"Stimuli_Rocks480/I_Obsidian_06.png","response":null,"trial_type":"image-keyboard-response","trial_index":79,"plugin_version":"2.1.0","time_elapsed":1795172,"subject_id":"87734","group":"Group2","full_date":"2025-12-05T22:30:16.258Z","date":"2025-12-05","time":"22:30:16"},{"rt":null,"stimulus":"<p style=\"font-size: 50px; margin: 0; text-align: center;\">+</p>","response":null,"trial_type":"html-keyboard-response","trial_index":80,"plugin_version":"2.1.0","time_elapsed":1796186,"subject_id":"87734","group":"Group2","full_date":"2025-12-05T22:30:16.258Z","date":"2025-12-05","time":"22:30:16"},{"task":"memory_phase","broad_category":"I","image_png":"I_Gabbro_12.png","image_id":60,"category_name":"Gabbro","category":4,"distinct_rating":2.6,"distinct_type":"Bottom","rt":null,"stimulus":"Stimuli_Rocks480/I_Gabbro_12.png","response":null,"trial_type":"image-keyboard-response","trial_index":81,"plugin_version":"2.1.0","time_elapsed":1798698,"subject_id":"87734","group":"Group2","full_date":"2025-12-05T22:30:16.258Z","date":"2025-12-05","time":"22:30:16"},{"rt":null,"stimulus":"<p style=\"font-size: 50px; margin: 0; text-align: center;\">+</p>","response":null,"trial_type":"html-keyboard-response","trial_index":82,"plugin_version":"2.1.0","time_elapsed":1799700,"subject_id":"87734","group":"Group2","full_date":"2025-12-05T22:30:16.258Z","date":"2025-12-05","time":"22:30:16"},{"task":"memory_phase","broad_category":"M","image_png":"M_Slate_14.png","image_id":318,"category_name":"Slate","category":20,"distinct_rating":2.58,"distinct_type":"Bottom","rt":null,"stimulus":"Stimuli_Rocks480/M_Slate_14.png","response":null,"trial_type":"image-keyboard-response","trial_index":83,"plugin_version":"2.1.0","time_elapsed":1802212,"subject_id":"87734","group":"Group2","full_date":"2025-12-05T22:30:16.258Z","date":"2025-12-05","time":"22:30:16"},{"rt":null,"stimulus":"<p style=\"font-size: 50px; margin: 0; text-align: center;\">+</p>","response":null,"trial_type":"html-keyboard-response","trial_index":84,"plugin_version":"2.1.0","time_elapsed":1803218,"subject_id":"87734","group":"Group2","full_date":"2025-12-05T22:30:16.258Z","date":"2025-12-05","time":"22:30:16"},{"task":"memory_phase","broad_category":"I","image_png":"I_Diorite_10.png","image_id":42,"category_name":"Diorite","category":3,"distinct_rating":2.84,"distinct_type":"Bottom","rt":null,"stimulus":"Stimuli_Rocks480/I_Diorite_10.png","response":null,"trial_type":"image-keyboard-response","trial_index":85,"plugin_version":"2.1.0","time_elapsed":1805720,"subject_id":"87734","group":"Group2","full_date":"2025-12-05T22:30:16.258Z","date":"2025-12-05","time":"22:30:16"},{"rt":null,"stimulus":"<p style=\"font-size: 50px; margin: 0; text-align: center;\">+</p>","response":null,"trial_type":"html-keyboard-response","trial_index":86,"plugin_version":"2.1.0","time_elapsed":1806732,"subject_id":"87734","group":"Group2","full_date":"2025-12-05T22:30:16.258Z","date":"2025-12-05","time":"22:30:16"},{"task":"memory_phase","broad_category":"S","image_png":"S_Conglomerate_14.png","image_id":382,"category_name":"Conglomerate","category":24,"distinct_rating":6.86,"distinct_type":"Top","rt":null,"stimulus":"Stimuli_Rocks480/S_Conglomerate_14.png","response":null,"trial_type":"image-keyboard-response","trial_index":87,"plugin_version":"2.1.0","time_elapsed":1809234,"subject_id":"87734","group":"Group2","full_date":"2025-12-05T22:30:16.258Z","date":"2025-12-05","time":"22:30:16"},{"rt":null,"stimulus":"<p style=\"font-size: 50px; margin: 0; text-align: center;\">+</p>","response":null,"trial_type":"html-keyboard-response","trial_index":88,"plugin_version":"2.1.0","time_elapsed":1810245,"subject_id":"87734","group":"Group2","full_date":"2025-12-05T22:30:16.258Z","date":"2025-12-05","time":"22:30:16"},{"task":"memory_phase","broad_category":"S","image_png":"S_Rock Salt_15.png","image_id":447,"category_name":"Rock Salt","category":28,"distinct_rating":7.79,"distinct_type":"Top","rt":null,"stimulus":"Stimuli_Rocks480/S_Rock Salt_15.png","response":null,"trial_type":"image-keyboard-response","trial_index":89,"plugin_version":"2.1.0","time_elapsed":1812749,"subject_id":"87734","group":"Group2","full_date":"2025-12-05T22:30:16.258Z","date":"2025-12-05","time":"22:30:16"},{"rt":null,"stimulus":"<p style=\"font-size: 50px; margin: 0; text-align: center;\">+</p>","response":null,"trial_type":"html-keyboard-response","trial_index":90,"plugin_version":"2.1.0","time_elapsed":1813759,"subject_id":"87734","group":"Group2","full_date":"2025-12-05T22:30:16.258Z","date":"2025-12-05","time":"22:30:16"},{"task":"memory_phase","broad_category":"I","image_png":"I_Diorite_15.png","image_id":47,"category_name":"Diorite","category":3,"distinct_rating":3.05,"distinct_type":"Bottom","rt":null,"stimulus":"Stimuli_Rocks480/I_Diorite_15.png","response":null,"trial_type":"image-keyboard-response","trial_index":91,"plugin_version":"2.1.0","time_elapsed":1816272,"subject_id":"87734","group":"Group2","full_date":"2025-12-05T22:30:16.258Z","date":"2025-12-05","time":"22:30:16"},{"rt":null,"stimulus":"<p style=\"font-size: 50px; margin: 0; text-align: center;\">+</p>","response":null,"trial_type":"html-keyboard-response","trial_index":92,"plugin_version":"2.1.0","time_elapsed":1817280,"subject_id":"87734","group":"Group2","full_date":"2025-12-05T22:30:16.258Z","date":"2025-12-05","time":"22:30:16"},{"task":"memory_phase","broad_category":"M","image_png":"M_Marble_03.png","image_id":227,"category_name":"Marble","category":15,"distinct_rating":2.67,"distinct_type":"Bottom","rt":null,"stimulus":"Stimuli_Rocks480/M_Marble_03.png","response":null,"trial_type":"image-keyboard-response","trial_index":93,"plugin_version":"2.1.0","time_elapsed":1819796,"subject_id":"87734","group":"Group2","full_date":"2025-12-05T22:30:16.258Z","date":"2025-12-05","time":"22:30:16"},{"rt":null,"stimulus":"<p style=\"font-size: 50px; margin: 0; text-align: center;\">+</p>","response":null,"trial_type":"html-keyboard-response","trial_index":94,"plugin_version":"2.1.0","time_elapsed":1820805,"subject_id":"87734","group":"Group2","full_date":"2025-12-05T22:30:16.258Z","date":"2025-12-05","time":"22:30:16"},{"task":"memory_phase","broad_category":"M","image_png":"M_Slate_04.png","image_id":308,"category_name":"Slate","category":20,"distinct_rating":2.2,"distinct_type":"Bottom","rt":null,"stimulus":"Stimuli_Rocks480/M_Slate_04.png","response":null,"trial_type":"image-keyboard-response","trial_index":95,"plugin_version":"2.1.0","time_elapsed":1823320,"subject_id":"87734","group":"Group2","full_date":"2025-12-05T22:30:16.258Z","date":"2025-12-05","time":"22:30:16"},{"rt":null,"stimulus":"<p style=\"font-size: 50px; margin: 0; text-align: center;\">+</p>","response":null,"trial_type":"html-keyboard-response","trial_index":96,"plugin_version":"2.1.0","time_elapsed":1824330,"subject_id":"87734","group":"Group2","full_date":"2025-12-05T22:30:16.258Z","date":"2025-12-05","time":"22:30:16"},{"task":"memory_phase","broad_category":"I","image_png":"I_Pumice_13.png","image_id":141,"category_name":"Pumice","category":9,"distinct_rating":3.12,"distinct_type":"Bottom","rt":null,"stimulus":"Stimuli_Rocks480/I_Pumice_13.png","response":null,"trial_type":"image-keyboard-response","trial_index":97,"plugin_version":"2.1.0","time_elapsed":1826845,"subject_id":"87734","group":"Group2","full_date":"2025-12-05T22:30:16.258Z","date":"2025-12-05","time":"22:30:16"},{"rt":null,"stimulus":"<p style=\"font-size: 50px; margin: 0; text-align: center;\">+</p>","response":null,"trial_type":"html-keyboard-response","trial_index":98,"plugin_version":"2.1.0","time_elapsed":1827853,"subject_id":"87734","group":"Group2","full_date":"2025-12-05T22:30:16.258Z","date":"2025-12-05","time":"22:30:16"},{"task":"memory_phase","broad_category":"I","image_png":"I_Diorite_01.png","image_id":33,"category_name":"Diorite","category":3,"distinct_rating":2.97,"distinct_type":"Bottom","rt":null,"stimulus":"Stimuli_Rocks480/I_Diorite_01.png","response":null,"trial_type":"image-keyboard-response","trial_index":99,"plugin_version":"2.1.0","time_elapsed":1830361,"subject_id":"87734","group":"Group2","full_date":"2025-12-05T22:30:16.258Z","date":"2025-12-05","time":"22:30:16"},{"rt":null,"stimulus":"<p style=\"font-size: 50px; margin: 0; text-align: center;\">+</p>","response":null,"trial_type":"html-keyboard-response","trial_index":100,"plugin_version":"2.1.0","time_elapsed":1831369,"subject_id":"87734","group":"Group2","full_date":"2025-12-05T22:30:16.258Z","date":"2025-12-05","time":"22:30:16"},{"task":"memory_phase","broad_category":"M","image_png":"M_Slate_10.png","image_id":314,"category_name":"Slate","category":20,"distinct_rating":1.94,"distinct_type":"Bottom","rt":null,"stimulus":"Stimuli_Rocks480/M_Slate_10.png","response":null,"trial_type":"image-keyboard-response","trial_index":101,"plugin_version":"2.1.0","time_elapsed":1833878,"subject_id":"87734","group":"Group2","full_date":"2025-12-05T22:30:16.258Z","date":"2025-12-05","time":"22:30:16"},{"rt":null,"stimulus":"<p style=\"font-size: 50px; margin: 0; text-align: center;\">+</p>","response":null,"trial_type":"html-keyboard-response","trial_index":102,"plugin_version":"2.1.0","time_elapsed":1834880,"subject_id":"87734","group":"Group2","full_date":"2025-12-05T22:30:16.258Z","date":"2025-12-05","time":"22:30:16"},{"task":"memory_phase","broad_category":"I","image_png":"I_Pumice_01.png","image_id":129,"category_name":"Pumice","category":9,"distinct_rating":3.25,"distinct_type":"Bottom","rt":null,"stimulus":"Stimuli_Rocks480/I_Pumice_01.png","response":null,"trial_type":"image-keyboard-response","trial_index":103,"plugin_version":"2.1.0","time_elapsed":1837384,"subject_id":"87734","group":"Group2","full_date":"2025-12-05T22:30:16.258Z","date":"2025-12-05","time":"22:30:16"},{"rt":null,"stimulus":"<p style=\"font-size: 50px; margin: 0; text-align: center;\">+</p>","response":null,"trial_type":"html-keyboard-response","trial_index":104,"plugin_version":"2.1.0","time_elapsed":1838392,"subject_id":"87734","group":"Group2","full_date":"2025-12-05T22:30:16.258Z","date":"2025-12-05","time":"22:30:16"},{"task":"memory_phase","broad_category":"S","image_png":"S_Chert_13.png","image_id":365,"category_name":"Chert","category":23,"distinct_rating":6.57,"distinct_type":"Top","rt":null,"stimulus":"Stimuli_Rocks480/S_Chert_13.png","response":null,"trial_type":"image-keyboard-response","trial_index":105,"plugin_version":"2.1.0","time_elapsed":1840898,"subject_id":"87734","group":"Group2","full_date":"2025-12-05T22:30:16.258Z","date":"2025-12-05","time":"22:30:16"},{"rt":1541545,"stimulus":"<p style=\"max-width: 760px; margin: auto; font-size: 35px; line-height: 1.5;\">You have completed 1 study phase. Now, we'll show you all the images again 2 more times.<br><br>Press SPACE to continue</p>","response":" ","trial_type":"html-keyboard-response","trial_index":106,"plugin_version":"2.1.0","time_elapsed":3382443,"subject_id":"87734","group":"Group2","full_date":"2025-12-05T22:30:16.258Z","date":"2025-12-05","time":"22:30:16"},{"rt":null,"stimulus":"<p style=\"font-size: 50px; margin: 0; text-align: center;\">+</p>","response":null,"trial_type":"html-keyboard-response","trial_index":107,"plugin_version":"2.1.0","time_elapsed":3383457,"subject_id":"87734","group":"Group2","full_date":"2025-12-05T22:30:16.258Z","date":"2025-12-05","time":"22:30:16"},{"task":"memory_phase","broad_category":"I","image_png":"I_Basalt_13.png","image_id":29,"category_name":"Basalt","category":2,"distinct_rating":2.68,"distinct_type":"Bottom","rt":null,"stimulus":"Stimuli_Rocks480/I_Basalt_13.png","response":null,"trial_type":"image-keyboard-response","trial_index":108,"plugin_version":"2.1.0","time_elapsed":3385966,"subject_id":"87734","group":"Group2","full_date":"2025-12-05T22:30:16.258Z","date":"2025-12-05","time":"22:30:16"},{"rt":null,"stimulus":"<p style=\"font-size: 50px; margin: 0; text-align: center;\">+</p>","response":null,"trial_type":"html-keyboard-response","trial_index":109,"plugin_version":"2.1.0","time_elapsed":3386968,"subject_id":"87734","group":"Group2","full_date":"2025-12-05T22:30:16.258Z","date":"2025-12-05","time":"22:30:16"},{"task":"memory_phase","broad_category":"M","image_png":"M_Marble_03.png","image_id":227,"category_name":"Marble","category":15,"distinct_rating":2.67,"distinct_type":"Bottom","rt":null,"stimulus":"Stimuli_Rocks480/M_Marble_03.png","response":null,"trial_type":"image-keyboard-response","trial_index":110,"plugin_version":"2.1.0","time_elapsed":3389483,"subject_id":"87734","group":"Group2","full_date":"2025-12-05T22:30:16.258Z","date":"2025-12-05","time":"22:30:16"},{"rt":null,"stimulus":"<p style=\"font-size: 50px; margin: 0; text-align: center;\">+</p>","response":null,"trial_type":"html-keyboard-response","trial_index":111,"plugin_version":"2.1.0","time_elapsed":3390492,"subject_id":"87734","group":"Group2","full_date":"2025-12-05T22:30:16.258Z","date":"2025-12-05","time":"22:30:16"},{"task":"memory_phase","broad_category":"I","image_png":"I_Diorite_01.png","image_id":33,"category_name":"Diorite","category":3,"distinct_rating":2.97,"distinct_type":"Bottom","rt":null,"stimulus":"Stimuli_Rocks480/I_Diorite_01.png","response":null,"trial_type":"image-keyboard-response","trial_index":112,"plugin_version":"2.1.0","time_elapsed":3392999,"subject_id":"87734","group":"Group2","full_date":"2025-12-05T22:30:16.258Z","date":"2025-12-05","time":"22:30:16"},{"rt":null,"stimulus":"<p style=\"font-size: 50px; margin: 0; text-align: center;\">+</p>","response":null,"trial_type":"html-keyboard-response","trial_index":113,"plugin_version":"2.1.0","time_elapsed":3394012,"subject_id":"87734","group":"Group2","full_date":"2025-12-05T22:30:16.258Z","date":"2025-12-05","time":"22:30:16"},{"task":"memory_phase","broad_category":"S","image_png":"S_Dolomite_07.png","image_id":391,"category_name":"Dolomite","category":25,"distinct_rating":1.73,"distinct_type":"Bottom","rt":null,"stimulus":"Stimuli_Rocks480/S_Dolomite_07.png","response":null,"trial_type":"image-keyboard-response","trial_index":114,"plugin_version":"2.1.0","time_elapsed":3396527,"subject_id":"87734","group":"Group2","full_date":"2025-12-05T22:30:16.258Z","date":"2025-12-05","time":"22:30:16"},{"rt":null,"stimulus":"<p style=\"font-size: 50px; margin: 0; text-align: center;\">+</p>","response":null,"trial_type":"html-keyboard-response","trial_index":115,"plugin_version":"2.1.0","time_elapsed":3397535,"subject_id":"87734","group":"Group2","full_date":"2025-12-05T22:30:16.258Z","date":"2025-12-05","time":"22:30:16"},{"task":"memory_phase","broad_category":"S","image_png":"S_Sandstone_04.png","image_id":452,"category_name":"Sandstone","category":29,"distinct_rating":1.8,"distinct_type":"Bottom","rt":null,"stimulus":"Stimuli_Rocks480/S_Sandstone_04.png","response":null,"trial_type":"image-keyboard-response","trial_index":116,"plugin_version":"2.1.0","time_elapsed":3400036,"subject_id":"87734","group":"Group2","full_date":"2025-12-05T22:30:16.258Z","date":"2025-12-05","time":"22:30:16"},{"rt":null,"stimulus":"<p style=\"font-size: 50px; margin: 0; text-align: center;\">+</p>","response":null,"trial_type":"html-keyboard-response","trial_index":117,"plugin_version":"2.1.0","time_elapsed":3401043,"subject_id":"87734","group":"Group2","full_date":"2025-12-05T22:30:16.258Z","date":"2025-12-05","time":"22:30:16"},{"task":"memory_phase","broad_category":"I","image_png":"I_Basalt_08.png","image_id":24,"category_name":"Basalt","category":2,"distinct_rating":2.31,"distinct_type":"Bottom","rt":null,"stimulus":"Stimuli_Rocks480/I_Basalt_08.png","response":null,"trial_type":"image-keyboard-response","trial_index":118,"plugin_version":"2.1.0","time_elapsed":3403545,"subject_id":"87734","group":"Group2","full_date":"2025-12-05T22:30:16.258Z","date":"2025-12-05","time":"22:30:16"},{"rt":null,"stimulus":"<p style=\"font-size: 50px; margin: 0; text-align: center;\">+</p>","response":null,"trial_type":"html-keyboard-response","trial_index":119,"plugin_version":"2.1.0","time_elapsed":3404565,"subject_id":"87734","group":"Group2","full_date":"2025-12-05T22:30:16.258Z","date":"2025-12-05","time":"22:30:16"},{"task":"memory_phase","broad_category":"I","image_png":"I_Andesite_03.png","image_id":3,"category_name":"Andesite","category":1,"distinct_rating":3.17,"distinct_type":"Bottom","rt":null,"stimulus":"Stimuli_Rocks480/I_Andesite_03.png","response":null,"trial_type":"image-keyboard-response","trial_index":120,"plugin_version":"2.1.0","time_elapsed":3407075,"subject_id":"87734","group":"Group2","full_date":"2025-12-05T22:30:16.258Z","date":"2025-12-05","time":"22:30:16"},{"rt":null,"stimulus":"<p style=\"font-size: 50px; margin: 0; text-align: center;\">+</p>","response":null,"trial_type":"html-keyboard-response","trial_index":121,"plugin_version":"2.1.0","time_elapsed":3408092,"subject_id":"87734","group":"Group2","full_date":"2025-12-05T22:30:16.258Z","date":"2025-12-05","time":"22:30:16"},{"task":"memory_phase","broad_category":"S","image_png":"S_Dolomite_16.png","image_id":400,"category_name":"Dolomite","category":25,"distinct_rating":1.71,"distinct_type":"Bottom","rt":null,"stimulus":"Stimuli_Rocks480/S_Dolomite_16.png","response":null,"trial_type":"image-keyboard-response","trial_index":122,"plugin_version":"2.1.0","time_elapsed":3410595,"subject_id":"87734","group":"Group2","full_date":"2025-12-05T22:30:16.258Z","date":"2025-12-05","time":"22:30:16"},{"rt":null,"stimulus":"<p style=\"font-size: 50px; margin: 0; text-align: center;\">+</p>","response":null,"trial_type":"html-keyboard-response","trial_index":123,"plugin_version":"2.1.0","time_elapsed":3411608,"subject_id":"87734","group":"Group2","full_date":"2025-12-05T22:30:16.258Z","date":"2025-12-05","time":"22:30:16"},{"task":"memory_phase","broad_category":"I","image_png":"I_Pegmatite_11.png","image_id":107,"category_name":"Pegmatite","category":7,"distinct_rating":7.11,"distinct_type":"Top","rt":null,"stimulus":"Stimuli_Rocks480/I_Pegmatite_11.png","response":null,"trial_type":"image-keyboard-response","trial_index":124,"plugin_version":"2.1.0","time_elapsed":3414125,"subject_id":"87734","group":"Group2","full_date":"2025-12-05T22:30:16.258Z","date":"2025-12-05","time":"22:30:16"},{"rt":null,"stimulus":"<p style=\"font-size: 50px; margin: 0; text-align: center;\">+</p>","response":null,"trial_type":"html-keyboard-response","trial_index":125,"plugin_version":"2.1.0","time_elapsed":3415134,"subject_id":"87734","group":"Group2","full_date":"2025-12-05T22:30:16.258Z","date":"2025-12-05","time":"22:30:16"},{"task":"memory_phase","broad_category":"M","image_png":"M_Quartzite_15.png","image_id":287,"category_name":"Quartzite","category":18,"distinct_rating":2.19,"distinct_type":"Bottom","rt":null,"stimulus":"Stimuli_Rocks480/M_Quartzite_15.png","response":null,"trial_type":"image-keyboard-response","trial_index":126,"plugin_version":"2.1.0","time_elapsed":3417640,"subject_id":"87734","group":"Group2","full_date":"2025-12-05T22:30:16.258Z","date":"2025-12-05","time":"22:30:16"},{"rt":null,"stimulus":"<p style=\"font-size: 50px; margin: 0; text-align: center;\">+</p>","response":null,"trial_type":"html-keyboard-response","trial_index":127,"plugin_version":"2.1.0","time_elapsed":3418652,"subject_id":"87734","group":"Group2","full_date":"2025-12-05T22:30:16.258Z","date":"2025-12-05","time":"22:30:16"},{"task":"memory_phase","broad_category":"I","image_png":"I_Peridotite_13.png","image_id":125,"category_name":"Peridotite","category":8,"distinct_rating":7.28,"distinct_type":"Top","rt":null,"stimulus":"Stimuli_Rocks480/I_Peridotite_13.png","response":null,"trial_type":"image-keyboard-response","trial_index":128,"plugin_version":"2.1.0","time_elapsed":3421161,"subject_id":"87734","group":"Group2","full_date":"2025-12-05T22:30:16.258Z","date":"2025-12-05","time":"22:30:16"},{"rt":null,"stimulus":"<p style=\"font-size: 50px; margin: 0; text-align: center;\">+</p>","response":null,"trial_type":"html-keyboard-response","trial_index":129,"plugin_version":"2.1.0","time_elapsed":3422170,"subject_id":"87734","group":"Group2","full_date":"2025-12-05T22:30:16.258Z","date":"2025-12-05","time":"22:30:16"},{"task":"memory_phase","broad_category":"S","image_png":"S_Rock Salt_15.png","image_id":447,"category_name":"Rock Salt","category":28,"distinct_rating":7.79,"distinct_type":"Top","rt":null,"stimulus":"Stimuli_Rocks480/S_Rock Salt_15.png","response":null,"trial_type":"image-keyboard-response","trial_index":130,"plugin_version":"2.1.0","time_elapsed":3424672,"subject_id":"87734","group":"Group2","full_date":"2025-12-05T22:30:16.258Z","date":"2025-12-05","time":"22:30:16"},{"rt":null,"stimulus":"<p style=\"font-size: 50px; margin: 0; text-align: center;\">+</p>","response":null,"trial_type":"html-keyboard-response","trial_index":131,"plugin_version":"2.1.0","time_elapsed":3425687,"subject_id":"87734","group":"Group2","full_date":"2025-12-05T22:30:16.258Z","date":"2025-12-05","time":"22:30:16"},{"task":"memory_phase","broad_category":"M","image_png":"M_Gneiss_15.png","image_id":207,"category_name":"Gneiss","category":13,"distinct_rating":3.11,"distinct_type":"Bottom","rt":null,"stimulus":"Stimuli_Rocks480/M_Gneiss_15.png","response":null,"trial_type":"image-keyboard-response","trial_index":132,"plugin_version":"2.1.0","time_elapsed":3428196,"subject_id":"87734","group":"Group2","full_date":"2025-12-05T22:30:16.258Z","date":"2025-12-05","time":"22:30:16"},{"rt":null,"stimulus":"<p style=\"font-size: 50px; margin: 0; text-align: center;\">+</p>","response":null,"trial_type":"html-keyboard-response","trial_index":133,"plugin_version":"2.1.0","time_elapsed":3429203,"subject_id":"87734","group":"Group2","full_date":"2025-12-05T22:30:16.258Z","date":"2025-12-05","time":"22:30:16"},{"task":"memory_phase","broad_category":"S","image_png":"S_Chert_13.png","image_id":365,"category_name":"Chert","category":23,"distinct_rating":6.57,"distinct_type":"Top","rt":null,"stimulus":"Stimuli_Rocks480/S_Chert_13.png","response":null,"trial_type":"image-keyboard-response","trial_index":134,"plugin_version":"2.1.0","time_elapsed":3431718,"subject_id":"87734","group":"Group2","full_date":"2025-12-05T22:30:16.258Z","date":"2025-12-05","time":"22:30:16"},{"rt":null,"stimulus":"<p style=\"font-size: 50px; margin: 0; text-align: center;\">+</p>","response":null,"trial_type":"html-keyboard-response","trial_index":135,"plugin_version":"2.1.0","time_elapsed":3432729,"subject_id":"87734","group":"Group2","full_date":"2025-12-05T22:30:16.258Z","date":"2025-12-05","time":"22:30:16"},{"task":"memory_phase","broad_category":"I","image_png":"I_Pegmatite_03.png","image_id":99,"category_name":"Pegmatite","category":7,"distinct_rating":7.24,"distinct_type":"Top","rt":null,"stimulus":"Stimuli_Rocks480/I_Pegmatite_03.png","response":null,"trial_type":"image-keyboard-response","trial_index":136,"plugin_version":"2.1.0","time_elapsed":3435231,"subject_id":"87734","group":"Group2","full_date":"2025-12-05T22:30:16.258Z","date":"2025-12-05","time":"22:30:16"},{"rt":null,"stimulus":"<p style=\"font-size: 50px; margin: 0; text-align: center;\">+</p>","response":null,"trial_type":"html-keyboard-response","trial_index":137,"plugin_version":"2.1.0","time_elapsed":3436243,"subject_id":"87734","group":"Group2","full_date":"2025-12-05T22:30:16.258Z","date":"2025-12-05","time":"22:30:16"},{"task":"memory_phase","broad_category":"I","image_png":"I_Basalt_10.png","image_id":26,"category_name":"Basalt","category":2,"distinct_rating":2.76,"distinct_type":"Bottom","rt":null,"stimulus":"Stimuli_Rocks480/I_Basalt_10.png","response":null,"trial_type":"image-keyboard-response","trial_index":138,"plugin_version":"2.1.0","time_elapsed":3438746,"subject_id":"87734","group":"Group2","full_date":"2025-12-05T22:30:16.258Z","date":"2025-12-05","time":"22:30:16"},{"rt":null,"stimulus":"<p style=\"font-size: 50px; margin: 0; text-align: center;\">+</p>","response":null,"trial_type":"html-keyboard-response","trial_index":139,"plugin_version":"2.1.0","time_elapsed":3439757,"subject_id":"87734","group":"Group2","full_date":"2025-12-05T22:30:16.258Z","date":"2025-12-05","time":"22:30:16"},{"task":"memory_phase","broad_category":"I","image_png":"I_Rhyolite_08.png","image_id":152,"category_name":"Rhyolite","category":10,"distinct_rating":1.38,"distinct_type":"Bottom","rt":null,"stimulus":"Stimuli_Rocks480/I_Rhyolite_08.png","response":null,"trial_type":"image-keyboard-response","trial_index":140,"plugin_version":"2.1.0","time_elapsed":3442273,"subject_id":"87734","group":"Group2","full_date":"2025-12-05T22:30:16.258Z","date":"2025-12-05","time":"22:30:16"},{"rt":null,"stimulus":"<p style=\"font-size: 50px; margin: 0; text-align: center;\">+</p>","response":null,"trial_type":"html-keyboard-response","trial_index":141,"plugin_version":"2.1.0","time_elapsed":3443285,"subject_id":"87734","group":"Group2","full_date":"2025-12-05T22:30:16.258Z","date":"2025-12-05","time":"22:30:16"},{"task":"memory_phase","broad_category":"M","image_png":"M_Marble_14.png","image_id":238,"category_name":"Marble","category":15,"distinct_rating":3.31,"distinct_type":"Bottom","rt":null,"stimulus":"Stimuli_Rocks480/M_Marble_14.png","response":null,"trial_type":"image-keyboard-response","trial_index":142,"plugin_version":"2.1.0","time_elapsed":3445794,"subject_id":"87734","group":"Group2","full_date":"2025-12-05T22:30:16.258Z","date":"2025-12-05","time":"22:30:16"},{"rt":null,"stimulus":"<p style=\"font-size: 50px; margin: 0; text-align: center;\">+</p>","response":null,"trial_type":"html-keyboard-response","trial_index":143,"plugin_version":"2.1.0","time_elapsed":3446801,"subject_id":"87734","group":"Group2","full_date":"2025-12-05T22:30:16.258Z","date":"2025-12-05","time":"22:30:16"},{"task":"memory_phase","broad_category":"M","image_png":"M_Slate_14.png","image_id":318,"category_name":"Slate","category":20,"distinct_rating":2.58,"distinct_type":"Bottom","rt":null,"stimulus":"Stimuli_Rocks480/M_Slate_14.png","response":null,"trial_type":"image-keyboard-response","trial_index":144,"plugin_version":"2.1.0","time_elapsed":3449312,"subject_id":"87734","group":"Group2","full_date":"2025-12-05T22:30:16.258Z","date":"2025-12-05","time":"22:30:16"},{"rt":null,"stimulus":"<p style=\"font-size: 50px; margin: 0; text-align: center;\">+</p>","response":null,"trial_type":"html-keyboard-response","trial_index":145,"plugin_version":"2.1.0","time_elapsed":3450322,"subject_id":"87734","group":"Group2","full_date":"2025-12-05T22:30:16.258Z","date":"2025-12-05","time":"22:30:16"},{"task":"memory_phase","broad_category":"I","image_png":"I_Pumice_01.png","image_id":129,"category_name":"Pumice","category":9,"distinct_rating":3.25,"distinct_type":"Bottom","rt":null,"stimulus":"Stimuli_Rocks480/I_Pumice_01.png","response":null,"trial_type":"image-keyboard-response","trial_index":146,"plugin_version":"2.1.0","time_elapsed":3452834,"subject_id":"87734","group":"Group2","full_date":"2025-12-05T22:30:16.258Z","date":"2025-12-05","time":"22:30:16"},{"rt":null,"stimulus":"<p style=\"font-size: 50px; margin: 0; text-align: center;\">+</p>","response":null,"trial_type":"html-keyboard-response","trial_index":147,"plugin_version":"2.1.0","time_elapsed":3453850,"subject_id":"87734","group":"Group2","full_date":"2025-12-05T22:30:16.258Z","date":"2025-12-05","time":"22:30:16"},{"task":"memory_phase","broad_category":"I","image_png":"I_Diorite_10.png","image_id":42,"category_name":"Diorite","category":3,"distinct_rating":2.84,"distinct_type":"Bottom","rt":null,"stimulus":"Stimuli_Rocks480/I_Diorite_10.png","response":null,"trial_type":"image-keyboard-response","trial_index":148,"plugin_version":"2.1.0","time_elapsed":3456367,"subject_id":"87734","group":"Group2","full_date":"2025-12-05T22:30:16.258Z","date":"2025-12-05","time":"22:30:16"},{"rt":null,"stimulus":"<p style=\"font-size: 50px; margin: 0; text-align: center;\">+</p>","response":null,"trial_type":"html-keyboard-response","trial_index":149,"plugin_version":"2.1.0","time_elapsed":3457382,"subject_id":"87734","group":"Group2","full_date":"2025-12-05T22:30:16.258Z","date":"2025-12-05","time":"22:30:16"},{"task":"memory_phase","broad_category":"I","image_png":"I_Gabbro_14.png","image_id":62,"category_name":"Gabbro","category":4,"distinct_rating":2.95,"distinct_type":"Bottom","rt":null,"stimulus":"Stimuli_Rocks480/I_Gabbro_14.png","response":null,"trial_type":"image-keyboard-response","trial_index":150,"plugin_version":"2.1.0","time_elapsed":3459896,"subject_id":"87734","group":"Group2","full_date":"2025-12-05T22:30:16.258Z","date":"2025-12-05","time":"22:30:16"},{"rt":null,"stimulus":"<p style=\"font-size: 50px; margin: 0; text-align: center;\">+</p>","response":null,"trial_type":"html-keyboard-response","trial_index":151,"plugin_version":"2.1.0","time_elapsed":3460906,"subject_id":"87734","group":"Group2","full_date":"2025-12-05T22:30:16.258Z","date":"2025-12-05","time":"22:30:16"},{"task":"memory_phase","broad_category":"I","image_png":"I_Gabbro_02.png","image_id":50,"category_name":"Gabbro","category":4,"distinct_rating":2.73,"distinct_type":"Bottom","rt":null,"stimulus":"Stimuli_Rocks480/I_Gabbro_02.png","response":null,"trial_type":"image-keyboard-response","trial_index":152,"plugin_version":"2.1.0","time_elapsed":3463418,"subject_id":"87734","group":"Group2","full_date":"2025-12-05T22:30:16.258Z","date":"2025-12-05","time":"22:30:16"},{"rt":null,"stimulus":"<p style=\"font-size: 50px; margin: 0; text-align: center;\">+</p>","response":null,"trial_type":"html-keyboard-response","trial_index":153,"plugin_version":"2.1.0","time_elapsed":3464423,"subject_id":"87734","group":"Group2","full_date":"2025-12-05T22:30:16.258Z","date":"2025-12-05","time":"22:30:16"},{"task":"memory_phase","broad_category":"M","image_png":"M_Slate_10.png","image_id":314,"category_name":"Slate","category":20,"distinct_rating":1.94,"distinct_type":"Bottom","rt":null,"stimulus":"Stimuli_Rocks480/M_Slate_10.png","response":null,"trial_type":"image-keyboard-response","trial_index":154,"plugin_version":"2.1.0","time_elapsed":3466928,"subject_id":"87734","group":"Group2","full_date":"2025-12-05T22:30:16.258Z","date":"2025-12-05","time":"22:30:16"},{"rt":null,"stimulus":"<p style=\"font-size: 50px; margin: 0; text-align: center;\">+</p>","response":null,"trial_type":"html-keyboard-response","trial_index":155,"plugin_version":"2.1.0","time_elapsed":3467936,"subject_id":"87734","group":"Group2","full_date":"2025-12-05T22:30:16.258Z","date":"2025-12-05","time":"22:30:16"},{"task":"memory_phase","broad_category":"S","image_png":"S_Dolomite_01.png","image_id":385,"category_name":"Dolomite","category":25,"distinct_rating":1.43,"distinct_type":"Bottom","rt":null,"stimulus":"Stimuli_Rocks480/S_Dolomite_01.png","response":null,"trial_type":"image-keyboard-response","trial_index":156,"plugin_version":"2.1.0","time_elapsed":3470444,"subject_id":"87734","group":"Group2","full_date":"2025-12-05T22:30:16.258Z","date":"2025-12-05","time":"22:30:16"},{"rt":37778,"stimulus":"<p style=\"max-width: 760px; margin: auto; font-size: 35px; line-height: 1.5;\">Press SPACE to continue study phase</p>","response":" ","trial_type":"html-keyboard-response","trial_index":157,"plugin_version":"2.1.0","time_elapsed":3508223,"subject_id":"87734","group":"Group2","full_date":"2025-12-05T22:30:16.258Z","date":"2025-12-05","time":"22:30:16"},{"rt":null,"stimulus":"<p style=\"font-size: 50px; margin: 0; text-align: center;\">+</p>","response":null,"trial_type":"html-keyboard-response","trial_index":158,"plugin_version":"2.1.0","time_elapsed":3509237,"subject_id":"87734","group":"Group2","full_date":"2025-12-05T22:30:16.258Z","date":"2025-12-05","time":"22:30:16"},{"task":"memory_phase","broad_category":"I","image_png":"I_Obsidian_06.png","image_id":86,"category_name":"Obsidian","category":6,"distinct_rating":8.01,"distinct_type":"Top","rt":null,"stimulus":"Stimuli_Rocks480/I_Obsidian_06.png","response":null,"trial_type":"image-keyboard-response","trial_index":159,"plugin_version":"2.1.0","time_elapsed":3511747,"subject_id":"87734","group":"Group2","full_date":"2025-12-05T22:30:16.258Z","date":"2025-12-05","time":"22:30:16"},{"rt":null,"stimulus":"<p style=\"font-size: 50px; margin: 0; text-align: center;\">+</p>","response":null,"trial_type":"html-keyboard-response","trial_index":160,"plugin_version":"2.1.0","time_elapsed":3512760,"subject_id":"87734","group":"Group2","full_date":"2025-12-05T22:30:16.258Z","date":"2025-12-05","time":"22:30:16"},{"task":"memory_phase","broad_category":"M","image_png":"M_Phyllite_05.png","image_id":261,"category_name":"Phyllite","category":17,"distinct_rating":2.14,"distinct_type":"Bottom","rt":null,"stimulus":"Stimuli_Rocks480/M_Phyllite_05.png","response":null,"trial_type":"image-keyboard-response","trial_index":161,"plugin_version":"2.1.0","time_elapsed":3515269,"subject_id":"87734","group":"Group2","full_date":"2025-12-05T22:30:16.258Z","date":"2025-12-05","time":"22:30:16"},{"rt":null,"stimulus":"<p style=\"font-size: 50px; margin: 0; text-align: center;\">+</p>","response":null,"trial_type":"html-keyboard-response","trial_index":162,"plugin_version":"2.1.0","time_elapsed":3516283,"subject_id":"87734","group":"Group2","full_date":"2025-12-05T22:30:16.258Z","date":"2025-12-05","time":"22:30:16"},{"task":"memory_phase","broad_category":"M","image_png":"M_Gneiss_10.png","image_id":202,"category_name":"Gneiss","category":13,"distinct_rating":3.09,"distinct_type":"Bottom","rt":null,"stimulus":"Stimuli_Rocks480/M_Gneiss_10.png","response":null,"trial_type":"image-keyboard-response","trial_index":163,"plugin_version":"2.1.0","time_elapsed":3518791,"subject_id":"87734","group":"Group2","full_date":"2025-12-05T22:30:16.258Z","date":"2025-12-05","time":"22:30:16"},{"rt":null,"stimulus":"<p style=\"font-size: 50px; margin: 0; text-align: center;\">+</p>","response":null,"trial_type":"html-keyboard-response","trial_index":164,"plugin_version":"2.1.0","time_elapsed":3519804,"subject_id":"87734","group":"Group2","full_date":"2025-12-05T22:30:16.258Z","date":"2025-12-05","time":"22:30:16"},{"task":"memory_phase","broad_category":"S","image_png":"S_Sandstone_11.png","image_id":459,"category_name":"Sandstone","category":29,"distinct_rating":1.82,"distinct_type":"Bottom","rt":null,"stimulus":"Stimuli_Rocks480/S_Sandstone_11.png","response":null,"trial_type":"image-keyboard-response","trial_index":165,"plugin_version":"2.1.0","time_elapsed":3522316,"subject_id":"87734","group":"Group2","full_date":"2025-12-05T22:30:16.258Z","date":"2025-12-05","time":"22:30:16"},{"rt":null,"stimulus":"<p style=\"font-size: 50px; margin: 0; text-align: center;\">+</p>","response":null,"trial_type":"html-keyboard-response","trial_index":166,"plugin_version":"2.1.0","time_elapsed":3523324,"subject_id":"87734","group":"Group2","full_date":"2025-12-05T22:30:16.258Z","date":"2025-12-05","time":"22:30:16"},{"task":"memory_phase","broad_category":"M","image_png":"M_Marble_02.png","image_id":226,"category_name":"Marble","category":15,"distinct_rating":3.2,"distinct_type":"Bottom","rt":null,"stimulus":"Stimuli_Rocks480/M_Marble_02.png","response":null,"trial_type":"image-keyboard-response","trial_index":167,"plugin_version":"2.1.0","time_elapsed":3525830,"subject_id":"87734","group":"Group2","full_date":"2025-12-05T22:30:16.258Z","date":"2025-12-05","time":"22:30:16"},{"rt":null,"stimulus":"<p style=\"font-size: 50px; margin: 0; text-align: center;\">+</p>","response":null,"trial_type":"html-keyboard-response","trial_index":168,"plugin_version":"2.1.0","time_elapsed":3526840,"subject_id":"87734","group":"Group2","full_date":"2025-12-05T22:30:16.258Z","date":"2025-12-05","time":"22:30:16"},{"task":"memory_phase","broad_category":"M","image_png":"M_Quartzite_12.png","image_id":284,"category_name":"Quartzite","category":18,"distinct_rating":1.92,"distinct_type":"Bottom","rt":null,"stimulus":"Stimuli_Rocks480/M_Quartzite_12.png","response":null,"trial_type":"image-keyboard-response","trial_index":169,"plugin_version":"2.1.0","time_elapsed":3529351,"subject_id":"87734","group":"Group2","full_date":"2025-12-05T22:30:16.258Z","date":"2025-12-05","time":"22:30:16"},{"rt":null,"stimulus":"<p style=\"font-size: 50px; margin: 0; text-align: center;\">+</p>","response":null,"trial_type":"html-keyboard-response","trial_index":170,"plugin_version":"2.1.0","time_elapsed":3530363,"subject_id":"87734","group":"Group2","full_date":"2025-12-05T22:30:16.258Z","date":"2025-12-05","time":"22:30:16"},{"task":"memory_phase","broad_category":"I","image_png":"I_Andesite_09.png","image_id":9,"category_name":"Andesite","category":1,"distinct_rating":2.49,"distinct_type":"Bottom","rt":null,"stimulus":"Stimuli_Rocks480/I_Andesite_09.png","response":null,"trial_type":"image-keyboard-response","trial_index":171,"plugin_version":"2.1.0","time_elapsed":3532874,"subject_id":"87734","group":"Group2","full_date":"2025-12-05T22:30:16.258Z","date":"2025-12-05","time":"22:30:16"},{"rt":null,"stimulus":"<p style=\"font-size: 50px; margin: 0; text-align: center;\">+</p>","response":null,"trial_type":"html-keyboard-response","trial_index":172,"plugin_version":"2.1.0","time_elapsed":3533884,"subject_id":"87734","group":"Group2","full_date":"2025-12-05T22:30:16.258Z","date":"2025-12-05","time":"22:30:16"},{"task":"memory_phase","broad_category":"S","image_png":"S_Conglomerate_14.png","image_id":382,"category_name":"Conglomerate","category":24,"distinct_rating":6.86,"distinct_type":"Top","rt":null,"stimulus":"Stimuli_Rocks480/S_Conglomerate_14.png","response":null,"trial_type":"image-keyboard-response","trial_index":173,"plugin_version":"2.1.0","time_elapsed":3536391,"subject_id":"87734","group":"Group2","full_date":"2025-12-05T22:30:16.258Z","date":"2025-12-05","time":"22:30:16"},{"rt":null,"stimulus":"<p style=\"font-size: 50px; margin: 0; text-align: center;\">+</p>","response":null,"trial_type":"html-keyboard-response","trial_index":174,"plugin_version":"2.1.0","time_elapsed":3537406,"subject_id":"87734","group":"Group2","full_date":"2025-12-05T22:30:16.258Z","date":"2025-12-05","time":"22:30:16"},{"task":"memory_phase","broad_category":"M","image_png":"M_Quartzite_07.png","image_id":279,"category_name":"Quartzite","category":18,"distinct_rating":1.97,"distinct_type":"Bottom","rt":null,"stimulus":"Stimuli_Rocks480/M_Quartzite_07.png","response":null,"trial_type":"image-keyboard-response","trial_index":175,"plugin_version":"2.1.0","time_elapsed":3539917,"subject_id":"87734","group":"Group2","full_date":"2025-12-05T22:30:16.258Z","date":"2025-12-05","time":"22:30:16"},{"rt":null,"stimulus":"<p style=\"font-size: 50px; margin: 0; text-align: center;\">+</p>","response":null,"trial_type":"html-keyboard-response","trial_index":176,"plugin_version":"2.1.0","time_elapsed":3540931,"subject_id":"87734","group":"Group2","full_date":"2025-12-05T22:30:16.258Z","date":"2025-12-05","time":"22:30:16"},{"task":"memory_phase","broad_category":"I","image_png":"I_Rhyolite_05.png","image_id":149,"category_name":"Rhyolite","category":10,"distinct_rating":3.02,"distinct_type":"Bottom","rt":null,"stimulus":"Stimuli_Rocks480/I_Rhyolite_05.png","response":null,"trial_type":"image-keyboard-response","trial_index":177,"plugin_version":"2.1.0","time_elapsed":3543436,"subject_id":"87734","group":"Group2","full_date":"2025-12-05T22:30:16.258Z","date":"2025-12-05","time":"22:30:16"},{"rt":null,"stimulus":"<p style=\"font-size: 50px; margin: 0; text-align: center;\">+</p>","response":null,"trial_type":"html-keyboard-response","trial_index":178,"plugin_version":"2.1.0","time_elapsed":3544450,"subject_id":"87734","group":"Group2","full_date":"2025-12-05T22:30:16.258Z","date":"2025-12-05","time":"22:30:16"},{"task":"memory_phase","broad_category":"M","image_png":"M_Phyllite_13.png","image_id":269,"category_name":"Phyllite","category":17,"distinct_rating":2.8,"distinct_type":"Bottom","rt":null,"stimulus":"Stimuli_Rocks480/M_Phyllite_13.png","response":null,"trial_type":"image-keyboard-response","trial_index":179,"plugin_version":"2.1.0","time_elapsed":3546961,"subject_id":"87734","group":"Group2","full_date":"2025-12-05T22:30:16.258Z","date":"2025-12-05","time":"22:30:16"},{"rt":null,"stimulus":"<p style=\"font-size: 50px; margin: 0; text-align: center;\">+</p>","response":null,"trial_type":"html-keyboard-response","trial_index":180,"plugin_version":"2.1.0","time_elapsed":3547973,"subject_id":"87734","group":"Group2","full_date":"2025-12-05T22:30:16.258Z","date":"2025-12-05","time":"22:30:16"},{"task":"memory_phase","broad_category":"M","image_png":"M_Slate_04.png","image_id":308,"category_name":"Slate","category":20,"distinct_rating":2.2,"distinct_type":"Bottom","rt":null,"stimulus":"Stimuli_Rocks480/M_Slate_04.png","response":null,"trial_type":"image-keyboard-response","trial_index":181,"plugin_version":"2.1.0","time_elapsed":3550483,"subject_id":"87734","group":"Group2","full_date":"2025-12-05T22:30:16.258Z","date":"2025-12-05","time":"22:30:16"},{"rt":null,"stimulus":"<p style=\"font-size: 50px; margin: 0; text-align: center;\">+</p>","response":null,"trial_type":"html-keyboard-response","trial_index":182,"plugin_version":"2.1.0","time_elapsed":3551494,"subject_id":"87734","group":"Group2","full_date":"2025-12-05T22:30:16.258Z","date":"2025-12-05","time":"22:30:16"},{"task":"memory_phase","broad_category":"I","image_png":"I_Gabbro_12.png","image_id":60,"category_name":"Gabbro","category":4,"distinct_rating":2.6,"distinct_type":"Bottom","rt":null,"stimulus":"Stimuli_Rocks480/I_Gabbro_12.png","response":null,"trial_type":"image-keyboard-response","trial_index":183,"plugin_version":"2.1.0","time_elapsed":3553996,"subject_id":"87734","group":"Group2","full_date":"2025-12-05T22:30:16.258Z","date":"2025-12-05","time":"22:30:16"},{"rt":null,"stimulus":"<p style=\"font-size: 50px; margin: 0; text-align: center;\">+</p>","response":null,"trial_type":"html-keyboard-response","trial_index":184,"plugin_version":"2.1.0","time_elapsed":3555015,"subject_id":"87734","group":"Group2","full_date":"2025-12-05T22:30:16.258Z","date":"2025-12-05","time":"22:30:16"},{"task":"memory_phase","broad_category":"S","image_png":"S_Shale_03.png","image_id":467,"category_name":"Shale","category":30,"distinct_rating":1.95,"distinct_type":"Bottom","rt":null,"stimulus":"Stimuli_Rocks480/S_Shale_03.png","response":null,"trial_type":"image-keyboard-response","trial_index":185,"plugin_version":"2.1.0","time_elapsed":3557524,"subject_id":"87734","group":"Group2","full_date":"2025-12-05T22:30:16.258Z","date":"2025-12-05","time":"22:30:16"},{"rt":null,"stimulus":"<p style=\"font-size: 50px; margin: 0; text-align: center;\">+</p>","response":null,"trial_type":"html-keyboard-response","trial_index":186,"plugin_version":"2.1.0","time_elapsed":3558541,"subject_id":"87734","group":"Group2","full_date":"2025-12-05T22:30:16.258Z","date":"2025-12-05","time":"22:30:16"},{"task":"memory_phase","broad_category":"I","image_png":"I_Diorite_15.png","image_id":47,"category_name":"Diorite","category":3,"distinct_rating":3.05,"distinct_type":"Bottom","rt":null,"stimulus":"Stimuli_Rocks480/I_Diorite_15.png","response":null,"trial_type":"image-keyboard-response","trial_index":187,"plugin_version":"2.1.0","time_elapsed":3561057,"subject_id":"87734","group":"Group2","full_date":"2025-12-05T22:30:16.258Z","date":"2025-12-05","time":"22:30:16"},{"rt":null,"stimulus":"<p style=\"font-size: 50px; margin: 0; text-align: center;\">+</p>","response":null,"trial_type":"html-keyboard-response","trial_index":188,"plugin_version":"2.1.0","time_elapsed":3562067,"subject_id":"87734","group":"Group2","full_date":"2025-12-05T22:30:16.258Z","date":"2025-12-05","time":"22:30:16"},{"task":"memory_phase","broad_category":"I","image_png":"I_Andesite_04.png","image_id":4,"category_name":"Andesite","category":1,"distinct_rating":3.18,"distinct_type":"Bottom","rt":null,"stimulus":"Stimuli_Rocks480/I_Andesite_04.png","response":null,"trial_type":"image-keyboard-response","trial_index":189,"plugin_version":"2.1.0","time_elapsed":3564584,"subject_id":"87734","group":"Group2","full_date":"2025-12-05T22:30:16.258Z","date":"2025-12-05","time":"22:30:16"},{"rt":null,"stimulus":"<p style=\"font-size: 50px; margin: 0; text-align: center;\">+</p>","response":null,"trial_type":"html-keyboard-response","trial_index":190,"plugin_version":"2.1.0","time_elapsed":3565602,"subject_id":"87734","group":"Group2","full_date":"2025-12-05T22:30:16.258Z","date":"2025-12-05","time":"22:30:16"},{"task":"memory_phase","broad_category":"I","image_png":"I_Rhyolite_10.png","image_id":154,"category_name":"Rhyolite","category":10,"distinct_rating":2.88,"distinct_type":"Bottom","rt":null,"stimulus":"Stimuli_Rocks480/I_Rhyolite_10.png","response":null,"trial_type":"image-keyboard-response","trial_index":191,"plugin_version":"2.1.0","time_elapsed":3568107,"subject_id":"87734","group":"Group2","full_date":"2025-12-05T22:30:16.258Z","date":"2025-12-05","time":"22:30:16"},{"rt":null,"stimulus":"<p style=\"font-size: 50px; margin: 0; text-align: center;\">+</p>","response":null,"trial_type":"html-keyboard-response","trial_index":192,"plugin_version":"2.1.0","time_elapsed":3569114,"subject_id":"87734","group":"Group2","full_date":"2025-12-05T22:30:16.258Z","date":"2025-12-05","time":"22:30:16"},{"task":"memory_phase","broad_category":"S","image_png":"S_Sandstone_08.png","image_id":456,"category_name":"Sandstone","category":29,"distinct_rating":1.5,"distinct_type":"Bottom","rt":null,"stimulus":"Stimuli_Rocks480/S_Sandstone_08.png","response":null,"trial_type":"image-keyboard-response","trial_index":193,"plugin_version":"2.1.0","time_elapsed":3571623,"subject_id":"87734","group":"Group2","full_date":"2025-12-05T22:30:16.258Z","date":"2025-12-05","time":"22:30:16"},{"rt":null,"stimulus":"<p style=\"font-size: 50px; margin: 0; text-align: center;\">+</p>","response":null,"trial_type":"html-keyboard-response","trial_index":194,"plugin_version":"2.1.0","time_elapsed":3572638,"subject_id":"87734","group":"Group2","full_date":"2025-12-05T22:30:16.258Z","date":"2025-12-05","time":"22:30:16"},{"task":"memory_phase","broad_category":"S","image_png":"S_Rock Salt_13.png","image_id":445,"category_name":"Rock Salt","category":28,"distinct_rating":7.58,"distinct_type":"Top","rt":null,"stimulus":"Stimuli_Rocks480/S_Rock Salt_13.png","response":null,"trial_type":"image-keyboard-response","trial_index":195,"plugin_version":"2.1.0","time_elapsed":3575148,"subject_id":"87734","group":"Group2","full_date":"2025-12-05T22:30:16.258Z","date":"2025-12-05","time":"22:30:16"},{"rt":null,"stimulus":"<p style=\"font-size: 50px; margin: 0; text-align: center;\">+</p>","response":null,"trial_type":"html-keyboard-response","trial_index":196,"plugin_version":"2.1.0","time_elapsed":3576159,"subject_id":"87734","group":"Group2","full_date":"2025-12-05T22:30:16.258Z","date":"2025-12-05","time":"22:30:16"},{"task":"memory_phase","broad_category":"S","image_png":"S_Shale_07.png","image_id":471,"category_name":"Shale","category":30,"distinct_rating":2.73,"distinct_type":"Bottom","rt":null,"stimulus":"Stimuli_Rocks480/S_Shale_07.png","response":null,"trial_type":"image-keyboard-response","trial_index":197,"plugin_version":"2.1.0","time_elapsed":3578666,"subject_id":"87734","group":"Group2","full_date":"2025-12-05T22:30:16.258Z","date":"2025-12-05","time":"22:30:16"},{"rt":null,"stimulus":"<p style=\"font-size: 50px; margin: 0; text-align: center;\">+</p>","response":null,"trial_type":"html-keyboard-response","trial_index":198,"plugin_version":"2.1.0","time_elapsed":3579681,"subject_id":"87734","group":"Group2","full_date":"2025-12-05T22:30:16.258Z","date":"2025-12-05","time":"22:30:16"},{"task":"memory_phase","broad_category":"I","image_png":"I_Pumice_14.png","image_id":142,"category_name":"Pumice","category":9,"distinct_rating":3.22,"distinct_type":"Bottom","rt":null,"stimulus":"Stimuli_Rocks480/I_Pumice_14.png","response":null,"trial_type":"image-keyboard-response","trial_index":199,"plugin_version":"2.1.0","time_elapsed":3582191,"subject_id":"87734","group":"Group2","full_date":"2025-12-05T22:30:16.258Z","date":"2025-12-05","time":"22:30:16"},{"rt":null,"stimulus":"<p style=\"font-size: 50px; margin: 0; text-align: center;\">+</p>","response":null,"trial_type":"html-keyboard-response","trial_index":200,"plugin_version":"2.1.0","time_elapsed":3583207,"subject_id":"87734","group":"Group2","full_date":"2025-12-05T22:30:16.258Z","date":"2025-12-05","time":"22:30:16"},{"task":"memory_phase","broad_category":"I","image_png":"I_Pumice_13.png","image_id":141,"category_name":"Pumice","category":9,"distinct_rating":3.12,"distinct_type":"Bottom","rt":null,"stimulus":"Stimuli_Rocks480/I_Pumice_13.png","response":null,"trial_type":"image-keyboard-response","trial_index":201,"plugin_version":"2.1.0","time_elapsed":3585718,"subject_id":"87734","group":"Group2","full_date":"2025-12-05T22:30:16.258Z","date":"2025-12-05","time":"22:30:16"},{"rt":null,"stimulus":"<p style=\"font-size: 50px; margin: 0; text-align: center;\">+</p>","response":null,"trial_type":"html-keyboard-response","trial_index":202,"plugin_version":"2.1.0","time_elapsed":3586731,"subject_id":"87734","group":"Group2","full_date":"2025-12-05T22:30:16.258Z","date":"2025-12-05","time":"22:30:16"},{"task":"memory_phase","broad_category":"S","image_png":"S_Shale_02.png","image_id":466,"category_name":"Shale","category":30,"distinct_rating":2.9,"distinct_type":"Bottom","rt":null,"stimulus":"Stimuli_Rocks480/S_Shale_02.png","response":null,"trial_type":"image-keyboard-response","trial_index":203,"plugin_version":"2.1.0","time_elapsed":3589247,"subject_id":"87734","group":"Group2","full_date":"2025-12-05T22:30:16.258Z","date":"2025-12-05","time":"22:30:16"},{"rt":null,"stimulus":"<p style=\"font-size: 50px; margin: 0; text-align: center;\">+</p>","response":null,"trial_type":"html-keyboard-response","trial_index":204,"plugin_version":"2.1.0","time_elapsed":3590260,"subject_id":"87734","group":"Group2","full_date":"2025-12-05T22:30:16.258Z","date":"2025-12-05","time":"22:30:16"},{"task":"memory_phase","broad_category":"M","image_png":"M_Phyllite_02.png","image_id":258,"category_name":"Phyllite","category":17,"distinct_rating":2.89,"distinct_type":"Bottom","rt":null,"stimulus":"Stimuli_Rocks480/M_Phyllite_02.png","response":null,"trial_type":"image-keyboard-response","trial_index":205,"plugin_version":"2.1.0","time_elapsed":3592776,"subject_id":"87734","group":"Group2","full_date":"2025-12-05T22:30:16.258Z","date":"2025-12-05","time":"22:30:16"},{"rt":null,"stimulus":"<p style=\"font-size: 50px; margin: 0; text-align: center;\">+</p>","response":null,"trial_type":"html-keyboard-response","trial_index":206,"plugin_version":"2.1.0","time_elapsed":3593786,"subject_id":"87734","group":"Group2","full_date":"2025-12-05T22:30:16.258Z","date":"2025-12-05","time":"22:30:16"},{"task":"memory_phase","broad_category":"M","image_png":"M_Gneiss_14.png","image_id":206,"category_name":"Gneiss","category":13,"distinct_rating":3.41,"distinct_type":"Bottom","rt":null,"stimulus":"Stimuli_Rocks480/M_Gneiss_14.png","response":null,"trial_type":"image-keyboard-response","trial_index":207,"plugin_version":"2.1.0","time_elapsed":3596302,"subject_id":"87734","group":"Group2","full_date":"2025-12-05T22:30:16.258Z","date":"2025-12-05","time":"22:30:16"},{"rt":4874,"stimulus":"<p style=\"max-width: 760px; margin: auto; font-size: 35px; line-height: 1.5;\">You have completed 2 study phases. Now, we'll show you all the images again 1 more time.<br><br>Press SPACE to continue</p>","response":" ","trial_type":"html-keyboard-response","trial_index":208,"plugin_version":"2.1.0","time_elapsed":3601176,"subject_id":"87734","group":"Group2","full_date":"2025-12-05T22:30:16.258Z","date":"2025-12-05","time":"22:30:16"},{"rt":null,"stimulus":"<p style=\"font-size: 50px; margin: 0; text-align: center;\">+</p>","response":null,"trial_type":"html-keyboard-response","trial_index":209,"plugin_version":"2.1.0","time_elapsed":3602181,"subject_id":"87734","group":"Group2","full_date":"2025-12-05T22:30:16.258Z","date":"2025-12-05","time":"22:30:16"},{"task":"memory_phase","broad_category":"M","image_png":"M_Quartzite_15.png","image_id":287,"category_name":"Quartzite","category":18,"distinct_rating":2.19,"distinct_type":"Bottom","rt":null,"stimulus":"Stimuli_Rocks480/M_Quartzite_15.png","response":null,"trial_type":"image-keyboard-response","trial_index":210,"plugin_version":"2.1.0","time_elapsed":3604686,"subject_id":"87734","group":"Group2","full_date":"2025-12-05T22:30:16.258Z","date":"2025-12-05","time":"22:30:16"},{"rt":null,"stimulus":"<p style=\"font-size: 50px; margin: 0; text-align: center;\">+</p>","response":null,"trial_type":"html-keyboard-response","trial_index":211,"plugin_version":"2.1.0","time_elapsed":3605699,"subject_id":"87734","group":"Group2","full_date":"2025-12-05T22:30:16.258Z","date":"2025-12-05","time":"22:30:16"},{"task":"memory_phase","broad_category":"M","image_png":"M_Marble_02.png","image_id":226,"category_name":"Marble","category":15,"distinct_rating":3.2,"distinct_type":"Bottom","rt":null,"stimulus":"Stimuli_Rocks480/M_Marble_02.png","response":null,"trial_type":"image-keyboard-response","trial_index":212,"plugin_version":"2.1.0","time_elapsed":3608204,"subject_id":"87734","group":"Group2","full_date":"2025-12-05T22:30:16.258Z","date":"2025-12-05","time":"22:30:16"},{"rt":null,"stimulus":"<p style=\"font-size: 50px; margin: 0; text-align: center;\">+</p>","response":null,"trial_type":"html-keyboard-response","trial_index":213,"plugin_version":"2.1.0","time_elapsed":3609218,"subject_id":"87734","group":"Group2","full_date":"2025-12-05T22:30:16.258Z","date":"2025-12-05","time":"22:30:16"},{"task":"memory_phase","broad_category":"I","image_png":"I_Diorite_01.png","image_id":33,"category_name":"Diorite","category":3,"distinct_rating":2.97,"distinct_type":"Bottom","rt":null,"stimulus":"Stimuli_Rocks480/I_Diorite_01.png","response":null,"trial_type":"image-keyboard-response","trial_index":214,"plugin_version":"2.1.0","time_elapsed":3611723,"subject_id":"87734","group":"Group2","full_date":"2025-12-05T22:30:16.258Z","date":"2025-12-05","time":"22:30:16"},{"rt":null,"stimulus":"<p style=\"font-size: 50px; margin: 0; text-align: center;\">+</p>","response":null,"trial_type":"html-keyboard-response","trial_index":215,"plugin_version":"2.1.0","time_elapsed":3612737,"subject_id":"87734","group":"Group2","full_date":"2025-12-05T22:30:16.258Z","date":"2025-12-05","time":"22:30:16"},{"task":"memory_phase","broad_category":"I","image_png":"I_Pegmatite_03.png","image_id":99,"category_name":"Pegmatite","category":7,"distinct_rating":7.24,"distinct_type":"Top","rt":null,"stimulus":"Stimuli_Rocks480/I_Pegmatite_03.png","response":null,"trial_type":"image-keyboard-response","trial_index":216,"plugin_version":"2.1.0","time_elapsed":3615239,"subject_id":"87734","group":"Group2","full_date":"2025-12-05T22:30:16.258Z","date":"2025-12-05","time":"22:30:16"},{"rt":null,"stimulus":"<p style=\"font-size: 50px; margin: 0; text-align: center;\">+</p>","response":null,"trial_type":"html-keyboard-response","trial_index":217,"plugin_version":"2.1.0","time_elapsed":3616241,"subject_id":"87734","group":"Group2","full_date":"2025-12-05T22:30:16.258Z","date":"2025-12-05","time":"22:30:16"},{"task":"memory_phase","broad_category":"I","image_png":"I_Pumice_01.png","image_id":129,"category_name":"Pumice","category":9,"distinct_rating":3.25,"distinct_type":"Bottom","rt":null,"stimulus":"Stimuli_Rocks480/I_Pumice_01.png","response":null,"trial_type":"image-keyboard-response","trial_index":218,"plugin_version":"2.1.0","time_elapsed":3618749,"subject_id":"87734","group":"Group2","full_date":"2025-12-05T22:30:16.258Z","date":"2025-12-05","time":"22:30:16"},{"rt":null,"stimulus":"<p style=\"font-size: 50px; margin: 0; text-align: center;\">+</p>","response":null,"trial_type":"html-keyboard-response","trial_index":219,"plugin_version":"2.1.0","time_elapsed":3619757,"subject_id":"87734","group":"Group2","full_date":"2025-12-05T22:30:16.258Z","date":"2025-12-05","time":"22:30:16"},{"task":"memory_phase","broad_category":"S","image_png":"S_Dolomite_01.png","image_id":385,"category_name":"Dolomite","category":25,"distinct_rating":1.43,"distinct_type":"Bottom","rt":null,"stimulus":"Stimuli_Rocks480/S_Dolomite_01.png","response":null,"trial_type":"image-keyboard-response","trial_index":220,"plugin_version":"2.1.0","time_elapsed":3622266,"subject_id":"87734","group":"Group2","full_date":"2025-12-05T22:30:16.258Z","date":"2025-12-05","time":"22:30:16"},{"rt":null,"stimulus":"<p style=\"font-size: 50px; margin: 0; text-align: center;\">+</p>","response":null,"trial_type":"html-keyboard-response","trial_index":221,"plugin_version":"2.1.0","time_elapsed":3623278,"subject_id":"87734","group":"Group2","full_date":"2025-12-05T22:30:16.258Z","date":"2025-12-05","time":"22:30:16"},{"task":"memory_phase","broad_category":"I","image_png":"I_Gabbro_14.png","image_id":62,"category_name":"Gabbro","category":4,"distinct_rating":2.95,"distinct_type":"Bottom","rt":null,"stimulus":"Stimuli_Rocks480/I_Gabbro_14.png","response":null,"trial_type":"image-keyboard-response","trial_index":222,"plugin_version":"2.1.0","time_elapsed":3625782,"subject_id":"87734","group":"Group2","full_date":"2025-12-05T22:30:16.258Z","date":"2025-12-05","time":"22:30:16"},{"rt":null,"stimulus":"<p style=\"font-size: 50px; margin: 0; text-align: center;\">+</p>","response":null,"trial_type":"html-keyboard-response","trial_index":223,"plugin_version":"2.1.0","time_elapsed":3626791,"subject_id":"87734","group":"Group2","full_date":"2025-12-05T22:30:16.258Z","date":"2025-12-05","time":"22:30:16"},{"task":"memory_phase","broad_category":"S","image_png":"S_Rock Salt_13.png","image_id":445,"category_name":"Rock Salt","category":28,"distinct_rating":7.58,"distinct_type":"Top","rt":null,"stimulus":"Stimuli_Rocks480/S_Rock Salt_13.png","response":null,"trial_type":"image-keyboard-response","trial_index":224,"plugin_version":"2.1.0","time_elapsed":3629293,"subject_id":"87734","group":"Group2","full_date":"2025-12-05T22:30:16.258Z","date":"2025-12-05","time":"22:30:16"},{"rt":null,"stimulus":"<p style=\"font-size: 50px; margin: 0; text-align: center;\">+</p>","response":null,"trial_type":"html-keyboard-response","trial_index":225,"plugin_version":"2.1.0","time_elapsed":3630300,"subject_id":"87734","group":"Group2","full_date":"2025-12-05T22:30:16.258Z","date":"2025-12-05","time":"22:30:16"},{"task":"memory_phase","broad_category":"S","image_png":"S_Rock Salt_15.png","image_id":447,"category_name":"Rock Salt","category":28,"distinct_rating":7.79,"distinct_type":"Top","rt":null,"stimulus":"Stimuli_Rocks480/S_Rock Salt_15.png","response":null,"trial_type":"image-keyboard-response","trial_index":226,"plugin_version":"2.1.0","time_elapsed":3632814,"subject_id":"87734","group":"Group2","full_date":"2025-12-05T22:30:16.258Z","date":"2025-12-05","time":"22:30:16"},{"rt":null,"stimulus":"<p style=\"font-size: 50px; margin: 0; text-align: center;\">+</p>","response":null,"trial_type":"html-keyboard-response","trial_index":227,"plugin_version":"2.1.0","time_elapsed":3633826,"subject_id":"87734","group":"Group2","full_date":"2025-12-05T22:30:16.258Z","date":"2025-12-05","time":"22:30:16"},{"task":"memory_phase","broad_category":"M","image_png":"M_Gneiss_15.png","image_id":207,"category_name":"Gneiss","category":13,"distinct_rating":3.11,"distinct_type":"Bottom","rt":null,"stimulus":"Stimuli_Rocks480/M_Gneiss_15.png","response":null,"trial_type":"image-keyboard-response","trial_index":228,"plugin_version":"2.1.0","time_elapsed":3636329,"subject_id":"87734","group":"Group2","full_date":"2025-12-05T22:30:16.258Z","date":"2025-12-05","time":"22:30:16"},{"rt":null,"stimulus":"<p style=\"font-size: 50px; margin: 0; text-align: center;\">+</p>","response":null,"trial_type":"html-keyboard-response","trial_index":229,"plugin_version":"2.1.0","time_elapsed":3637338,"subject_id":"87734","group":"Group2","full_date":"2025-12-05T22:30:16.258Z","date":"2025-12-05","time":"22:30:16"},{"task":"memory_phase","broad_category":"M","image_png":"M_Slate_14.png","image_id":318,"category_name":"Slate","category":20,"distinct_rating":2.58,"distinct_type":"Bottom","rt":null,"stimulus":"Stimuli_Rocks480/M_Slate_14.png","response":null,"trial_type":"image-keyboard-response","trial_index":230,"plugin_version":"2.1.0","time_elapsed":3639845,"subject_id":"87734","group":"Group2","full_date":"2025-12-05T22:30:16.258Z","date":"2025-12-05","time":"22:30:16"},{"rt":null,"stimulus":"<p style=\"font-size: 50px; margin: 0; text-align: center;\">+</p>","response":null,"trial_type":"html-keyboard-response","trial_index":231,"plugin_version":"2.1.0","time_elapsed":3640854,"subject_id":"87734","group":"Group2","full_date":"2025-12-05T22:30:16.258Z","date":"2025-12-05","time":"22:30:16"},{"task":"memory_phase","broad_category":"I","image_png":"I_Basalt_08.png","image_id":24,"category_name":"Basalt","category":2,"distinct_rating":2.31,"distinct_type":"Bottom","rt":null,"stimulus":"Stimuli_Rocks480/I_Basalt_08.png","response":null,"trial_type":"image-keyboard-response","trial_index":232,"plugin_version":"2.1.0","time_elapsed":3643359,"subject_id":"87734","group":"Group2","full_date":"2025-12-05T22:30:16.258Z","date":"2025-12-05","time":"22:30:16"},{"rt":null,"stimulus":"<p style=\"font-size: 50px; margin: 0; text-align: center;\">+</p>","response":null,"trial_type":"html-keyboard-response","trial_index":233,"plugin_version":"2.1.0","time_elapsed":3644367,"subject_id":"87734","group":"Group2","full_date":"2025-12-05T22:30:16.258Z","date":"2025-12-05","time":"22:30:16"},{"task":"memory_phase","broad_category":"I","image_png":"I_Rhyolite_08.png","image_id":152,"category_name":"Rhyolite","category":10,"distinct_rating":1.38,"distinct_type":"Bottom","rt":null,"stimulus":"Stimuli_Rocks480/I_Rhyolite_08.png","response":null,"trial_type":"image-keyboard-response","trial_index":234,"plugin_version":"2.1.0","time_elapsed":3646874,"subject_id":"87734","group":"Group2","full_date":"2025-12-05T22:30:16.258Z","date":"2025-12-05","time":"22:30:16"},{"rt":null,"stimulus":"<p style=\"font-size: 50px; margin: 0; text-align: center;\">+</p>","response":null,"trial_type":"html-keyboard-response","trial_index":235,"plugin_version":"2.1.0","time_elapsed":3647884,"subject_id":"87734","group":"Group2","full_date":"2025-12-05T22:30:16.258Z","date":"2025-12-05","time":"22:30:16"},{"task":"memory_phase","broad_category":"I","image_png":"I_Diorite_15.png","image_id":47,"category_name":"Diorite","category":3,"distinct_rating":3.05,"distinct_type":"Bottom","rt":null,"stimulus":"Stimuli_Rocks480/I_Diorite_15.png","response":null,"trial_type":"image-keyboard-response","trial_index":236,"plugin_version":"2.1.0","time_elapsed":3650401,"subject_id":"87734","group":"Group2","full_date":"2025-12-05T22:30:16.258Z","date":"2025-12-05","time":"22:30:16"},{"rt":null,"stimulus":"<p style=\"font-size: 50px; margin: 0; text-align: center;\">+</p>","response":null,"trial_type":"html-keyboard-response","trial_index":237,"plugin_version":"2.1.0","time_elapsed":3651410,"subject_id":"87734","group":"Group2","full_date":"2025-12-05T22:30:16.258Z","date":"2025-12-05","time":"22:30:16"},{"task":"memory_phase","broad_category":"I","image_png":"I_Diorite_10.png","image_id":42,"category_name":"Diorite","category":3,"distinct_rating":2.84,"distinct_type":"Bottom","rt":null,"stimulus":"Stimuli_Rocks480/I_Diorite_10.png","response":null,"trial_type":"image-keyboard-response","trial_index":238,"plugin_version":"2.1.0","time_elapsed":3653916,"subject_id":"87734","group":"Group2","full_date":"2025-12-05T22:30:16.258Z","date":"2025-12-05","time":"22:30:16"},{"rt":null,"stimulus":"<p style=\"font-size: 50px; margin: 0; text-align: center;\">+</p>","response":null,"trial_type":"html-keyboard-response","trial_index":239,"plugin_version":"2.1.0","time_elapsed":3654927,"subject_id":"87734","group":"Group2","full_date":"2025-12-05T22:30:16.258Z","date":"2025-12-05","time":"22:30:16"},{"task":"memory_phase","broad_category":"S","image_png":"S_Dolomite_07.png","image_id":391,"category_name":"Dolomite","category":25,"distinct_rating":1.73,"distinct_type":"Bottom","rt":null,"stimulus":"Stimuli_Rocks480/S_Dolomite_07.png","response":null,"trial_type":"image-keyboard-response","trial_index":240,"plugin_version":"2.1.0","time_elapsed":3657429,"subject_id":"87734","group":"Group2","full_date":"2025-12-05T22:30:16.258Z","date":"2025-12-05","time":"22:30:16"},{"rt":null,"stimulus":"<p style=\"font-size: 50px; margin: 0; text-align: center;\">+</p>","response":null,"trial_type":"html-keyboard-response","trial_index":241,"plugin_version":"2.1.0","time_elapsed":3658439,"subject_id":"87734","group":"Group2","full_date":"2025-12-05T22:30:16.258Z","date":"2025-12-05","time":"22:30:16"},{"task":"memory_phase","broad_category":"S","image_png":"S_Sandstone_11.png","image_id":459,"category_name":"Sandstone","category":29,"distinct_rating":1.82,"distinct_type":"Bottom","rt":null,"stimulus":"Stimuli_Rocks480/S_Sandstone_11.png","response":null,"trial_type":"image-keyboard-response","trial_index":242,"plugin_version":"2.1.0","time_elapsed":3660944,"subject_id":"87734","group":"Group2","full_date":"2025-12-05T22:30:16.258Z","date":"2025-12-05","time":"22:30:16"},{"rt":null,"stimulus":"<p style=\"font-size: 50px; margin: 0; text-align: center;\">+</p>","response":null,"trial_type":"html-keyboard-response","trial_index":243,"plugin_version":"2.1.0","time_elapsed":3661946,"subject_id":"87734","group":"Group2","full_date":"2025-12-05T22:30:16.258Z","date":"2025-12-05","time":"22:30:16"},{"task":"memory_phase","broad_category":"M","image_png":"M_Phyllite_05.png","image_id":261,"category_name":"Phyllite","category":17,"distinct_rating":2.14,"distinct_type":"Bottom","rt":null,"stimulus":"Stimuli_Rocks480/M_Phyllite_05.png","response":null,"trial_type":"image-keyboard-response","trial_index":244,"plugin_version":"2.1.0","time_elapsed":3664450,"subject_id":"87734","group":"Group2","full_date":"2025-12-05T22:30:16.258Z","date":"2025-12-05","time":"22:30:16"},{"rt":null,"stimulus":"<p style=\"font-size: 50px; margin: 0; text-align: center;\">+</p>","response":null,"trial_type":"html-keyboard-response","trial_index":245,"plugin_version":"2.1.0","time_elapsed":3665462,"subject_id":"87734","group":"Group2","full_date":"2025-12-05T22:30:16.258Z","date":"2025-12-05","time":"22:30:16"},{"task":"memory_phase","broad_category":"M","image_png":"M_Marble_03.png","image_id":227,"category_name":"Marble","category":15,"distinct_rating":2.67,"distinct_type":"Bottom","rt":null,"stimulus":"Stimuli_Rocks480/M_Marble_03.png","response":null,"trial_type":"image-keyboard-response","trial_index":246,"plugin_version":"2.1.0","time_elapsed":3667968,"subject_id":"87734","group":"Group2","full_date":"2025-12-05T22:30:16.258Z","date":"2025-12-05","time":"22:30:16"},{"rt":null,"stimulus":"<p style=\"font-size: 50px; margin: 0; text-align: center;\">+</p>","response":null,"trial_type":"html-keyboard-response","trial_index":247,"plugin_version":"2.1.0","time_elapsed":3668980,"subject_id":"87734","group":"Group2","full_date":"2025-12-05T22:30:16.258Z","date":"2025-12-05","time":"22:30:16"},{"task":"memory_phase","broad_category":"I","image_png":"I_Basalt_13.png","image_id":29