[{"width":1280,"height":665,"webaudio":true,"browser":"chrome","browser_version":"142.0.0","mobile":false,"os":"Windows 10","fullscreen":true,"vsync_rate":56.76,"webcam":true,"microphone":true,"trial_type":"browser-check","trial_index":0,"plugin_version":"2.1.0","time_elapsed":1073,"subject_id":"87022","group":"Group1","full_date":"2025-12-03T05:08:16.864Z","date":"2025-12-03","time":"05:08:16"},{"success":true,"timeout":false,"failed_images":[],"failed_audio":[],"failed_video":[],"trial_type":"preload","trial_index":1,"plugin_version":"2.1.0","time_elapsed":2901,"subject_id":"87022","group":"Group1","full_date":"2025-12-03T05:08:16.864Z","date":"2025-12-03","time":"05:08:16"},{"rt":58032,"url":"SONA_consent_memorability.html","trial_type":"external-html","trial_index":2,"plugin_version":"2.1.0","time_elapsed":61006,"subject_id":"87022","group":"Group1","full_date":"2025-12-03T05:08:16.864Z","date":"2025-12-03","time":"05:08:16"},{"success":true,"rt":1677,"trial_type":"fullscreen","trial_index":3,"plugin_version":"2.1.0","time_elapsed":63712,"subject_id":"87022","group":"Group1","full_date":"2025-12-03T05:08:16.864Z","date":"2025-12-03","time":"05:08:16"},{"rt":25014,"stimulus":"<div style=\"max-width: 760px; margin: auto; font-size: 20px; line-height: 1.5;\">\n      <h1 style=\"text-align:center; font-size: 30px;\">Instructions</h1>\n      <p>\n        Welcome to the study on <b>visual memory</b>. This experiment consists of <b>two phases</b>: \n        a <b>study phase</b> and a <b>test phase</b>.\n      </p>\n      <p>\n        In the study phase, you will see a series of rock images along with their category labels.\n        The images will appear one at a time.\n        <b>Your task</b> is to learn the categories to which the rock images belong \n        and to remember each image as accurately as possible.\n      </p> \n      <p>\n        Note that we will repeat the study phase <b>3 times</b>, \n        so you will have multiple opportunities to see and remember each image.\n      </p>\n      <p>\n        After the study phase, <b>your memory will be tested</b>. \n        Additional instructions for the test phase will be provided at that time.\n      </p>\n      <p>\n        If your computer has multiple <b>language settings</b> (e.g., English and another language),\n        please make sure it is set to English before starting.\n      </p>\n      <p>\n        You can track your progress using the <b>completion bar</b> at the top of the screen. \n        Please note that the bar will refresh when the test phase begins \n        to give you an accurate sense of your progress in both phases.\n      </p> \n      <p>\n        Press the button below when you are ready to begin.\n      </p>\n    </div>","response":0,"trial_type":"html-button-response","trial_index":4,"plugin_version":"2.1.0","time_elapsed":88730,"subject_id":"87022","group":"Group1","full_date":"2025-12-03T05:08:16.864Z","date":"2025-12-03","time":"05:08:16"},{"rt":null,"stimulus":"<p style=\"font-size: 50px; margin: 0; text-align: center;\">+</p>","response":null,"trial_type":"html-keyboard-response","trial_index":5,"plugin_version":"2.1.0","time_elapsed":89749,"subject_id":"87022","group":"Group1","full_date":"2025-12-03T05:08:16.864Z","date":"2025-12-03","time":"05:08:16"},{"task":"memory_phase","broad_category":"S","image_png":"S_Dolomite_14.png","image_id":398,"category_name":"Dolomite","category":25,"distinct_rating":1.43,"distinct_type":"Bottom","rt":null,"stimulus":"Stimuli_Rocks480/S_Dolomite_14.png","response":null,"trial_type":"image-keyboard-response","trial_index":6,"plugin_version":"2.1.0","time_elapsed":92271,"subject_id":"87022","group":"Group1","full_date":"2025-12-03T05:08:16.864Z","date":"2025-12-03","time":"05:08:16"},{"rt":null,"stimulus":"<p style=\"font-size: 50px; margin: 0; text-align: center;\">+</p>","response":null,"trial_type":"html-keyboard-response","trial_index":7,"plugin_version":"2.1.0","time_elapsed":93274,"subject_id":"87022","group":"Group1","full_date":"2025-12-03T05:08:16.864Z","date":"2025-12-03","time":"05:08:16"},{"task":"memory_phase","broad_category":"S","image_png":"S_Shale_12.png","image_id":476,"category_name":"Shale","category":30,"distinct_rating":2.48,"distinct_type":"Bottom","rt":null,"stimulus":"Stimuli_Rocks480/S_Shale_12.png","response":null,"trial_type":"image-keyboard-response","trial_index":8,"plugin_version":"2.1.0","time_elapsed":95783,"subject_id":"87022","group":"Group1","full_date":"2025-12-03T05:08:16.864Z","date":"2025-12-03","time":"05:08:16"},{"rt":null,"stimulus":"<p style=\"font-size: 50px; margin: 0; text-align: center;\">+</p>","response":null,"trial_type":"html-keyboard-response","trial_index":9,"plugin_version":"2.1.0","time_elapsed":96794,"subject_id":"87022","group":"Group1","full_date":"2025-12-03T05:08:16.864Z","date":"2025-12-03","time":"05:08:16"},{"task":"memory_phase","broad_category":"M","image_png":"M_Quartzite_05.png","image_id":277,"category_name":"Quartzite","category":18,"distinct_rating":2.23,"distinct_type":"Bottom","rt":null,"stimulus":"Stimuli_Rocks480/M_Quartzite_05.png","response":null,"trial_type":"image-keyboard-response","trial_index":10,"plugin_version":"2.1.0","time_elapsed":99309,"subject_id":"87022","group":"Group1","full_date":"2025-12-03T05:08:16.864Z","date":"2025-12-03","time":"05:08:16"},{"rt":null,"stimulus":"<p style=\"font-size: 50px; margin: 0; text-align: center;\">+</p>","response":null,"trial_type":"html-keyboard-response","trial_index":11,"plugin_version":"2.1.0","time_elapsed":100318,"subject_id":"87022","group":"Group1","full_date":"2025-12-03T05:08:16.864Z","date":"2025-12-03","time":"05:08:16"},{"task":"memory_phase","broad_category":"M","image_png":"M_Slate_11.png","image_id":315,"category_name":"Slate","category":20,"distinct_rating":2.75,"distinct_type":"Bottom","rt":null,"stimulus":"Stimuli_Rocks480/M_Slate_11.png","response":null,"trial_type":"image-keyboard-response","trial_index":12,"plugin_version":"2.1.0","time_elapsed":102826,"subject_id":"87022","group":"Group1","full_date":"2025-12-03T05:08:16.864Z","date":"2025-12-03","time":"05:08:16"},{"rt":null,"stimulus":"<p style=\"font-size: 50px; margin: 0; text-align: center;\">+</p>","response":null,"trial_type":"html-keyboard-response","trial_index":13,"plugin_version":"2.1.0","time_elapsed":103842,"subject_id":"87022","group":"Group1","full_date":"2025-12-03T05:08:16.864Z","date":"2025-12-03","time":"05:08:16"},{"task":"memory_phase","broad_category":"M","image_png":"M_Gneiss_06.png","image_id":198,"category_name":"Gneiss","category":13,"distinct_rating":2.65,"distinct_type":"Bottom","rt":null,"stimulus":"Stimuli_Rocks480/M_Gneiss_06.png","response":null,"trial_type":"image-keyboard-response","trial_index":14,"plugin_version":"2.1.0","time_elapsed":106356,"subject_id":"87022","group":"Group1","full_date":"2025-12-03T05:08:16.864Z","date":"2025-12-03","time":"05:08:16"},{"rt":null,"stimulus":"<p style=\"font-size: 50px; margin: 0; text-align: center;\">+</p>","response":null,"trial_type":"html-keyboard-response","trial_index":15,"plugin_version":"2.1.0","time_elapsed":107360,"subject_id":"87022","group":"Group1","full_date":"2025-12-03T05:08:16.864Z","date":"2025-12-03","time":"05:08:16"},{"task":"memory_phase","broad_category":"I","image_png":"I_Basalt_01.png","image_id":17,"category_name":"Basalt","category":2,"distinct_rating":1.92,"distinct_type":"Bottom","rt":null,"stimulus":"Stimuli_Rocks480/I_Basalt_01.png","response":null,"trial_type":"image-keyboard-response","trial_index":16,"plugin_version":"2.1.0","time_elapsed":109876,"subject_id":"87022","group":"Group1","full_date":"2025-12-03T05:08:16.864Z","date":"2025-12-03","time":"05:08:16"},{"rt":null,"stimulus":"<p style=\"font-size: 50px; margin: 0; text-align: center;\">+</p>","response":null,"trial_type":"html-keyboard-response","trial_index":17,"plugin_version":"2.1.0","time_elapsed":110880,"subject_id":"87022","group":"Group1","full_date":"2025-12-03T05:08:16.864Z","date":"2025-12-03","time":"05:08:16"},{"task":"memory_phase","broad_category":"M","image_png":"M_Gneiss_05.png","image_id":197,"category_name":"Gneiss","category":13,"distinct_rating":2.97,"distinct_type":"Bottom","rt":null,"stimulus":"Stimuli_Rocks480/M_Gneiss_05.png","response":null,"trial_type":"image-keyboard-response","trial_index":18,"plugin_version":"2.1.0","time_elapsed":113385,"subject_id":"87022","group":"Group1","full_date":"2025-12-03T05:08:16.864Z","date":"2025-12-03","time":"05:08:16"},{"rt":null,"stimulus":"<p style=\"font-size: 50px; margin: 0; text-align: center;\">+</p>","response":null,"trial_type":"html-keyboard-response","trial_index":19,"plugin_version":"2.1.0","time_elapsed":114395,"subject_id":"87022","group":"Group1","full_date":"2025-12-03T05:08:16.864Z","date":"2025-12-03","time":"05:08:16"},{"task":"memory_phase","broad_category":"I","image_png":"I_Rhyolite_11.png","image_id":155,"category_name":"Rhyolite","category":10,"distinct_rating":1.73,"distinct_type":"Bottom","rt":null,"stimulus":"Stimuli_Rocks480/I_Rhyolite_11.png","response":null,"trial_type":"image-keyboard-response","trial_index":20,"plugin_version":"2.1.0","time_elapsed":116910,"subject_id":"87022","group":"Group1","full_date":"2025-12-03T05:08:16.864Z","date":"2025-12-03","time":"05:08:16"},{"rt":null,"stimulus":"<p style=\"font-size: 50px; margin: 0; text-align: center;\">+</p>","response":null,"trial_type":"html-keyboard-response","trial_index":21,"plugin_version":"2.1.0","time_elapsed":117922,"subject_id":"87022","group":"Group1","full_date":"2025-12-03T05:08:16.864Z","date":"2025-12-03","time":"05:08:16"},{"task":"memory_phase","broad_category":"M","image_png":"M_Marble_04.png","image_id":228,"category_name":"Marble","category":15,"distinct_rating":3.15,"distinct_type":"Bottom","rt":null,"stimulus":"Stimuli_Rocks480/M_Marble_04.png","response":null,"trial_type":"image-keyboard-response","trial_index":22,"plugin_version":"2.1.0","time_elapsed":120425,"subject_id":"87022","group":"Group1","full_date":"2025-12-03T05:08:16.864Z","date":"2025-12-03","time":"05:08:16"},{"rt":null,"stimulus":"<p style=\"font-size: 50px; margin: 0; text-align: center;\">+</p>","response":null,"trial_type":"html-keyboard-response","trial_index":23,"plugin_version":"2.1.0","time_elapsed":121446,"subject_id":"87022","group":"Group1","full_date":"2025-12-03T05:08:16.864Z","date":"2025-12-03","time":"05:08:16"},{"task":"memory_phase","broad_category":"S","image_png":"S_Rock Gypsum_04.png","image_id":420,"category_name":"Rock Gypsum","category":27,"distinct_rating":7.61,"distinct_type":"Top","rt":null,"stimulus":"Stimuli_Rocks480/S_Rock Gypsum_04.png","response":null,"trial_type":"image-keyboard-response","trial_index":24,"plugin_version":"2.1.0","time_elapsed":123956,"subject_id":"87022","group":"Group1","full_date":"2025-12-03T05:08:16.864Z","date":"2025-12-03","time":"05:08:16"},{"rt":null,"stimulus":"<p style=\"font-size: 50px; margin: 0; text-align: center;\">+</p>","response":null,"trial_type":"html-keyboard-response","trial_index":25,"plugin_version":"2.1.0","time_elapsed":124970,"subject_id":"87022","group":"Group1","full_date":"2025-12-03T05:08:16.864Z","date":"2025-12-03","time":"05:08:16"},{"task":"memory_phase","broad_category":"I","image_png":"I_Diorite_03.png","image_id":35,"category_name":"Diorite","category":3,"distinct_rating":3.14,"distinct_type":"Bottom","rt":null,"stimulus":"Stimuli_Rocks480/I_Diorite_03.png","response":null,"trial_type":"image-keyboard-response","trial_index":26,"plugin_version":"2.1.0","time_elapsed":127475,"subject_id":"87022","group":"Group1","full_date":"2025-12-03T05:08:16.864Z","date":"2025-12-03","time":"05:08:16"},{"rt":null,"stimulus":"<p style=\"font-size: 50px; margin: 0; text-align: center;\">+</p>","response":null,"trial_type":"html-keyboard-response","trial_index":27,"plugin_version":"2.1.0","time_elapsed":128480,"subject_id":"87022","group":"Group1","full_date":"2025-12-03T05:08:16.864Z","date":"2025-12-03","time":"05:08:16"},{"task":"memory_phase","broad_category":"S","image_png":"S_Breccia_11.png","image_id":347,"category_name":"Breccia","category":22,"distinct_rating":6.7,"distinct_type":"Top","rt":null,"stimulus":"Stimuli_Rocks480/S_Breccia_11.png","response":null,"trial_type":"image-keyboard-response","trial_index":28,"plugin_version":"2.1.0","time_elapsed":130986,"subject_id":"87022","group":"Group1","full_date":"2025-12-03T05:08:16.864Z","date":"2025-12-03","time":"05:08:16"},{"rt":null,"stimulus":"<p style=\"font-size: 50px; margin: 0; text-align: center;\">+</p>","response":null,"trial_type":"html-keyboard-response","trial_index":29,"plugin_version":"2.1.0","time_elapsed":131989,"subject_id":"87022","group":"Group1","full_date":"2025-12-03T05:08:16.864Z","date":"2025-12-03","time":"05:08:16"},{"task":"memory_phase","broad_category":"S","image_png":"S_Sandstone_15.png","image_id":463,"category_name":"Sandstone","category":29,"distinct_rating":2,"distinct_type":"Bottom","rt":null,"stimulus":"Stimuli_Rocks480/S_Sandstone_15.png","response":null,"trial_type":"image-keyboard-response","trial_index":30,"plugin_version":"2.1.0","time_elapsed":134499,"subject_id":"87022","group":"Group1","full_date":"2025-12-03T05:08:16.864Z","date":"2025-12-03","time":"05:08:16"},{"rt":null,"stimulus":"<p style=\"font-size: 50px; margin: 0; text-align: center;\">+</p>","response":null,"trial_type":"html-keyboard-response","trial_index":31,"plugin_version":"2.1.0","time_elapsed":135505,"subject_id":"87022","group":"Group1","full_date":"2025-12-03T05:08:16.864Z","date":"2025-12-03","time":"05:08:16"},{"task":"memory_phase","broad_category":"I","image_png":"I_Pumice_12.png","image_id":140,"category_name":"Pumice","category":9,"distinct_rating":2.97,"distinct_type":"Bottom","rt":null,"stimulus":"Stimuli_Rocks480/I_Pumice_12.png","response":null,"trial_type":"image-keyboard-response","trial_index":32,"plugin_version":"2.1.0","time_elapsed":138017,"subject_id":"87022","group":"Group1","full_date":"2025-12-03T05:08:16.864Z","date":"2025-12-03","time":"05:08:16"},{"rt":null,"stimulus":"<p style=\"font-size: 50px; margin: 0; text-align: center;\">+</p>","response":null,"trial_type":"html-keyboard-response","trial_index":33,"plugin_version":"2.1.0","time_elapsed":139033,"subject_id":"87022","group":"Group1","full_date":"2025-12-03T05:08:16.864Z","date":"2025-12-03","time":"05:08:16"},{"task":"memory_phase","broad_category":"M","image_png":"M_Gneiss_13.png","image_id":205,"category_name":"Gneiss","category":13,"distinct_rating":3.26,"distinct_type":"Bottom","rt":null,"stimulus":"Stimuli_Rocks480/M_Gneiss_13.png","response":null,"trial_type":"image-keyboard-response","trial_index":34,"plugin_version":"2.1.0","time_elapsed":141542,"subject_id":"87022","group":"Group1","full_date":"2025-12-03T05:08:16.864Z","date":"2025-12-03","time":"05:08:16"},{"rt":null,"stimulus":"<p style=\"font-size: 50px; margin: 0; text-align: center;\">+</p>","response":null,"trial_type":"html-keyboard-response","trial_index":35,"plugin_version":"2.1.0","time_elapsed":142551,"subject_id":"87022","group":"Group1","full_date":"2025-12-03T05:08:16.864Z","date":"2025-12-03","time":"05:08:16"},{"task":"memory_phase","broad_category":"I","image_png":"I_Diorite_05.png","image_id":37,"category_name":"Diorite","category":3,"distinct_rating":3.08,"distinct_type":"Bottom","rt":null,"stimulus":"Stimuli_Rocks480/I_Diorite_05.png","response":null,"trial_type":"image-keyboard-response","trial_index":36,"plugin_version":"2.1.0","time_elapsed":145066,"subject_id":"87022","group":"Group1","full_date":"2025-12-03T05:08:16.864Z","date":"2025-12-03","time":"05:08:16"},{"rt":null,"stimulus":"<p style=\"font-size: 50px; margin: 0; text-align: center;\">+</p>","response":null,"trial_type":"html-keyboard-response","trial_index":37,"plugin_version":"2.1.0","time_elapsed":146068,"subject_id":"87022","group":"Group1","full_date":"2025-12-03T05:08:16.864Z","date":"2025-12-03","time":"05:08:16"},{"task":"memory_phase","broad_category":"S","image_png":"S_Shale_08.png","image_id":472,"category_name":"Shale","category":30,"distinct_rating":2.55,"distinct_type":"Bottom","rt":null,"stimulus":"Stimuli_Rocks480/S_Shale_08.png","response":null,"trial_type":"image-keyboard-response","trial_index":38,"plugin_version":"2.1.0","time_elapsed":148576,"subject_id":"87022","group":"Group1","full_date":"2025-12-03T05:08:16.864Z","date":"2025-12-03","time":"05:08:16"},{"rt":null,"stimulus":"<p style=\"font-size: 50px; margin: 0; text-align: center;\">+</p>","response":null,"trial_type":"html-keyboard-response","trial_index":39,"plugin_version":"2.1.0","time_elapsed":149583,"subject_id":"87022","group":"Group1","full_date":"2025-12-03T05:08:16.864Z","date":"2025-12-03","time":"05:08:16"},{"task":"memory_phase","broad_category":"I","image_png":"I_Gabbro_11.png","image_id":59,"category_name":"Gabbro","category":4,"distinct_rating":1.99,"distinct_type":"Bottom","rt":null,"stimulus":"Stimuli_Rocks480/I_Gabbro_11.png","response":null,"trial_type":"image-keyboard-response","trial_index":40,"plugin_version":"2.1.0","time_elapsed":152100,"subject_id":"87022","group":"Group1","full_date":"2025-12-03T05:08:16.864Z","date":"2025-12-03","time":"05:08:16"},{"rt":null,"stimulus":"<p style=\"font-size: 50px; margin: 0; text-align: center;\">+</p>","response":null,"trial_type":"html-keyboard-response","trial_index":41,"plugin_version":"2.1.0","time_elapsed":153115,"subject_id":"87022","group":"Group1","full_date":"2025-12-03T05:08:16.864Z","date":"2025-12-03","time":"05:08:16"},{"task":"memory_phase","broad_category":"M","image_png":"M_Quartzite_08.png","image_id":280,"category_name":"Quartzite","category":18,"distinct_rating":2.15,"distinct_type":"Bottom","rt":null,"stimulus":"Stimuli_Rocks480/M_Quartzite_08.png","response":null,"trial_type":"image-keyboard-response","trial_index":42,"plugin_version":"2.1.0","time_elapsed":155623,"subject_id":"87022","group":"Group1","full_date":"2025-12-03T05:08:16.864Z","date":"2025-12-03","time":"05:08:16"},{"rt":null,"stimulus":"<p style=\"font-size: 50px; margin: 0; text-align: center;\">+</p>","response":null,"trial_type":"html-keyboard-response","trial_index":43,"plugin_version":"2.1.0","time_elapsed":156646,"subject_id":"87022","group":"Group1","full_date":"2025-12-03T05:08:16.864Z","date":"2025-12-03","time":"05:08:16"},{"task":"memory_phase","broad_category":"I","image_png":"I_Pumice_08.png","image_id":136,"category_name":"Pumice","category":9,"distinct_rating":3.1,"distinct_type":"Bottom","rt":null,"stimulus":"Stimuli_Rocks480/I_Pumice_08.png","response":null,"trial_type":"image-keyboard-response","trial_index":44,"plugin_version":"2.1.0","time_elapsed":159155,"subject_id":"87022","group":"Group1","full_date":"2025-12-03T05:08:16.864Z","date":"2025-12-03","time":"05:08:16"},{"rt":null,"stimulus":"<p style=\"font-size: 50px; margin: 0; text-align: center;\">+</p>","response":null,"trial_type":"html-keyboard-response","trial_index":45,"plugin_version":"2.1.0","time_elapsed":160159,"subject_id":"87022","group":"Group1","full_date":"2025-12-03T05:08:16.864Z","date":"2025-12-03","time":"05:08:16"},{"task":"memory_phase","broad_category":"M","image_png":"M_Phyllite_03.png","image_id":259,"category_name":"Phyllite","category":17,"distinct_rating":2.5,"distinct_type":"Bottom","rt":null,"stimulus":"Stimuli_Rocks480/M_Phyllite_03.png","response":null,"trial_type":"image-keyboard-response","trial_index":46,"plugin_version":"2.1.0","time_elapsed":162672,"subject_id":"87022","group":"Group1","full_date":"2025-12-03T05:08:16.864Z","date":"2025-12-03","time":"05:08:16"},{"rt":null,"stimulus":"<p style=\"font-size: 50px; margin: 0; text-align: center;\">+</p>","response":null,"trial_type":"html-keyboard-response","trial_index":47,"plugin_version":"2.1.0","time_elapsed":163683,"subject_id":"87022","group":"Group1","full_date":"2025-12-03T05:08:16.864Z","date":"2025-12-03","time":"05:08:16"},{"task":"memory_phase","broad_category":"I","image_png":"I_Rhyolite_16.png","image_id":160,"category_name":"Rhyolite","category":10,"distinct_rating":2.19,"distinct_type":"Bottom","rt":null,"stimulus":"Stimuli_Rocks480/I_Rhyolite_16.png","response":null,"trial_type":"image-keyboard-response","trial_index":48,"plugin_version":"2.1.0","time_elapsed":166185,"subject_id":"87022","group":"Group1","full_date":"2025-12-03T05:08:16.864Z","date":"2025-12-03","time":"05:08:16"},{"rt":null,"stimulus":"<p style=\"font-size: 50px; margin: 0; text-align: center;\">+</p>","response":null,"trial_type":"html-keyboard-response","trial_index":49,"plugin_version":"2.1.0","time_elapsed":167192,"subject_id":"87022","group":"Group1","full_date":"2025-12-03T05:08:16.864Z","date":"2025-12-03","time":"05:08:16"},{"task":"memory_phase","broad_category":"M","image_png":"M_Marble_06.png","image_id":230,"category_name":"Marble","category":15,"distinct_rating":3.4,"distinct_type":"Bottom","rt":null,"stimulus":"Stimuli_Rocks480/M_Marble_06.png","response":null,"trial_type":"image-keyboard-response","trial_index":50,"plugin_version":"2.1.0","time_elapsed":169706,"subject_id":"87022","group":"Group1","full_date":"2025-12-03T05:08:16.864Z","date":"2025-12-03","time":"05:08:16"},{"rt":null,"stimulus":"<p style=\"font-size: 50px; margin: 0; text-align: center;\">+</p>","response":null,"trial_type":"html-keyboard-response","trial_index":51,"plugin_version":"2.1.0","time_elapsed":170719,"subject_id":"87022","group":"Group1","full_date":"2025-12-03T05:08:16.864Z","date":"2025-12-03","time":"05:08:16"},{"task":"memory_phase","broad_category":"I","image_png":"I_Rhyolite_14.png","image_id":158,"category_name":"Rhyolite","category":10,"distinct_rating":2.59,"distinct_type":"Bottom","rt":null,"stimulus":"Stimuli_Rocks480/I_Rhyolite_14.png","response":null,"trial_type":"image-keyboard-response","trial_index":52,"plugin_version":"2.1.0","time_elapsed":173234,"subject_id":"87022","group":"Group1","full_date":"2025-12-03T05:08:16.864Z","date":"2025-12-03","time":"05:08:16"},{"rt":null,"stimulus":"<p style=\"font-size: 50px; margin: 0; text-align: center;\">+</p>","response":null,"trial_type":"html-keyboard-response","trial_index":53,"plugin_version":"2.1.0","time_elapsed":174253,"subject_id":"87022","group":"Group1","full_date":"2025-12-03T05:08:16.864Z","date":"2025-12-03","time":"05:08:16"},{"task":"memory_phase","broad_category":"M","image_png":"M_Marble_16.png","image_id":240,"category_name":"Marble","category":15,"distinct_rating":2.57,"distinct_type":"Bottom","rt":null,"stimulus":"Stimuli_Rocks480/M_Marble_16.png","response":null,"trial_type":"image-keyboard-response","trial_index":54,"plugin_version":"2.1.0","time_elapsed":176755,"subject_id":"87022","group":"Group1","full_date":"2025-12-03T05:08:16.864Z","date":"2025-12-03","time":"05:08:16"},{"rt":3049,"stimulus":"<p style=\"max-width: 760px; margin: auto; font-size: 35px; line-height: 1.5;\">Press SPACE to continue study phase</p>","response":" ","trial_type":"html-keyboard-response","trial_index":55,"plugin_version":"2.1.0","time_elapsed":179806,"subject_id":"87022","group":"Group1","full_date":"2025-12-03T05:08:16.864Z","date":"2025-12-03","time":"05:08:16"},{"rt":null,"stimulus":"<p style=\"font-size: 50px; margin: 0; text-align: center;\">+</p>","response":null,"trial_type":"html-keyboard-response","trial_index":56,"plugin_version":"2.1.0","time_elapsed":180811,"subject_id":"87022","group":"Group1","full_date":"2025-12-03T05:08:16.864Z","date":"2025-12-03","time":"05:08:16"},{"task":"memory_phase","broad_category":"I","image_png":"I_Gabbro_08.png","image_id":56,"category_name":"Gabbro","category":4,"distinct_rating":3.02,"distinct_type":"Bottom","rt":null,"stimulus":"Stimuli_Rocks480/I_Gabbro_08.png","response":null,"trial_type":"image-keyboard-response","trial_index":57,"plugin_version":"2.1.0","time_elapsed":183329,"subject_id":"87022","group":"Group1","full_date":"2025-12-03T05:08:16.864Z","date":"2025-12-03","time":"05:08:16"},{"rt":null,"stimulus":"<p style=\"font-size: 50px; margin: 0; text-align: center;\">+</p>","response":null,"trial_type":"html-keyboard-response","trial_index":58,"plugin_version":"2.1.0","time_elapsed":184331,"subject_id":"87022","group":"Group1","full_date":"2025-12-03T05:08:16.864Z","date":"2025-12-03","time":"05:08:16"},{"task":"memory_phase","broad_category":"S","image_png":"S_Dolomite_12.png","image_id":396,"category_name":"Dolomite","category":25,"distinct_rating":1.85,"distinct_type":"Bottom","rt":null,"stimulus":"Stimuli_Rocks480/S_Dolomite_12.png","response":null,"trial_type":"image-keyboard-response","trial_index":59,"plugin_version":"2.1.0","time_elapsed":186833,"subject_id":"87022","group":"Group1","full_date":"2025-12-03T05:08:16.864Z","date":"2025-12-03","time":"05:08:16"},{"rt":null,"stimulus":"<p style=\"font-size: 50px; margin: 0; text-align: center;\">+</p>","response":null,"trial_type":"html-keyboard-response","trial_index":60,"plugin_version":"2.1.0","time_elapsed":187848,"subject_id":"87022","group":"Group1","full_date":"2025-12-03T05:08:16.864Z","date":"2025-12-03","time":"05:08:16"},{"task":"memory_phase","broad_category":"M","image_png":"M_Slate_15.png","image_id":319,"category_name":"Slate","category":20,"distinct_rating":2.13,"distinct_type":"Bottom","rt":null,"stimulus":"Stimuli_Rocks480/M_Slate_15.png","response":null,"trial_type":"image-keyboard-response","trial_index":61,"plugin_version":"2.1.0","time_elapsed":190359,"subject_id":"87022","group":"Group1","full_date":"2025-12-03T05:08:16.864Z","date":"2025-12-03","time":"05:08:16"},{"rt":null,"stimulus":"<p style=\"font-size: 50px; margin: 0; text-align: center;\">+</p>","response":null,"trial_type":"html-keyboard-response","trial_index":62,"plugin_version":"2.1.0","time_elapsed":191365,"subject_id":"87022","group":"Group1","full_date":"2025-12-03T05:08:16.864Z","date":"2025-12-03","time":"05:08:16"},{"task":"memory_phase","broad_category":"I","image_png":"I_Pegmatite_16.png","image_id":112,"category_name":"Pegmatite","category":7,"distinct_rating":7.03,"distinct_type":"Top","rt":null,"stimulus":"Stimuli_Rocks480/I_Pegmatite_16.png","response":null,"trial_type":"image-keyboard-response","trial_index":63,"plugin_version":"2.1.0","time_elapsed":193870,"subject_id":"87022","group":"Group1","full_date":"2025-12-03T05:08:16.864Z","date":"2025-12-03","time":"05:08:16"},{"rt":null,"stimulus":"<p style=\"font-size: 50px; margin: 0; text-align: center;\">+</p>","response":null,"trial_type":"html-keyboard-response","trial_index":64,"plugin_version":"2.1.0","time_elapsed":194886,"subject_id":"87022","group":"Group1","full_date":"2025-12-03T05:08:16.864Z","date":"2025-12-03","time":"05:08:16"},{"task":"memory_phase","broad_category":"I","image_png":"I_Pegmatite_10.png","image_id":106,"category_name":"Pegmatite","category":7,"distinct_rating":7.66,"distinct_type":"Top","rt":null,"stimulus":"Stimuli_Rocks480/I_Pegmatite_10.png","response":null,"trial_type":"image-keyboard-response","trial_index":65,"plugin_version":"2.1.0","time_elapsed":197389,"subject_id":"87022","group":"Group1","full_date":"2025-12-03T05:08:16.864Z","date":"2025-12-03","time":"05:08:16"},{"rt":null,"stimulus":"<p style=\"font-size: 50px; margin: 0; text-align: center;\">+</p>","response":null,"trial_type":"html-keyboard-response","trial_index":66,"plugin_version":"2.1.0","time_elapsed":198407,"subject_id":"87022","group":"Group1","full_date":"2025-12-03T05:08:16.864Z","date":"2025-12-03","time":"05:08:16"},{"task":"memory_phase","broad_category":"M","image_png":"M_Quartzite_13.png","image_id":285,"category_name":"Quartzite","category":18,"distinct_rating":2.27,"distinct_type":"Bottom","rt":null,"stimulus":"Stimuli_Rocks480/M_Quartzite_13.png","response":null,"trial_type":"image-keyboard-response","trial_index":67,"plugin_version":"2.1.0","time_elapsed":200911,"subject_id":"87022","group":"Group1","full_date":"2025-12-03T05:08:16.864Z","date":"2025-12-03","time":"05:08:16"},{"rt":null,"stimulus":"<p style=\"font-size: 50px; margin: 0; text-align: center;\">+</p>","response":null,"trial_type":"html-keyboard-response","trial_index":68,"plugin_version":"2.1.0","time_elapsed":201923,"subject_id":"87022","group":"Group1","full_date":"2025-12-03T05:08:16.864Z","date":"2025-12-03","time":"05:08:16"},{"task":"memory_phase","broad_category":"I","image_png":"I_Obsidian_05.png","image_id":85,"category_name":"Obsidian","category":6,"distinct_rating":7.32,"distinct_type":"Top","rt":null,"stimulus":"Stimuli_Rocks480/I_Obsidian_05.png","response":null,"trial_type":"image-keyboard-response","trial_index":69,"plugin_version":"2.1.0","time_elapsed":204435,"subject_id":"87022","group":"Group1","full_date":"2025-12-03T05:08:16.864Z","date":"2025-12-03","time":"05:08:16"},{"rt":null,"stimulus":"<p style=\"font-size: 50px; margin: 0; text-align: center;\">+</p>","response":null,"trial_type":"html-keyboard-response","trial_index":70,"plugin_version":"2.1.0","time_elapsed":205438,"subject_id":"87022","group":"Group1","full_date":"2025-12-03T05:08:16.864Z","date":"2025-12-03","time":"05:08:16"},{"task":"memory_phase","broad_category":"S","image_png":"S_Sandstone_03.png","image_id":451,"category_name":"Sandstone","category":29,"distinct_rating":1.86,"distinct_type":"Bottom","rt":null,"stimulus":"Stimuli_Rocks480/S_Sandstone_03.png","response":null,"trial_type":"image-keyboard-response","trial_index":71,"plugin_version":"2.1.0","time_elapsed":207947,"subject_id":"87022","group":"Group1","full_date":"2025-12-03T05:08:16.864Z","date":"2025-12-03","time":"05:08:16"},{"rt":null,"stimulus":"<p style=\"font-size: 50px; margin: 0; text-align: center;\">+</p>","response":null,"trial_type":"html-keyboard-response","trial_index":72,"plugin_version":"2.1.0","time_elapsed":208950,"subject_id":"87022","group":"Group1","full_date":"2025-12-03T05:08:16.864Z","date":"2025-12-03","time":"05:08:16"},{"task":"memory_phase","broad_category":"I","image_png":"I_Basalt_09.png","image_id":25,"category_name":"Basalt","category":2,"distinct_rating":1.89,"distinct_type":"Bottom","rt":null,"stimulus":"Stimuli_Rocks480/I_Basalt_09.png","response":null,"trial_type":"image-keyboard-response","trial_index":73,"plugin_version":"2.1.0","time_elapsed":211466,"subject_id":"87022","group":"Group1","full_date":"2025-12-03T05:08:16.864Z","date":"2025-12-03","time":"05:08:16"},{"rt":null,"stimulus":"<p style=\"font-size: 50px; margin: 0; text-align: center;\">+</p>","response":null,"trial_type":"html-keyboard-response","trial_index":74,"plugin_version":"2.1.0","time_elapsed":212485,"subject_id":"87022","group":"Group1","full_date":"2025-12-03T05:08:16.864Z","date":"2025-12-03","time":"05:08:16"},{"task":"memory_phase","broad_category":"S","image_png":"S_Chert_10.png","image_id":362,"category_name":"Chert","category":23,"distinct_rating":7.17,"distinct_type":"Top","rt":null,"stimulus":"Stimuli_Rocks480/S_Chert_10.png","response":null,"trial_type":"image-keyboard-response","trial_index":75,"plugin_version":"2.1.0","time_elapsed":214987,"subject_id":"87022","group":"Group1","full_date":"2025-12-03T05:08:16.864Z","date":"2025-12-03","time":"05:08:16"},{"rt":null,"stimulus":"<p style=\"font-size: 50px; margin: 0; text-align: center;\">+</p>","response":null,"trial_type":"html-keyboard-response","trial_index":76,"plugin_version":"2.1.0","time_elapsed":215993,"subject_id":"87022","group":"Group1","full_date":"2025-12-03T05:08:16.864Z","date":"2025-12-03","time":"05:08:16"},{"task":"memory_phase","broad_category":"I","image_png":"I_Basalt_02.png","image_id":18,"category_name":"Basalt","category":2,"distinct_rating":1.84,"distinct_type":"Bottom","rt":null,"stimulus":"Stimuli_Rocks480/I_Basalt_02.png","response":null,"trial_type":"image-keyboard-response","trial_index":77,"plugin_version":"2.1.0","time_elapsed":218498,"subject_id":"87022","group":"Group1","full_date":"2025-12-03T05:08:16.864Z","date":"2025-12-03","time":"05:08:16"},{"rt":null,"stimulus":"<p style=\"font-size: 50px; margin: 0; text-align: center;\">+</p>","response":null,"trial_type":"html-keyboard-response","trial_index":78,"plugin_version":"2.1.0","time_elapsed":219509,"subject_id":"87022","group":"Group1","full_date":"2025-12-03T05:08:16.864Z","date":"2025-12-03","time":"05:08:16"},{"task":"memory_phase","broad_category":"I","image_png":"I_Andesite_06.png","image_id":6,"category_name":"Andesite","category":1,"distinct_rating":3.17,"distinct_type":"Bottom","rt":null,"stimulus":"Stimuli_Rocks480/I_Andesite_06.png","response":null,"trial_type":"image-keyboard-response","trial_index":79,"plugin_version":"2.1.0","time_elapsed":222027,"subject_id":"87022","group":"Group1","full_date":"2025-12-03T05:08:16.864Z","date":"2025-12-03","time":"05:08:16"},{"rt":null,"stimulus":"<p style=\"font-size: 50px; margin: 0; text-align: center;\">+</p>","response":null,"trial_type":"html-keyboard-response","trial_index":80,"plugin_version":"2.1.0","time_elapsed":223045,"subject_id":"87022","group":"Group1","full_date":"2025-12-03T05:08:16.864Z","date":"2025-12-03","time":"05:08:16"},{"task":"memory_phase","broad_category":"M","image_png":"M_Phyllite_07.png","image_id":263,"category_name":"Phyllite","category":17,"distinct_rating":2.59,"distinct_type":"Bottom","rt":null,"stimulus":"Stimuli_Rocks480/M_Phyllite_07.png","response":null,"trial_type":"image-keyboard-response","trial_index":81,"plugin_version":"2.1.0","time_elapsed":225560,"subject_id":"87022","group":"Group1","full_date":"2025-12-03T05:08:16.864Z","date":"2025-12-03","time":"05:08:16"},{"rt":null,"stimulus":"<p style=\"font-size: 50px; margin: 0; text-align: center;\">+</p>","response":null,"trial_type":"html-keyboard-response","trial_index":82,"plugin_version":"2.1.0","time_elapsed":226579,"subject_id":"87022","group":"Group1","full_date":"2025-12-03T05:08:16.864Z","date":"2025-12-03","time":"05:08:16"},{"task":"memory_phase","broad_category":"S","image_png":"S_Shale_01.png","image_id":465,"category_name":"Shale","category":30,"distinct_rating":2.7,"distinct_type":"Bottom","rt":null,"stimulus":"Stimuli_Rocks480/S_Shale_01.png","response":null,"trial_type":"image-keyboard-response","trial_index":83,"plugin_version":"2.1.0","time_elapsed":229093,"subject_id":"87022","group":"Group1","full_date":"2025-12-03T05:08:16.864Z","date":"2025-12-03","time":"05:08:16"},{"rt":null,"stimulus":"<p style=\"font-size: 50px; margin: 0; text-align: center;\">+</p>","response":null,"trial_type":"html-keyboard-response","trial_index":84,"plugin_version":"2.1.0","time_elapsed":230105,"subject_id":"87022","group":"Group1","full_date":"2025-12-03T05:08:16.864Z","date":"2025-12-03","time":"05:08:16"},{"task":"memory_phase","broad_category":"M","image_png":"M_Phyllite_10.png","image_id":266,"category_name":"Phyllite","category":17,"distinct_rating":2.6,"distinct_type":"Bottom","rt":null,"stimulus":"Stimuli_Rocks480/M_Phyllite_10.png","response":null,"trial_type":"image-keyboard-response","trial_index":85,"plugin_version":"2.1.0","time_elapsed":232610,"subject_id":"87022","group":"Group1","full_date":"2025-12-03T05:08:16.864Z","date":"2025-12-03","time":"05:08:16"},{"rt":null,"stimulus":"<p style=\"font-size: 50px; margin: 0; text-align: center;\">+</p>","response":null,"trial_type":"html-keyboard-response","trial_index":86,"plugin_version":"2.1.0","time_elapsed":233623,"subject_id":"87022","group":"Group1","full_date":"2025-12-03T05:08:16.864Z","date":"2025-12-03","time":"05:08:16"},{"task":"memory_phase","broad_category":"S","image_png":"S_Rock Salt_01.png","image_id":433,"category_name":"Rock Salt","category":28,"distinct_rating":7.18,"distinct_type":"Top","rt":null,"stimulus":"Stimuli_Rocks480/S_Rock Salt_01.png","response":null,"trial_type":"image-keyboard-response","trial_index":87,"plugin_version":"2.1.0","time_elapsed":236138,"subject_id":"87022","group":"Group1","full_date":"2025-12-03T05:08:16.864Z","date":"2025-12-03","time":"05:08:16"},{"rt":null,"stimulus":"<p style=\"font-size: 50px; margin: 0; text-align: center;\">+</p>","response":null,"trial_type":"html-keyboard-response","trial_index":88,"plugin_version":"2.1.0","time_elapsed":237144,"subject_id":"87022","group":"Group1","full_date":"2025-12-03T05:08:16.864Z","date":"2025-12-03","time":"05:08:16"},{"task":"memory_phase","broad_category":"I","image_png":"I_Gabbro_16.png","image_id":64,"category_name":"Gabbro","category":4,"distinct_rating":2.52,"distinct_type":"Bottom","rt":null,"stimulus":"Stimuli_Rocks480/I_Gabbro_16.png","response":null,"trial_type":"image-keyboard-response","trial_index":89,"plugin_version":"2.1.0","time_elapsed":239649,"subject_id":"87022","group":"Group1","full_date":"2025-12-03T05:08:16.864Z","date":"2025-12-03","time":"05:08:16"},{"rt":null,"stimulus":"<p style=\"font-size: 50px; margin: 0; text-align: center;\">+</p>","response":null,"trial_type":"html-keyboard-response","trial_index":90,"plugin_version":"2.1.0","time_elapsed":240660,"subject_id":"87022","group":"Group1","full_date":"2025-12-03T05:08:16.864Z","date":"2025-12-03","time":"05:08:16"},{"task":"memory_phase","broad_category":"S","image_png":"S_Conglomerate_05.png","image_id":373,"category_name":"Conglomerate","category":24,"distinct_rating":7.32,"distinct_type":"Top","rt":null,"stimulus":"Stimuli_Rocks480/S_Conglomerate_05.png","response":null,"trial_type":"image-keyboard-response","trial_index":91,"plugin_version":"2.1.0","time_elapsed":243178,"subject_id":"87022","group":"Group1","full_date":"2025-12-03T05:08:16.864Z","date":"2025-12-03","time":"05:08:16"},{"rt":null,"stimulus":"<p style=\"font-size: 50px; margin: 0; text-align: center;\">+</p>","response":null,"trial_type":"html-keyboard-response","trial_index":92,"plugin_version":"2.1.0","time_elapsed":244184,"subject_id":"87022","group":"Group1","full_date":"2025-12-03T05:08:16.864Z","date":"2025-12-03","time":"05:08:16"},{"task":"memory_phase","broad_category":"I","image_png":"I_Andesite_08.png","image_id":8,"category_name":"Andesite","category":1,"distinct_rating":1.95,"distinct_type":"Bottom","rt":null,"stimulus":"Stimuli_Rocks480/I_Andesite_08.png","response":null,"trial_type":"image-keyboard-response","trial_index":93,"plugin_version":"2.1.0","time_elapsed":246698,"subject_id":"87022","group":"Group1","full_date":"2025-12-03T05:08:16.864Z","date":"2025-12-03","time":"05:08:16"},{"rt":null,"stimulus":"<p style=\"font-size: 50px; margin: 0; text-align: center;\">+</p>","response":null,"trial_type":"html-keyboard-response","trial_index":94,"plugin_version":"2.1.0","time_elapsed":247711,"subject_id":"87022","group":"Group1","full_date":"2025-12-03T05:08:16.864Z","date":"2025-12-03","time":"05:08:16"},{"task":"memory_phase","broad_category":"I","image_png":"I_Pumice_11.png","image_id":139,"category_name":"Pumice","category":9,"distinct_rating":1.74,"distinct_type":"Bottom","rt":null,"stimulus":"Stimuli_Rocks480/I_Pumice_11.png","response":null,"trial_type":"image-keyboard-response","trial_index":95,"plugin_version":"2.1.0","time_elapsed":250213,"subject_id":"87022","group":"Group1","full_date":"2025-12-03T05:08:16.864Z","date":"2025-12-03","time":"05:08:16"},{"rt":null,"stimulus":"<p style=\"font-size: 50px; margin: 0; text-align: center;\">+</p>","response":null,"trial_type":"html-keyboard-response","trial_index":96,"plugin_version":"2.1.0","time_elapsed":251228,"subject_id":"87022","group":"Group1","full_date":"2025-12-03T05:08:16.864Z","date":"2025-12-03","time":"05:08:16"},{"task":"memory_phase","broad_category":"I","image_png":"I_Diorite_04.png","image_id":36,"category_name":"Diorite","category":3,"distinct_rating":2.98,"distinct_type":"Bottom","rt":null,"stimulus":"Stimuli_Rocks480/I_Diorite_04.png","response":null,"trial_type":"image-keyboard-response","trial_index":97,"plugin_version":"2.1.0","time_elapsed":253741,"subject_id":"87022","group":"Group1","full_date":"2025-12-03T05:08:16.864Z","date":"2025-12-03","time":"05:08:16"},{"rt":null,"stimulus":"<p style=\"font-size: 50px; margin: 0; text-align: center;\">+</p>","response":null,"trial_type":"html-keyboard-response","trial_index":98,"plugin_version":"2.1.0","time_elapsed":254749,"subject_id":"87022","group":"Group1","full_date":"2025-12-03T05:08:16.864Z","date":"2025-12-03","time":"05:08:16"},{"task":"memory_phase","broad_category":"S","image_png":"S_Dolomite_13.png","image_id":397,"category_name":"Dolomite","category":25,"distinct_rating":1.77,"distinct_type":"Bottom","rt":null,"stimulus":"Stimuli_Rocks480/S_Dolomite_13.png","response":null,"trial_type":"image-keyboard-response","trial_index":99,"plugin_version":"2.1.0","time_elapsed":257255,"subject_id":"87022","group":"Group1","full_date":"2025-12-03T05:08:16.864Z","date":"2025-12-03","time":"05:08:16"},{"rt":null,"stimulus":"<p style=\"font-size: 50px; margin: 0; text-align: center;\">+</p>","response":null,"trial_type":"html-keyboard-response","trial_index":100,"plugin_version":"2.1.0","time_elapsed":258262,"subject_id":"87022","group":"Group1","full_date":"2025-12-03T05:08:16.864Z","date":"2025-12-03","time":"05:08:16"},{"task":"memory_phase","broad_category":"I","image_png":"I_Andesite_10.png","image_id":10,"category_name":"Andesite","category":1,"distinct_rating":3.15,"distinct_type":"Bottom","rt":null,"stimulus":"Stimuli_Rocks480/I_Andesite_10.png","response":null,"trial_type":"image-keyboard-response","trial_index":101,"plugin_version":"2.1.0","time_elapsed":260779,"subject_id":"87022","group":"Group1","full_date":"2025-12-03T05:08:16.864Z","date":"2025-12-03","time":"05:08:16"},{"rt":null,"stimulus":"<p style=\"font-size: 50px; margin: 0; text-align: center;\">+</p>","response":null,"trial_type":"html-keyboard-response","trial_index":102,"plugin_version":"2.1.0","time_elapsed":261785,"subject_id":"87022","group":"Group1","full_date":"2025-12-03T05:08:16.864Z","date":"2025-12-03","time":"05:08:16"},{"task":"memory_phase","broad_category":"S","image_png":"S_Sandstone_16.png","image_id":464,"category_name":"Sandstone","category":29,"distinct_rating":1.93,"distinct_type":"Bottom","rt":null,"stimulus":"Stimuli_Rocks480/S_Sandstone_16.png","response":null,"trial_type":"image-keyboard-response","trial_index":103,"plugin_version":"2.1.0","time_elapsed":264294,"subject_id":"87022","group":"Group1","full_date":"2025-12-03T05:08:16.864Z","date":"2025-12-03","time":"05:08:16"},{"rt":null,"stimulus":"<p style=\"font-size: 50px; margin: 0; text-align: center;\">+</p>","response":null,"trial_type":"html-keyboard-response","trial_index":104,"plugin_version":"2.1.0","time_elapsed":265302,"subject_id":"87022","group":"Group1","full_date":"2025-12-03T05:08:16.864Z","date":"2025-12-03","time":"05:08:16"},{"task":"memory_phase","broad_category":"M","image_png":"M_Slate_03.png","image_id":307,"category_name":"Slate","category":20,"distinct_rating":1.87,"distinct_type":"Bottom","rt":null,"stimulus":"Stimuli_Rocks480/M_Slate_03.png","response":null,"trial_type":"image-keyboard-response","trial_index":105,"plugin_version":"2.1.0","time_elapsed":267814,"subject_id":"87022","group":"Group1","full_date":"2025-12-03T05:08:16.864Z","date":"2025-12-03","time":"05:08:16"},{"rt":3887,"stimulus":"<p style=\"max-width: 760px; margin: auto; font-size: 35px; line-height: 1.5;\">You have completed 1 study phase. Now, we'll show you all the images again 2 more times.<br><br>Press SPACE to continue</p>","response":" ","trial_type":"html-keyboard-response","trial_index":106,"plugin_version":"2.1.0","time_elapsed":271704,"subject_id":"87022","group":"Group1","full_date":"2025-12-03T05:08:16.864Z","date":"2025-12-03","time":"05:08:16"},{"rt":null,"stimulus":"<p style=\"font-size: 50px; margin: 0; text-align: center;\">+</p>","response":null,"trial_type":"html-keyboard-response","trial_index":107,"plugin_version":"2.1.0","time_elapsed":272716,"subject_id":"87022","group":"Group1","full_date":"2025-12-03T05:08:16.864Z","date":"2025-12-03","time":"05:08:16"},{"task":"memory_phase","broad_category":"S","image_png":"S_Dolomite_12.png","image_id":396,"category_name":"Dolomite","category":25,"distinct_rating":1.85,"distinct_type":"Bottom","rt":null,"stimulus":"Stimuli_Rocks480/S_Dolomite_12.png","response":null,"trial_type":"image-keyboard-response","trial_index":108,"plugin_version":"2.1.0","time_elapsed":275225,"subject_id":"87022","group":"Group1","full_date":"2025-12-03T05:08:16.864Z","date":"2025-12-03","time":"05:08:16"},{"rt":null,"stimulus":"<p style=\"font-size: 50px; margin: 0; text-align: center;\">+</p>","response":null,"trial_type":"html-keyboard-response","trial_index":109,"plugin_version":"2.1.0","time_elapsed":276233,"subject_id":"87022","group":"Group1","full_date":"2025-12-03T05:08:16.864Z","date":"2025-12-03","time":"05:08:16"},{"task":"memory_phase","broad_category":"I","image_png":"I_Andesite_10.png","image_id":10,"category_name":"Andesite","category":1,"distinct_rating":3.15,"distinct_type":"Bottom","rt":null,"stimulus":"Stimuli_Rocks480/I_Andesite_10.png","response":null,"trial_type":"image-keyboard-response","trial_index":110,"plugin_version":"2.1.0","time_elapsed":278738,"subject_id":"87022","group":"Group1","full_date":"2025-12-03T05:08:16.864Z","date":"2025-12-03","time":"05:08:16"},{"rt":null,"stimulus":"<p style=\"font-size: 50px; margin: 0; text-align: center;\">+</p>","response":null,"trial_type":"html-keyboard-response","trial_index":111,"plugin_version":"2.1.0","time_elapsed":279743,"subject_id":"87022","group":"Group1","full_date":"2025-12-03T05:08:16.864Z","date":"2025-12-03","time":"05:08:16"},{"task":"memory_phase","broad_category":"I","image_png":"I_Pumice_08.png","image_id":136,"category_name":"Pumice","category":9,"distinct_rating":3.1,"distinct_type":"Bottom","rt":null,"stimulus":"Stimuli_Rocks480/I_Pumice_08.png","response":null,"trial_type":"image-keyboard-response","trial_index":112,"plugin_version":"2.1.0","time_elapsed":282253,"subject_id":"87022","group":"Group1","full_date":"2025-12-03T05:08:16.864Z","date":"2025-12-03","time":"05:08:16"},{"rt":null,"stimulus":"<p style=\"font-size: 50px; margin: 0; text-align: center;\">+</p>","response":null,"trial_type":"html-keyboard-response","trial_index":113,"plugin_version":"2.1.0","time_elapsed":283267,"subject_id":"87022","group":"Group1","full_date":"2025-12-03T05:08:16.864Z","date":"2025-12-03","time":"05:08:16"},{"task":"memory_phase","broad_category":"S","image_png":"S_Conglomerate_05.png","image_id":373,"category_name":"Conglomerate","category":24,"distinct_rating":7.32,"distinct_type":"Top","rt":null,"stimulus":"Stimuli_Rocks480/S_Conglomerate_05.png","response":null,"trial_type":"image-keyboard-response","trial_index":114,"plugin_version":"2.1.0","time_elapsed":285780,"subject_id":"87022","group":"Group1","full_date":"2025-12-03T05:08:16.864Z","date":"2025-12-03","time":"05:08:16"},{"rt":null,"stimulus":"<p style=\"font-size: 50px; margin: 0; text-align: center;\">+</p>","response":null,"trial_type":"html-keyboard-response","trial_index":115,"plugin_version":"2.1.0","time_elapsed":286786,"subject_id":"87022","group":"Group1","full_date":"2025-12-03T05:08:16.864Z","date":"2025-12-03","time":"05:08:16"},{"task":"memory_phase","broad_category":"I","image_png":"I_Basalt_09.png","image_id":25,"category_name":"Basalt","category":2,"distinct_rating":1.89,"distinct_type":"Bottom","rt":null,"stimulus":"Stimuli_Rocks480/I_Basalt_09.png","response":null,"trial_type":"image-keyboard-response","trial_index":116,"plugin_version":"2.1.0","time_elapsed":289298,"subject_id":"87022","group":"Group1","full_date":"2025-12-03T05:08:16.864Z","date":"2025-12-03","time":"05:08:16"},{"rt":null,"stimulus":"<p style=\"font-size: 50px; margin: 0; text-align: center;\">+</p>","response":null,"trial_type":"html-keyboard-response","trial_index":117,"plugin_version":"2.1.0","time_elapsed":290311,"subject_id":"87022","group":"Group1","full_date":"2025-12-03T05:08:16.864Z","date":"2025-12-03","time":"05:08:16"},{"task":"memory_phase","broad_category":"M","image_png":"M_Phyllite_07.png","image_id":263,"category_name":"Phyllite","category":17,"distinct_rating":2.59,"distinct_type":"Bottom","rt":null,"stimulus":"Stimuli_Rocks480/M_Phyllite_07.png","response":null,"trial_type":"image-keyboard-response","trial_index":118,"plugin_version":"2.1.0","time_elapsed":292828,"subject_id":"87022","group":"Group1","full_date":"2025-12-03T05:08:16.864Z","date":"2025-12-03","time":"05:08:16"},{"rt":null,"stimulus":"<p style=\"font-size: 50px; margin: 0; text-align: center;\">+</p>","response":null,"trial_type":"html-keyboard-response","trial_index":119,"plugin_version":"2.1.0","time_elapsed":293844,"subject_id":"87022","group":"Group1","full_date":"2025-12-03T05:08:16.864Z","date":"2025-12-03","time":"05:08:16"},{"task":"memory_phase","broad_category":"S","image_png":"S_Sandstone_03.png","image_id":451,"category_name":"Sandstone","category":29,"distinct_rating":1.86,"distinct_type":"Bottom","rt":null,"stimulus":"Stimuli_Rocks480/S_Sandstone_03.png","response":null,"trial_type":"image-keyboard-response","trial_index":120,"plugin_version":"2.1.0","time_elapsed":296355,"subject_id":"87022","group":"Group1","full_date":"2025-12-03T05:08:16.864Z","date":"2025-12-03","time":"05:08:16"},{"rt":null,"stimulus":"<p style=\"font-size: 50px; margin: 0; text-align: center;\">+</p>","response":null,"trial_type":"html-keyboard-response","trial_index":121,"plugin_version":"2.1.0","time_elapsed":297367,"subject_id":"87022","group":"Group1","full_date":"2025-12-03T05:08:16.864Z","date":"2025-12-03","time":"05:08:16"},{"task":"memory_phase","broad_category":"M","image_png":"M_Marble_06.png","image_id":230,"category_name":"Marble","category":15,"distinct_rating":3.4,"distinct_type":"Bottom","rt":null,"stimulus":"Stimuli_Rocks480/M_Marble_06.png","response":null,"trial_type":"image-keyboard-response","trial_index":122,"plugin_version":"2.1.0","time_elapsed":299882,"subject_id":"87022","group":"Group1","full_date":"2025-12-03T05:08:16.864Z","date":"2025-12-03","time":"05:08:16"},{"rt":null,"stimulus":"<p style=\"font-size: 50px; margin: 0; text-align: center;\">+</p>","response":null,"trial_type":"html-keyboard-response","trial_index":123,"plugin_version":"2.1.0","time_elapsed":300887,"subject_id":"87022","group":"Group1","full_date":"2025-12-03T05:08:16.864Z","date":"2025-12-03","time":"05:08:16"},{"task":"memory_phase","broad_category":"S","image_png":"S_Shale_12.png","image_id":476,"category_name":"Shale","category":30,"distinct_rating":2.48,"distinct_type":"Bottom","rt":null,"stimulus":"Stimuli_Rocks480/S_Shale_12.png","response":null,"trial_type":"image-keyboard-response","trial_index":124,"plugin_version":"2.1.0","time_elapsed":303395,"subject_id":"87022","group":"Group1","full_date":"2025-12-03T05:08:16.864Z","date":"2025-12-03","time":"05:08:16"},{"rt":null,"stimulus":"<p style=\"font-size: 50px; margin: 0; text-align: center;\">+</p>","response":null,"trial_type":"html-keyboard-response","trial_index":125,"plugin_version":"2.1.0","time_elapsed":304400,"subject_id":"87022","group":"Group1","full_date":"2025-12-03T05:08:16.864Z","date":"2025-12-03","time":"05:08:16"},{"task":"memory_phase","broad_category":"I","image_png":"I_Gabbro_11.png","image_id":59,"category_name":"Gabbro","category":4,"distinct_rating":1.99,"distinct_type":"Bottom","rt":null,"stimulus":"Stimuli_Rocks480/I_Gabbro_11.png","response":null,"trial_type":"image-keyboard-response","trial_index":126,"plugin_version":"2.1.0","time_elapsed":306908,"subject_id":"87022","group":"Group1","full_date":"2025-12-03T05:08:16.864Z","date":"2025-12-03","time":"05:08:16"},{"rt":null,"stimulus":"<p style=\"font-size: 50px; margin: 0; text-align: center;\">+</p>","response":null,"trial_type":"html-keyboard-response","trial_index":127,"plugin_version":"2.1.0","time_elapsed":307924,"subject_id":"87022","group":"Group1","full_date":"2025-12-03T05:08:16.864Z","date":"2025-12-03","time":"05:08:16"},{"task":"memory_phase","broad_category":"I","image_png":"I_Pumice_12.png","image_id":140,"category_name":"Pumice","category":9,"distinct_rating":2.97,"distinct_type":"Bottom","rt":null,"stimulus":"Stimuli_Rocks480/I_Pumice_12.png","response":null,"trial_type":"image-keyboard-response","trial_index":128,"plugin_version":"2.1.0","time_elapsed":310442,"subject_id":"87022","group":"Group1","full_date":"2025-12-03T05:08:16.864Z","date":"2025-12-03","time":"05:08:16"},{"rt":null,"stimulus":"<p style=\"font-size: 50px; margin: 0; text-align: center;\">+</p>","response":null,"trial_type":"html-keyboard-response","trial_index":129,"plugin_version":"2.1.0","time_elapsed":311456,"subject_id":"87022","group":"Group1","full_date":"2025-12-03T05:08:16.864Z","date":"2025-12-03","time":"05:08:16"},{"task":"memory_phase","broad_category":"I","image_png":"I_Gabbro_08.png","image_id":56,"category_name":"Gabbro","category":4,"distinct_rating":3.02,"distinct_type":"Bottom","rt":null,"stimulus":"Stimuli_Rocks480/I_Gabbro_08.png","response":null,"trial_type":"image-keyboard-response","trial_index":130,"plugin_version":"2.1.0","time_elapsed":313972,"subject_id":"87022","group":"Group1","full_date":"2025-12-03T05:08:16.864Z","date":"2025-12-03","time":"05:08:16"},{"rt":null,"stimulus":"<p style=\"font-size: 50px; margin: 0; text-align: center;\">+</p>","response":null,"trial_type":"html-keyboard-response","trial_index":131,"plugin_version":"2.1.0","time_elapsed":314987,"subject_id":"87022","group":"Group1","full_date":"2025-12-03T05:08:16.864Z","date":"2025-12-03","time":"05:08:16"},{"task":"memory_phase","broad_category":"M","image_png":"M_Quartzite_08.png","image_id":280,"category_name":"Quartzite","category":18,"distinct_rating":2.15,"distinct_type":"Bottom","rt":null,"stimulus":"Stimuli_Rocks480/M_Quartzite_08.png","response":null,"trial_type":"image-keyboard-response","trial_index":132,"plugin_version":"2.1.0","time_elapsed":317494,"subject_id":"87022","group":"Group1","full_date":"2025-12-03T05:08:16.864Z","date":"2025-12-03","time":"05:08:16"},{"rt":null,"stimulus":"<p style=\"font-size: 50px; margin: 0; text-align: center;\">+</p>","response":null,"trial_type":"html-keyboard-response","trial_index":133,"plugin_version":"2.1.0","time_elapsed":318507,"subject_id":"87022","group":"Group1","full_date":"2025-12-03T05:08:16.864Z","date":"2025-12-03","time":"05:08:16"},{"task":"memory_phase","broad_category":"S","image_png":"S_Chert_10.png","image_id":362,"category_name":"Chert","category":23,"distinct_rating":7.17,"distinct_type":"Top","rt":null,"stimulus":"Stimuli_Rocks480/S_Chert_10.png","response":null,"trial_type":"image-keyboard-response","trial_index":134,"plugin_version":"2.1.0","time_elapsed":321021,"subject_id":"87022","group":"Group1","full_date":"2025-12-03T05:08:16.864Z","date":"2025-12-03","time":"05:08:16"},{"rt":null,"stimulus":"<p style=\"font-size: 50px; margin: 0; text-align: center;\">+</p>","response":null,"trial_type":"html-keyboard-response","trial_index":135,"plugin_version":"2.1.0","time_elapsed":322027,"subject_id":"87022","group":"Group1","full_date":"2025-12-03T05:08:16.864Z","date":"2025-12-03","time":"05:08:16"},{"task":"memory_phase","broad_category":"M","image_png":"M_Gneiss_13.png","image_id":205,"category_name":"Gneiss","category":13,"distinct_rating":3.26,"distinct_type":"Bottom","rt":null,"stimulus":"Stimuli_Rocks480/M_Gneiss_13.png","response":null,"trial_type":"image-keyboard-response","trial_index":136,"plugin_version":"2.1.0","time_elapsed":324535,"subject_id":"87022","group":"Group1","full_date":"2025-12-03T05:08:16.864Z","date":"2025-12-03","time":"05:08:16"},{"rt":null,"stimulus":"<p style=\"font-size: 50px; margin: 0; text-align: center;\">+</p>","response":null,"trial_type":"html-keyboard-response","trial_index":137,"plugin_version":"2.1.0","time_elapsed":325540,"subject_id":"87022","group":"Group1","full_date":"2025-12-03T05:08:16.864Z","date":"2025-12-03","time":"05:08:16"},{"task":"memory_phase","broad_category":"I","image_png":"I_Basalt_01.png","image_id":17,"category_name":"Basalt","category":2,"distinct_rating":1.92,"distinct_type":"Bottom","rt":null,"stimulus":"Stimuli_Rocks480/I_Basalt_01.png","response":null,"trial_type":"image-keyboard-response","trial_index":138,"plugin_version":"2.1.0","time_elapsed":328049,"subject_id":"87022","group":"Group1","full_date":"2025-12-03T05:08:16.864Z","date":"2025-12-03","time":"05:08:16"},{"rt":null,"stimulus":"<p style=\"font-size: 50px; margin: 0; text-align: center;\">+</p>","response":null,"trial_type":"html-keyboard-response","trial_index":139,"plugin_version":"2.1.0","time_elapsed":329055,"subject_id":"87022","group":"Group1","full_date":"2025-12-03T05:08:16.864Z","date":"2025-12-03","time":"05:08:16"},{"task":"memory_phase","broad_category":"M","image_png":"M_Slate_03.png","image_id":307,"category_name":"Slate","category":20,"distinct_rating":1.87,"distinct_type":"Bottom","rt":null,"stimulus":"Stimuli_Rocks480/M_Slate_03.png","response":null,"trial_type":"image-keyboard-response","trial_index":140,"plugin_version":"2.1.0","time_elapsed":331563,"subject_id":"87022","group":"Group1","full_date":"2025-12-03T05:08:16.864Z","date":"2025-12-03","time":"05:08:16"},{"rt":null,"stimulus":"<p style=\"font-size: 50px; margin: 0; text-align: center;\">+</p>","response":null,"trial_type":"html-keyboard-response","trial_index":141,"plugin_version":"2.1.0","time_elapsed":332575,"subject_id":"87022","group":"Group1","full_date":"2025-12-03T05:08:16.864Z","date":"2025-12-03","time":"05:08:16"},{"task":"memory_phase","broad_category":"S","image_png":"S_Rock Salt_01.png","image_id":433,"category_name":"Rock Salt","category":28,"distinct_rating":7.18,"distinct_type":"Top","rt":null,"stimulus":"Stimuli_Rocks480/S_Rock Salt_01.png","response":null,"trial_type":"image-keyboard-response","trial_index":142,"plugin_version":"2.1.0","time_elapsed":335081,"subject_id":"87022","group":"Group1","full_date":"2025-12-03T05:08:16.864Z","date":"2025-12-03","time":"05:08:16"},{"rt":null,"stimulus":"<p style=\"font-size: 50px; margin: 0; text-align: center;\">+</p>","response":null,"trial_type":"html-keyboard-response","trial_index":143,"plugin_version":"2.1.0","time_elapsed":336095,"subject_id":"87022","group":"Group1","full_date":"2025-12-03T05:08:16.864Z","date":"2025-12-03","time":"05:08:16"},{"task":"memory_phase","broad_category":"S","image_png":"S_Dolomite_13.png","image_id":397,"category_name":"Dolomite","category":25,"distinct_rating":1.77,"distinct_type":"Bottom","rt":null,"stimulus":"Stimuli_Rocks480/S_Dolomite_13.png","response":null,"trial_type":"image-keyboard-response","trial_index":144,"plugin_version":"2.1.0","time_elapsed":338602,"subject_id":"87022","group":"Group1","full_date":"2025-12-03T05:08:16.864Z","date":"2025-12-03","time":"05:08:16"},{"rt":null,"stimulus":"<p style=\"font-size: 50px; margin: 0; text-align: center;\">+</p>","response":null,"trial_type":"html-keyboard-response","trial_index":145,"plugin_version":"2.1.0","time_elapsed":339606,"subject_id":"87022","group":"Group1","full_date":"2025-12-03T05:08:16.864Z","date":"2025-12-03","time":"05:08:16"},{"task":"memory_phase","broad_category":"S","image_png":"S_Sandstone_15.png","image_id":463,"category_name":"Sandstone","category":29,"distinct_rating":2,"distinct_type":"Bottom","rt":null,"stimulus":"Stimuli_Rocks480/S_Sandstone_15.png","response":null,"trial_type":"image-keyboard-response","trial_index":146,"plugin_version":"2.1.0","time_elapsed":342110,"subject_id":"87022","group":"Group1","full_date":"2025-12-03T05:08:16.864Z","date":"2025-12-03","time":"05:08:16"},{"rt":null,"stimulus":"<p style=\"font-size: 50px; margin: 0; text-align: center;\">+</p>","response":null,"trial_type":"html-keyboard-response","trial_index":147,"plugin_version":"2.1.0","time_elapsed":343125,"subject_id":"87022","group":"Group1","full_date":"2025-12-03T05:08:16.864Z","date":"2025-12-03","time":"05:08:16"},{"task":"memory_phase","broad_category":"M","image_png":"M_Slate_15.png","image_id":319,"category_name":"Slate","category":20,"distinct_rating":2.13,"distinct_type":"Bottom","rt":null,"stimulus":"Stimuli_Rocks480/M_Slate_15.png","response":null,"trial_type":"image-keyboard-response","trial_index":148,"plugin_version":"2.1.0","time_elapsed":345628,"subject_id":"87022","group":"Group1","full_date":"2025-12-03T05:08:16.864Z","date":"2025-12-03","time":"05:08:16"},{"rt":null,"stimulus":"<p style=\"font-size: 50px; margin: 0; text-align: center;\">+</p>","response":null,"trial_type":"html-keyboard-response","trial_index":149,"plugin_version":"2.1.0","time_elapsed":346638,"subject_id":"87022","group":"Group1","full_date":"2025-12-03T05:08:16.864Z","date":"2025-12-03","time":"05:08:16"},{"task":"memory_phase","broad_category":"M","image_png":"M_Phyllite_03.png","image_id":259,"category_name":"Phyllite","category":17,"distinct_rating":2.5,"distinct_type":"Bottom","rt":null,"stimulus":"Stimuli_Rocks480/M_Phyllite_03.png","response":null,"trial_type":"image-keyboard-response","trial_index":150,"plugin_version":"2.1.0","time_elapsed":349139,"subject_id":"87022","group":"Group1","full_date":"2025-12-03T05:08:16.864Z","date":"2025-12-03","time":"05:08:16"},{"rt":null,"stimulus":"<p style=\"font-size: 50px; margin: 0; text-align: center;\">+</p>","response":null,"trial_type":"html-keyboard-response","trial_index":151,"plugin_version":"2.1.0","time_elapsed":350146,"subject_id":"87022","group":"Group1","full_date":"2025-12-03T05:08:16.864Z","date":"2025-12-03","time":"05:08:16"},{"task":"memory_phase","broad_category":"M","image_png":"M_Quartzite_05.png","image_id":277,"category_name":"Quartzite","category":18,"distinct_rating":2.23,"distinct_type":"Bottom","rt":null,"stimulus":"Stimuli_Rocks480/M_Quartzite_05.png","response":null,"trial_type":"image-keyboard-response","trial_index":152,"plugin_version":"2.1.0","time_elapsed":352661,"subject_id":"87022","group":"Group1","full_date":"2025-12-03T05:08:16.864Z","date":"2025-12-03","time":"05:08:16"},{"rt":null,"stimulus":"<p style=\"font-size: 50px; margin: 0; text-align: center;\">+</p>","response":null,"trial_type":"html-keyboard-response","trial_index":153,"plugin_version":"2.1.0","time_elapsed":353669,"subject_id":"87022","group":"Group1","full_date":"2025-12-03T05:08:16.864Z","date":"2025-12-03","time":"05:08:16"},{"task":"memory_phase","broad_category":"I","image_png":"I_Diorite_04.png","image_id":36,"category_name":"Diorite","category":3,"distinct_rating":2.98,"distinct_type":"Bottom","rt":null,"stimulus":"Stimuli_Rocks480/I_Diorite_04.png","response":null,"trial_type":"image-keyboard-response","trial_index":154,"plugin_version":"2.1.0","time_elapsed":356172,"subject_id":"87022","group":"Group1","full_date":"2025-12-03T05:08:16.864Z","date":"2025-12-03","time":"05:08:16"},{"rt":null,"stimulus":"<p style=\"font-size: 50px; margin: 0; text-align: center;\">+</p>","response":null,"trial_type":"html-keyboard-response","trial_index":155,"plugin_version":"2.1.0","time_elapsed":357178,"subject_id":"87022","group":"Group1","full_date":"2025-12-03T05:08:16.864Z","date":"2025-12-03","time":"05:08:16"},{"task":"memory_phase","broad_category":"I","image_png":"I_Gabbro_16.png","image_id":64,"category_name":"Gabbro","category":4,"distinct_rating":2.52,"distinct_type":"Bottom","rt":null,"stimulus":"Stimuli_Rocks480/I_Gabbro_16.png","response":null,"trial_type":"image-keyboard-response","trial_index":156,"plugin_version":"2.1.0","time_elapsed":359691,"subject_id":"87022","group":"Group1","full_date":"2025-12-03T05:08:16.864Z","date":"2025-12-03","time":"05:08:16"},{"rt":1198,"stimulus":"<p style=\"max-width: 760px; margin: auto; font-size: 35px; line-height: 1.5;\">Press SPACE to continue study phase</p>","response":" ","trial_type":"html-keyboard-response","trial_index":157,"plugin_version":"2.1.0","time_elapsed":360891,"subject_id":"87022","group":"Group1","full_date":"2025-12-03T05:08:16.864Z","date":"2025-12-03","time":"05:08:16"},{"rt":null,"stimulus":"<p style=\"font-size: 50px; margin: 0; text-align: center;\">+</p>","response":null,"trial_type":"html-keyboard-response","trial_index":158,"plugin_version":"2.1.0","time_elapsed":361899,"subject_id":"87022","group":"Group1","full_date":"2025-12-03T05:08:16.864Z","date":"2025-12-03","time":"05:08:16"},{"task":"memory_phase","broad_category":"I","image_png":"I_Rhyolite_16.png","image_id":160,"category_name":"Rhyolite","category":10,"distinct_rating":2.19,"distinct_type":"Bottom","rt":null,"stimulus":"Stimuli_Rocks480/I_Rhyolite_16.png","response":null,"trial_type":"image-keyboard-response","trial_index":159,"plugin_version":"2.1.0","time_elapsed":364415,"subject_id":"87022","group":"Group1","full_date":"2025-12-03T05:08:16.864Z","date":"2025-12-03","time":"05:08:16"},{"rt":null,"stimulus":"<p style=\"font-size: 50px; margin: 0; text-align: center;\">+</p>","response":null,"trial_type":"html-keyboard-response","trial_index":160,"plugin_version":"2.1.0","time_elapsed":365430,"subject_id":"87022","group":"Group1","full_date":"2025-12-03T05:08:16.864Z","date":"2025-12-03","time":"05:08:16"},{"task":"memory_phase","broad_category":"M","image_png":"M_Marble_04.png","image_id":228,"category_name":"Marble","category":15,"distinct_rating":3.15,"distinct_type":"Bottom","rt":null,"stimulus":"Stimuli_Rocks480/M_Marble_04.png","response":null,"trial_type":"image-keyboard-response","trial_index":161,"plugin_version":"2.1.0","time_elapsed":367945,"subject_id":"87022","group":"Group1","full_date":"2025-12-03T05:08:16.864Z","date":"2025-12-03","time":"05:08:16"},{"rt":null,"stimulus":"<p style=\"font-size: 50px; margin: 0; text-align: center;\">+</p>","response":null,"trial_type":"html-keyboard-response","trial_index":162,"plugin_version":"2.1.0","time_elapsed":368949,"subject_id":"87022","group":"Group1","full_date":"2025-12-03T05:08:16.864Z","date":"2025-12-03","time":"05:08:16"},{"task":"memory_phase","broad_category":"S","image_png":"S_Dolomite_14.png","image_id":398,"category_name":"Dolomite","category":25,"distinct_rating":1.43,"distinct_type":"Bottom","rt":null,"stimulus":"Stimuli_Rocks480/S_Dolomite_14.png","response":null,"trial_type":"image-keyboard-response","trial_index":163,"plugin_version":"2.1.0","time_elapsed":371458,"subject_id":"87022","group":"Group1","full_date":"2025-12-03T05:08:16.864Z","date":"2025-12-03","time":"05:08:16"},{"rt":null,"stimulus":"<p style=\"font-size: 50px; margin: 0; text-align: center;\">+</p>","response":null,"trial_type":"html-keyboard-response","trial_index":164,"plugin_version":"2.1.0","time_elapsed":372471,"subject_id":"87022","group":"Group1","full_date":"2025-12-03T05:08:16.864Z","date":"2025-12-03","time":"05:08:16"},{"task":"memory_phase","broad_category":"I","image_png":"I_Diorite_03.png","image_id":35,"category_name":"Diorite","category":3,"distinct_rating":3.14,"distinct_type":"Bottom","rt":null,"stimulus":"Stimuli_Rocks480/I_Diorite_03.png","response":null,"trial_type":"image-keyboard-response","trial_index":165,"plugin_version":"2.1.0","time_elapsed":374981,"subject_id":"87022","group":"Group1","full_date":"2025-12-03T05:08:16.864Z","date":"2025-12-03","time":"05:08:16"},{"rt":null,"stimulus":"<p style=\"font-size: 50px; margin: 0; text-align: center;\">+</p>","response":null,"trial_type":"html-keyboard-response","trial_index":166,"plugin_version":"2.1.0","time_elapsed":376006,"subject_id":"87022","group":"Group1","full_date":"2025-12-03T05:08:16.864Z","date":"2025-12-03","time":"05:08:16"},{"task":"memory_phase","broad_category":"M","image_png":"M_Slate_11.png","image_id":315,"category_name":"Slate","category":20,"distinct_rating":2.75,"distinct_type":"Bottom","rt":null,"stimulus":"Stimuli_Rocks480/M_Slate_11.png","response":null,"trial_type":"image-keyboard-response","trial_index":167,"plugin_version":"2.1.0","time_elapsed":378511,"subject_id":"87022","group":"Group1","full_date":"2025-12-03T05:08:16.864Z","date":"2025-12-03","time":"05:08:16"},{"rt":null,"stimulus":"<p style=\"font-size: 50px; margin: 0; text-align: center;\">+</p>","response":null,"trial_type":"html-keyboard-response","trial_index":168,"plugin_version":"2.1.0","time_elapsed":379527,"subject_id":"87022","group":"Group1","full_date":"2025-12-03T05:08:16.864Z","date":"2025-12-03","time":"05:08:16"},{"task":"memory_phase","broad_category":"S","image_png":"S_Sandstone_16.png","image_id":464,"category_name":"Sandstone","category":29,"distinct_rating":1.93,"distinct_type":"Bottom","rt":null,"stimulus":"Stimuli_Rocks480/S_Sandstone_16.png","response":null,"trial_type":"image-keyboard-response","trial_index":169,"plugin_version":"2.1.0","time_elapsed":382036,"subject_id":"87022","group":"Group1","full_date":"2025-12-03T05:08:16.864Z","date":"2025-12-03","time":"05:08:16"},{"rt":null,"stimulus":"<p style=\"font-size: 50px; margin: 0; text-align: center;\">+</p>","response":null,"trial_type":"html-keyboard-response","trial_index":170,"plugin_version":"2.1.0","time_elapsed":383043,"subject_id":"87022","group":"Group1","full_date":"2025-12-03T05:08:16.864Z","date":"2025-12-03","time":"05:08:16"},{"task":"memory_phase","broad_category":"I","image_png":"I_Rhyolite_11.png","image_id":155,"category_name":"Rhyolite","category":10,"distinct_rating":1.73,"distinct_type":"Bottom","rt":null,"stimulus":"Stimuli_Rocks480/I_Rhyolite_11.png","response":null,"trial_type":"image-keyboard-response","trial_index":171,"plugin_version":"2.1.0","time_elapsed":385556,"subject_id":"87022","group":"Group1","full_date":"2025-12-03T05:08:16.864Z","date":"2025-12-03","time":"05:08:16"},{"rt":null,"stimulus":"<p style=\"font-size: 50px; margin: 0; text-align: center;\">+</p>","response":null,"trial_type":"html-keyboard-response","trial_index":172,"plugin_version":"2.1.0","time_elapsed":386561,"subject_id":"87022","group":"Group1","full_date":"2025-12-03T05:08:16.864Z","date":"2025-12-03","time":"05:08:16"},{"task":"memory_phase","broad_category":"I","image_png":"I_Diorite_05.png","image_id":37,"category_name":"Diorite","category":3,"distinct_rating":3.08,"distinct_type":"Bottom","rt":null,"stimulus":"Stimuli_Rocks480/I_Diorite_05.png","response":null,"trial_type":"image-keyboard-response","trial_index":173,"plugin_version":"2.1.0","time_elapsed":389073,"subject_id":"87022","group":"Group1","full_date":"2025-12-03T05:08:16.864Z","date":"2025-12-03","time":"05:08:16"},{"rt":null,"stimulus":"<p style=\"font-size: 50px; margin: 0; text-align: center;\">+</p>","response":null,"trial_type":"html-keyboard-response","trial_index":174,"plugin_version":"2.1.0","time_elapsed":390087,"subject_id":"87022","group":"Group1","full_date":"2025-12-03T05:08:16.864Z","date":"2025-12-03","time":"05:08:16"},{"task":"memory_phase","broad_category":"I","image_png":"I_Pumice_11.png","image_id":139,"category_name":"Pumice","category":9,"distinct_rating":1.74,"distinct_type":"Bottom","rt":null,"stimulus":"Stimuli_Rocks480/I_Pumice_11.png","response":null,"trial_type":"image-keyboard-response","trial_index":175,"plugin_version":"2.1.0","time_elapsed":392601,"subject_id":"87022","group":"Group1","full_date":"2025-12-03T05:08:16.864Z","date":"2025-12-03","time":"05:08:16"},{"rt":null,"stimulus":"<p style=\"font-size: 50px; margin: 0; text-align: center;\">+</p>","response":null,"trial_type":"html-keyboard-response","trial_index":176,"plugin_version":"2.1.0","time_elapsed":393615,"subject_id":"87022","group":"Group1","full_date":"2025-12-03T05:08:16.864Z","date":"2025-12-03","time":"05:08:16"},{"task":"memory_phase","broad_category":"M","image_png":"M_Gneiss_05.png","image_id":197,"category_name":"Gneiss","category":13,"distinct_rating":2.97,"distinct_type":"Bottom","rt":null,"stimulus":"Stimuli_Rocks480/M_Gneiss_05.png","response":null,"trial_type":"image-keyboard-response","trial_index":177,"plugin_version":"2.1.0","time_elapsed":396124,"subject_id":"87022","group":"Group1","full_date":"2025-12-03T05:08:16.864Z","date":"2025-12-03","time":"05:08:16"},{"rt":null,"stimulus":"<p style=\"font-size: 50px; margin: 0; text-align: center;\">+</p>","response":null,"trial_type":"html-keyboard-response","trial_index":178,"plugin_version":"2.1.0","time_elapsed":397140,"subject_id":"87022","group":"Group1","full_date":"2025-12-03T05:08:16.864Z","date":"2025-12-03","time":"05:08:16"},{"task":"memory_phase","broad_category":"I","image_png":"I_Basalt_02.png","image_id":18,"category_name":"Basalt","category":2,"distinct_rating":1.84,"distinct_type":"Bottom","rt":null,"stimulus":"Stimuli_Rocks480/I_Basalt_02.png","response":null,"trial_type":"image-keyboard-response","trial_index":179,"plugin_version":"2.1.0","time_elapsed":399643,"subject_id":"87022","group":"Group1","full_date":"2025-12-03T05:08:16.864Z","date":"2025-12-03","time":"05:08:16"},{"rt":null,"stimulus":"<p style=\"font-size: 50px; margin: 0; text-align: center;\">+</p>","response":null,"trial_type":"html-keyboard-response","trial_index":180,"plugin_version":"2.1.0","time_elapsed":400649,"subject_id":"87022","group":"Group1","full_date":"2025-12-03T05:08:16.864Z","date":"2025-12-03","time":"05:08:16"},{"task":"memory_phase","broad_category":"M","image_png":"M_Gneiss_06.png","image_id":198,"category_name":"Gneiss","category":13,"distinct_rating":2.65,"distinct_type":"Bottom","rt":null,"stimulus":"Stimuli_Rocks480/M_Gneiss_06.png","response":null,"trial_type":"image-keyboard-response","trial_index":181,"plugin_version":"2.1.0","time_elapsed":403151,"subject_id":"87022","group":"Group1","full_date":"2025-12-03T05:08:16.864Z","date":"2025-12-03","time":"05:08:16"},{"rt":null,"stimulus":"<p style=\"font-size: 50px; margin: 0; text-align: center;\">+</p>","response":null,"trial_type":"html-keyboard-response","trial_index":182,"plugin_version":"2.1.0","time_elapsed":404163,"subject_id":"87022","group":"Group1","full_date":"2025-12-03T05:08:16.864Z","date":"2025-12-03","time":"05:08:16"},{"task":"memory_phase","broad_category":"I","image_png":"I_Pegmatite_10.png","image_id":106,"category_name":"Pegmatite","category":7,"distinct_rating":7.66,"distinct_type":"Top","rt":null,"stimulus":"Stimuli_Rocks480/I_Pegmatite_10.png","response":null,"trial_type":"image-keyboard-response","trial_index":183,"plugin_version":"2.1.0","time_elapsed":406666,"subject_id":"87022","group":"Group1","full_date":"2025-12-03T05:08:16.864Z","date":"2025-12-03","time":"05:08:16"},{"rt":null,"stimulus":"<p style=\"font-size: 50px; margin: 0; text-align: center;\">+</p>","response":null,"trial_type":"html-keyboard-response","trial_index":184,"plugin_version":"2.1.0","time_elapsed":407684,"subject_id":"87022","group":"Group1","full_date":"2025-12-03T05:08:16.864Z","date":"2025-12-03","time":"05:08:16"},{"task":"memory_phase","broad_category":"M","image_png":"M_Quartzite_13.png","image_id":285,"category_name":"Quartzite","category":18,"distinct_rating":2.27,"distinct_type":"Bottom","rt":null,"stimulus":"Stimuli_Rocks480/M_Quartzite_13.png","response":null,"trial_type":"image-keyboard-response","trial_index":185,"plugin_version":"2.1.0","time_elapsed":410199,"subject_id":"87022","group":"Group1","full_date":"2025-12-03T05:08:16.864Z","date":"2025-12-03","time":"05:08:16"},{"rt":null,"stimulus":"<p style=\"font-size: 50px; margin: 0; text-align: center;\">+</p>","response":null,"trial_type":"html-keyboard-response","trial_index":186,"plugin_version":"2.1.0","time_elapsed":411211,"subject_id":"87022","group":"Group1","full_date":"2025-12-03T05:08:16.864Z","date":"2025-12-03","time":"05:08:16"},{"task":"memory_phase","broad_category":"I","image_png":"I_Obsidian_05.png","image_id":85,"category_name":"Obsidian","category":6,"distinct_rating":7.32,"distinct_type":"Top","rt":null,"stimulus":"Stimuli_Rocks480/I_Obsidian_05.png","response":null,"trial_type":"image-keyboard-response","trial_index":187,"plugin_version":"2.1.0","time_elapsed":413714,"subject_id":"87022","group":"Group1","full_date":"2025-12-03T05:08:16.864Z","date":"2025-12-03","time":"05:08:16"},{"rt":null,"stimulus":"<p style=\"font-size: 50px; margin: 0; text-align: center;\">+</p>","response":null,"trial_type":"html-keyboard-response","trial_index":188,"plugin_version":"2.1.0","time_elapsed":414719,"subject_id":"87022","group":"Group1","full_date":"2025-12-03T05:08:16.864Z","date":"2025-12-03","time":"05:08:16"},{"task":"memory_phase","broad_category":"S","image_png":"S_Shale_01.png","image_id":465,"category_name":"Shale","category":30,"distinct_rating":2.7,"distinct_type":"Bottom","rt":null,"stimulus":"Stimuli_Rocks480/S_Shale_01.png","response":null,"trial_type":"image-keyboard-response","trial_index":189,"plugin_version":"2.1.0","time_elapsed":417234,"subject_id":"87022","group":"Group1","full_date":"2025-12-03T05:08:16.864Z","date":"2025-12-03","time":"05:08:16"},{"rt":null,"stimulus":"<p style=\"font-size: 50px; margin: 0; text-align: center;\">+</p>","response":null,"trial_type":"html-keyboard-response","trial_index":190,"plugin_version":"2.1.0","time_elapsed":418244,"subject_id":"87022","group":"Group1","full_date":"2025-12-03T05:08:16.864Z","date":"2025-12-03","time":"05:08:16"},{"task":"memory_phase","broad_category":"I","image_png":"I_Rhyolite_14.png","image_id":158,"category_name":"Rhyolite","category":10,"distinct_rating":2.59,"distinct_type":"Bottom","rt":null,"stimulus":"Stimuli_Rocks480/I_Rhyolite_14.png","response":null,"trial_type":"image-keyboard-response","trial_index":191,"plugin_version":"2.1.0","time_elapsed":420755,"subject_id":"87022","group":"Group1","full_date":"2025-12-03T05:08:16.864Z","date":"2025-12-03","time":"05:08:16"},{"rt":null,"stimulus":"<p style=\"font-size: 50px; margin: 0; text-align: center;\">+</p>","response":null,"trial_type":"html-keyboard-response","trial_index":192,"plugin_version":"2.1.0","time_elapsed":421761,"subject_id":"87022","group":"Group1","full_date":"2025-12-03T05:08:16.864Z","date":"2025-12-03","time":"05:08:16"},{"task":"memory_phase","broad_category":"I","image_png":"I_Andesite_08.png","image_id":8,"category_name":"Andesite","category":1,"distinct_rating":1.95,"distinct_type":"Bottom","rt":null,"stimulus":"Stimuli_Rocks480/I_Andesite_08.png","response":null,"trial_type":"image-keyboard-response","trial_index":193,"plugin_version":"2.1.0","time_elapsed":424272,"subject_id":"87022","group":"Group1","full_date":"2025-12-03T05:08:16.864Z","date":"2025-12-03","time":"05:08:16"},{"rt":null,"stimulus":"<p style=\"font-size: 50px; margin: 0; text-align: center;\">+</p>","response":null,"trial_type":"html-keyboard-response","trial_index":194,"plugin_version":"2.1.0","time_elapsed":425290,"subject_id":"87022","group":"Group1","full_date":"2025-12-03T05:08:16.864Z","date":"2025-12-03","time":"05:08:16"},{"task":"memory_phase","broad_category":"S","image_png":"S_Rock Gypsum_04.png","image_id":420,"category_name":"Rock Gypsum","category":27,"distinct_rating":7.61,"distinct_type":"Top","rt":null,"stimulus":"Stimuli_Rocks480/S_Rock Gypsum_04.png","response":null,"trial_type":"image-keyboard-response","trial_index":195,"plugin_version":"2.1.0","time_elapsed":427793,"subject_id":"87022","group":"Group1","full_date":"2025-12-03T05:08:16.864Z","date":"2025-12-03","time":"05:08:16"},{"rt":null,"stimulus":"<p style=\"font-size: 50px; margin: 0; text-align: center;\">+</p>","response":null,"trial_type":"html-keyboard-response","trial_index":196,"plugin_version":"2.1.0","time_elapsed":428794,"subject_id":"87022","group":"Group1","full_date":"2025-12-03T05:08:16.864Z","date":"2025-12-03","time":"05:08:16"},{"task":"memory_phase","broad_category":"M","image_png":"M_Phyllite_10.png","image_id":266,"category_name":"Phyllite","category":17,"distinct_rating":2.6,"distinct_type":"Bottom","rt":null,"stimulus":"Stimuli_Rocks480/M_Phyllite_10.png","response":null,"trial_type":"image-keyboard-response","trial_index":197,"plugin_version":"2.1.0","time_elapsed":431308,"subject_id":"87022","group":"Group1","full_date":"2025-12-03T05:08:16.864Z","date":"2025-12-03","time":"05:08:16"},{"rt":null,"stimulus":"<p style=\"font-size: 50px; margin: 0; text-align: center;\">+</p>","response":null,"trial_type":"html-keyboard-response","trial_index":198,"plugin_version":"2.1.0","time_elapsed":432312,"subject_id":"87022","group":"Group1","full_date":"2025-12-03T05:08:16.864Z","date":"2025-12-03","time":"05:08:16"},{"task":"memory_phase","broad_category":"I","image_png":"I_Andesite_06.png","image_id":6,"category_name":"Andesite","category":1,"distinct_rating":3.17,"distinct_type":"Bottom","rt":null,"stimulus":"Stimuli_Rocks480/I_Andesite_06.png","response":null,"trial_type":"image-keyboard-response","trial_index":199,"plugin_version":"2.1.0","time_elapsed":434826,"subject_id":"87022","group":"Group1","full_date":"2025-12-03T05:08:16.864Z","date":"2025-12-03","time":"05:08:16"},{"rt":null,"stimulus":"<p style=\"font-size: 50px; margin: 0; text-align: center;\">+</p>","response":null,"trial_type":"html-keyboard-response","trial_index":200,"plugin_version":"2.1.0","time_elapsed":435837,"subject_id":"87022","group":"Group1","full_date":"2025-12-03T05:08:16.864Z","date":"2025-12-03","time":"05:08:16"},{"task":"memory_phase","broad_category":"S","image_png":"S_Breccia_11.png","image_id":347,"category_name":"Breccia","category":22,"distinct_rating":6.7,"distinct_type":"Top","rt":null,"stimulus":"Stimuli_Rocks480/S_Breccia_11.png","response":null,"trial_type":"image-keyboard-response","trial_index":201,"plugin_version":"2.1.0","time_elapsed":438350,"subject_id":"87022","group":"Group1","full_date":"2025-12-03T05:08:16.864Z","date":"2025-12-03","time":"05:08:16"},{"rt":null,"stimulus":"<p style=\"font-size: 50px; margin: 0; text-align: center;\">+</p>","response":null,"trial_type":"html-keyboard-response","trial_index":202,"plugin_version":"2.1.0","time_elapsed":439365,"subject_id":"87022","group":"Group1","full_date":"2025-12-03T05:08:16.864Z","date":"2025-12-03","time":"05:08:16"},{"task":"memory_phase","broad_category":"S","image_png":"S_Shale_08.png","image_id":472,"category_name":"Shale","category":30,"distinct_rating":2.55,"distinct_type":"Bottom","rt":null,"stimulus":"Stimuli_Rocks480/S_Shale_08.png","response":null,"trial_type":"image-keyboard-response","trial_index":203,"plugin_version":"2.1.0","time_elapsed":441870,"subject_id":"87022","group":"Group1","full_date":"2025-12-03T05:08:16.864Z","date":"2025-12-03","time":"05:08:16"},{"rt":null,"stimulus":"<p style=\"font-size: 50px; margin: 0; text-align: center;\">+</p>","response":null,"trial_type":"html-keyboard-response","trial_index":204,"plugin_version":"2.1.0","time_elapsed":442879,"subject_id":"87022","group":"Group1","full_date":"2025-12-03T05:08:16.864Z","date":"2025-12-03","time":"05:08:16"},{"task":"memory_phase","broad_category":"I","image_png":"I_Pegmatite_16.png","image_id":112,"category_name":"Pegmatite","category":7,"distinct_rating":7.03,"distinct_type":"Top","rt":null,"stimulus":"Stimuli_Rocks480/I_Pegmatite_16.png","response":null,"trial_type":"image-keyboard-response","trial_index":205,"plugin_version":"2.1.0","time_elapsed":445385,"subject_id":"87022","group":"Group1","full_date":"2025-12-03T05:08:16.864Z","date":"2025-12-03","time":"05:08:16"},{"rt":null,"stimulus":"<p style=\"font-size: 50px; margin: 0; text-align: center;\">+</p>","response":null,"trial_type":"html-keyboard-response","trial_index":206,"plugin_version":"2.1.0","time_elapsed":446401,"subject_id":"87022","group":"Group1","full_date":"2025-12-03T05:08:16.864Z","date":"2025-12-03","time":"05:08:16"},{"task":"memory_phase","broad_category":"M","image_png":"M_Marble_16.png","image_id":240,"category_name":"Marble","category":15,"distinct_rating":2.57,"distinct_type":"Bottom","rt":null,"stimulus":"Stimuli_Rocks480/M_Marble_16.png","response":null,"trial_type":"image-keyboard-response","trial_index":207,"plugin_version":"2.1.0","time_elapsed":448906,"subject_id":"87022","group":"Group1","full_date":"2025-12-03T05:08:16.864Z","date":"2025-12-03","time":"05:08:16"},{"rt":3474,"stimulus":"<p style=\"max-width: 760px; margin: auto; font-size: 35px; line-height: 1.5;\">You have completed 2 study phases. Now, we'll show you all the images again 1 more time.<br><br>Press SPACE to continue</p>","response":" ","trial_type":"html-keyboard-response","trial_index":208,"plugin_version":"2.1.0","time_elapsed":452391,"subject_id":"87022","group":"Group1","full_date":"2025-12-03T05:08:16.864Z","date":"2025-12-03","time":"05:08:16"},{"rt":null,"stimulus":"<p style=\"font-size: 50px; margin: 0; text-align: center;\">+</p>","response":null,"trial_type":"html-keyboard-response","trial_index":209,"plugin_version":"2.1.0","time_elapsed":453396,"subject_id":"87022","group":"Group1","full_date":"2025-12-03T05:08:16.864Z","date":"2025-12-03","time":"05:08:16"},{"task":"memory_phase","broad_category":"I","image_png":"I_Gabbro_16.png","image_id":64,"category_name":"Gabbro","category":4,"distinct_rating":2.52,"distinct_type":"Bottom","rt":null,"stimulus":"Stimuli_Rocks480/I_Gabbro_16.png","response":null,"trial_type":"image-keyboard-response","trial_index":210,"plugin_version":"2.1.0","time_elapsed":455907,"subject_id":"87022","group":"Group1","full_date":"2025-12-03T05:08:16.864Z","date":"2025-12-03","time":"05:08:16"},{"rt":null,"stimulus":"<p style=\"font-size: 50px; margin: 0; text-align: center;\">+</p>","response":null,"trial_type":"html-keyboard-response","trial_index":211,"plugin_version":"2.1.0","time_elapsed":456924,"subject_id":"87022","group":"Group1","full_date":"2025-12-03T05:08:16.864Z","date":"2025-12-03","time":"05:08:16"},{"task":"memory_phase","broad_category":"S","image_png":"S_Sandstone_03.png","image_id":451,"category_name":"Sandstone","category":29,"distinct_rating":1.86,"distinct_type":"Bottom","rt":null,"stimulus":"Stimuli_Rocks480/S_Sandstone_03.png","response":null,"trial_type":"image-keyboard-response","trial_index":212,"plugin_version":"2.1.0","time_elapsed":459430,"subject_id":"87022","group":"Group1","full_date":"2025-12-03T05:08:16.864Z","date":"2025-12-03","time":"05:08:16"},{"rt":null,"stimulus":"<p style=\"font-size: 50px; margin: 0; text-align: center;\">+</p>","response":null,"trial_type":"html-keyboard-response","trial_index":213,"plugin_version":"2.1.0","time_elapsed":460444,"subject_id":"87022","group":"Group1","full_date":"2025-12-03T05:08:16.864Z","date":"2025-12-03","time":"05:08:16"},{"task":"memory_phase","broad_category":"I","image_png":"I_Basalt_02.png","image_id":18,"category_name":"Basalt","category":2,"distinct_rating":1.84,"distinct_type":"Bottom","rt":null,"stimulus":"Stimuli_Rocks480/I_Basalt_02.png","response":null,"trial_type":"image-keyboard-response","trial_index":214,"plugin_version":"2.1.0","time_elapsed":462962,"subject_id":"87022","group":"Group1","full_date":"2025-12-03T05:08:16.864Z","date":"2025-12-03","time":"05:08:16"},{"rt":null,"stimulus":"<p style=\"font-size: 50px; margin: 0; text-align: center;\">+</p>","response":null,"trial_type":"html-keyboard-response","trial_index":215,"plugin_version":"2.1.0","time_elapsed":463974,"subject_id":"87022","group":"Group1","full_date":"2025-12-03T05:08:16.864Z","date":"2025-12-03","time":"05:08:16"},{"task":"memory_phase","broad_category":"S","image_png":"S_Rock Gypsum_04.png","image_id":420,"category_name":"Rock Gypsum","category":27,"distinct_rating":7.61,"distinct_type":"Top","rt":null,"stimulus":"Stimuli_Rocks480/S_Rock Gypsum_04.png","response":null,"trial_type":"image-keyboard-response","trial_index":216,"plugin_version":"2.1.0","time_elapsed":466490,"subject_id":"87022","group":"Group1","full_date":"2025-12-03T05:08:16.864Z","date":"2025-12-03","time":"05:08:16"},{"rt":null,"stimulus":"<p style=\"font-size: 50px; margin: 0; text-align: center;\">+</p>","response":null,"trial_type":"html-keyboard-response","trial_index":217,"plugin_version":"2.1.0","time_elapsed":467493,"subject_id":"87022","group":"Group1","full_date":"2025-12-03T05:08:16.864Z","date":"2025-12-03","time":"05:08:16"},{"task":"memory_phase","broad_category":"I","image_png":"I_Gabbro_11.png","image_id":59,"category_name":"Gabbro","category":4,"distinct_rating":1.99,"distinct_type":"Bottom","rt":null,"stimulus":"Stimuli_Rocks480/I_Gabbro_11.png","response":null,"trial_type":"image-keyboard-response","trial_index":218,"plugin_version":"2.1.0","time_elapsed":470005,"subject_id":"87022","group":"Group1","full_date":"2025-12-03T05:08:16.864Z","date":"2025-12-03","time":"05:08:16"},{"rt":null,"stimulus":"<p style=\"font-size: 50px; margin: 0; text-align: center;\">+</p>","response":null,"trial_type":"html-keyboard-response","trial_index":219,"plugin_version":"2.1.0","time_elapsed":471009,"subject_id":"87022","group":"Group1","full_date":"2025-12-03T05:08:16.864Z","date":"2025-12-03","time":"05:08:16"},{"task":"memory_phase","broad_category":"I","image_png":"I_Diorite_03.png","image_id":35,"category_name":"Diorite","category":3,"distinct_rating":3.14,"distinct_type":"Bottom","rt":null,"stimulus":"Stimuli_Rocks480/I_Diorite_03.png","response":null,"trial_type":"image-keyboard-response","trial_index":220,"plugin_version":"2.1.0","time_elapsed":473530,"subject_id":"87022","group":"Group1","full_date":"2025-12-03T05:08:16.864Z","date":"2025-12-03","time":"05:08:16"},{"rt":null,"stimulus":"<p style=\"font-size: 50px; margin: 0; text-align: center;\">+</p>","response":null,"trial_type":"html-keyboard-response","trial_index":221,"plugin_version":"2.1.0","time_elapsed":474543,"subject_id":"87022","group":"Group1","full_date":"2025-12-03T05:08:16.864Z","date":"2025-12-03","time":"05:08:16"},{"task":"memory_phase","broad_category":"M","image_png":"M_Slate_11.png","image_id":315,"category_name":"Slate","category":20,"distinct_rating":2.75,"distinct_type":"Bottom","rt":null,"stimulus":"Stimuli_Rocks480/M_Slate_11.png","response":null,"trial_type":"image-keyboard-response","trial_index":222,"plugin_version":"2.1.0","time_elapsed":477056,"subject_id":"87022","group":"Group1","full_date":"2025-12-03T05:08:16.864Z","date":"2025-12-03","time":"05:08:16"},{"rt":null,"stimulus":"<p style=\"font-size: 50px; margin: 0; text-align: center;\">+</p>","response":null,"trial_type":"html-keyboard-response","trial_index":223,"plugin_version":"2.1.0","time_elapsed":478070,"subject_id":"87022","group":"Group1","full_date":"2025-12-03T05:08:16.864Z","date":"2025-12-03","time":"05:08:16"},{"task":"memory_phase","broad_category":"I","image_png":"I_Pumice_08.png","image_id":136,"category_name":"Pumice","category":9,"distinct_rating":3.1,"distinct_type":"Bottom","rt":null,"stimulus":"Stimuli_Rocks480/I_Pumice_08.png","response":null,"trial_type":"image-keyboard-response","trial_index":224,"plugin_version":"2.1.0","time_elapsed":480577,"subject_id":"87022","group":"Group1","full_date":"2025-12-03T05:08:16.864Z","date":"2025-12-03","time":"05:08:16"},{"rt":null,"stimulus":"<p style=\"font-size: 50px; margin: 0; text-align: center;\">+</p>","response":null,"trial_type":"html-keyboard-response","trial_index":225,"plugin_version":"2.1.0","time_elapsed":481592,"subject_id":"87022","group":"Group1","full_date":"2025-12-03T05:08:16.864Z","date":"2025-12-03","time":"05:08:16"},{"task":"memory_phase","broad_category":"I","image_png":"I_Pegmatite_16.png","image_id":112,"category_name":"Pegmatite","category":7,"distinct_rating":7.03,"distinct_type":"Top","rt":null,"stimulus":"Stimuli_Rocks480/I_Pegmatite_16.png","response":null,"trial_type":"image-keyboard-response","trial_index":226,"plugin_version":"2.1.0","time_elapsed":484106,"subject_id":"87022","group":"Group1","full_date":"2025-12-03T05:08:16.864Z","date":"2025-12-03","time":"05:08:16"},{"rt":null,"stimulus":"<p style=\"font-size: 50px; margin: 0; text-align: center;\">+</p>","response":null,"trial_type":"html-keyboard-response","trial_index":227,"plugin_version":"2.1.0","time_elapsed":485109,"subject_id":"87022","group":"Group1","full_date":"2025-12-03T05:08:16.864Z","date":"2025-12-03","time":"05:08:16"},{"task":"memory_phase","broad_category":"S","image_png":"S_Shale_12.png","image_id":476,"category_name":"Shale","category":30,"distinct_rating":2.48,"distinct_type":"Bottom","rt":null,"stimulus":"Stimuli_Rocks480/S_Shale_12.png","response":null,"trial_type":"image-keyboard-response","trial_index":228,"plugin_version":"2.1.0","time_elapsed":487625,"subject_id":"87022","group":"Group1","full_date":"2025-12-03T05:08:16.864Z","date":"2025-12-03","time":"05:08:16"},{"rt":null,"stimulus":"<p style=\"font-size: 50px; margin: 0; text-align: center;\">+</p>","response":null,"trial_type":"html-keyboard-response","trial_index":229,"plugin_version":"2.1.0","time_elapsed":488634,"subject_id":"87022","group":"Group1","full_date":"2025-12-03T05:08:16.864Z","date":"2025-12-03","time":"05:08:16"},{"task":"memory_phase","broad_category":"M","image_png":"M_Marble_06.png","image_id":230,"category_name":"Marble","category":15,"distinct_rating":3.4,"distinct_type":"Bottom","rt":null,"stimulus":"Stimuli_Rocks480/M_Marble_06.png","response":null,"trial_type":"image-keyboard-response","trial_index":230,"plugin_version":"2.1.0","time_elapsed":491139,"subject_id":"87022","group":"Group1","full_date":"2025-12-03T05:08:16.864Z","date":"2025-12-03","time":"05:08:16"},{"rt":null,"stimulus":"<p style=\"font-size: 50px; margin: 0; text-align: center;\">+</p>","response":null,"trial_type":"html-keyboard-response","trial_index":231,"plugin_version":"2.1.0","time_elapsed":492153,"subject_id":"87022","group":"Group1","full_date":"2025-12-03T05:08:16.864Z","date":"2025-12-03","time":"05:08:16"},{"task":"memory_phase","broad_category":"M","image_png":"M_Quartzite_08.png","image_id":280,"category_name":"Quartzite","category":18,"distinct_rating":2.15,"distinct_type":"Bottom","rt":null,"stimulus":"Stimuli_Rocks480/M_Quartzite_08.png","response":null,"trial_type":"image-keyboard-response","trial_index":232,"plugin_version":"2.1.0","time_elapsed":494670,"subject_id":"87022","group":"Group1","full_date":"2025-12-03T05:08:16.864Z","date":"2025-12-03","time":"05:08:16"},{"rt":null,"stimulus":"<p style=\"font-size: 50px; margin: 0; text-align: center;\">+</p>","response":null,"trial_type":"html-keyboard-response","trial_index":233,"plugin_version":"2.1.0","time_elapsed":495674,"subject_id":"87022","group":"Group1","full_date":"2025-12-03T05:08:16.864Z","date":"2025-12-03","time":"05:08:16"},{"task":"memory_phase","broad_category":"S","image_png":"S_Dolomite_12.png","image_id":396,"category_name":"Dolomite","category":25,"distinct_rating":1.85,"distinct_type":"Bottom","rt":null,"stimulus":"Stimuli_Rocks480/S_Dolomite_12.png","response":null,"trial_type":"image-keyboard-response","trial_index":234,"plugin_version":"2.1.0","time_elapsed":498190,"subject_id":"87022","group":"Group1","full_date":"2025-12-03T05:08:16.864Z","date":"2025-12-03","time":"05:08:16"},{"rt":null,"stimulus":"<p style=\"font-size: 50px; margin: 0; text-align: center;\">+</p>","response":null,"trial_type":"html-keyboard-response","trial_index":235,"plugin_version":"2.1.0","time_elapsed":499206,"subject_id":"87022","group":"Group1","full_date":"2025-12-03T05:08:16.864Z","date":"2025-12-03","time":"05:08:16"},{"task":"memory_phase","broad_category":"S","image_png":"S_Conglomerate_05.png","image_id":373,"category_name":"Conglomerate","category":24,"distinct_rating":7.32,"distinct_type":"Top","rt":null,"stimulus":"Stimuli_Rocks480/S_Conglomerate_05.png","response":null,"trial_type":"image-keyboard-response","trial_index":236,"plugin_version":"2.1.0","time_elapsed":501723,"subject_id":"87022","group":"Group1","full_date":"2025-12-03T05:08:16.864Z","date":"2025-12-03","time":"05:08:16"},{"rt":null,"stimulus":"<p style=\"font-size: 50px; margin: 0; text-align: center;\">+</p>","response":null,"trial_type":"html-keyboard-response","trial_index":237,"plugin_version":"2.1.0","time_elapsed":502741,"subject_id":"87022","group":"Group1","full_date":"2025-12-03T05:08:16.864Z","date":"2025-12-03","time":"05:08:16"},{"task":"memory_phase","broad_category":"I","image_png":"I_Andesite_08.png","image_id":8,"category_name":"Andesite","category":1,"distinct_rating":1.95,"distinct_type":"Bottom","rt":null,"stimulus":"Stimuli_Rocks480/I_Andesite_08.png","response":null,"trial_type":"image-keyboard-response","trial_index":238,"plugin_version":"2.1.0","time_elapsed":505243,"subject_id":"87022","group":"Group1","full_date":"2025-12-03T05:08:16.864Z","date":"2025-12-03","time":"05:08:16"},{"rt":null,"stimulus":"<p style=\"font-size: 50px; margin: 0; text-align: center;\">+</p>","response":null,"trial_type":"html-keyboard-response","trial_index":239,"plugin_version":"2.1.0","time_elapsed":506262,"subject_id":"87022","group":"Group1","full_date":"2025-12-03T05:08:16.864Z","date":"2025-12-03","time":"05:08:16"},{"task":"memory_phase","broad_category":"S","image_png":"S_Sandstone_16.png","image_id":464,"category_name":"Sandstone","category":29,"distinct_rating":1.93,"distinct_type":"Bottom","rt":null,"stimulus":"Stimuli_Rocks480/S_Sandstone_16.png","response":null,"trial_type":"image-keyboard-response","trial_index":240,"plugin_version":"2.1.0","time_elapsed":508779,"subject_id":"87022","group":"Group1","full_date":"2025-12-03T05:08:16.864Z","date":"2025-12-03","time":"05:08:16"},{"rt":null,"stimulus":"<p style=\"font-size: 50px; margin: 0; text-align: center;\">+</p>","response":null,"trial_type":"html-keyboard-response","trial_index":241,"plugin_version":"2.1.0","time_elapsed":509788,"subject_id":"87022","group":"Group1","full_date":"2025-12-03T05:08:16.864Z","date":"2025-12-03","time":"05:08:16"},{"task":"memory_phase","broad_category":"I","image_png":"I_Pumice_11.png","image_id":139,"category_name":"Pumice","category":9,"distinct_rating":1.74,"distinct_type":"Bottom","rt":null,"stimulus":"Stimuli_Rocks480/I_Pumice_11.png","response":null,"trial_type":"image-keyboard-response","trial_index":242,"plugin_version":"2.1.0","time_elapsed":512295,"subject_id":"87022","group":"Group1","full_date":"2025-12-03T05:08:16.864Z","date":"2025-12-03","time":"05:08:16"},{"rt":null,"stimulus":"<p style=\"font-size: 50px; margin: 0; text-align: center;\">+</p>","response":null,"trial_type":"html-keyboard-response","trial_index":243,"plugin_version":"2.1.0","time_elapsed":513310,"subject_id":"87022","group":"Group1","full_date":"2025-12-03T05:08:16.864Z","date":"2025-12-03","time":"05:08:16"},{"task":"memory_phase","broad_category":"M","image_png":"M_Marble_16.png","image_id":240,"category_name":"Marble","category":15,"distinct_rating":2.57,"distinct_type":"Bottom","rt":null,"stimulus":"Stimuli_Rocks480/M_Marble_16.png","response":null,"trial_type":"image-keyboard-response","trial_index":244,"plugin_version":"2.1.0","time_elapsed":515826,"subject_id":"87022","group":"Group1","full_date":"2025-12-03T05:08:16.864Z","date":"2025-12-03","time":"05:08:16"},{"rt":null,"stimulus":"<p style=\"font-size: 50px; margin: 0; text-align: center;\">+</p>","response":null,"trial_type":"html-keyboard-response","trial_index":245,"plugin_version":"2.1.0","time_elapsed":516831,"subject_id":"87022","group":"Group1","full_date":"2025-12-03T05:08:16.864Z","date":"2025-12-03","time":"05:08:16"},{"task":"memory_phase","broad_category":"S","image_png":"S_Rock Salt_01.png","image_id":433,"category_name":"Rock Salt","category":28,"distinct_rating":7.18,"distinct_type":"Top","rt":null,"stimulus":"Stimuli_Rocks480/S_Rock Salt_01.png","response":null,"trial_type":"image-keyboard-response","trial_index":246,"plugin_version":"2.1.0","time_elapsed":519334,"subject_id":"87022","group":"Group1","full_date":"2025-12-03T05:08:16.864Z","date":"2025-12-03","time":"05:08:16"},{"rt":null,"stimulus":"<p style=\"font-size: 50px; margin: 0; text-align: center;\">+</p>","response":null,"trial_type":"html-keyboard-response","trial_index":247,"plugin_version":"2.1.0","time_elapsed":520349,"subject_id":"87022","group":"Group1","full_date":"2025-12-03T05:08:16.864Z","date":"2025-12-03","time":"05:08:16"},{"task":"memory_phase","broad_category":"M","image_png":"M_Phyllite_10.png","image_id":266,"category_name":"Phyllite","category":17,"distinct_rating":2.6,"distinct_type":"Bottom","rt":null,"stimulus":"Stimuli_Rocks480/M_Phyllite_10.png","response":null,"trial_type":"image-keyboard-response","trial_index":248,"plugin_version":"2.1.0","tim