[{"width":1536,"height":730,"webaudio":true,"browser":"chrome","browser_version":"142.0.0","mobile":false,"os":"Windows 10","fullscreen":true,"vsync_rate":59.78,"webcam":true,"microphone":true,"trial_type":"browser-check","trial_index":0,"plugin_version":"2.1.0","time_elapsed":29786,"subject_id":"89565","group":"Group2","full_date":"2025-12-03T21:45:50.989Z","date":"2025-12-03","time":"21:45:50"},{"success":true,"timeout":false,"failed_images":[],"failed_audio":[],"failed_video":[],"trial_type":"preload","trial_index":1,"plugin_version":"2.1.0","time_elapsed":31725,"subject_id":"89565","group":"Group2","full_date":"2025-12-03T21:45:50.989Z","date":"2025-12-03","time":"21:45:50"},{"rt":16315,"url":"SONA_consent_memorability.html","trial_type":"external-html","trial_index":2,"plugin_version":"2.1.0","time_elapsed":48111,"subject_id":"89565","group":"Group2","full_date":"2025-12-03T21:45:50.989Z","date":"2025-12-03","time":"21:45:50"},{"success":true,"rt":1588,"trial_type":"fullscreen","trial_index":3,"plugin_version":"2.1.0","time_elapsed":50718,"subject_id":"89565","group":"Group2","full_date":"2025-12-03T21:45:50.989Z","date":"2025-12-03","time":"21:45:50"},{"rt":8892073,"stimulus":"<div style=\"max-width: 760px; margin: auto; font-size: 20px; line-height: 1.5;\">\n      <h1 style=\"text-align:center; font-size: 30px;\">Instructions</h1>\n      <p>\n        Welcome to the study on <b>visual memory</b>. This experiment consists of <b>two phases</b>: \n        a <b>study phase</b> and a <b>test phase</b>.\n      </p>\n      <p>\n        In the study phase, you will see a series of rock images along with their category labels.\n        The images will appear one at a time.\n        <b>Your task</b> is to learn the categories to which the rock images belong \n        and to remember each image as accurately as possible.\n      </p> \n      <p>\n        Note that we will repeat the study phase <b>3 times</b>, \n        so you will have multiple opportunities to see and remember each image.\n      </p>\n      <p>\n        After the study phase, <b>your memory will be tested</b>. \n        Additional instructions for the test phase will be provided at that time.\n      </p>\n      <p>\n        If your computer has multiple <b>language settings</b> (e.g., English and another language),\n        please make sure it is set to English before starting.\n      </p>\n      <p>\n        You can track your progress using the <b>completion bar</b> at the top of the screen. \n        Please note that the bar will refresh when the test phase begins \n        to give you an accurate sense of your progress in both phases.\n      </p> \n      <p>\n        Press the button below when you are ready to begin.\n      </p>\n    </div>","response":0,"trial_type":"html-button-response","trial_index":4,"plugin_version":"2.1.0","time_elapsed":8942811,"subject_id":"89565","group":"Group2","full_date":"2025-12-03T21:45:50.989Z","date":"2025-12-03","time":"21:45:50"},{"rt":null,"stimulus":"<p style=\"font-size: 50px; margin: 0; text-align: center;\">+</p>","response":null,"trial_type":"html-keyboard-response","trial_index":5,"plugin_version":"2.1.0","time_elapsed":8943825,"subject_id":"89565","group":"Group2","full_date":"2025-12-03T21:45:50.989Z","date":"2025-12-03","time":"21:45:50"},{"task":"memory_phase","broad_category":"I","image_png":"I_Andesite_03.png","image_id":3,"category_name":"Andesite","category":1,"distinct_rating":3.17,"distinct_type":"Bottom","rt":null,"stimulus":"Stimuli_Rocks480/I_Andesite_03.png","response":null,"trial_type":"image-keyboard-response","trial_index":6,"plugin_version":"2.1.0","time_elapsed":8946336,"subject_id":"89565","group":"Group2","full_date":"2025-12-03T21:45:50.989Z","date":"2025-12-03","time":"21:45:50"},{"rt":null,"stimulus":"<p style=\"font-size: 50px; margin: 0; text-align: center;\">+</p>","response":null,"trial_type":"html-keyboard-response","trial_index":7,"plugin_version":"2.1.0","time_elapsed":8947349,"subject_id":"89565","group":"Group2","full_date":"2025-12-03T21:45:50.989Z","date":"2025-12-03","time":"21:45:50"},{"task":"memory_phase","broad_category":"M","image_png":"M_Gneiss_15.png","image_id":207,"category_name":"Gneiss","category":13,"distinct_rating":3.11,"distinct_type":"Bottom","rt":null,"stimulus":"Stimuli_Rocks480/M_Gneiss_15.png","response":null,"trial_type":"image-keyboard-response","trial_index":8,"plugin_version":"2.1.0","time_elapsed":8949864,"subject_id":"89565","group":"Group2","full_date":"2025-12-03T21:45:50.989Z","date":"2025-12-03","time":"21:45:50"},{"rt":null,"stimulus":"<p style=\"font-size: 50px; margin: 0; text-align: center;\">+</p>","response":null,"trial_type":"html-keyboard-response","trial_index":9,"plugin_version":"2.1.0","time_elapsed":8950880,"subject_id":"89565","group":"Group2","full_date":"2025-12-03T21:45:50.989Z","date":"2025-12-03","time":"21:45:50"},{"task":"memory_phase","broad_category":"S","image_png":"S_Shale_02.png","image_id":466,"category_name":"Shale","category":30,"distinct_rating":2.9,"distinct_type":"Bottom","rt":null,"stimulus":"Stimuli_Rocks480/S_Shale_02.png","response":null,"trial_type":"image-keyboard-response","trial_index":10,"plugin_version":"2.1.0","time_elapsed":8953387,"subject_id":"89565","group":"Group2","full_date":"2025-12-03T21:45:50.989Z","date":"2025-12-03","time":"21:45:50"},{"rt":null,"stimulus":"<p style=\"font-size: 50px; margin: 0; text-align: center;\">+</p>","response":null,"trial_type":"html-keyboard-response","trial_index":11,"plugin_version":"2.1.0","time_elapsed":8954399,"subject_id":"89565","group":"Group2","full_date":"2025-12-03T21:45:50.989Z","date":"2025-12-03","time":"21:45:50"},{"task":"memory_phase","broad_category":"M","image_png":"M_Phyllite_02.png","image_id":258,"category_name":"Phyllite","category":17,"distinct_rating":2.89,"distinct_type":"Bottom","rt":null,"stimulus":"Stimuli_Rocks480/M_Phyllite_02.png","response":null,"trial_type":"image-keyboard-response","trial_index":12,"plugin_version":"2.1.0","time_elapsed":8956917,"subject_id":"89565","group":"Group2","full_date":"2025-12-03T21:45:50.989Z","date":"2025-12-03","time":"21:45:50"},{"rt":null,"stimulus":"<p style=\"font-size: 50px; margin: 0; text-align: center;\">+</p>","response":null,"trial_type":"html-keyboard-response","trial_index":13,"plugin_version":"2.1.0","time_elapsed":8957929,"subject_id":"89565","group":"Group2","full_date":"2025-12-03T21:45:50.989Z","date":"2025-12-03","time":"21:45:50"},{"task":"memory_phase","broad_category":"S","image_png":"S_Dolomite_16.png","image_id":400,"category_name":"Dolomite","category":25,"distinct_rating":1.71,"distinct_type":"Bottom","rt":null,"stimulus":"Stimuli_Rocks480/S_Dolomite_16.png","response":null,"trial_type":"image-keyboard-response","trial_index":14,"plugin_version":"2.1.0","time_elapsed":8960440,"subject_id":"89565","group":"Group2","full_date":"2025-12-03T21:45:50.989Z","date":"2025-12-03","time":"21:45:50"},{"rt":null,"stimulus":"<p style=\"font-size: 50px; margin: 0; text-align: center;\">+</p>","response":null,"trial_type":"html-keyboard-response","trial_index":15,"plugin_version":"2.1.0","time_elapsed":8961464,"subject_id":"89565","group":"Group2","full_date":"2025-12-03T21:45:50.989Z","date":"2025-12-03","time":"21:45:50"},{"task":"memory_phase","broad_category":"I","image_png":"I_Obsidian_06.png","image_id":86,"category_name":"Obsidian","category":6,"distinct_rating":8.01,"distinct_type":"Top","rt":null,"stimulus":"Stimuli_Rocks480/I_Obsidian_06.png","response":null,"trial_type":"image-keyboard-response","trial_index":16,"plugin_version":"2.1.0","time_elapsed":8963980,"subject_id":"89565","group":"Group2","full_date":"2025-12-03T21:45:50.989Z","date":"2025-12-03","time":"21:45:50"},{"rt":null,"stimulus":"<p style=\"font-size: 50px; margin: 0; text-align: center;\">+</p>","response":null,"trial_type":"html-keyboard-response","trial_index":17,"plugin_version":"2.1.0","time_elapsed":8964984,"subject_id":"89565","group":"Group2","full_date":"2025-12-03T21:45:50.989Z","date":"2025-12-03","time":"21:45:50"},{"task":"memory_phase","broad_category":"M","image_png":"M_Gneiss_14.png","image_id":206,"category_name":"Gneiss","category":13,"distinct_rating":3.41,"distinct_type":"Bottom","rt":null,"stimulus":"Stimuli_Rocks480/M_Gneiss_14.png","response":null,"trial_type":"image-keyboard-response","trial_index":18,"plugin_version":"2.1.0","time_elapsed":8967507,"subject_id":"89565","group":"Group2","full_date":"2025-12-03T21:45:50.989Z","date":"2025-12-03","time":"21:45:50"},{"rt":null,"stimulus":"<p style=\"font-size: 50px; margin: 0; text-align: center;\">+</p>","response":null,"trial_type":"html-keyboard-response","trial_index":19,"plugin_version":"2.1.0","time_elapsed":8968518,"subject_id":"89565","group":"Group2","full_date":"2025-12-03T21:45:50.989Z","date":"2025-12-03","time":"21:45:50"},{"task":"memory_phase","broad_category":"M","image_png":"M_Marble_03.png","image_id":227,"category_name":"Marble","category":15,"distinct_rating":2.67,"distinct_type":"Bottom","rt":null,"stimulus":"Stimuli_Rocks480/M_Marble_03.png","response":null,"trial_type":"image-keyboard-response","trial_index":20,"plugin_version":"2.1.0","time_elapsed":8971038,"subject_id":"89565","group":"Group2","full_date":"2025-12-03T21:45:50.989Z","date":"2025-12-03","time":"21:45:50"},{"rt":null,"stimulus":"<p style=\"font-size: 50px; margin: 0; text-align: center;\">+</p>","response":null,"trial_type":"html-keyboard-response","trial_index":21,"plugin_version":"2.1.0","time_elapsed":8972050,"subject_id":"89565","group":"Group2","full_date":"2025-12-03T21:45:50.989Z","date":"2025-12-03","time":"21:45:50"},{"task":"memory_phase","broad_category":"I","image_png":"I_Andesite_09.png","image_id":9,"category_name":"Andesite","category":1,"distinct_rating":2.49,"distinct_type":"Bottom","rt":null,"stimulus":"Stimuli_Rocks480/I_Andesite_09.png","response":null,"trial_type":"image-keyboard-response","trial_index":22,"plugin_version":"2.1.0","time_elapsed":8974558,"subject_id":"89565","group":"Group2","full_date":"2025-12-03T21:45:50.989Z","date":"2025-12-03","time":"21:45:50"},{"rt":null,"stimulus":"<p style=\"font-size: 50px; margin: 0; text-align: center;\">+</p>","response":null,"trial_type":"html-keyboard-response","trial_index":23,"plugin_version":"2.1.0","time_elapsed":8975564,"subject_id":"89565","group":"Group2","full_date":"2025-12-03T21:45:50.989Z","date":"2025-12-03","time":"21:45:50"},{"task":"memory_phase","broad_category":"S","image_png":"S_Chert_13.png","image_id":365,"category_name":"Chert","category":23,"distinct_rating":6.57,"distinct_type":"Top","rt":null,"stimulus":"Stimuli_Rocks480/S_Chert_13.png","response":null,"trial_type":"image-keyboard-response","trial_index":24,"plugin_version":"2.1.0","time_elapsed":8978071,"subject_id":"89565","group":"Group2","full_date":"2025-12-03T21:45:50.989Z","date":"2025-12-03","time":"21:45:50"},{"rt":null,"stimulus":"<p style=\"font-size: 50px; margin: 0; text-align: center;\">+</p>","response":null,"trial_type":"html-keyboard-response","trial_index":25,"plugin_version":"2.1.0","time_elapsed":8979082,"subject_id":"89565","group":"Group2","full_date":"2025-12-03T21:45:50.989Z","date":"2025-12-03","time":"21:45:50"},{"task":"memory_phase","broad_category":"I","image_png":"I_Pegmatite_03.png","image_id":99,"category_name":"Pegmatite","category":7,"distinct_rating":7.24,"distinct_type":"Top","rt":null,"stimulus":"Stimuli_Rocks480/I_Pegmatite_03.png","response":null,"trial_type":"image-keyboard-response","trial_index":26,"plugin_version":"2.1.0","time_elapsed":8981594,"subject_id":"89565","group":"Group2","full_date":"2025-12-03T21:45:50.989Z","date":"2025-12-03","time":"21:45:50"},{"rt":null,"stimulus":"<p style=\"font-size: 50px; margin: 0; text-align: center;\">+</p>","response":null,"trial_type":"html-keyboard-response","trial_index":27,"plugin_version":"2.1.0","time_elapsed":8982597,"subject_id":"89565","group":"Group2","full_date":"2025-12-03T21:45:50.989Z","date":"2025-12-03","time":"21:45:50"},{"task":"memory_phase","broad_category":"S","image_png":"S_Conglomerate_14.png","image_id":382,"category_name":"Conglomerate","category":24,"distinct_rating":6.86,"distinct_type":"Top","rt":null,"stimulus":"Stimuli_Rocks480/S_Conglomerate_14.png","response":null,"trial_type":"image-keyboard-response","trial_index":28,"plugin_version":"2.1.0","time_elapsed":8985105,"subject_id":"89565","group":"Group2","full_date":"2025-12-03T21:45:50.989Z","date":"2025-12-03","time":"21:45:50"},{"rt":null,"stimulus":"<p style=\"font-size: 50px; margin: 0; text-align: center;\">+</p>","response":null,"trial_type":"html-keyboard-response","trial_index":29,"plugin_version":"2.1.0","time_elapsed":8986117,"subject_id":"89565","group":"Group2","full_date":"2025-12-03T21:45:50.989Z","date":"2025-12-03","time":"21:45:50"},{"task":"memory_phase","broad_category":"S","image_png":"S_Dolomite_07.png","image_id":391,"category_name":"Dolomite","category":25,"distinct_rating":1.73,"distinct_type":"Bottom","rt":null,"stimulus":"Stimuli_Rocks480/S_Dolomite_07.png","response":null,"trial_type":"image-keyboard-response","trial_index":30,"plugin_version":"2.1.0","time_elapsed":8988637,"subject_id":"89565","group":"Group2","full_date":"2025-12-03T21:45:50.989Z","date":"2025-12-03","time":"21:45:50"},{"rt":null,"stimulus":"<p style=\"font-size: 50px; margin: 0; text-align: center;\">+</p>","response":null,"trial_type":"html-keyboard-response","trial_index":31,"plugin_version":"2.1.0","time_elapsed":8989649,"subject_id":"89565","group":"Group2","full_date":"2025-12-03T21:45:50.989Z","date":"2025-12-03","time":"21:45:50"},{"task":"memory_phase","broad_category":"I","image_png":"I_Peridotite_13.png","image_id":125,"category_name":"Peridotite","category":8,"distinct_rating":7.28,"distinct_type":"Top","rt":null,"stimulus":"Stimuli_Rocks480/I_Peridotite_13.png","response":null,"trial_type":"image-keyboard-response","trial_index":32,"plugin_version":"2.1.0","time_elapsed":8992157,"subject_id":"89565","group":"Group2","full_date":"2025-12-03T21:45:50.989Z","date":"2025-12-03","time":"21:45:50"},{"rt":null,"stimulus":"<p style=\"font-size: 50px; margin: 0; text-align: center;\">+</p>","response":null,"trial_type":"html-keyboard-response","trial_index":33,"plugin_version":"2.1.0","time_elapsed":8993166,"subject_id":"89565","group":"Group2","full_date":"2025-12-03T21:45:50.989Z","date":"2025-12-03","time":"21:45:50"},{"task":"memory_phase","broad_category":"S","image_png":"S_Sandstone_04.png","image_id":452,"category_name":"Sandstone","category":29,"distinct_rating":1.8,"distinct_type":"Bottom","rt":null,"stimulus":"Stimuli_Rocks480/S_Sandstone_04.png","response":null,"trial_type":"image-keyboard-response","trial_index":34,"plugin_version":"2.1.0","time_elapsed":8995673,"subject_id":"89565","group":"Group2","full_date":"2025-12-03T21:45:50.989Z","date":"2025-12-03","time":"21:45:50"},{"rt":null,"stimulus":"<p style=\"font-size: 50px; margin: 0; text-align: center;\">+</p>","response":null,"trial_type":"html-keyboard-response","trial_index":35,"plugin_version":"2.1.0","time_elapsed":8996678,"subject_id":"89565","group":"Group2","full_date":"2025-12-03T21:45:50.989Z","date":"2025-12-03","time":"21:45:50"},{"task":"memory_phase","broad_category":"I","image_png":"I_Gabbro_02.png","image_id":50,"category_name":"Gabbro","category":4,"distinct_rating":2.73,"distinct_type":"Bottom","rt":null,"stimulus":"Stimuli_Rocks480/I_Gabbro_02.png","response":null,"trial_type":"image-keyboard-response","trial_index":36,"plugin_version":"2.1.0","time_elapsed":8999190,"subject_id":"89565","group":"Group2","full_date":"2025-12-03T21:45:50.989Z","date":"2025-12-03","time":"21:45:50"},{"rt":null,"stimulus":"<p style=\"font-size: 50px; margin: 0; text-align: center;\">+</p>","response":null,"trial_type":"html-keyboard-response","trial_index":37,"plugin_version":"2.1.0","time_elapsed":9000194,"subject_id":"89565","group":"Group2","full_date":"2025-12-03T21:45:50.989Z","date":"2025-12-03","time":"21:45:50"},{"task":"memory_phase","broad_category":"I","image_png":"I_Basalt_13.png","image_id":29,"category_name":"Basalt","category":2,"distinct_rating":2.68,"distinct_type":"Bottom","rt":null,"stimulus":"Stimuli_Rocks480/I_Basalt_13.png","response":null,"trial_type":"image-keyboard-response","trial_index":38,"plugin_version":"2.1.0","time_elapsed":9002709,"subject_id":"89565","group":"Group2","full_date":"2025-12-03T21:45:50.989Z","date":"2025-12-03","time":"21:45:50"},{"rt":null,"stimulus":"<p style=\"font-size: 50px; margin: 0; text-align: center;\">+</p>","response":null,"trial_type":"html-keyboard-response","trial_index":39,"plugin_version":"2.1.0","time_elapsed":9003713,"subject_id":"89565","group":"Group2","full_date":"2025-12-03T21:45:50.989Z","date":"2025-12-03","time":"21:45:50"},{"task":"memory_phase","broad_category":"I","image_png":"I_Diorite_15.png","image_id":47,"category_name":"Diorite","category":3,"distinct_rating":3.05,"distinct_type":"Bottom","rt":null,"stimulus":"Stimuli_Rocks480/I_Diorite_15.png","response":null,"trial_type":"image-keyboard-response","trial_index":40,"plugin_version":"2.1.0","time_elapsed":9006220,"subject_id":"89565","group":"Group2","full_date":"2025-12-03T21:45:50.989Z","date":"2025-12-03","time":"21:45:50"},{"rt":null,"stimulus":"<p style=\"font-size: 50px; margin: 0; text-align: center;\">+</p>","response":null,"trial_type":"html-keyboard-response","trial_index":41,"plugin_version":"2.1.0","time_elapsed":9007252,"subject_id":"89565","group":"Group2","full_date":"2025-12-03T21:45:50.989Z","date":"2025-12-03","time":"21:45:50"},{"task":"memory_phase","broad_category":"M","image_png":"M_Quartzite_07.png","image_id":279,"category_name":"Quartzite","category":18,"distinct_rating":1.97,"distinct_type":"Bottom","rt":null,"stimulus":"Stimuli_Rocks480/M_Quartzite_07.png","response":null,"trial_type":"image-keyboard-response","trial_index":42,"plugin_version":"2.1.0","time_elapsed":9009769,"subject_id":"89565","group":"Group2","full_date":"2025-12-03T21:45:50.989Z","date":"2025-12-03","time":"21:45:50"},{"rt":null,"stimulus":"<p style=\"font-size: 50px; margin: 0; text-align: center;\">+</p>","response":null,"trial_type":"html-keyboard-response","trial_index":43,"plugin_version":"2.1.0","time_elapsed":9010781,"subject_id":"89565","group":"Group2","full_date":"2025-12-03T21:45:50.989Z","date":"2025-12-03","time":"21:45:50"},{"task":"memory_phase","broad_category":"I","image_png":"I_Gabbro_14.png","image_id":62,"category_name":"Gabbro","category":4,"distinct_rating":2.95,"distinct_type":"Bottom","rt":null,"stimulus":"Stimuli_Rocks480/I_Gabbro_14.png","response":null,"trial_type":"image-keyboard-response","trial_index":44,"plugin_version":"2.1.0","time_elapsed":9013293,"subject_id":"89565","group":"Group2","full_date":"2025-12-03T21:45:50.989Z","date":"2025-12-03","time":"21:45:50"},{"rt":null,"stimulus":"<p style=\"font-size: 50px; margin: 0; text-align: center;\">+</p>","response":null,"trial_type":"html-keyboard-response","trial_index":45,"plugin_version":"2.1.0","time_elapsed":9014296,"subject_id":"89565","group":"Group2","full_date":"2025-12-03T21:45:50.989Z","date":"2025-12-03","time":"21:45:50"},{"task":"memory_phase","broad_category":"I","image_png":"I_Pegmatite_11.png","image_id":107,"category_name":"Pegmatite","category":7,"distinct_rating":7.11,"distinct_type":"Top","rt":null,"stimulus":"Stimuli_Rocks480/I_Pegmatite_11.png","response":null,"trial_type":"image-keyboard-response","trial_index":46,"plugin_version":"2.1.0","time_elapsed":9016818,"subject_id":"89565","group":"Group2","full_date":"2025-12-03T21:45:50.989Z","date":"2025-12-03","time":"21:45:50"},{"rt":null,"stimulus":"<p style=\"font-size: 50px; margin: 0; text-align: center;\">+</p>","response":null,"trial_type":"html-keyboard-response","trial_index":47,"plugin_version":"2.1.0","time_elapsed":9017828,"subject_id":"89565","group":"Group2","full_date":"2025-12-03T21:45:50.989Z","date":"2025-12-03","time":"21:45:50"},{"task":"memory_phase","broad_category":"I","image_png":"I_Pumice_01.png","image_id":129,"category_name":"Pumice","category":9,"distinct_rating":3.25,"distinct_type":"Bottom","rt":null,"stimulus":"Stimuli_Rocks480/I_Pumice_01.png","response":null,"trial_type":"image-keyboard-response","trial_index":48,"plugin_version":"2.1.0","time_elapsed":9020341,"subject_id":"89565","group":"Group2","full_date":"2025-12-03T21:45:50.989Z","date":"2025-12-03","time":"21:45:50"},{"rt":null,"stimulus":"<p style=\"font-size: 50px; margin: 0; text-align: center;\">+</p>","response":null,"trial_type":"html-keyboard-response","trial_index":49,"plugin_version":"2.1.0","time_elapsed":9021348,"subject_id":"89565","group":"Group2","full_date":"2025-12-03T21:45:50.989Z","date":"2025-12-03","time":"21:45:50"},{"task":"memory_phase","broad_category":"S","image_png":"S_Sandstone_11.png","image_id":459,"category_name":"Sandstone","category":29,"distinct_rating":1.82,"distinct_type":"Bottom","rt":null,"stimulus":"Stimuli_Rocks480/S_Sandstone_11.png","response":null,"trial_type":"image-keyboard-response","trial_index":50,"plugin_version":"2.1.0","time_elapsed":9023864,"subject_id":"89565","group":"Group2","full_date":"2025-12-03T21:45:50.989Z","date":"2025-12-03","time":"21:45:50"},{"rt":null,"stimulus":"<p style=\"font-size: 50px; margin: 0; text-align: center;\">+</p>","response":null,"trial_type":"html-keyboard-response","trial_index":51,"plugin_version":"2.1.0","time_elapsed":9024870,"subject_id":"89565","group":"Group2","full_date":"2025-12-03T21:45:50.989Z","date":"2025-12-03","time":"21:45:50"},{"task":"memory_phase","broad_category":"M","image_png":"M_Phyllite_13.png","image_id":269,"category_name":"Phyllite","category":17,"distinct_rating":2.8,"distinct_type":"Bottom","rt":null,"stimulus":"Stimuli_Rocks480/M_Phyllite_13.png","response":null,"trial_type":"image-keyboard-response","trial_index":52,"plugin_version":"2.1.0","time_elapsed":9027376,"subject_id":"89565","group":"Group2","full_date":"2025-12-03T21:45:50.989Z","date":"2025-12-03","time":"21:45:50"},{"rt":null,"stimulus":"<p style=\"font-size: 50px; margin: 0; text-align: center;\">+</p>","response":null,"trial_type":"html-keyboard-response","trial_index":53,"plugin_version":"2.1.0","time_elapsed":9028380,"subject_id":"89565","group":"Group2","full_date":"2025-12-03T21:45:50.989Z","date":"2025-12-03","time":"21:45:50"},{"task":"memory_phase","broad_category":"S","image_png":"S_Rock Salt_13.png","image_id":445,"category_name":"Rock Salt","category":28,"distinct_rating":7.58,"distinct_type":"Top","rt":null,"stimulus":"Stimuli_Rocks480/S_Rock Salt_13.png","response":null,"trial_type":"image-keyboard-response","trial_index":54,"plugin_version":"2.1.0","time_elapsed":9030888,"subject_id":"89565","group":"Group2","full_date":"2025-12-03T21:45:50.989Z","date":"2025-12-03","time":"21:45:50"},{"rt":8839,"stimulus":"<p style=\"max-width: 760px; margin: auto; font-size: 35px; line-height: 1.5;\">Press SPACE to continue study phase</p>","response":" ","trial_type":"html-keyboard-response","trial_index":55,"plugin_version":"2.1.0","time_elapsed":9039729,"subject_id":"89565","group":"Group2","full_date":"2025-12-03T21:45:50.989Z","date":"2025-12-03","time":"21:45:50"},{"rt":null,"stimulus":"<p style=\"font-size: 50px; margin: 0; text-align: center;\">+</p>","response":null,"trial_type":"html-keyboard-response","trial_index":56,"plugin_version":"2.1.0","time_elapsed":9040744,"subject_id":"89565","group":"Group2","full_date":"2025-12-03T21:45:50.989Z","date":"2025-12-03","time":"21:45:50"},{"task":"memory_phase","broad_category":"S","image_png":"S_Sandstone_08.png","image_id":456,"category_name":"Sandstone","category":29,"distinct_rating":1.5,"distinct_type":"Bottom","rt":null,"stimulus":"Stimuli_Rocks480/S_Sandstone_08.png","response":null,"trial_type":"image-keyboard-response","trial_index":57,"plugin_version":"2.1.0","time_elapsed":9043261,"subject_id":"89565","group":"Group2","full_date":"2025-12-03T21:45:50.989Z","date":"2025-12-03","time":"21:45:50"},{"rt":null,"stimulus":"<p style=\"font-size: 50px; margin: 0; text-align: center;\">+</p>","response":null,"trial_type":"html-keyboard-response","trial_index":58,"plugin_version":"2.1.0","time_elapsed":9044267,"subject_id":"89565","group":"Group2","full_date":"2025-12-03T21:45:50.989Z","date":"2025-12-03","time":"21:45:50"},{"task":"memory_phase","broad_category":"M","image_png":"M_Marble_14.png","image_id":238,"category_name":"Marble","category":15,"distinct_rating":3.31,"distinct_type":"Bottom","rt":null,"stimulus":"Stimuli_Rocks480/M_Marble_14.png","response":null,"trial_type":"image-keyboard-response","trial_index":59,"plugin_version":"2.1.0","time_elapsed":9046783,"subject_id":"89565","group":"Group2","full_date":"2025-12-03T21:45:50.989Z","date":"2025-12-03","time":"21:45:50"},{"rt":null,"stimulus":"<p style=\"font-size: 50px; margin: 0; text-align: center;\">+</p>","response":null,"trial_type":"html-keyboard-response","trial_index":60,"plugin_version":"2.1.0","time_elapsed":9047799,"subject_id":"89565","group":"Group2","full_date":"2025-12-03T21:45:50.989Z","date":"2025-12-03","time":"21:45:50"},{"task":"memory_phase","broad_category":"S","image_png":"S_Shale_03.png","image_id":467,"category_name":"Shale","category":30,"distinct_rating":1.95,"distinct_type":"Bottom","rt":null,"stimulus":"Stimuli_Rocks480/S_Shale_03.png","response":null,"trial_type":"image-keyboard-response","trial_index":61,"plugin_version":"2.1.0","time_elapsed":9050308,"subject_id":"89565","group":"Group2","full_date":"2025-12-03T21:45:50.989Z","date":"2025-12-03","time":"21:45:50"},{"rt":null,"stimulus":"<p style=\"font-size: 50px; margin: 0; text-align: center;\">+</p>","response":null,"trial_type":"html-keyboard-response","trial_index":62,"plugin_version":"2.1.0","time_elapsed":9051314,"subject_id":"89565","group":"Group2","full_date":"2025-12-03T21:45:50.989Z","date":"2025-12-03","time":"21:45:50"},{"task":"memory_phase","broad_category":"S","image_png":"S_Dolomite_01.png","image_id":385,"category_name":"Dolomite","category":25,"distinct_rating":1.43,"distinct_type":"Bottom","rt":null,"stimulus":"Stimuli_Rocks480/S_Dolomite_01.png","response":null,"trial_type":"image-keyboard-response","trial_index":63,"plugin_version":"2.1.0","time_elapsed":9053821,"subject_id":"89565","group":"Group2","full_date":"2025-12-03T21:45:50.989Z","date":"2025-12-03","time":"21:45:50"},{"rt":null,"stimulus":"<p style=\"font-size: 50px; margin: 0; text-align: center;\">+</p>","response":null,"trial_type":"html-keyboard-response","trial_index":64,"plugin_version":"2.1.0","time_elapsed":9054828,"subject_id":"89565","group":"Group2","full_date":"2025-12-03T21:45:50.989Z","date":"2025-12-03","time":"21:45:50"},{"task":"memory_phase","broad_category":"I","image_png":"I_Diorite_01.png","image_id":33,"category_name":"Diorite","category":3,"distinct_rating":2.97,"distinct_type":"Bottom","rt":null,"stimulus":"Stimuli_Rocks480/I_Diorite_01.png","response":null,"trial_type":"image-keyboard-response","trial_index":65,"plugin_version":"2.1.0","time_elapsed":9057333,"subject_id":"89565","group":"Group2","full_date":"2025-12-03T21:45:50.989Z","date":"2025-12-03","time":"21:45:50"},{"rt":null,"stimulus":"<p style=\"font-size: 50px; margin: 0; text-align: center;\">+</p>","response":null,"trial_type":"html-keyboard-response","trial_index":66,"plugin_version":"2.1.0","time_elapsed":9058343,"subject_id":"89565","group":"Group2","full_date":"2025-12-03T21:45:50.989Z","date":"2025-12-03","time":"21:45:50"},{"task":"memory_phase","broad_category":"S","image_png":"S_Rock Salt_15.png","image_id":447,"category_name":"Rock Salt","category":28,"distinct_rating":7.79,"distinct_type":"Top","rt":null,"stimulus":"Stimuli_Rocks480/S_Rock Salt_15.png","response":null,"trial_type":"image-keyboard-response","trial_index":67,"plugin_version":"2.1.0","time_elapsed":9060859,"subject_id":"89565","group":"Group2","full_date":"2025-12-03T21:45:50.989Z","date":"2025-12-03","time":"21:45:50"},{"rt":null,"stimulus":"<p style=\"font-size: 50px; margin: 0; text-align: center;\">+</p>","response":null,"trial_type":"html-keyboard-response","trial_index":68,"plugin_version":"2.1.0","time_elapsed":9061865,"subject_id":"89565","group":"Group2","full_date":"2025-12-03T21:45:50.989Z","date":"2025-12-03","time":"21:45:50"},{"task":"memory_phase","broad_category":"M","image_png":"M_Slate_04.png","image_id":308,"category_name":"Slate","category":20,"distinct_rating":2.2,"distinct_type":"Bottom","rt":null,"stimulus":"Stimuli_Rocks480/M_Slate_04.png","response":null,"trial_type":"image-keyboard-response","trial_index":69,"plugin_version":"2.1.0","time_elapsed":9064369,"subject_id":"89565","group":"Group2","full_date":"2025-12-03T21:45:50.989Z","date":"2025-12-03","time":"21:45:50"},{"rt":null,"stimulus":"<p style=\"font-size: 50px; margin: 0; text-align: center;\">+</p>","response":null,"trial_type":"html-keyboard-response","trial_index":70,"plugin_version":"2.1.0","time_elapsed":9065374,"subject_id":"89565","group":"Group2","full_date":"2025-12-03T21:45:50.989Z","date":"2025-12-03","time":"21:45:50"},{"task":"memory_phase","broad_category":"I","image_png":"I_Basalt_10.png","image_id":26,"category_name":"Basalt","category":2,"distinct_rating":2.76,"distinct_type":"Bottom","rt":null,"stimulus":"Stimuli_Rocks480/I_Basalt_10.png","response":null,"trial_type":"image-keyboard-response","trial_index":71,"plugin_version":"2.1.0","time_elapsed":9067889,"subject_id":"89565","group":"Group2","full_date":"2025-12-03T21:45:50.989Z","date":"2025-12-03","time":"21:45:50"},{"rt":null,"stimulus":"<p style=\"font-size: 50px; margin: 0; text-align: center;\">+</p>","response":null,"trial_type":"html-keyboard-response","trial_index":72,"plugin_version":"2.1.0","time_elapsed":9068895,"subject_id":"89565","group":"Group2","full_date":"2025-12-03T21:45:50.989Z","date":"2025-12-03","time":"21:45:50"},{"task":"memory_phase","broad_category":"I","image_png":"I_Pumice_14.png","image_id":142,"category_name":"Pumice","category":9,"distinct_rating":3.22,"distinct_type":"Bottom","rt":null,"stimulus":"Stimuli_Rocks480/I_Pumice_14.png","response":null,"trial_type":"image-keyboard-response","trial_index":73,"plugin_version":"2.1.0","time_elapsed":9071397,"subject_id":"89565","group":"Group2","full_date":"2025-12-03T21:45:50.989Z","date":"2025-12-03","time":"21:45:50"},{"rt":null,"stimulus":"<p style=\"font-size: 50px; margin: 0; text-align: center;\">+</p>","response":null,"trial_type":"html-keyboard-response","trial_index":74,"plugin_version":"2.1.0","time_elapsed":9072398,"subject_id":"89565","group":"Group2","full_date":"2025-12-03T21:45:50.989Z","date":"2025-12-03","time":"21:45:50"},{"task":"memory_phase","broad_category":"M","image_png":"M_Slate_14.png","image_id":318,"category_name":"Slate","category":20,"distinct_rating":2.58,"distinct_type":"Bottom","rt":null,"stimulus":"Stimuli_Rocks480/M_Slate_14.png","response":null,"trial_type":"image-keyboard-response","trial_index":75,"plugin_version":"2.1.0","time_elapsed":9074909,"subject_id":"89565","group":"Group2","full_date":"2025-12-03T21:45:50.989Z","date":"2025-12-03","time":"21:45:50"},{"rt":null,"stimulus":"<p style=\"font-size: 50px; margin: 0; text-align: center;\">+</p>","response":null,"trial_type":"html-keyboard-response","trial_index":76,"plugin_version":"2.1.0","time_elapsed":9075918,"subject_id":"89565","group":"Group2","full_date":"2025-12-03T21:45:50.989Z","date":"2025-12-03","time":"21:45:50"},{"task":"memory_phase","broad_category":"M","image_png":"M_Slate_10.png","image_id":314,"category_name":"Slate","category":20,"distinct_rating":1.94,"distinct_type":"Bottom","rt":null,"stimulus":"Stimuli_Rocks480/M_Slate_10.png","response":null,"trial_type":"image-keyboard-response","trial_index":77,"plugin_version":"2.1.0","time_elapsed":9078439,"subject_id":"89565","group":"Group2","full_date":"2025-12-03T21:45:50.989Z","date":"2025-12-03","time":"21:45:50"},{"rt":null,"stimulus":"<p style=\"font-size: 50px; margin: 0; text-align: center;\">+</p>","response":null,"trial_type":"html-keyboard-response","trial_index":78,"plugin_version":"2.1.0","time_elapsed":9079449,"subject_id":"89565","group":"Group2","full_date":"2025-12-03T21:45:50.989Z","date":"2025-12-03","time":"21:45:50"},{"task":"memory_phase","broad_category":"M","image_png":"M_Quartzite_15.png","image_id":287,"category_name":"Quartzite","category":18,"distinct_rating":2.19,"distinct_type":"Bottom","rt":null,"stimulus":"Stimuli_Rocks480/M_Quartzite_15.png","response":null,"trial_type":"image-keyboard-response","trial_index":79,"plugin_version":"2.1.0","time_elapsed":9081970,"subject_id":"89565","group":"Group2","full_date":"2025-12-03T21:45:50.989Z","date":"2025-12-03","time":"21:45:50"},{"rt":null,"stimulus":"<p style=\"font-size: 50px; margin: 0; text-align: center;\">+</p>","response":null,"trial_type":"html-keyboard-response","trial_index":80,"plugin_version":"2.1.0","time_elapsed":9082982,"subject_id":"89565","group":"Group2","full_date":"2025-12-03T21:45:50.989Z","date":"2025-12-03","time":"21:45:50"},{"task":"memory_phase","broad_category":"M","image_png":"M_Marble_02.png","image_id":226,"category_name":"Marble","category":15,"distinct_rating":3.2,"distinct_type":"Bottom","rt":null,"stimulus":"Stimuli_Rocks480/M_Marble_02.png","response":null,"trial_type":"image-keyboard-response","trial_index":81,"plugin_version":"2.1.0","time_elapsed":9085484,"subject_id":"89565","group":"Group2","full_date":"2025-12-03T21:45:50.989Z","date":"2025-12-03","time":"21:45:50"},{"rt":null,"stimulus":"<p style=\"font-size: 50px; margin: 0; text-align: center;\">+</p>","response":null,"trial_type":"html-keyboard-response","trial_index":82,"plugin_version":"2.1.0","time_elapsed":9086495,"subject_id":"89565","group":"Group2","full_date":"2025-12-03T21:45:50.989Z","date":"2025-12-03","time":"21:45:50"},{"task":"memory_phase","broad_category":"I","image_png":"I_Pumice_13.png","image_id":141,"category_name":"Pumice","category":9,"distinct_rating":3.12,"distinct_type":"Bottom","rt":null,"stimulus":"Stimuli_Rocks480/I_Pumice_13.png","response":null,"trial_type":"image-keyboard-response","trial_index":83,"plugin_version":"2.1.0","time_elapsed":9089004,"subject_id":"89565","group":"Group2","full_date":"2025-12-03T21:45:50.989Z","date":"2025-12-03","time":"21:45:50"},{"rt":null,"stimulus":"<p style=\"font-size: 50px; margin: 0; text-align: center;\">+</p>","response":null,"trial_type":"html-keyboard-response","trial_index":84,"plugin_version":"2.1.0","time_elapsed":9090015,"subject_id":"89565","group":"Group2","full_date":"2025-12-03T21:45:50.989Z","date":"2025-12-03","time":"21:45:50"},{"task":"memory_phase","broad_category":"I","image_png":"I_Rhyolite_05.png","image_id":149,"category_name":"Rhyolite","category":10,"distinct_rating":3.02,"distinct_type":"Bottom","rt":null,"stimulus":"Stimuli_Rocks480/I_Rhyolite_05.png","response":null,"trial_type":"image-keyboard-response","trial_index":85,"plugin_version":"2.1.0","time_elapsed":9092529,"subject_id":"89565","group":"Group2","full_date":"2025-12-03T21:45:50.989Z","date":"2025-12-03","time":"21:45:50"},{"rt":null,"stimulus":"<p style=\"font-size: 50px; margin: 0; text-align: center;\">+</p>","response":null,"trial_type":"html-keyboard-response","trial_index":86,"plugin_version":"2.1.0","time_elapsed":9093544,"subject_id":"89565","group":"Group2","full_date":"2025-12-03T21:45:50.989Z","date":"2025-12-03","time":"21:45:50"},{"task":"memory_phase","broad_category":"M","image_png":"M_Gneiss_10.png","image_id":202,"category_name":"Gneiss","category":13,"distinct_rating":3.09,"distinct_type":"Bottom","rt":null,"stimulus":"Stimuli_Rocks480/M_Gneiss_10.png","response":null,"trial_type":"image-keyboard-response","trial_index":87,"plugin_version":"2.1.0","time_elapsed":9096055,"subject_id":"89565","group":"Group2","full_date":"2025-12-03T21:45:50.989Z","date":"2025-12-03","time":"21:45:50"},{"rt":null,"stimulus":"<p style=\"font-size: 50px; margin: 0; text-align: center;\">+</p>","response":null,"trial_type":"html-keyboard-response","trial_index":88,"plugin_version":"2.1.0","time_elapsed":9097062,"subject_id":"89565","group":"Group2","full_date":"2025-12-03T21:45:50.989Z","date":"2025-12-03","time":"21:45:50"},{"task":"memory_phase","broad_category":"I","image_png":"I_Rhyolite_08.png","image_id":152,"category_name":"Rhyolite","category":10,"distinct_rating":1.38,"distinct_type":"Bottom","rt":null,"stimulus":"Stimuli_Rocks480/I_Rhyolite_08.png","response":null,"trial_type":"image-keyboard-response","trial_index":89,"plugin_version":"2.1.0","time_elapsed":9099579,"subject_id":"89565","group":"Group2","full_date":"2025-12-03T21:45:50.989Z","date":"2025-12-03","time":"21:45:50"},{"rt":null,"stimulus":"<p style=\"font-size: 50px; margin: 0; text-align: center;\">+</p>","response":null,"trial_type":"html-keyboard-response","trial_index":90,"plugin_version":"2.1.0","time_elapsed":9100592,"subject_id":"89565","group":"Group2","full_date":"2025-12-03T21:45:50.989Z","date":"2025-12-03","time":"21:45:50"},{"task":"memory_phase","broad_category":"I","image_png":"I_Basalt_08.png","image_id":24,"category_name":"Basalt","category":2,"distinct_rating":2.31,"distinct_type":"Bottom","rt":null,"stimulus":"Stimuli_Rocks480/I_Basalt_08.png","response":null,"trial_type":"image-keyboard-response","trial_index":91,"plugin_version":"2.1.0","time_elapsed":9103107,"subject_id":"89565","group":"Group2","full_date":"2025-12-03T21:45:50.989Z","date":"2025-12-03","time":"21:45:50"},{"rt":null,"stimulus":"<p style=\"font-size: 50px; margin: 0; text-align: center;\">+</p>","response":null,"trial_type":"html-keyboard-response","trial_index":92,"plugin_version":"2.1.0","time_elapsed":9104120,"subject_id":"89565","group":"Group2","full_date":"2025-12-03T21:45:50.989Z","date":"2025-12-03","time":"21:45:50"},{"task":"memory_phase","broad_category":"I","image_png":"I_Rhyolite_10.png","image_id":154,"category_name":"Rhyolite","category":10,"distinct_rating":2.88,"distinct_type":"Bottom","rt":null,"stimulus":"Stimuli_Rocks480/I_Rhyolite_10.png","response":null,"trial_type":"image-keyboard-response","trial_index":93,"plugin_version":"2.1.0","time_elapsed":9106623,"subject_id":"89565","group":"Group2","full_date":"2025-12-03T21:45:50.989Z","date":"2025-12-03","time":"21:45:50"},{"rt":null,"stimulus":"<p style=\"font-size: 50px; margin: 0; text-align: center;\">+</p>","response":null,"trial_type":"html-keyboard-response","trial_index":94,"plugin_version":"2.1.0","time_elapsed":9107636,"subject_id":"89565","group":"Group2","full_date":"2025-12-03T21:45:50.989Z","date":"2025-12-03","time":"21:45:50"},{"task":"memory_phase","broad_category":"M","image_png":"M_Phyllite_05.png","image_id":261,"category_name":"Phyllite","category":17,"distinct_rating":2.14,"distinct_type":"Bottom","rt":null,"stimulus":"Stimuli_Rocks480/M_Phyllite_05.png","response":null,"trial_type":"image-keyboard-response","trial_index":95,"plugin_version":"2.1.0","time_elapsed":9110159,"subject_id":"89565","group":"Group2","full_date":"2025-12-03T21:45:50.989Z","date":"2025-12-03","time":"21:45:50"},{"rt":null,"stimulus":"<p style=\"font-size: 50px; margin: 0; text-align: center;\">+</p>","response":null,"trial_type":"html-keyboard-response","trial_index":96,"plugin_version":"2.1.0","time_elapsed":9111168,"subject_id":"89565","group":"Group2","full_date":"2025-12-03T21:45:50.989Z","date":"2025-12-03","time":"21:45:50"},{"task":"memory_phase","broad_category":"M","image_png":"M_Quartzite_12.png","image_id":284,"category_name":"Quartzite","category":18,"distinct_rating":1.92,"distinct_type":"Bottom","rt":null,"stimulus":"Stimuli_Rocks480/M_Quartzite_12.png","response":null,"trial_type":"image-keyboard-response","trial_index":97,"plugin_version":"2.1.0","time_elapsed":9113674,"subject_id":"89565","group":"Group2","full_date":"2025-12-03T21:45:50.989Z","date":"2025-12-03","time":"21:45:50"},{"rt":null,"stimulus":"<p style=\"font-size: 50px; margin: 0; text-align: center;\">+</p>","response":null,"trial_type":"html-keyboard-response","trial_index":98,"plugin_version":"2.1.0","time_elapsed":9114682,"subject_id":"89565","group":"Group2","full_date":"2025-12-03T21:45:50.989Z","date":"2025-12-03","time":"21:45:50"},{"task":"memory_phase","broad_category":"I","image_png":"I_Gabbro_12.png","image_id":60,"category_name":"Gabbro","category":4,"distinct_rating":2.6,"distinct_type":"Bottom","rt":null,"stimulus":"Stimuli_Rocks480/I_Gabbro_12.png","response":null,"trial_type":"image-keyboard-response","trial_index":99,"plugin_version":"2.1.0","time_elapsed":9117187,"subject_id":"89565","group":"Group2","full_date":"2025-12-03T21:45:50.989Z","date":"2025-12-03","time":"21:45:50"},{"rt":null,"stimulus":"<p style=\"font-size: 50px; margin: 0; text-align: center;\">+</p>","response":null,"trial_type":"html-keyboard-response","trial_index":100,"plugin_version":"2.1.0","time_elapsed":9118197,"subject_id":"89565","group":"Group2","full_date":"2025-12-03T21:45:50.989Z","date":"2025-12-03","time":"21:45:50"},{"task":"memory_phase","broad_category":"I","image_png":"I_Andesite_04.png","image_id":4,"category_name":"Andesite","category":1,"distinct_rating":3.18,"distinct_type":"Bottom","rt":null,"stimulus":"Stimuli_Rocks480/I_Andesite_04.png","response":null,"trial_type":"image-keyboard-response","trial_index":101,"plugin_version":"2.1.0","time_elapsed":9120722,"subject_id":"89565","group":"Group2","full_date":"2025-12-03T21:45:50.989Z","date":"2025-12-03","time":"21:45:50"},{"rt":null,"stimulus":"<p style=\"font-size: 50px; margin: 0; text-align: center;\">+</p>","response":null,"trial_type":"html-keyboard-response","trial_index":102,"plugin_version":"2.1.0","time_elapsed":9121734,"subject_id":"89565","group":"Group2","full_date":"2025-12-03T21:45:50.989Z","date":"2025-12-03","time":"21:45:50"},{"task":"memory_phase","broad_category":"I","image_png":"I_Diorite_10.png","image_id":42,"category_name":"Diorite","category":3,"distinct_rating":2.84,"distinct_type":"Bottom","rt":null,"stimulus":"Stimuli_Rocks480/I_Diorite_10.png","response":null,"trial_type":"image-keyboard-response","trial_index":103,"plugin_version":"2.1.0","time_elapsed":9124241,"subject_id":"89565","group":"Group2","full_date":"2025-12-03T21:45:50.989Z","date":"2025-12-03","time":"21:45:50"},{"rt":null,"stimulus":"<p style=\"font-size: 50px; margin: 0; text-align: center;\">+</p>","response":null,"trial_type":"html-keyboard-response","trial_index":104,"plugin_version":"2.1.0","time_elapsed":9125242,"subject_id":"89565","group":"Group2","full_date":"2025-12-03T21:45:50.989Z","date":"2025-12-03","time":"21:45:50"},{"task":"memory_phase","broad_category":"S","image_png":"S_Shale_07.png","image_id":471,"category_name":"Shale","category":30,"distinct_rating":2.73,"distinct_type":"Bottom","rt":null,"stimulus":"Stimuli_Rocks480/S_Shale_07.png","response":null,"trial_type":"image-keyboard-response","trial_index":105,"plugin_version":"2.1.0","time_elapsed":9127745,"subject_id":"89565","group":"Group2","full_date":"2025-12-03T21:45:50.989Z","date":"2025-12-03","time":"21:45:50"},{"rt":9039,"stimulus":"<p style=\"max-width: 760px; margin: auto; font-size: 35px; line-height: 1.5;\">You have completed 1 study phase. Now, we'll show you all the images again 2 more times.<br><br>Press SPACE to continue</p>","response":" ","trial_type":"html-keyboard-response","trial_index":106,"plugin_version":"2.1.0","time_elapsed":9136784,"subject_id":"89565","group":"Group2","full_date":"2025-12-03T21:45:50.989Z","date":"2025-12-03","time":"21:45:50"},{"rt":null,"stimulus":"<p style=\"font-size: 50px; margin: 0; text-align: center;\">+</p>","response":null,"trial_type":"html-keyboard-response","trial_index":107,"plugin_version":"2.1.0","time_elapsed":9137797,"subject_id":"89565","group":"Group2","full_date":"2025-12-03T21:45:50.989Z","date":"2025-12-03","time":"21:45:50"},{"task":"memory_phase","broad_category":"S","image_png":"S_Chert_13.png","image_id":365,"category_name":"Chert","category":23,"distinct_rating":6.57,"distinct_type":"Top","rt":null,"stimulus":"Stimuli_Rocks480/S_Chert_13.png","response":null,"trial_type":"image-keyboard-response","trial_index":108,"plugin_version":"2.1.0","time_elapsed":9140307,"subject_id":"89565","group":"Group2","full_date":"2025-12-03T21:45:50.989Z","date":"2025-12-03","time":"21:45:50"},{"rt":null,"stimulus":"<p style=\"font-size: 50px; margin: 0; text-align: center;\">+</p>","response":null,"trial_type":"html-keyboard-response","trial_index":109,"plugin_version":"2.1.0","time_elapsed":9141317,"subject_id":"89565","group":"Group2","full_date":"2025-12-03T21:45:50.989Z","date":"2025-12-03","time":"21:45:50"},{"task":"memory_phase","broad_category":"I","image_png":"I_Rhyolite_05.png","image_id":149,"category_name":"Rhyolite","category":10,"distinct_rating":3.02,"distinct_type":"Bottom","rt":null,"stimulus":"Stimuli_Rocks480/I_Rhyolite_05.png","response":null,"trial_type":"image-keyboard-response","trial_index":110,"plugin_version":"2.1.0","time_elapsed":9143822,"subject_id":"89565","group":"Group2","full_date":"2025-12-03T21:45:50.989Z","date":"2025-12-03","time":"21:45:50"},{"rt":null,"stimulus":"<p style=\"font-size: 50px; margin: 0; text-align: center;\">+</p>","response":null,"trial_type":"html-keyboard-response","trial_index":111,"plugin_version":"2.1.0","time_elapsed":9144833,"subject_id":"89565","group":"Group2","full_date":"2025-12-03T21:45:50.989Z","date":"2025-12-03","time":"21:45:50"},{"task":"memory_phase","broad_category":"S","image_png":"S_Shale_07.png","image_id":471,"category_name":"Shale","category":30,"distinct_rating":2.73,"distinct_type":"Bottom","rt":null,"stimulus":"Stimuli_Rocks480/S_Shale_07.png","response":null,"trial_type":"image-keyboard-response","trial_index":112,"plugin_version":"2.1.0","time_elapsed":9147338,"subject_id":"89565","group":"Group2","full_date":"2025-12-03T21:45:50.989Z","date":"2025-12-03","time":"21:45:50"},{"rt":null,"stimulus":"<p style=\"font-size: 50px; margin: 0; text-align: center;\">+</p>","response":null,"trial_type":"html-keyboard-response","trial_index":113,"plugin_version":"2.1.0","time_elapsed":9148348,"subject_id":"89565","group":"Group2","full_date":"2025-12-03T21:45:50.989Z","date":"2025-12-03","time":"21:45:50"},{"task":"memory_phase","broad_category":"I","image_png":"I_Obsidian_06.png","image_id":86,"category_name":"Obsidian","category":6,"distinct_rating":8.01,"distinct_type":"Top","rt":null,"stimulus":"Stimuli_Rocks480/I_Obsidian_06.png","response":null,"trial_type":"image-keyboard-response","trial_index":114,"plugin_version":"2.1.0","time_elapsed":9150861,"subject_id":"89565","group":"Group2","full_date":"2025-12-03T21:45:50.989Z","date":"2025-12-03","time":"21:45:50"},{"rt":null,"stimulus":"<p style=\"font-size: 50px; margin: 0; text-align: center;\">+</p>","response":null,"trial_type":"html-keyboard-response","trial_index":115,"plugin_version":"2.1.0","time_elapsed":9151863,"subject_id":"89565","group":"Group2","full_date":"2025-12-03T21:45:50.989Z","date":"2025-12-03","time":"21:45:50"},{"task":"memory_phase","broad_category":"I","image_png":"I_Rhyolite_08.png","image_id":152,"category_name":"Rhyolite","category":10,"distinct_rating":1.38,"distinct_type":"Bottom","rt":null,"stimulus":"Stimuli_Rocks480/I_Rhyolite_08.png","response":null,"trial_type":"image-keyboard-response","trial_index":116,"plugin_version":"2.1.0","time_elapsed":9154372,"subject_id":"89565","group":"Group2","full_date":"2025-12-03T21:45:50.989Z","date":"2025-12-03","time":"21:45:50"},{"rt":null,"stimulus":"<p style=\"font-size: 50px; margin: 0; text-align: center;\">+</p>","response":null,"trial_type":"html-keyboard-response","trial_index":117,"plugin_version":"2.1.0","time_elapsed":9155377,"subject_id":"89565","group":"Group2","full_date":"2025-12-03T21:45:50.989Z","date":"2025-12-03","time":"21:45:50"},{"task":"memory_phase","broad_category":"S","image_png":"S_Dolomite_01.png","image_id":385,"category_name":"Dolomite","category":25,"distinct_rating":1.43,"distinct_type":"Bottom","rt":null,"stimulus":"Stimuli_Rocks480/S_Dolomite_01.png","response":null,"trial_type":"image-keyboard-response","trial_index":118,"plugin_version":"2.1.0","time_elapsed":9157891,"subject_id":"89565","group":"Group2","full_date":"2025-12-03T21:45:50.989Z","date":"2025-12-03","time":"21:45:50"},{"rt":null,"stimulus":"<p style=\"font-size: 50px; margin: 0; text-align: center;\">+</p>","response":null,"trial_type":"html-keyboard-response","trial_index":119,"plugin_version":"2.1.0","time_elapsed":9158898,"subject_id":"89565","group":"Group2","full_date":"2025-12-03T21:45:50.989Z","date":"2025-12-03","time":"21:45:50"},{"task":"memory_phase","broad_category":"S","image_png":"S_Sandstone_11.png","image_id":459,"category_name":"Sandstone","category":29,"distinct_rating":1.82,"distinct_type":"Bottom","rt":null,"stimulus":"Stimuli_Rocks480/S_Sandstone_11.png","response":null,"trial_type":"image-keyboard-response","trial_index":120,"plugin_version":"2.1.0","time_elapsed":9161412,"subject_id":"89565","group":"Group2","full_date":"2025-12-03T21:45:50.989Z","date":"2025-12-03","time":"21:45:50"},{"rt":null,"stimulus":"<p style=\"font-size: 50px; margin: 0; text-align: center;\">+</p>","response":null,"trial_type":"html-keyboard-response","trial_index":121,"plugin_version":"2.1.0","time_elapsed":9162414,"subject_id":"89565","group":"Group2","full_date":"2025-12-03T21:45:50.989Z","date":"2025-12-03","time":"21:45:50"},{"task":"memory_phase","broad_category":"I","image_png":"I_Andesite_04.png","image_id":4,"category_name":"Andesite","category":1,"distinct_rating":3.18,"distinct_type":"Bottom","rt":null,"stimulus":"Stimuli_Rocks480/I_Andesite_04.png","response":null,"trial_type":"image-keyboard-response","trial_index":122,"plugin_version":"2.1.0","time_elapsed":9164921,"subject_id":"89565","group":"Group2","full_date":"2025-12-03T21:45:50.989Z","date":"2025-12-03","time":"21:45:50"},{"rt":null,"stimulus":"<p style=\"font-size: 50px; margin: 0; text-align: center;\">+</p>","response":null,"trial_type":"html-keyboard-response","trial_index":123,"plugin_version":"2.1.0","time_elapsed":9165932,"subject_id":"89565","group":"Group2","full_date":"2025-12-03T21:45:50.989Z","date":"2025-12-03","time":"21:45:50"},{"task":"memory_phase","broad_category":"S","image_png":"S_Conglomerate_14.png","image_id":382,"category_name":"Conglomerate","category":24,"distinct_rating":6.86,"distinct_type":"Top","rt":null,"stimulus":"Stimuli_Rocks480/S_Conglomerate_14.png","response":null,"trial_type":"image-keyboard-response","trial_index":124,"plugin_version":"2.1.0","time_elapsed":9168437,"subject_id":"89565","group":"Group2","full_date":"2025-12-03T21:45:50.989Z","date":"2025-12-03","time":"21:45:50"},{"rt":null,"stimulus":"<p style=\"font-size: 50px; margin: 0; text-align: center;\">+</p>","response":null,"trial_type":"html-keyboard-response","trial_index":125,"plugin_version":"2.1.0","time_elapsed":9169449,"subject_id":"89565","group":"Group2","full_date":"2025-12-03T21:45:50.989Z","date":"2025-12-03","time":"21:45:50"},{"task":"memory_phase","broad_category":"I","image_png":"I_Basalt_13.png","image_id":29,"category_name":"Basalt","category":2,"distinct_rating":2.68,"distinct_type":"Bottom","rt":null,"stimulus":"Stimuli_Rocks480/I_Basalt_13.png","response":null,"trial_type":"image-keyboard-response","trial_index":126,"plugin_version":"2.1.0","time_elapsed":9171957,"subject_id":"89565","group":"Group2","full_date":"2025-12-03T21:45:50.989Z","date":"2025-12-03","time":"21:45:50"},{"rt":null,"stimulus":"<p style=\"font-size: 50px; margin: 0; text-align: center;\">+</p>","response":null,"trial_type":"html-keyboard-response","trial_index":127,"plugin_version":"2.1.0","time_elapsed":9172969,"subject_id":"89565","group":"Group2","full_date":"2025-12-03T21:45:50.989Z","date":"2025-12-03","time":"21:45:50"},{"task":"memory_phase","broad_category":"I","image_png":"I_Gabbro_02.png","image_id":50,"category_name":"Gabbro","category":4,"distinct_rating":2.73,"distinct_type":"Bottom","rt":null,"stimulus":"Stimuli_Rocks480/I_Gabbro_02.png","response":null,"trial_type":"image-keyboard-response","trial_index":128,"plugin_version":"2.1.0","time_elapsed":9175471,"subject_id":"89565","group":"Group2","full_date":"2025-12-03T21:45:50.989Z","date":"2025-12-03","time":"21:45:50"},{"rt":null,"stimulus":"<p style=\"font-size: 50px; margin: 0; text-align: center;\">+</p>","response":null,"trial_type":"html-keyboard-response","trial_index":129,"plugin_version":"2.1.0","time_elapsed":9176483,"subject_id":"89565","group":"Group2","full_date":"2025-12-03T21:45:50.989Z","date":"2025-12-03","time":"21:45:50"},{"task":"memory_phase","broad_category":"S","image_png":"S_Dolomite_07.png","image_id":391,"category_name":"Dolomite","category":25,"distinct_rating":1.73,"distinct_type":"Bottom","rt":null,"stimulus":"Stimuli_Rocks480/S_Dolomite_07.png","response":null,"trial_type":"image-keyboard-response","trial_index":130,"plugin_version":"2.1.0","time_elapsed":9178989,"subject_id":"89565","group":"Group2","full_date":"2025-12-03T21:45:50.989Z","date":"2025-12-03","time":"21:45:50"},{"rt":null,"stimulus":"<p style=\"font-size: 50px; margin: 0; text-align: center;\">+</p>","response":null,"trial_type":"html-keyboard-response","trial_index":131,"plugin_version":"2.1.0","time_elapsed":9180012,"subject_id":"89565","group":"Group2","full_date":"2025-12-03T21:45:50.989Z","date":"2025-12-03","time":"21:45:50"},{"task":"memory_phase","broad_category":"M","image_png":"M_Slate_04.png","image_id":308,"category_name":"Slate","category":20,"distinct_rating":2.2,"distinct_type":"Bottom","rt":null,"stimulus":"Stimuli_Rocks480/M_Slate_04.png","response":null,"trial_type":"image-keyboard-response","trial_index":132,"plugin_version":"2.1.0","time_elapsed":9182521,"subject_id":"89565","group":"Group2","full_date":"2025-12-03T21:45:50.989Z","date":"2025-12-03","time":"21:45:50"},{"rt":null,"stimulus":"<p style=\"font-size: 50px; margin: 0; text-align: center;\">+</p>","response":null,"trial_type":"html-keyboard-response","trial_index":133,"plugin_version":"2.1.0","time_elapsed":9183531,"subject_id":"89565","group":"Group2","full_date":"2025-12-03T21:45:50.989Z","date":"2025-12-03","time":"21:45:50"},{"task":"memory_phase","broad_category":"I","image_png":"I_Diorite_10.png","image_id":42,"category_name":"Diorite","category":3,"distinct_rating":2.84,"distinct_type":"Bottom","rt":null,"stimulus":"Stimuli_Rocks480/I_Diorite_10.png","response":null,"trial_type":"image-keyboard-response","trial_index":134,"plugin_version":"2.1.0","time_elapsed":9186038,"subject_id":"89565","group":"Group2","full_date":"2025-12-03T21:45:50.989Z","date":"2025-12-03","time":"21:45:50"},{"rt":null,"stimulus":"<p style=\"font-size: 50px; margin: 0; text-align: center;\">+</p>","response":null,"trial_type":"html-keyboard-response","trial_index":135,"plugin_version":"2.1.0","time_elapsed":9187051,"subject_id":"89565","group":"Group2","full_date":"2025-12-03T21:45:50.989Z","date":"2025-12-03","time":"21:45:50"},{"task":"memory_phase","broad_category":"S","image_png":"S_Rock Salt_15.png","image_id":447,"category_name":"Rock Salt","category":28,"distinct_rating":7.79,"distinct_type":"Top","rt":null,"stimulus":"Stimuli_Rocks480/S_Rock Salt_15.png","response":null,"trial_type":"image-keyboard-response","trial_index":136,"plugin_version":"2.1.0","time_elapsed":9189560,"subject_id":"89565","group":"Group2","full_date":"2025-12-03T21:45:50.989Z","date":"2025-12-03","time":"21:45:50"},{"rt":null,"stimulus":"<p style=\"font-size: 50px; margin: 0; text-align: center;\">+</p>","response":null,"trial_type":"html-keyboard-response","trial_index":137,"plugin_version":"2.1.0","time_elapsed":9190563,"subject_id":"89565","group":"Group2","full_date":"2025-12-03T21:45:50.989Z","date":"2025-12-03","time":"21:45:50"},{"task":"memory_phase","broad_category":"I","image_png":"I_Pumice_01.png","image_id":129,"category_name":"Pumice","category":9,"distinct_rating":3.25,"distinct_type":"Bottom","rt":null,"stimulus":"Stimuli_Rocks480/I_Pumice_01.png","response":null,"trial_type":"image-keyboard-response","trial_index":138,"plugin_version":"2.1.0","time_elapsed":9193072,"subject_id":"89565","group":"Group2","full_date":"2025-12-03T21:45:50.989Z","date":"2025-12-03","time":"21:45:50"},{"rt":null,"stimulus":"<p style=\"font-size: 50px; margin: 0; text-align: center;\">+</p>","response":null,"trial_type":"html-keyboard-response","trial_index":139,"plugin_version":"2.1.0","time_elapsed":9194077,"subject_id":"89565","group":"Group2","full_date":"2025-12-03T21:45:50.989Z","date":"2025-12-03","time":"21:45:50"},{"task":"memory_phase","broad_category":"I","image_png":"I_Andesite_03.png","image_id":3,"category_name":"Andesite","category":1,"distinct_rating":3.17,"distinct_type":"Bottom","rt":null,"stimulus":"Stimuli_Rocks480/I_Andesite_03.png","response":null,"trial_type":"image-keyboard-response","trial_index":140,"plugin_version":"2.1.0","time_elapsed":9196585,"subject_id":"89565","group":"Group2","full_date":"2025-12-03T21:45:50.989Z","date":"2025-12-03","time":"21:45:50"},{"rt":null,"stimulus":"<p style=\"font-size: 50px; margin: 0; text-align: center;\">+</p>","response":null,"trial_type":"html-keyboard-response","trial_index":141,"plugin_version":"2.1.0","time_elapsed":9197595,"subject_id":"89565","group":"Group2","full_date":"2025-12-03T21:45:50.989Z","date":"2025-12-03","time":"21:45:50"},{"task":"memory_phase","broad_category":"I","image_png":"I_Andesite_09.png","image_id":9,"category_name":"Andesite","category":1,"distinct_rating":2.49,"distinct_type":"Bottom","rt":null,"stimulus":"Stimuli_Rocks480/I_Andesite_09.png","response":null,"trial_type":"image-keyboard-response","trial_index":142,"plugin_version":"2.1.0","time_elapsed":9200106,"subject_id":"89565","group":"Group2","full_date":"2025-12-03T21:45:50.989Z","date":"2025-12-03","time":"21:45:50"},{"rt":null,"stimulus":"<p style=\"font-size: 50px; margin: 0; text-align: center;\">+</p>","response":null,"trial_type":"html-keyboard-response","trial_index":143,"plugin_version":"2.1.0","time_elapsed":9201116,"subject_id":"89565","group":"Group2","full_date":"2025-12-03T21:45:50.989Z","date":"2025-12-03","time":"21:45:50"},{"task":"memory_phase","broad_category":"I","image_png":"I_Pumice_14.png","image_id":142,"category_name":"Pumice","category":9,"distinct_rating":3.22,"distinct_type":"Bottom","rt":null,"stimulus":"Stimuli_Rocks480/I_Pumice_14.png","response":null,"trial_type":"image-keyboard-response","trial_index":144,"plugin_version":"2.1.0","time_elapsed":9203628,"subject_id":"89565","group":"Group2","full_date":"2025-12-03T21:45:50.989Z","date":"2025-12-03","time":"21:45:50"},{"rt":null,"stimulus":"<p style=\"font-size: 50px; margin: 0; text-align: center;\">+</p>","response":null,"trial_type":"html-keyboard-response","trial_index":145,"plugin_version":"2.1.0","time_elapsed":9204630,"subject_id":"89565","group":"Group2","full_date":"2025-12-03T21:45:50.989Z","date":"2025-12-03","time":"21:45:50"},{"task":"memory_phase","broad_category":"M","image_png":"M_Phyllite_02.png","image_id":258,"category_name":"Phyllite","category":17,"distinct_rating":2.89,"distinct_type":"Bottom","rt":null,"stimulus":"Stimuli_Rocks480/M_Phyllite_02.png","response":null,"trial_type":"image-keyboard-response","trial_index":146,"plugin_version":"2.1.0","time_elapsed":9207140,"subject_id":"89565","group":"Group2","full_date":"2025-12-03T21:45:50.989Z","date":"2025-12-03","time":"21:45:50"},{"rt":null,"stimulus":"<p style=\"font-size: 50px; margin: 0; text-align: center;\">+</p>","response":null,"trial_type":"html-keyboard-response","trial_index":147,"plugin_version":"2.1.0","time_elapsed":9208150,"subject_id":"89565","group":"Group2","full_date":"2025-12-03T21:45:50.989Z","date":"2025-12-03","time":"21:45:50"},{"task":"memory_phase","broad_category":"I","image_png":"I_Diorite_15.png","image_id":47,"category_name":"Diorite","category":3,"distinct_rating":3.05,"distinct_type":"Bottom","rt":null,"stimulus":"Stimuli_Rocks480/I_Diorite_15.png","response":null,"trial_type":"image-keyboard-response","trial_index":148,"plugin_version":"2.1.0","time_elapsed":9210660,"subject_id":"89565","group":"Group2","full_date":"2025-12-03T21:45:50.989Z","date":"2025-12-03","time":"21:45:50"},{"rt":null,"stimulus":"<p style=\"font-size: 50px; margin: 0; text-align: center;\">+</p>","response":null,"trial_type":"html-keyboard-response","trial_index":149,"plugin_version":"2.1.0","time_elapsed":9211664,"subject_id":"89565","group":"Group2","full_date":"2025-12-03T21:45:50.989Z","date":"2025-12-03","time":"21:45:50"},{"task":"memory_phase","broad_category":"M","image_png":"M_Marble_03.png","image_id":227,"category_name":"Marble","category":15,"distinct_rating":2.67,"distinct_type":"Bottom","rt":null,"stimulus":"Stimuli_Rocks480/M_Marble_03.png","response":null,"trial_type":"image-keyboard-response","trial_index":150,"plugin_version":"2.1.0","time_elapsed":9214177,"subject_id":"89565","group":"Group2","full_date":"2025-12-03T21:45:50.989Z","date":"2025-12-03","time":"21:45:50"},{"rt":null,"stimulus":"<p style=\"font-size: 50px; margin: 0; text-align: center;\">+</p>","response":null,"trial_type":"html-keyboard-response","trial_index":151,"plugin_version":"2.1.0","time_elapsed":9215180,"subject_id":"89565","group":"Group2","full_date":"2025-12-03T21:45:50.989Z","date":"2025-12-03","time":"21:45:50"},{"task":"memory_phase","broad_category":"S","image_png":"S_Sandstone_04.png","image_id":452,"category_name":"Sandstone","category":29,"distinct_rating":1.8,"distinct_type":"Bottom","rt":null,"stimulus":"Stimuli_Rocks480/S_Sandstone_04.png","response":null,"trial_type":"image-keyboard-response","trial_index":152,"plugin_version":"2.1.0","time_elapsed":9217695,"subject_id":"89565","group":"Group2","full_date":"2025-12-03T21:45:50.989Z","date":"2025-12-03","time":"21:45:50"},{"rt":null,"stimulus":"<p style=\"font-size: 50px; margin: 0; text-align: center;\">+</p>","response":null,"trial_type":"html-keyboard-response","trial_index":153,"plugin_version":"2.1.0","time_elapsed":9218700,"subject_id":"89565","group":"Group2","full_date":"2025-12-03T21:45:50.989Z","date":"2025-12-03","time":"21:45:50"},{"task":"memory_phase","broad_category":"S","image_png":"S_Dolomite_16.png","image_id":400,"category_name":"Dolomite","category":25,"distinct_rating":1.71,"distinct_type":"Bottom","rt":null,"stimulus":"Stimuli_Rocks480/S_Dolomite_16.png","response":null,"trial_type":"image-keyboard-response","trial_index":154,"plugin_version":"2.1.0","time_elapsed":9221209,"subject_id":"89565","group":"Group2","full_date":"2025-12-03T21:45:50.989Z","date":"2025-12-03","time":"21:45:50"},{"rt":null,"stimulus":"<p style=\"font-size: 50px; margin: 0; text-align: center;\">+</p>","response":null,"trial_type":"html-keyboard-response","trial_index":155,"plugin_version":"2.1.0","time_elapsed":9222211,"subject_id":"89565","group":"Group2","full_date":"2025-12-03T21:45:50.989Z","date":"2025-12-03","time":"21:45:50"},{"task":"memory_phase","broad_category":"I","image_png":"I_Gabbro_14.png","image_id":62,"category_name":"Gabbro","category":4,"distinct_rating":2.95,"distinct_type":"Bottom","rt":null,"stimulus":"Stimuli_Rocks480/I_Gabbro_14.png","response":null,"trial_type":"image-keyboard-response","trial_index":156,"plugin_version":"2.1.0","time_elapsed":9224715,"subject_id":"89565","group":"Group2","full_date":"2025-12-03T21:45:50.989Z","date":"2025-12-03","time":"21:45:50"},{"rt":2543,"stimulus":"<p style=\"max-width: 760px; margin: auto; font-size: 35px; line-height: 1.5;\">Press SPACE to continue study phase</p>","response":" ","trial_type":"html-keyboard-response","trial_index":157,"plugin_version":"2.1.0","time_elapsed":9227259,"subject_id":"89565","group":"Group2","full_date":"2025-12-03T21:45:50.989Z","date":"2025-12-03","time":"21:45:50"},{"rt":null,"stimulus":"<p style=\"font-size: 50px; margin: 0; text-align: center;\">+</p>","response":null,"trial_type":"html-keyboard-response","trial_index":158,"plugin_version":"2.1.0","time_elapsed":9228264,"subject_id":"89565","group":"Group2","full_date":"2025-12-03T21:45:50.989Z","date":"2025-12-03","time":"21:45:50"},{"task":"memory_phase","broad_category":"I","image_png":"I_Pegmatite_11.png","image_id":107,"category_name":"Pegmatite","category":7,"distinct_rating":7.11,"distinct_type":"Top","rt":null,"stimulus":"Stimuli_Rocks480/I_Pegmatite_11.png","response":null,"trial_type":"image-keyboard-response","trial_index":159,"plugin_version":"2.1.0","time_elapsed":9230775,"subject_id":"89565","group":"Group2","full_date":"2025-12-03T21:45:50.989Z","date":"2025-12-03","time":"21:45:50"},{"rt":null,"stimulus":"<p style=\"font-size: 50px; margin: 0; text-align: center;\">+</p>","response":null,"trial_type":"html-keyboard-response","trial_index":160,"plugin_version":"2.1.0","time_elapsed":9231781,"subject_id":"89565","group":"Group2","full_date":"2025-12-03T21:45:50.989Z","date":"2025-12-03","time":"21:45:50"},{"task":"memory_phase","broad_category":"I","image_png":"I_Pumice_13.png","image_id":141,"category_name":"Pumice","category":9,"distinct_rating":3.12,"distinct_type":"Bottom","rt":null,"stimulus":"Stimuli_Rocks480/I_Pumice_13.png","response":null,"trial_type":"image-keyboard-response","trial_index":161,"plugin_version":"2.1.0","time_elapsed":9234295,"subject_id":"89565","group":"Group2","full_date":"2025-12-03T21:45:50.989Z","date":"2025-12-03","time":"21:45:50"},{"rt":null,"stimulus":"<p style=\"font-size: 50px; margin: 0; text-align: center;\">+</p>","response":null,"trial_type":"html-keyboard-response","trial_index":162,"plugin_version":"2.1.0","time_elapsed":9235306,"subject_id":"89565","group":"Group2","full_date":"2025-12-03T21:45:50.989Z","date":"2025-12-03","time":"21:45:50"},{"task":"memory_phase","broad_category":"M","image_png":"M_Slate_14.png","image_id":318,"category_name":"Slate","category":20,"distinct_rating":2.58,"distinct_type":"Bottom","rt":null,"stimulus":"Stimuli_Rocks480/M_Slate_14.png","response":null,"trial_type":"image-keyboard-response","trial_index":163,"plugin_version":"2.1.0","time_elapsed":9237811,"subject_id":"89565","group":"Group2","full_date":"2025-12-03T21:45:50.989Z","date":"2025-12-03","time":"21:45:50"},{"rt":null,"stimulus":"<p style=\"font-size: 50px; margin: 0; text-align: center;\">+</p>","response":null,"trial_type":"html-keyboard-response","trial_index":164,"plugin_version":"2.1.0","time_elapsed":9238813,"subject_id":"89565","group":"Group2","full_date":"2025-12-03T21:45:50.989Z","date":"2025-12-03","time":"21:45:50"},{"task":"memory_phase","broad_category":"M","image_png":"M_Gneiss_10.png","image_id":202,"category_name":"Gneiss","category":13,"distinct_rating":3.09,"distinct_type":"Bottom","rt":null,"stimulus":"Stimuli_Rocks480/M_Gneiss_10.png","response":null,"trial_type":"image-keyboard-response","trial_index":165,"plugin_version":"2.1.0","time_elapsed":9241326,"subject_id":"89565","group":"Group2","full_date":"2025-12-03T21:45:50.989Z","date":"2025-12-03","time":"21:45:50"},{"rt":null,"stimulus":"<p style=\"font-size: 50px; margin: 0; text-align: center;\">+</p>","response":null,"trial_type":"html-keyboard-response","trial_index":166,"plugin_version":"2.1.0","time_elapsed":9242328,"subject_id":"89565","group":"Group2","full_date":"2025-12-03T21:45:50.989Z","date":"2025-12-03","time":"21:45:50"},{"task":"memory_phase","broad_category":"M","image_png":"M_Marble_02.png","image_id":226,"category_name":"Marble","category":15,"distinct_rating":3.2,"distinct_type":"Bottom","rt":null,"stimulus":"Stimuli_Rocks480/M_Marble_02.png","response":null,"trial_type":"image-keyboard-response","trial_index":167,"plugin_version":"2.1.0","time_elapsed":9244844,"subject_id":"89565","group":"Group2","full_date":"2025-12-03T21:45:50.989Z","date":"2025-12-03","time":"21:45:50"},{"rt":null,"stimulus":"<p style=\"font-size: 50px; margin: 0; text-align: center;\">+</p>","response":null,"trial_type":"html-keyboard-response","trial_index":168,"plugin_version":"2.1.0","time_elapsed":9245847,"subject_id":"89565","group":"Group2","full_date":"2025-12-03T21:45:50.989Z","date":"2025-12-03","time":"21:45:50"},{"task":"memory_phase","broad_category":"S","image_png":"S_Sandstone_08.png","image_id":456,"category_name":"Sandstone","category":29,"distinct_rating":1.5,"distinct_type":"Bottom","rt":null,"stimulus":"Stimuli_Rocks480/S_Sandstone_08.png","response":null,"trial_type":"image-keyboard-response","trial_index":169,"plugin_version":"2.1.0","time_elapsed":9248354,"subject_id":"89565","group":"Group2","full_date":"2025-12-03T21:45:50.989Z","date":"2025-12-03","time":"21:45:50"},{"rt":null,"stimulus":"<p style=\"font-size: 50px; margin: 0; text-align: center;\">+</p>","response":null,"trial_type":"html-keyboard-response","trial_index":170,"plugin_version":"2.1.0","time_elapsed":9249355,"subject_id":"89565","group":"Group2","full_date":"2025-12-03T21:45:50.989Z","date":"2025-12-03","time":"21:45:50"},{"task":"memory_phase","broad_category":"M","image_png":"M_Quartzite_12.png","image_id":284,"category_name":"Quartzite","category":18,"distinct_rating":1.92,"distinct_type":"Bottom","rt":null,"stimulus":"Stimuli_Rocks480/M_Quartzite_12.png","response":null,"trial_type":"image-keyboard-response","trial_index":171,"plugin_version":"2.1.0","time_elapsed":9251858,"subject_id":"89565","group":"Group2","full_date":"2025-12-03T21:45:50.989Z","date":"2025-12-03","time":"21:45:50"},{"rt":null,"stimulus":"<p style=\"font-size: 50px; margin: 0; text-align: center;\">+</p>","response":null,"trial_type":"html-keyboard-response","trial_index":172,"plugin_version":"2.1.0","time_elapsed":9252861,"subject_id":"89565","group":"Group2","full_date":"2025-12-03T21:45:50.989Z","date":"2025-12-03","time":"21:45:50"},{"task":"memory_phase","broad_category":"S","image_png":"S_Rock Salt_13.png","image_id":445,"category_name":"Rock Salt","category":28,"distinct_rating":7.58,"distinct_type":"Top","rt":null,"stimulus":"Stimuli_Rocks480/S_Rock Salt_13.png","response":null,"trial_type":"image-keyboard-response","trial_index":173,"plugin_version":"2.1.0","time_elapsed":9255366,"subject_id":"89565","group":"Group2","full_date":"2025-12-03T21:45:50.989Z","date":"2025-12-03","time":"21:45:50"},{"rt":null,"stimulus":"<p style=\"font-size: 50px; margin: 0; text-align: center;\">+</p>","response":null,"trial_type":"html-keyboard-response","trial_index":174,"plugin_version":"2.1.0","time_elapsed":9256380,"subject_id":"89565","group":"Group2","full_date":"2025-12-03T21:45:50.989Z","date":"2025-12-03","time":"21:45:50"},{"task":"memory_phase","broad_category":"I","image_png":"I_Gabbro_12.png","image_id":60,"category_name":"Gabbro","category":4,"distinct_rating":2.6,"distinct_type":"Bottom","rt":null,"stimulus":"Stimuli_Rocks480/I_Gabbro_12.png","response":null,"trial_type":"image-keyboard-response","trial_index":175,"plugin_version":"2.1.0","time_elapsed":9258893,"subject_id":"89565","group":"Group2","full_date":"2025-12-03T21:45:50.989Z","date":"2025-12-03","time":"21:45:50"},{"rt":null,"stimulus":"<p style=\"font-size: 50px; margin: 0; text-align: center;\">+</p>","response":null,"trial_type":"html-keyboard-response","trial_index":176,"plugin_version":"2.1.0","time_elapsed":9259894,"subject_id":"89565","group":"Group2","full_date":"2025-12-03T21:45:50.989Z","date":"2025-12-03","time":"21:45:50"},{"task":"memory_phase","broad_category":"M","image_png":"M_Gneiss_14.png","image_id":206,"category_name":"Gneiss","category":13,"distinct_rating":3.41,"distinct_type":"Bottom","rt":null,"stimulus":"Stimuli_Rocks480/M_Gneiss_14.png","response":null,"trial_type":"image-keyboard-response","trial_index":177,"plugin_version":"2.1.0","time_elapsed":9262409,"subject_id":"89565","group":"Group2","full_date":"2025-12-03T21:45:50.989Z","date":"2025-12-03","time":"21:45:50"},{"rt":null,"stimulus":"<p style=\"font-size: 50px; margin: 0; text-align: center;\">+</p>","response":null,"trial_type":"html-keyboard-response","trial_index":178,"plugin_version":"2.1.0","time_elapsed":9263412,"subject_id":"89565","group":"Group2","full_date":"2025-12-03T21:45:50.989Z","date":"2025-12-03","time":"21:45:50"},{"task":"memory_phase","broad_category":"I","image_png":"I_Basalt_08.png","image_id":24,"category_name":"Basalt","category":2,"distinct_rating":2.31,"distinct_type":"Bottom","rt":null,"stimulus":"Stimuli_Rocks480/I_Basalt_08.png","response":null,"trial_type":"image-keyboard-response","trial_index":179,"plugin_version":"2.1.0","time_elapsed":9265925,"subject_id":"89565","group":"Group2","full_date":"2025-12-03T21:45:50.989Z","date":"2025-12-03","time":"21:45:50"},{"rt":null,"stimulus":"<p style=\"font-size: 50px; margin: 0; text-align: center;\">+</p>","response":null,"trial_type":"html-keyboard-response","trial_index":180,"plugin_version":"2.1.0","time_elapsed":9266932,"subject_id":"89565","group":"Group2","full_date":"2025-12-03T21:45:50.989Z","date":"2025-12-03","time":"21:45:50"},{"task":"memory_phase","broad_category":"I","image_png":"I_Pegmatite_03.png","image_id":99,"category_name":"Pegmatite","category":7,"distinct_rating":7.24,"distinct_type":"Top","rt":null,"stimulus":"Stimuli_Rocks480/I_Pegmatite_03.png","response":null,"trial_type":"image-keyboard-response","trial_index":181,"plugin_version":"2.1.0","time_elapsed":9269445,"subject_id":"89565","group":"Group2","full_date":"2025-12-03T21:45:50.989Z","date":"2025-12-03","time":"21:45:50"},{"rt":null,"stimulus":"<p style=\"font-size: 50px; margin: 0; text-align: center;\">+</p>","response":null,"trial_type":"html-keyboard-response","trial_index":182,"plugin_version":"2.1.0","time_elapsed":9270447,"subject_id":"89565","group":"Group2","full_date":"2025-12-03T21:45:50.989Z","date":"2025-12-03","time":"21:45:50"},{"task":"memory_phase","broad_category":"I","image_png":"I_Rhyolite_10.png","image_id":154,"category_name":"Rhyolite","category":10,"distinct_rating":2.88,"distinct_type":"Bottom","rt":null,"stimulus":"Stimuli_Rocks480/I_Rhyolite_10.png","response":null,"trial_type":"image-keyboard-response","trial_index":183,"plugin_version":"2.1.0","time_elapsed":9272964,"subject_id":"89565","group":"Group2","full_date":"2025-12-03T21:45:50.989Z","date":"2025-12-03","time":"21:45:50"},{"rt":null,"stimulus":"<p style=\"font-size: 50px; margin: 0; text-align: center;\">+</p>","response":null,"trial_type":"html-keyboard-response","trial_index":184,"plugin_version":"2.1.0","time_elapsed":9273980,"subject_id":"89565","group":"Group2","full_date":"2025-12-03T21:45:50.989Z","date":"2025-12-03","time":"21:45:50"},{"task":"memory_phase","broad_category":"M","image_png":"M_Phyllite_05.png","image_id":261,"category_name":"Phyllite","category":17,"distinct_rating":2.14,"distinct_type":"Bottom","rt":null,"stimulus":"Stimuli_Rocks480/M_Phyllite_05.png","response":null,"trial_type":"image-keyboard-response","trial_index":185,"plugin_version":"2.1.0","time_elapsed":9276488,"subject_id":"89565","group":"Group2","full_date":"2025-12-03T21:45:50.989Z","date":"2025-12-03","time":"21:45:50"},{"rt":null,"stimulus":"<p style=\"font-size: 50px; margin: 0; text-align: center;\">+</p>","response":null,"trial_type":"html-keyboard-response","trial_index":186,"plugin_version":"2.1.0","time_elapsed":9277500,"subject_id":"89565","group":"Group2","full_date":"2025-12-03T21:45:50.989Z","date":"2025-12-03","time":"21:45:50"},{"task":"memory_phase","broad_category":"I","image_png":"I_Diorite_01.png","image_id":33,"category_name":"Diorite","category":3,"distinct_rating":2.97,"distinct_type":"Bottom","rt":null,"stimulus":"Stimuli_Rocks480/I_Diorite_01.png","response":null,"trial_type":"image-keyboard-response","trial_index":187,"plugin_version":"2.1.0","time_elapsed":9280011,"subject_id":"89565","group":"Group2","full_date":"2025-12-03T21:45:50.989Z","date":"2025-12-03","time":"21:45:50"},{"rt":null,"stimulus":"<p style=\"font-size: 50px; margin: 0; text-align: center;\">+</p>","response":null,"trial_type":"html-keyboard-response","trial_index":188,"plugin_version":"2.1.0","time_elapsed":9281013,"subject_id":"89565","group":"Group2","full_date":"2025-12-03T21:45:50.989Z","date":"2025-12-03","time":"21:45:50"},{"task":"memory_phase","broad_category":"S","image_png":"S_Shale_02.png","image_id":466,"category_name":"Shale","category":30,"distinct_rating":2.9,"distinct_type":"Bottom","rt":null,"stimulus":"Stimuli_Rocks480/S_Shale_02.png","response":null,"trial_type":"image-keyboard-response","trial_index":189,"plugin_version":"2.1.0","time_elapsed":9283525,"subject_id":"89565","group":"Group2","full_date":"2025-12-03T21:45:50.989Z","date":"2025-12-03","time":"21:45:50"},{"rt":null,"stimulus":"<p style=\"font-size: 50px; margin: 0; text-align: center;\">+</p>","response":null,"trial_type":"html-keyboard-response","trial_index":190,"plugin_version":"2.1.0","time_elapsed":9284533,"subject_id":"89565","group":"Group2","full_date":"2025-12-03T21:45:50.989Z","date":"2025-12-03","time":"21:45:50"},{"task":"memory_phase","broad_category":"S","image_png":"S_Shale_03.png","image_id":467,"category_name":"Shale","category":30,"distinct_rating":1.95,"distinct_type":"Bottom","rt":null,"stimulus":"Stimuli_Rocks480/S_Shale_03.png","response":null,"trial_type":"image-keyboard-response","trial_index":191,"plugin_version":"2.1.0","time_elapsed":9287042,"subject_id":"89565","group":"Group2","full_date":"2025-12-03T21:45:50.989Z","date":"2025-12-03","time":"21:45:50"},{"rt":null,"stimulus":"<p style=\"font-size: 50px; margin: 0; text-align: center;\">+</p>","response":null,"trial_type":"html-keyboard-response","trial_index":192,"plugin_version":"2.1.0","time_elapsed":9288048,"subject_id":"89565","group":"Group2","full_date":"2025-12-03T21:45:50.989Z","date":"2025-12-03","time":"21:45:50"},{"task":"memory_phase","broad_category":"M","image_png":"M_Gneiss_15.png","image_id":207,"category_name":"Gneiss","category":13,"distinct_rating":3.11,"distinct_type":"Bottom","rt":null,"stimulus":"Stimuli_Rocks480/M_Gneiss_15.png","response":null,"trial_type":"image-keyboard-response","trial_index":193,"plugin_version":"2.1.0","time_elapsed":9290564,"subject_id":"89565","group":"Group2","full_date":"2025-12-03T21:45:50.989Z","date":"2025-12-03","time":"21:45:50"},{"rt":null,"stimulus":"<p style=\"font-size: 50px; margin: 0; text-align: center;\">+</p>","response":null,"trial_type":"html-keyboard-response","trial_index":194,"plugin_version":"2.1.0","time_elapsed":9291580,"subject_id":"89565","group":"Group2","full_date":"2025-12-03T21:45:50.989Z","date":"2025-12-03","time":"21:45:50"},{"task":"memory_phase","broad_category":"I","image_png":"I_Peridotite_13.png","image_id":125,"category_name":"Peridotite","category":8,"distinct_rating":7.28,"distinct_type":"Top","rt":null,"stimulus":"Stimuli_Rocks480/I_Peridotite_13.png","response":null,"trial_type":"image-keyboard-response","trial_index":195,"plugin_version":"2.1.0","time_elapsed":9294093,"subject_id":"89565","group":"Group2","full_date":"2025-12-03T21:45:50.989Z","date":"2025-12-03","time":"21:45:50"},{"rt":null,"stimulus":"<p style=\"font-size: 50px; margin: 0; text-align: center;\">+</p>","response":null,"trial_type":"html-keyboard-response","trial_index":196,"plugin_version":"2.1.0","time_elapsed":9295107,"subject_id":"89565","group":"Group2","full_date":"2025-12-03T21:45:50.989Z","date":"2025-12-03","time":"21:45:50"},{"task":"memory_phase","broad_category":"M","image_png":"M_Quartzite_15.png","image_id":287,"category_name":"Quartzite","category":18,"distinct_rating":2.19,"distinct_type":"Bottom","rt":null,"stimulus":"Stimuli_Rocks480/M_Quartzite_15.png","response":null,"trial_type":"image-keyboard-response","trial_index":197,"plugin_version":"2.1.0","time_elapsed":9297611,"subject_id":"89565","group":"Group2","full_date":"2025-12-03T21:45:50.989Z","date":"2025-12-03","time":"21:45:50"},{"rt":null,"stimulus":"<p style=\"font-size: 50px; margin: 0; text-align: center;\">+</p>","response":null,"trial_type":"html-keyboard-response","trial_index":198,"plugin_version":"2.1.0","time_elapsed":9298614,"subject_id":"89565","group":"Group2","full_date":"2025-12-03T21:45:50.989Z","date":"2025-12-03","time":"21:45:50"},{"task":"memory_phase","broad_category":"M","image_png":"M_Phyllite_13.png","image_id":269,"category_name":"Phyllite","category":17,"distinct_rating":2.8,"distinct_type":"Bottom","rt":null,"stimulus":"Stimuli_Rocks480/M_Phyllite_13.png","response":null,"trial_type":"image-keyboard-response","trial_index":199,"plugin_version":"2.1.0","time_elapsed":9301126,"subject_id":"89565","group":"Group2","full_date":"2025-12-03T21:45:50.989Z","date":"2025-12-03","time":"21:45:50"},{"rt":null,"stimulus":"<p style=\"font-size: 50px; margin: 0; text-align: center;\">+</p>","response":null,"trial_type":"html-keyboard-response","trial_index":200,"plugin_version":"2.1.0","time_elapsed":9302129,"subject_id":"89565","group":"Group2","full_date":"2025-12-03T21:45:50.989Z","date":"2025-12-03","time":"21:45:50"},{"task":"memory_phase","broad_category":"M","image_png":"M_Slate_10.png","image_id":314,"category_name":"Slate","category":20,"distinct_rating":1.94,"distinct_type":"Bottom","rt":null,"stimulus":"Stimuli_Rocks480/M_Slate_10.png","response":null,"trial_type":"image-keyboard-response","trial_index":201,"plugin_version":"2.1.0","time_elapsed":9304638,"subject_id":"89565","group":"Group2","full_date":"2025-12-03T21:45:50.989Z","date":"2025-12-03","time":"21:45:50"},{"rt":null,"stimulus":"<p style=\"font-size: 50px; margin: 0; text-align: center;\">+</p>","response":null,"trial_type":"html-keyboard-response","trial_index":202,"plugin_version":"2.1.0","time_elapsed":9305648,"subject_id":"89565","group":"Group2","full_date":"2025-12-03T21:45:50.989Z","date":"2025-12-03","time":"21:45:50"},{"task":"memory_phase","broad_category":"M","image_png":"M_Marble_14.png","image_id":238,"category_name":"Marble","category":15,"distinct_rating":3.31,"distinct_type":"Bottom","rt":null,"stimulus":"Stimuli_Rocks480/M_Marble_14.png","response":null,"trial_type":"image-keyboard-response","trial_index":203,"plugin_version":"2.1.0","time_elapsed":9308161,"subject_id":"89565","group":"Group2","full_date":"2025-12-03T21:45:50.989Z","date":"2025-12-03","time":"21:45:50"},{"rt":null,"stimulus":"<p style=\"font-size: 50px; margin: 0; text-align: center;\">+</p>","response":null,"trial_type":"html-keyboard-response","trial_index":204,"plugin_version":"2.1.0","time_elapsed":9309164,"subject_id":"89565","group":"Group2","full_date":"2025-12-03T21:45:50.989Z","date":"2025-12-03","time":"21:45:50"},{"task":"memory_phase","broad_category":"I","image_png":"I_Basalt_10.png","image_id":26,"category_name":"Basalt","category":2,"distinct_rating":2.76,"distinct_type":"Bottom","rt":null,"stimulus":"Stimuli_Rocks480/I_Basalt_10.png","response":null,"trial_type":"image-keyboard-response","trial_index":205,"plugin_version":"2.1.0","time_elapsed":9311677,"subject_id":"89565","group":"Group2","full_date":"2025-12-03T21:45:50.989Z","date":"2025-12-03","time":"21:45:50"},{"rt":null,"stimulus":"<p style=\"font-size: 50px; margin: 0; text-align: center;\">+</p>","response":null,"trial_type":"html-keyboard-response","trial_index":206,"plugin_version":"2.1.0","time_elapsed":9312685,"subject_id":"89565","group":"Group2","full_date":"2025-12-03T21:45:50.989Z","date":"2025-12-03","time":"21:45:50"},{"task":"memory_phase","broad_category":"M","image_png":"M_Quartzite_07.png","image_id":279,"category_name":"Quartzite","category":18,"distinct_rating":1.97,"distinct_type":"Bottom","rt":null,"stimulus":"Stimuli_Rocks480/M_Quartzite_07.png","response":null,"trial_type":"image-keyboard-response","trial_index":207,"plugin_version":"2.1.0","time_elapsed":9315193,"subject_id":"89565","group":"Group2","full_date":"2025-12-03T21:45:50.989Z","date":"2025-12-03","time":"21:45:50"},{"rt":324629,"stimulus":"<p style=\"max-width: 760px; margin: auto; font-size: 35px; line-height: 1.5;\">You have completed 2 study phases. Now, we'll show you all the images again 1 more time.<br><br>Press SPACE to continue</p>","response":" ","trial_type":"html-keyboard-response","trial_index":208,"plugin_version":"2.1.0","time_elapsed":9639822,"subject_id":"89565","group":"Group2","full_date":"2025-12-03T21:45:50.989Z","date":"2025-12-03","time":"21:45:50"},{"rt":null,"stimulus":"<p style=\"font-size: 50px; margin: 0; text-align: center;\">+</p>","response":null,"trial_type":"html-keyboard-response","trial_index":209,"plugin_version":"2.1.0","time_elapsed":9640833,"subject_id":"89565","group":"Group2","full_date":"2025-12-03T21:45:50.989Z","date":"2025-12-03","time":"21:45:50"},{"task":"memory_phase","broad_category":"I","image_png":"I_Diorite_01.png","image_id":33,"category_name":"Diorite","category":3,"distinct_rating":2.97,"distinct_type":"Bottom","rt":null,"stimulus":"Stimuli_Rocks480/I_Diorite_01.png","response":null,"trial_type":"image-keyboard-response","trial_index":210,"plugin_version":"2.1.0","time_elapsed":9643349,"subject_id":"89565","group":"Group2","full_date":"2025-12-03T21:45:50.989Z","date":"2025-12-03","time":"21:45:50"},{"rt":null,"stimulus":"<p style=\"font-size: 50px; margin: 0; text-align: center;\">+</p>","response":null,"trial_type":"html-keyboard-response","trial_index":211,"plugin_version":"2.1.0","time_elapsed":9644363,"subject_id":"89565","group":"Group2","full_date":"2025-12-03T21:45:50.989Z","date":"2025-12-03","time":"21:45:50"},{"task":"memory_phase","broad_category":"I","image_png":"I_Rhyolite_08.png","image_id":152,"category_name":"Rhyolite","category":10,"distinct_rating":1.38,"distinct_type":"Bottom","rt":null,"stimulus":"Stimuli_Rocks480/I_Rhyolite_08.png","response":null,"trial_type":"image-keyboard-response","trial_index":212,"plugin_version":"2.1.0","time_elapsed":9646876,"subject_id":"89565","group":"Group2","full_date":"2025-12-03T21:45:50.989Z","date":"2025-12-03","time":"21:45:50"},{"rt":null,"stimulus":"<p style=\"font-size: 50px; margin: 0; text-align: center;\">+</p>","response":null,"trial_type":"html-keyboard-response","trial_index":213,"plugin_version":"2.1.0","time_elapsed":9647882,"subject_id":"89565","group":"Group2","full_date":"2025-12-03T21:45:50.989Z","date":"2025-12-03","time":"21:45:50"},{"task":"memory_phase","broad_category":"M","image_png":"M_Phyllite_02.png","image_id":258,"category_name":"Phyllite","category":17,"distinct_rating":2.89,"distinct_type":"Bottom","rt":null,"stimulus":"Stimuli_Rocks480/M_Phyllite_02.png","response":null,"trial_type":"image-keyboard-response","trial_index":214,"plugin_version":"2.1.0","time_elapsed":9650396,"subject_id":"89565","group":"Group2","full_date":"2025-12-03T21:45:50.989Z","date":"2025-12-03","time":"21:45:50"},{"rt":null,"stimulus":"<p style=\"font-size: 50px; margin: 0; text-align: center;\">+</p>","response":null,"trial_type":"html-keyboard-response","trial_index":215,"plugin_version":"2.1.0","time_elapsed":9651398,"subject_id":"89565","group":"Group2","full_date":"2025-12-03T21:45:50.989Z","date":"2025-12-03","time":"21:45:50"},{"task":"memory_phase","broad_category":"S","image_png":"S_Rock Salt_15.png","image_id":447,"category_name":"Rock Salt","category":28,"distinct_rating":7.79,"distinct_type":"Top","rt":null,"stimulus":"Stimuli_Rocks480/S_Rock Salt_15.png","response":null,"trial_type":"image-keyboard-response","trial_index":216,"plugin_version":"2.1.0","time_elapsed":9653911,"subject_id":"89565","group":"Group2","full_date":"2025-12-03T21:45:50.989Z","date":"2025-12-03","time":"21:45:50"},{"rt":null,"stimulus":"<p style=\"font-size: 50px; margin: 0; text-align: center;\">+</p>","response":null,"trial_type":"html-keyboard-response","trial_index":217,"plugin_version":"2.1.0","time_elapsed":9654920,"subject_id":"89565","group":"Group2","full_date":"2025-12-03T21:45:50.989Z","date":"2025-12-03","time":"21:45:50"},{"task":"memory_phase","broad_category":"S","image_png":"S_Shale_07.png","image_id":471,"category_name":"Shale","category":30,"distinct_rating":2.73,"distinct_type":"Bottom","rt":null,"stimulus":"Stimuli_Rocks480/S_Shale_07.png","response":null,"trial_type":"image-keyboard-response","trial_index":218,"plugin_version":"2.1.0","time_elapsed":9657422,"subject_id":"89565","group":"Group2","full_date":"2025-12-03T21:45:50.989Z","date":"2025-12-03","time":"21:45:50"},{"rt":null,"stimulus":"<p style=\"font-size: 50px; margin: 0; text-align: center;\">+</p>","response":null,"trial_type":"html-keyboard-response","trial_index":219,"plugin_version":"2.1.0","time_elapsed":9658433,"subject_id":"89565","group":"Group2","full_date":"2025-12-03T21:45:50.989Z","date":"2025-12-03","time":"21:45:50"},{"task":"memory_phase","broad_category":"S","image_png":"S_Sandstone_04.png","image_id":452,"category_name":"Sandstone","category":29,"distinct_rating":1.8,"distinct_type":"Bottom","rt":null,"stimulus":"Stimuli_Rocks480/S_Sandstone_04.png","response":null,"trial_type":"image-keyboard-response","trial_index":220,"plugin_version":"2.1.0","time_elapsed":9660938,"subject_id":"89565","group":"Group2","full_date":"2025-12-03T21:45:50.989Z","date":"2025-12-03","time":"21:45:50"},{"rt":null,"stimulus":"<p style=\"font-size: 50px; margin: 0; text-align: center;\">+</p>","response":null,"trial_type":"html-keyboard-response","trial_index":221,"plugin_version":"2.1.0","time_elapsed":9661948,"subject_id":"89565","group":"Group2","full_date":"2025-12-03T21:45:50.989Z","date":"2025-12-03","time":"21:45:50"},{"task":"memory_phase","broad_category":"S","image_png":"S_Sandstone_11.png","image_id":459,"category_name":"Sandstone","category":29,"distinct_rating":1.82,"distinct_type":"Bottom","rt":null,"stimulus":"Stimuli_Rocks480/S_Sandstone_11.png","response":null,"trial_type":"image-keyboard-response","trial_index":222,"plugin_version":"2.1.0","time_elapsed":9664462,"subject_id":"89565","group":"Group2","full_date":"2025-12-03T21:45:50.989Z","date":"2025-12-03","time":"21:45:50"},{"rt":null,"stimulus":"<p style=\"font-size: 50px; margin: 0; text-align: center;\">+</p>","response":null,"trial_type":"html-keyboard-response","trial_index":223,"plugin_version":"2.1.0","time_elapsed":9665475,"subject_id":"89565","group":"Group2","full_date":"2025-12-03T21:45:50.989Z","date":"2025-12-03","time":"21:45:50"},{"task":"memory_phase","broad_category":"M","image_png":"M_Gneiss_14.png","image_id":206,"category_name":"Gneiss","category":13,"distinct_rating":3.41,"distinct_type":"Bottom","rt":null,"stimulus":"Stimuli_Rocks480/M_Gneiss_14.png","response":null,"trial_type":"image-keyboard-response","trial_index":224,"plugin_version":"2.1.0","time_elapsed":9667981,"subject_id":"89565","group":"Group2","full_date":"2025-12-03T21:45:50.989Z","date":"2025-12-03","time":"21:45:50"},{"rt":null,"stimulus":"<p style=\"font-size: 50px; margin: 0; text-align: center;\">+</p>","response":null,"trial_type":"html-keyboard-response","trial_index":225,"plugin_version":"2.1.0","time_elapsed":9668982,"subject_id":"89565","group":"Group2","full_date":"2025-12-03T21:45:50.989Z","date":"2025-12-03","time":"21:45:50"},{"task":"memory_phase","broad_category":"M","image_png":"M_Slate_10.png","image_id":314,"category_name":"Slate","category":20,"distinct_rating":1.94,"distinct_type":"Bottom","rt":null,"stimulus":"Stimuli_Rocks480/M_Slate_10.png","response":null,"trial_type":"image-keyboard-response","trial_index":226,"plugin_version":"2.1.0","time_elapsed":9671491,"subject_id":"89565","group":"Group2","full_date":"2025-12-03T21:45:50.989Z","date":"2025-12-03","time":"21:45:50"},{"rt":null,"stimulus":"<p style=\"font-size: 50px; margin: 0; text-align: center;\">+</p>","response":null,"trial_type":"html-keyboard-response","trial_index":227,"plugin_version":"2.1.0","time_elapsed":9672502,"subject_id":"89565","group":"Group2","full_date":"2025-12-03T21:45:50.989Z","date":"2025-12-03","time":"21:45:50"},{"task":"memory_phase","broad_category":"S","image_png":"S_Dolomite_16.png","image_id":400,"category_name":"Dolomite","category":25,"distinct_rating":1.71,"distinct_type":"Bottom","rt":null,"stimulus":"Stimuli_Rocks480/S_Dolomite_16.png","response":null,"trial_type":"image-keyboard-response","trial_index":228,"plugin_version":"2.1.0","time_elapsed":9675016,"subject_id":"89565","group":"Group2","full_date":"2025-12-03T21:45:50.989Z","date":"2025-12-03","time":"21:45:50"},{"rt":null,"stimulus":"<p style=\"font-size: 50px; margin: 0; text-align: center;\">+</p>","response":null,"trial_type":"html-keyboard-response","trial_index":229,"plugin_version":"2.1.0","time_elapsed":9676030,"subject_id":"89565","group":"Group2","full_date":"2025-12-03T21:45:50.989Z","date":"2025-12-03","time":"21:45:50"},{"task":"memory_phase","broad_category":"S","image_png":"S_Sandstone_08.png","image_id":456,"category_name":"Sandstone","category":29,"distinct_rating":1.5,"distinct_type":"Bottom","rt":null,"stimulus":"Stimuli_Rocks480/S_Sandstone_08.png","response":null,"trial_type":"image-keyboard-response","trial_index":230,"plugin_version":"2.1.0","time_elapsed":9678532,"subject_id":"89565","group":"Group2","full_date":"2025-12-03T21:45:50.989Z","date":"2025-12-03","time":"21:45:50"},{"rt":null,"stimulus":"<p style=\"font-size: 50px; margin: 0; text-align: center;\">+</p>","response":null,"trial_type":"html-keyboard-response","trial_index":231,"plugin_version":"2.1.0","time_elapsed":9679548,"subject_id":"89565","group":"Group2","full_date":"2025-12-03T21:45:50.989Z","date":"2025-12-03","time":"21:45:50"},{"task":"memory_phase","broad_category":"M","image_png":"M_Gneiss_10.png","image_id":202,"category_name":"Gneiss","category":13,"distinct_rating":3.09,"distinct_type":"Bottom","rt":null,"stimulus":"Stimuli_Rocks480/M_Gneiss_10.png","response":null,"trial_type":"image-keyboard-response","trial_index":232,"plugin_version":"2.1.0","time_elapsed":9682053,"subject_id":"89565","group":"Group2","full_date":"2025-12-03T21:45:50.989Z","date":"2025-12-03","time":"21:45:50"},{"rt":null,"stimulus":"<p style=\"font-size: 50px; margin: 0; text-align: center;\">+</p>","response":null,"trial_type":"html-keyboard-response","trial_index":233,"plugin_version":"2.1.0","time_elapsed":9683065,"subject_id":"89565","group":"Group2","full_date":"2025-12-03T21:45:50.989Z","date":"2025-12-03","time":"21:45:50"},{"task":"memory_phase","broad_category":"I","image_png":"I_Andesite_09.png","image_id":9,"category_name":"Andesite","category":1,"distinct_rating":2.49,"distinct_type":"Bottom","rt":null,"stimulus":"Stimuli_Rocks480/I_Andesite_09.png","response":null,"trial_type":"image-keyboard-response","trial_index":234,"plugin_version":"2.1.0","time_elapsed":9685574,"subject_id":"89565","group":"Group2","full_date":"2025-12-03T21:45:50.989Z","date":"2025-12-03","time":"21:45:50"},{"rt":null,"stimulus":"<p style=\"font-size: 50px; margin: 0; text-align: center;\">+</p>","response":null,"trial_type":"html-keyboard-response","trial_index":235,"plugin_version":"2.1.0","time_elapsed":9686587,"subject_id":"89565","group":"Group2","full_date":"2025-12-03T21:45:50.989Z","date":"2025-12-03","time":"21:45:50"},{"task":"memory_phase","broad_category":"I","image_png":"I_Pumice_01.png","image_id":129,"category_name":"Pumice","category":9,"distinct_rating":3.25,"distinct_type":"Bottom","rt":null,"stimulus":"Stimuli_Rocks480/I_Pumice_01.png","response":null,"trial_type":"image-keyboard-response","trial_index":236,"plugin_version":"2.1.0","time_elapsed":9689091,"subject_id":"89565","group":"Group2","full_date":"2025-12-03T21:45:50.989Z","date":"2025-12-03","time":"21:45:50"},{"rt":null,"stimulus":"<p style=\"font-size: 50px; margin: 0; text-align: center;\">+</p>","response":null,"trial_type":"html-keyboard-response","trial_index":237,"plugin_version":"2.1.0","time_elapsed":9690097,"subject_id":"89565","group":"Group2","full_date":"2025-12-03T21:45:50.989Z","date":"2025-12-03","time":"21:45:50"},{"task":"memory_phase","broad_category":"I","image_png":"I_Gabbro_14.png","image_id":62,"category_name":"Gabbro","category":4,"distinct_rating":2.95,"distinct_type":"Bottom","rt":null,"stimulus":"Stimuli_Rocks480/I_Gabbro_14.png","response":null,"trial_type":"image-keyboard-response","trial_index":238,"plugin_version":"2.1.0","time_elapsed":9692603,"subject_id":"89565","group":"Group2","full_date":"2025-12-03T21:45:50.989Z","date":"2025-12-03","time":"21:45:50"},{"rt":null,"stimulus":"<p style=\"font-size: 50px; margin: 0; text-align: center;\">+</p>","response":null,"trial_type":"html-keyboard-response","trial_index":239,"plugin_version":"2.1.0","time_elapsed":9693615,"subject_id":"89565","group":"Group2","full_date":"2025-12-03T21:45:50.989Z","date":"2025-12-03","time":"21:45:50"},{"task":"memory_phase","broad_category":"S","image_png":"S_Conglomerate_14.png","image_id":382,"category_name":"Conglomerate","category":24,"distinct_rating":6.86,"distinct_type":"Top","rt":null,"stimulus":"Stimuli_Rocks480/S_Conglomerate_14.png","response":null,"trial_type":"image-keyboard-response","trial_index":240,"plugin_version":"2.1.0","time_elapsed":9696127,"subject_id":"89565","group":"Group2","full_date":"2025-12-03T21:45:50.989Z","date":"2025-12-03","time":"21:45:50"},{"rt":null,"stimulus":"<p style=\"font-size: 50px; margin: 0; text-align: center;\">+</p>","response":null,"trial_type":"html-keyboard-response","trial_index":241,"plugin_version":"2.1.0","time_elapsed":9697132,"subject_id":"89565","group":"Group2","full_date":"2025-12-03T21:45:50.989Z","date":"2025-12-03","time":"21:45:50"},{"task":"memory_phase","broad_category":"I","image_png":"I_Pegmatite_03.png","image_id":99,"category_name":"Pegmatite","category":7,"distinct_rating":7.24,"distinct_type":"Top","rt":null,"stimulus":"Stimuli_Rocks480/I_Pegmatite_03.png","response":null,"trial_type":"image-keyboard-response","trial_index":242,"plugin_version":"2.1.0","time_elapsed":9699640,"subject_id":"89565","group":"Group2","full_date":"2025-12-03T21:45:50.989Z","date":"2025-12-03","time":"21:45:50"},{"rt":null,"stimulus":"<p style=\"font-size: 50px; margin: 0; text-align: center;\">+</p>","response":null,"trial_type":"html-keyboard-response","trial_index":243,"plugin_version":"2.1.0","time_elapsed":9700653,"subject_id":"89565","group":"Group2","full_date":"2025-12-03T21:45:50.989Z","date":"2025-12-03","time":"21:45:50"},{"task":"memory_phase","broad_category":"M","image_png":"M_Quartzite_12.png","image_id":284,"category_name":"Quartzite","category":18,"distinct_rating":1.92,"distinct_type":"Bottom","rt":null,"stimulus":"Stimuli_Rocks480/M_Quartzite_12.png","response":null,"trial_type":"image-keyboard-response","trial_index":244,"plugin_version":"2.1.0","time_elapsed":9703156,"subject_id":"89565","group":"Group2","full_date":"2025-12-03T21:45:50.989Z","date":"2025-12-03","time":"21:45:50"},{"rt":null,"stimulus":"<p style=\"font-size: 50px; margin: 0; text-align: center;\">+</p>","response":null,"trial_type":"html-keyboard-response","trial_index":245,"plugin_version":"2.1.0","time_elapsed":9704166,"subject_id":"89565","group":"Group2","full_date":"2025-12-03T21:45:50.989Z","date":"2025-12-03","time":"21:45:50"},{"task":"memory_phase","broad_category":"M","image_png":"M_Quartzite_15.png","image_id":287,"category_name":"Quartzite","category":18,"distinct_rating":2.19,"distinct_type":"Bottom","rt":null,"stimulus":"Stimuli_Rocks480/M_Quartzite_15.png","response":null,"trial_type":"image-keyboard-response","trial_index":246,"plugin_version":"2.1.0","time_elapsed":9706681,"subject_id":"89565","group":"Group2","full_date":"2025-12-03T21:45:50.989Z","date":"2025-12-03","time":"21:45:50"},{"rt":null,"stimulus":"<p style=\"font-size: 50px; margin: 0; text-align: center;\">+</p>","response":null,"trial_type":"html-keyboard-response","trial_index":247,"plugin_version":"2.1.0","time_elapsed":9707683,"subject_id":"89565","group":"Group2","full_date":"2025-12-03T21:45:50.989Z","date":"2025-12-03","time":"21:45:50"},{"task":"memory_phase","broad_category":"S","image_png":