[{"width":1470,"height":756,"webaudio":true,"browser":"chrome","browser_version":"142.0.0","mobile":false,"os":"Mac OS","fullscreen":true,"vsync_rate":26.54,"webcam":true,"microphone":true,"trial_type":"browser-check","trial_index":0,"plugin_version":"2.1.0","time_elapsed":2277,"subject_id":"87188","group":"Group2","full_date":"2025-12-02T22:34:14.938Z","date":"2025-12-02","time":"22:34:14"},{"success":true,"timeout":false,"failed_images":[],"failed_audio":[],"failed_video":[],"trial_type":"preload","trial_index":1,"plugin_version":"2.1.0","time_elapsed":21421,"subject_id":"87188","group":"Group2","full_date":"2025-12-02T22:34:14.938Z","date":"2025-12-02","time":"22:34:14"},{"rt":28126,"url":"SONA_consent_memorability.html","trial_type":"external-html","trial_index":2,"plugin_version":"2.1.0","time_elapsed":49614,"subject_id":"87188","group":"Group2","full_date":"2025-12-02T22:34:14.938Z","date":"2025-12-02","time":"22:34:14"},{"success":true,"rt":1305,"trial_type":"fullscreen","trial_index":3,"plugin_version":"2.1.0","time_elapsed":51927,"subject_id":"87188","group":"Group2","full_date":"2025-12-02T22:34:14.938Z","date":"2025-12-02","time":"22:34:14"},{"rt":2071,"stimulus":"<div style=\"max-width: 760px; margin: auto; font-size: 20px; line-height: 1.5;\">\n      <h1 style=\"text-align:center; font-size: 30px;\">Instructions</h1>\n      <p>\n        Welcome to the study on <b>visual memory</b>. This experiment consists of <b>two phases</b>: \n        a <b>study phase</b> and a <b>test phase</b>.\n      </p>\n      <p>\n        In the study phase, you will see a series of rock images along with their category labels.\n        The images will appear one at a time.\n        <b>Your task</b> is to learn the categories to which the rock images belong \n        and to remember each image as accurately as possible.\n      </p> \n      <p>\n        Note that we will repeat the study phase <b>3 times</b>, \n        so you will have multiple opportunities to see and remember each image.\n      </p>\n      <p>\n        After the study phase, <b>your memory will be tested</b>. \n        Additional instructions for the test phase will be provided at that time.\n      </p>\n      <p>\n        If your computer has multiple <b>language settings</b> (e.g., English and another language),\n        please make sure it is set to English before starting.\n      </p>\n      <p>\n        You can track your progress using the <b>completion bar</b> at the top of the screen. \n        Please note that the bar will refresh when the test phase begins \n        to give you an accurate sense of your progress in both phases.\n      </p> \n      <p>\n        Press the button below when you are ready to begin.\n      </p>\n    </div>","response":0,"trial_type":"html-button-response","trial_index":4,"plugin_version":"2.1.0","time_elapsed":54007,"subject_id":"87188","group":"Group2","full_date":"2025-12-02T22:34:14.938Z","date":"2025-12-02","time":"22:34:14"},{"rt":null,"stimulus":"<p style=\"font-size: 50px; margin: 0; text-align: center;\">+</p>","response":null,"trial_type":"html-keyboard-response","trial_index":5,"plugin_version":"2.1.0","time_elapsed":55012,"subject_id":"87188","group":"Group2","full_date":"2025-12-02T22:34:14.938Z","date":"2025-12-02","time":"22:34:14"},{"task":"memory_phase","broad_category":"M","image_png":"M_Slate_10.png","image_id":314,"category_name":"Slate","category":20,"distinct_rating":1.94,"distinct_type":"Bottom","rt":null,"stimulus":"Stimuli_Rocks480/M_Slate_10.png","response":null,"trial_type":"image-keyboard-response","trial_index":6,"plugin_version":"2.1.0","time_elapsed":57518,"subject_id":"87188","group":"Group2","full_date":"2025-12-02T22:34:14.938Z","date":"2025-12-02","time":"22:34:14"},{"rt":null,"stimulus":"<p style=\"font-size: 50px; margin: 0; text-align: center;\">+</p>","response":null,"trial_type":"html-keyboard-response","trial_index":7,"plugin_version":"2.1.0","time_elapsed":58520,"subject_id":"87188","group":"Group2","full_date":"2025-12-02T22:34:14.938Z","date":"2025-12-02","time":"22:34:14"},{"task":"memory_phase","broad_category":"M","image_png":"M_Marble_02.png","image_id":226,"category_name":"Marble","category":15,"distinct_rating":3.2,"distinct_type":"Bottom","rt":null,"stimulus":"Stimuli_Rocks480/M_Marble_02.png","response":null,"trial_type":"image-keyboard-response","trial_index":8,"plugin_version":"2.1.0","time_elapsed":61025,"subject_id":"87188","group":"Group2","full_date":"2025-12-02T22:34:14.938Z","date":"2025-12-02","time":"22:34:14"},{"rt":null,"stimulus":"<p style=\"font-size: 50px; margin: 0; text-align: center;\">+</p>","response":null,"trial_type":"html-keyboard-response","trial_index":9,"plugin_version":"2.1.0","time_elapsed":62027,"subject_id":"87188","group":"Group2","full_date":"2025-12-02T22:34:14.938Z","date":"2025-12-02","time":"22:34:14"},{"task":"memory_phase","broad_category":"S","image_png":"S_Sandstone_11.png","image_id":459,"category_name":"Sandstone","category":29,"distinct_rating":1.82,"distinct_type":"Bottom","rt":null,"stimulus":"Stimuli_Rocks480/S_Sandstone_11.png","response":null,"trial_type":"image-keyboard-response","trial_index":10,"plugin_version":"2.1.0","time_elapsed":64531,"subject_id":"87188","group":"Group2","full_date":"2025-12-02T22:34:14.938Z","date":"2025-12-02","time":"22:34:14"},{"rt":null,"stimulus":"<p style=\"font-size: 50px; margin: 0; text-align: center;\">+</p>","response":null,"trial_type":"html-keyboard-response","trial_index":11,"plugin_version":"2.1.0","time_elapsed":65534,"subject_id":"87188","group":"Group2","full_date":"2025-12-02T22:34:14.938Z","date":"2025-12-02","time":"22:34:14"},{"task":"memory_phase","broad_category":"S","image_png":"S_Dolomite_01.png","image_id":385,"category_name":"Dolomite","category":25,"distinct_rating":1.43,"distinct_type":"Bottom","rt":null,"stimulus":"Stimuli_Rocks480/S_Dolomite_01.png","response":null,"trial_type":"image-keyboard-response","trial_index":12,"plugin_version":"2.1.0","time_elapsed":68037,"subject_id":"87188","group":"Group2","full_date":"2025-12-02T22:34:14.938Z","date":"2025-12-02","time":"22:34:14"},{"rt":null,"stimulus":"<p style=\"font-size: 50px; margin: 0; text-align: center;\">+</p>","response":null,"trial_type":"html-keyboard-response","trial_index":13,"plugin_version":"2.1.0","time_elapsed":69040,"subject_id":"87188","group":"Group2","full_date":"2025-12-02T22:34:14.938Z","date":"2025-12-02","time":"22:34:14"},{"task":"memory_phase","broad_category":"I","image_png":"I_Gabbro_02.png","image_id":50,"category_name":"Gabbro","category":4,"distinct_rating":2.73,"distinct_type":"Bottom","rt":null,"stimulus":"Stimuli_Rocks480/I_Gabbro_02.png","response":null,"trial_type":"image-keyboard-response","trial_index":14,"plugin_version":"2.1.0","time_elapsed":71543,"subject_id":"87188","group":"Group2","full_date":"2025-12-02T22:34:14.938Z","date":"2025-12-02","time":"22:34:14"},{"rt":null,"stimulus":"<p style=\"font-size: 50px; margin: 0; text-align: center;\">+</p>","response":null,"trial_type":"html-keyboard-response","trial_index":15,"plugin_version":"2.1.0","time_elapsed":72546,"subject_id":"87188","group":"Group2","full_date":"2025-12-02T22:34:14.938Z","date":"2025-12-02","time":"22:34:14"},{"task":"memory_phase","broad_category":"M","image_png":"M_Phyllite_05.png","image_id":261,"category_name":"Phyllite","category":17,"distinct_rating":2.14,"distinct_type":"Bottom","rt":null,"stimulus":"Stimuli_Rocks480/M_Phyllite_05.png","response":null,"trial_type":"image-keyboard-response","trial_index":16,"plugin_version":"2.1.0","time_elapsed":75050,"subject_id":"87188","group":"Group2","full_date":"2025-12-02T22:34:14.938Z","date":"2025-12-02","time":"22:34:14"},{"rt":null,"stimulus":"<p style=\"font-size: 50px; margin: 0; text-align: center;\">+</p>","response":null,"trial_type":"html-keyboard-response","trial_index":17,"plugin_version":"2.1.0","time_elapsed":76053,"subject_id":"87188","group":"Group2","full_date":"2025-12-02T22:34:14.938Z","date":"2025-12-02","time":"22:34:14"},{"task":"memory_phase","broad_category":"S","image_png":"S_Shale_03.png","image_id":467,"category_name":"Shale","category":30,"distinct_rating":1.95,"distinct_type":"Bottom","rt":null,"stimulus":"Stimuli_Rocks480/S_Shale_03.png","response":null,"trial_type":"image-keyboard-response","trial_index":18,"plugin_version":"2.1.0","time_elapsed":78558,"subject_id":"87188","group":"Group2","full_date":"2025-12-02T22:34:14.938Z","date":"2025-12-02","time":"22:34:14"},{"rt":null,"stimulus":"<p style=\"font-size: 50px; margin: 0; text-align: center;\">+</p>","response":null,"trial_type":"html-keyboard-response","trial_index":19,"plugin_version":"2.1.0","time_elapsed":79562,"subject_id":"87188","group":"Group2","full_date":"2025-12-02T22:34:14.938Z","date":"2025-12-02","time":"22:34:14"},{"task":"memory_phase","broad_category":"S","image_png":"S_Dolomite_16.png","image_id":400,"category_name":"Dolomite","category":25,"distinct_rating":1.71,"distinct_type":"Bottom","rt":null,"stimulus":"Stimuli_Rocks480/S_Dolomite_16.png","response":null,"trial_type":"image-keyboard-response","trial_index":20,"plugin_version":"2.1.0","time_elapsed":82066,"subject_id":"87188","group":"Group2","full_date":"2025-12-02T22:34:14.938Z","date":"2025-12-02","time":"22:34:14"},{"rt":null,"stimulus":"<p style=\"font-size: 50px; margin: 0; text-align: center;\">+</p>","response":null,"trial_type":"html-keyboard-response","trial_index":21,"plugin_version":"2.1.0","time_elapsed":83069,"subject_id":"87188","group":"Group2","full_date":"2025-12-02T22:34:14.938Z","date":"2025-12-02","time":"22:34:14"},{"task":"memory_phase","broad_category":"S","image_png":"S_Sandstone_04.png","image_id":452,"category_name":"Sandstone","category":29,"distinct_rating":1.8,"distinct_type":"Bottom","rt":null,"stimulus":"Stimuli_Rocks480/S_Sandstone_04.png","response":null,"trial_type":"image-keyboard-response","trial_index":22,"plugin_version":"2.1.0","time_elapsed":85574,"subject_id":"87188","group":"Group2","full_date":"2025-12-02T22:34:14.938Z","date":"2025-12-02","time":"22:34:14"},{"rt":null,"stimulus":"<p style=\"font-size: 50px; margin: 0; text-align: center;\">+</p>","response":null,"trial_type":"html-keyboard-response","trial_index":23,"plugin_version":"2.1.0","time_elapsed":86577,"subject_id":"87188","group":"Group2","full_date":"2025-12-02T22:34:14.938Z","date":"2025-12-02","time":"22:34:14"},{"task":"memory_phase","broad_category":"I","image_png":"I_Andesite_04.png","image_id":4,"category_name":"Andesite","category":1,"distinct_rating":3.18,"distinct_type":"Bottom","rt":null,"stimulus":"Stimuli_Rocks480/I_Andesite_04.png","response":null,"trial_type":"image-keyboard-response","trial_index":24,"plugin_version":"2.1.0","time_elapsed":89082,"subject_id":"87188","group":"Group2","full_date":"2025-12-02T22:34:14.938Z","date":"2025-12-02","time":"22:34:14"},{"rt":null,"stimulus":"<p style=\"font-size: 50px; margin: 0; text-align: center;\">+</p>","response":null,"trial_type":"html-keyboard-response","trial_index":25,"plugin_version":"2.1.0","time_elapsed":90085,"subject_id":"87188","group":"Group2","full_date":"2025-12-02T22:34:14.938Z","date":"2025-12-02","time":"22:34:14"},{"task":"memory_phase","broad_category":"M","image_png":"M_Slate_04.png","image_id":308,"category_name":"Slate","category":20,"distinct_rating":2.2,"distinct_type":"Bottom","rt":null,"stimulus":"Stimuli_Rocks480/M_Slate_04.png","response":null,"trial_type":"image-keyboard-response","trial_index":26,"plugin_version":"2.1.0","time_elapsed":92587,"subject_id":"87188","group":"Group2","full_date":"2025-12-02T22:34:14.938Z","date":"2025-12-02","time":"22:34:14"},{"rt":null,"stimulus":"<p style=\"font-size: 50px; margin: 0; text-align: center;\">+</p>","response":null,"trial_type":"html-keyboard-response","trial_index":27,"plugin_version":"2.1.0","time_elapsed":93590,"subject_id":"87188","group":"Group2","full_date":"2025-12-02T22:34:14.938Z","date":"2025-12-02","time":"22:34:14"},{"task":"memory_phase","broad_category":"S","image_png":"S_Sandstone_08.png","image_id":456,"category_name":"Sandstone","category":29,"distinct_rating":1.5,"distinct_type":"Bottom","rt":null,"stimulus":"Stimuli_Rocks480/S_Sandstone_08.png","response":null,"trial_type":"image-keyboard-response","trial_index":28,"plugin_version":"2.1.0","time_elapsed":96093,"subject_id":"87188","group":"Group2","full_date":"2025-12-02T22:34:14.938Z","date":"2025-12-02","time":"22:34:14"},{"rt":null,"stimulus":"<p style=\"font-size: 50px; margin: 0; text-align: center;\">+</p>","response":null,"trial_type":"html-keyboard-response","trial_index":29,"plugin_version":"2.1.0","time_elapsed":97094,"subject_id":"87188","group":"Group2","full_date":"2025-12-02T22:34:14.938Z","date":"2025-12-02","time":"22:34:14"},{"task":"memory_phase","broad_category":"I","image_png":"I_Diorite_15.png","image_id":47,"category_name":"Diorite","category":3,"distinct_rating":3.05,"distinct_type":"Bottom","rt":null,"stimulus":"Stimuli_Rocks480/I_Diorite_15.png","response":null,"trial_type":"image-keyboard-response","trial_index":30,"plugin_version":"2.1.0","time_elapsed":99596,"subject_id":"87188","group":"Group2","full_date":"2025-12-02T22:34:14.938Z","date":"2025-12-02","time":"22:34:14"},{"rt":null,"stimulus":"<p style=\"font-size: 50px; margin: 0; text-align: center;\">+</p>","response":null,"trial_type":"html-keyboard-response","trial_index":31,"plugin_version":"2.1.0","time_elapsed":100599,"subject_id":"87188","group":"Group2","full_date":"2025-12-02T22:34:14.938Z","date":"2025-12-02","time":"22:34:14"},{"task":"memory_phase","broad_category":"I","image_png":"I_Pegmatite_03.png","image_id":99,"category_name":"Pegmatite","category":7,"distinct_rating":7.24,"distinct_type":"Top","rt":null,"stimulus":"Stimuli_Rocks480/I_Pegmatite_03.png","response":null,"trial_type":"image-keyboard-response","trial_index":32,"plugin_version":"2.1.0","time_elapsed":103103,"subject_id":"87188","group":"Group2","full_date":"2025-12-02T22:34:14.938Z","date":"2025-12-02","time":"22:34:14"},{"rt":null,"stimulus":"<p style=\"font-size: 50px; margin: 0; text-align: center;\">+</p>","response":null,"trial_type":"html-keyboard-response","trial_index":33,"plugin_version":"2.1.0","time_elapsed":104106,"subject_id":"87188","group":"Group2","full_date":"2025-12-02T22:34:14.938Z","date":"2025-12-02","time":"22:34:14"},{"task":"memory_phase","broad_category":"S","image_png":"S_Shale_02.png","image_id":466,"category_name":"Shale","category":30,"distinct_rating":2.9,"distinct_type":"Bottom","rt":null,"stimulus":"Stimuli_Rocks480/S_Shale_02.png","response":null,"trial_type":"image-keyboard-response","trial_index":34,"plugin_version":"2.1.0","time_elapsed":106609,"subject_id":"87188","group":"Group2","full_date":"2025-12-02T22:34:14.938Z","date":"2025-12-02","time":"22:34:14"},{"rt":null,"stimulus":"<p style=\"font-size: 50px; margin: 0; text-align: center;\">+</p>","response":null,"trial_type":"html-keyboard-response","trial_index":35,"plugin_version":"2.1.0","time_elapsed":107613,"subject_id":"87188","group":"Group2","full_date":"2025-12-02T22:34:14.938Z","date":"2025-12-02","time":"22:34:14"},{"task":"memory_phase","broad_category":"I","image_png":"I_Pumice_14.png","image_id":142,"category_name":"Pumice","category":9,"distinct_rating":3.22,"distinct_type":"Bottom","rt":null,"stimulus":"Stimuli_Rocks480/I_Pumice_14.png","response":null,"trial_type":"image-keyboard-response","trial_index":36,"plugin_version":"2.1.0","time_elapsed":110116,"subject_id":"87188","group":"Group2","full_date":"2025-12-02T22:34:14.938Z","date":"2025-12-02","time":"22:34:14"},{"rt":null,"stimulus":"<p style=\"font-size: 50px; margin: 0; text-align: center;\">+</p>","response":null,"trial_type":"html-keyboard-response","trial_index":37,"plugin_version":"2.1.0","time_elapsed":111119,"subject_id":"87188","group":"Group2","full_date":"2025-12-02T22:34:14.938Z","date":"2025-12-02","time":"22:34:14"},{"task":"memory_phase","broad_category":"I","image_png":"I_Gabbro_14.png","image_id":62,"category_name":"Gabbro","category":4,"distinct_rating":2.95,"distinct_type":"Bottom","rt":null,"stimulus":"Stimuli_Rocks480/I_Gabbro_14.png","response":null,"trial_type":"image-keyboard-response","trial_index":38,"plugin_version":"2.1.0","time_elapsed":113622,"subject_id":"87188","group":"Group2","full_date":"2025-12-02T22:34:14.938Z","date":"2025-12-02","time":"22:34:14"},{"rt":null,"stimulus":"<p style=\"font-size: 50px; margin: 0; text-align: center;\">+</p>","response":null,"trial_type":"html-keyboard-response","trial_index":39,"plugin_version":"2.1.0","time_elapsed":114626,"subject_id":"87188","group":"Group2","full_date":"2025-12-02T22:34:14.938Z","date":"2025-12-02","time":"22:34:14"},{"task":"memory_phase","broad_category":"M","image_png":"M_Phyllite_02.png","image_id":258,"category_name":"Phyllite","category":17,"distinct_rating":2.89,"distinct_type":"Bottom","rt":null,"stimulus":"Stimuli_Rocks480/M_Phyllite_02.png","response":null,"trial_type":"image-keyboard-response","trial_index":40,"plugin_version":"2.1.0","time_elapsed":117129,"subject_id":"87188","group":"Group2","full_date":"2025-12-02T22:34:14.938Z","date":"2025-12-02","time":"22:34:14"},{"rt":null,"stimulus":"<p style=\"font-size: 50px; margin: 0; text-align: center;\">+</p>","response":null,"trial_type":"html-keyboard-response","trial_index":41,"plugin_version":"2.1.0","time_elapsed":118132,"subject_id":"87188","group":"Group2","full_date":"2025-12-02T22:34:14.938Z","date":"2025-12-02","time":"22:34:14"},{"task":"memory_phase","broad_category":"S","image_png":"S_Rock Salt_13.png","image_id":445,"category_name":"Rock Salt","category":28,"distinct_rating":7.58,"distinct_type":"Top","rt":null,"stimulus":"Stimuli_Rocks480/S_Rock Salt_13.png","response":null,"trial_type":"image-keyboard-response","trial_index":42,"plugin_version":"2.1.0","time_elapsed":120634,"subject_id":"87188","group":"Group2","full_date":"2025-12-02T22:34:14.938Z","date":"2025-12-02","time":"22:34:14"},{"rt":null,"stimulus":"<p style=\"font-size: 50px; margin: 0; text-align: center;\">+</p>","response":null,"trial_type":"html-keyboard-response","trial_index":43,"plugin_version":"2.1.0","time_elapsed":121637,"subject_id":"87188","group":"Group2","full_date":"2025-12-02T22:34:14.938Z","date":"2025-12-02","time":"22:34:14"},{"task":"memory_phase","broad_category":"I","image_png":"I_Basalt_08.png","image_id":24,"category_name":"Basalt","category":2,"distinct_rating":2.31,"distinct_type":"Bottom","rt":null,"stimulus":"Stimuli_Rocks480/I_Basalt_08.png","response":null,"trial_type":"image-keyboard-response","trial_index":44,"plugin_version":"2.1.0","time_elapsed":124140,"subject_id":"87188","group":"Group2","full_date":"2025-12-02T22:34:14.938Z","date":"2025-12-02","time":"22:34:14"},{"rt":null,"stimulus":"<p style=\"font-size: 50px; margin: 0; text-align: center;\">+</p>","response":null,"trial_type":"html-keyboard-response","trial_index":45,"plugin_version":"2.1.0","time_elapsed":125143,"subject_id":"87188","group":"Group2","full_date":"2025-12-02T22:34:14.938Z","date":"2025-12-02","time":"22:34:14"},{"task":"memory_phase","broad_category":"M","image_png":"M_Marble_14.png","image_id":238,"category_name":"Marble","category":15,"distinct_rating":3.31,"distinct_type":"Bottom","rt":null,"stimulus":"Stimuli_Rocks480/M_Marble_14.png","response":null,"trial_type":"image-keyboard-response","trial_index":46,"plugin_version":"2.1.0","time_elapsed":127647,"subject_id":"87188","group":"Group2","full_date":"2025-12-02T22:34:14.938Z","date":"2025-12-02","time":"22:34:14"},{"rt":null,"stimulus":"<p style=\"font-size: 50px; margin: 0; text-align: center;\">+</p>","response":null,"trial_type":"html-keyboard-response","trial_index":47,"plugin_version":"2.1.0","time_elapsed":128649,"subject_id":"87188","group":"Group2","full_date":"2025-12-02T22:34:14.938Z","date":"2025-12-02","time":"22:34:14"},{"task":"memory_phase","broad_category":"I","image_png":"I_Pumice_01.png","image_id":129,"category_name":"Pumice","category":9,"distinct_rating":3.25,"distinct_type":"Bottom","rt":null,"stimulus":"Stimuli_Rocks480/I_Pumice_01.png","response":null,"trial_type":"image-keyboard-response","trial_index":48,"plugin_version":"2.1.0","time_elapsed":131152,"subject_id":"87188","group":"Group2","full_date":"2025-12-02T22:34:14.938Z","date":"2025-12-02","time":"22:34:14"},{"rt":null,"stimulus":"<p style=\"font-size: 50px; margin: 0; text-align: center;\">+</p>","response":null,"trial_type":"html-keyboard-response","trial_index":49,"plugin_version":"2.1.0","time_elapsed":132155,"subject_id":"87188","group":"Group2","full_date":"2025-12-02T22:34:14.938Z","date":"2025-12-02","time":"22:34:14"},{"task":"memory_phase","broad_category":"M","image_png":"M_Quartzite_12.png","image_id":284,"category_name":"Quartzite","category":18,"distinct_rating":1.92,"distinct_type":"Bottom","rt":null,"stimulus":"Stimuli_Rocks480/M_Quartzite_12.png","response":null,"trial_type":"image-keyboard-response","trial_index":50,"plugin_version":"2.1.0","time_elapsed":134658,"subject_id":"87188","group":"Group2","full_date":"2025-12-02T22:34:14.938Z","date":"2025-12-02","time":"22:34:14"},{"rt":null,"stimulus":"<p style=\"font-size: 50px; margin: 0; text-align: center;\">+</p>","response":null,"trial_type":"html-keyboard-response","trial_index":51,"plugin_version":"2.1.0","time_elapsed":135661,"subject_id":"87188","group":"Group2","full_date":"2025-12-02T22:34:14.938Z","date":"2025-12-02","time":"22:34:14"},{"task":"memory_phase","broad_category":"S","image_png":"S_Chert_13.png","image_id":365,"category_name":"Chert","category":23,"distinct_rating":6.57,"distinct_type":"Top","rt":null,"stimulus":"Stimuli_Rocks480/S_Chert_13.png","response":null,"trial_type":"image-keyboard-response","trial_index":52,"plugin_version":"2.1.0","time_elapsed":138165,"subject_id":"87188","group":"Group2","full_date":"2025-12-02T22:34:14.938Z","date":"2025-12-02","time":"22:34:14"},{"rt":null,"stimulus":"<p style=\"font-size: 50px; margin: 0; text-align: center;\">+</p>","response":null,"trial_type":"html-keyboard-response","trial_index":53,"plugin_version":"2.1.0","time_elapsed":139168,"subject_id":"87188","group":"Group2","full_date":"2025-12-02T22:34:14.938Z","date":"2025-12-02","time":"22:34:14"},{"task":"memory_phase","broad_category":"I","image_png":"I_Rhyolite_08.png","image_id":152,"category_name":"Rhyolite","category":10,"distinct_rating":1.38,"distinct_type":"Bottom","rt":null,"stimulus":"Stimuli_Rocks480/I_Rhyolite_08.png","response":null,"trial_type":"image-keyboard-response","trial_index":54,"plugin_version":"2.1.0","time_elapsed":141673,"subject_id":"87188","group":"Group2","full_date":"2025-12-02T22:34:14.938Z","date":"2025-12-02","time":"22:34:14"},{"rt":1540,"stimulus":"<p style=\"max-width: 760px; margin: auto; font-size: 35px; line-height: 1.5;\">Press SPACE to continue study phase</p>","response":" ","trial_type":"html-keyboard-response","trial_index":55,"plugin_version":"2.1.0","time_elapsed":143215,"subject_id":"87188","group":"Group2","full_date":"2025-12-02T22:34:14.938Z","date":"2025-12-02","time":"22:34:14"},{"rt":null,"stimulus":"<p style=\"font-size: 50px; margin: 0; text-align: center;\">+</p>","response":null,"trial_type":"html-keyboard-response","trial_index":56,"plugin_version":"2.1.0","time_elapsed":144218,"subject_id":"87188","group":"Group2","full_date":"2025-12-02T22:34:14.938Z","date":"2025-12-02","time":"22:34:14"},{"task":"memory_phase","broad_category":"I","image_png":"I_Pegmatite_11.png","image_id":107,"category_name":"Pegmatite","category":7,"distinct_rating":7.11,"distinct_type":"Top","rt":null,"stimulus":"Stimuli_Rocks480/I_Pegmatite_11.png","response":null,"trial_type":"image-keyboard-response","trial_index":57,"plugin_version":"2.1.0","time_elapsed":146722,"subject_id":"87188","group":"Group2","full_date":"2025-12-02T22:34:14.938Z","date":"2025-12-02","time":"22:34:14"},{"rt":null,"stimulus":"<p style=\"font-size: 50px; margin: 0; text-align: center;\">+</p>","response":null,"trial_type":"html-keyboard-response","trial_index":58,"plugin_version":"2.1.0","time_elapsed":147725,"subject_id":"87188","group":"Group2","full_date":"2025-12-02T22:34:14.938Z","date":"2025-12-02","time":"22:34:14"},{"task":"memory_phase","broad_category":"S","image_png":"S_Rock Salt_15.png","image_id":447,"category_name":"Rock Salt","category":28,"distinct_rating":7.79,"distinct_type":"Top","rt":null,"stimulus":"Stimuli_Rocks480/S_Rock Salt_15.png","response":null,"trial_type":"image-keyboard-response","trial_index":59,"plugin_version":"2.1.0","time_elapsed":150228,"subject_id":"87188","group":"Group2","full_date":"2025-12-02T22:34:14.938Z","date":"2025-12-02","time":"22:34:14"},{"rt":null,"stimulus":"<p style=\"font-size: 50px; margin: 0; text-align: center;\">+</p>","response":null,"trial_type":"html-keyboard-response","trial_index":60,"plugin_version":"2.1.0","time_elapsed":151231,"subject_id":"87188","group":"Group2","full_date":"2025-12-02T22:34:14.938Z","date":"2025-12-02","time":"22:34:14"},{"task":"memory_phase","broad_category":"I","image_png":"I_Diorite_01.png","image_id":33,"category_name":"Diorite","category":3,"distinct_rating":2.97,"distinct_type":"Bottom","rt":null,"stimulus":"Stimuli_Rocks480/I_Diorite_01.png","response":null,"trial_type":"image-keyboard-response","trial_index":61,"plugin_version":"2.1.0","time_elapsed":153735,"subject_id":"87188","group":"Group2","full_date":"2025-12-02T22:34:14.938Z","date":"2025-12-02","time":"22:34:14"},{"rt":null,"stimulus":"<p style=\"font-size: 50px; margin: 0; text-align: center;\">+</p>","response":null,"trial_type":"html-keyboard-response","trial_index":62,"plugin_version":"2.1.0","time_elapsed":154738,"subject_id":"87188","group":"Group2","full_date":"2025-12-02T22:34:14.938Z","date":"2025-12-02","time":"22:34:14"},{"task":"memory_phase","broad_category":"I","image_png":"I_Andesite_09.png","image_id":9,"category_name":"Andesite","category":1,"distinct_rating":2.49,"distinct_type":"Bottom","rt":null,"stimulus":"Stimuli_Rocks480/I_Andesite_09.png","response":null,"trial_type":"image-keyboard-response","trial_index":63,"plugin_version":"2.1.0","time_elapsed":157242,"subject_id":"87188","group":"Group2","full_date":"2025-12-02T22:34:14.938Z","date":"2025-12-02","time":"22:34:14"},{"rt":null,"stimulus":"<p style=\"font-size: 50px; margin: 0; text-align: center;\">+</p>","response":null,"trial_type":"html-keyboard-response","trial_index":64,"plugin_version":"2.1.0","time_elapsed":158245,"subject_id":"87188","group":"Group2","full_date":"2025-12-02T22:34:14.938Z","date":"2025-12-02","time":"22:34:14"},{"task":"memory_phase","broad_category":"M","image_png":"M_Slate_14.png","image_id":318,"category_name":"Slate","category":20,"distinct_rating":2.58,"distinct_type":"Bottom","rt":null,"stimulus":"Stimuli_Rocks480/M_Slate_14.png","response":null,"trial_type":"image-keyboard-response","trial_index":65,"plugin_version":"2.1.0","time_elapsed":160748,"subject_id":"87188","group":"Group2","full_date":"2025-12-02T22:34:14.938Z","date":"2025-12-02","time":"22:34:14"},{"rt":null,"stimulus":"<p style=\"font-size: 50px; margin: 0; text-align: center;\">+</p>","response":null,"trial_type":"html-keyboard-response","trial_index":66,"plugin_version":"2.1.0","time_elapsed":161750,"subject_id":"87188","group":"Group2","full_date":"2025-12-02T22:34:14.938Z","date":"2025-12-02","time":"22:34:14"},{"task":"memory_phase","broad_category":"M","image_png":"M_Quartzite_15.png","image_id":287,"category_name":"Quartzite","category":18,"distinct_rating":2.19,"distinct_type":"Bottom","rt":null,"stimulus":"Stimuli_Rocks480/M_Quartzite_15.png","response":null,"trial_type":"image-keyboard-response","trial_index":67,"plugin_version":"2.1.0","time_elapsed":164254,"subject_id":"87188","group":"Group2","full_date":"2025-12-02T22:34:14.938Z","date":"2025-12-02","time":"22:34:14"},{"rt":null,"stimulus":"<p style=\"font-size: 50px; margin: 0; text-align: center;\">+</p>","response":null,"trial_type":"html-keyboard-response","trial_index":68,"plugin_version":"2.1.0","time_elapsed":165257,"subject_id":"87188","group":"Group2","full_date":"2025-12-02T22:34:14.938Z","date":"2025-12-02","time":"22:34:14"},{"task":"memory_phase","broad_category":"I","image_png":"I_Basalt_10.png","image_id":26,"category_name":"Basalt","category":2,"distinct_rating":2.76,"distinct_type":"Bottom","rt":null,"stimulus":"Stimuli_Rocks480/I_Basalt_10.png","response":null,"trial_type":"image-keyboard-response","trial_index":69,"plugin_version":"2.1.0","time_elapsed":167760,"subject_id":"87188","group":"Group2","full_date":"2025-12-02T22:34:14.938Z","date":"2025-12-02","time":"22:34:14"},{"rt":null,"stimulus":"<p style=\"font-size: 50px; margin: 0; text-align: center;\">+</p>","response":null,"trial_type":"html-keyboard-response","trial_index":70,"plugin_version":"2.1.0","time_elapsed":168762,"subject_id":"87188","group":"Group2","full_date":"2025-12-02T22:34:14.938Z","date":"2025-12-02","time":"22:34:14"},{"task":"memory_phase","broad_category":"S","image_png":"S_Shale_07.png","image_id":471,"category_name":"Shale","category":30,"distinct_rating":2.73,"distinct_type":"Bottom","rt":null,"stimulus":"Stimuli_Rocks480/S_Shale_07.png","response":null,"trial_type":"image-keyboard-response","trial_index":71,"plugin_version":"2.1.0","time_elapsed":171266,"subject_id":"87188","group":"Group2","full_date":"2025-12-02T22:34:14.938Z","date":"2025-12-02","time":"22:34:14"},{"rt":null,"stimulus":"<p style=\"font-size: 50px; margin: 0; text-align: center;\">+</p>","response":null,"trial_type":"html-keyboard-response","trial_index":72,"plugin_version":"2.1.0","time_elapsed":172268,"subject_id":"87188","group":"Group2","full_date":"2025-12-02T22:34:14.938Z","date":"2025-12-02","time":"22:34:14"},{"task":"memory_phase","broad_category":"I","image_png":"I_Peridotite_13.png","image_id":125,"category_name":"Peridotite","category":8,"distinct_rating":7.28,"distinct_type":"Top","rt":null,"stimulus":"Stimuli_Rocks480/I_Peridotite_13.png","response":null,"trial_type":"image-keyboard-response","trial_index":73,"plugin_version":"2.1.0","time_elapsed":174772,"subject_id":"87188","group":"Group2","full_date":"2025-12-02T22:34:14.938Z","date":"2025-12-02","time":"22:34:14"},{"rt":null,"stimulus":"<p style=\"font-size: 50px; margin: 0; text-align: center;\">+</p>","response":null,"trial_type":"html-keyboard-response","trial_index":74,"plugin_version":"2.1.0","time_elapsed":175774,"subject_id":"87188","group":"Group2","full_date":"2025-12-02T22:34:14.938Z","date":"2025-12-02","time":"22:34:14"},{"task":"memory_phase","broad_category":"M","image_png":"M_Gneiss_10.png","image_id":202,"category_name":"Gneiss","category":13,"distinct_rating":3.09,"distinct_type":"Bottom","rt":null,"stimulus":"Stimuli_Rocks480/M_Gneiss_10.png","response":null,"trial_type":"image-keyboard-response","trial_index":75,"plugin_version":"2.1.0","time_elapsed":178278,"subject_id":"87188","group":"Group2","full_date":"2025-12-02T22:34:14.938Z","date":"2025-12-02","time":"22:34:14"},{"rt":null,"stimulus":"<p style=\"font-size: 50px; margin: 0; text-align: center;\">+</p>","response":null,"trial_type":"html-keyboard-response","trial_index":76,"plugin_version":"2.1.0","time_elapsed":179280,"subject_id":"87188","group":"Group2","full_date":"2025-12-02T22:34:14.938Z","date":"2025-12-02","time":"22:34:14"},{"task":"memory_phase","broad_category":"M","image_png":"M_Phyllite_13.png","image_id":269,"category_name":"Phyllite","category":17,"distinct_rating":2.8,"distinct_type":"Bottom","rt":null,"stimulus":"Stimuli_Rocks480/M_Phyllite_13.png","response":null,"trial_type":"image-keyboard-response","trial_index":77,"plugin_version":"2.1.0","time_elapsed":181784,"subject_id":"87188","group":"Group2","full_date":"2025-12-02T22:34:14.938Z","date":"2025-12-02","time":"22:34:14"},{"rt":null,"stimulus":"<p style=\"font-size: 50px; margin: 0; text-align: center;\">+</p>","response":null,"trial_type":"html-keyboard-response","trial_index":78,"plugin_version":"2.1.0","time_elapsed":182786,"subject_id":"87188","group":"Group2","full_date":"2025-12-02T22:34:14.938Z","date":"2025-12-02","time":"22:34:14"},{"task":"memory_phase","broad_category":"I","image_png":"I_Pumice_13.png","image_id":141,"category_name":"Pumice","category":9,"distinct_rating":3.12,"distinct_type":"Bottom","rt":null,"stimulus":"Stimuli_Rocks480/I_Pumice_13.png","response":null,"trial_type":"image-keyboard-response","trial_index":79,"plugin_version":"2.1.0","time_elapsed":185289,"subject_id":"87188","group":"Group2","full_date":"2025-12-02T22:34:14.938Z","date":"2025-12-02","time":"22:34:14"},{"rt":null,"stimulus":"<p style=\"font-size: 50px; margin: 0; text-align: center;\">+</p>","response":null,"trial_type":"html-keyboard-response","trial_index":80,"plugin_version":"2.1.0","time_elapsed":186292,"subject_id":"87188","group":"Group2","full_date":"2025-12-02T22:34:14.938Z","date":"2025-12-02","time":"22:34:14"},{"task":"memory_phase","broad_category":"S","image_png":"S_Conglomerate_14.png","image_id":382,"category_name":"Conglomerate","category":24,"distinct_rating":6.86,"distinct_type":"Top","rt":null,"stimulus":"Stimuli_Rocks480/S_Conglomerate_14.png","response":null,"trial_type":"image-keyboard-response","trial_index":81,"plugin_version":"2.1.0","time_elapsed":188796,"subject_id":"87188","group":"Group2","full_date":"2025-12-02T22:34:14.938Z","date":"2025-12-02","time":"22:34:14"},{"rt":null,"stimulus":"<p style=\"font-size: 50px; margin: 0; text-align: center;\">+</p>","response":null,"trial_type":"html-keyboard-response","trial_index":82,"plugin_version":"2.1.0","time_elapsed":189798,"subject_id":"87188","group":"Group2","full_date":"2025-12-02T22:34:14.938Z","date":"2025-12-02","time":"22:34:14"},{"task":"memory_phase","broad_category":"M","image_png":"M_Quartzite_07.png","image_id":279,"category_name":"Quartzite","category":18,"distinct_rating":1.97,"distinct_type":"Bottom","rt":null,"stimulus":"Stimuli_Rocks480/M_Quartzite_07.png","response":null,"trial_type":"image-keyboard-response","trial_index":83,"plugin_version":"2.1.0","time_elapsed":192302,"subject_id":"87188","group":"Group2","full_date":"2025-12-02T22:34:14.938Z","date":"2025-12-02","time":"22:34:14"},{"rt":null,"stimulus":"<p style=\"font-size: 50px; margin: 0; text-align: center;\">+</p>","response":null,"trial_type":"html-keyboard-response","trial_index":84,"plugin_version":"2.1.0","time_elapsed":193305,"subject_id":"87188","group":"Group2","full_date":"2025-12-02T22:34:14.938Z","date":"2025-12-02","time":"22:34:14"},{"task":"memory_phase","broad_category":"I","image_png":"I_Gabbro_12.png","image_id":60,"category_name":"Gabbro","category":4,"distinct_rating":2.6,"distinct_type":"Bottom","rt":null,"stimulus":"Stimuli_Rocks480/I_Gabbro_12.png","response":null,"trial_type":"image-keyboard-response","trial_index":85,"plugin_version":"2.1.0","time_elapsed":195808,"subject_id":"87188","group":"Group2","full_date":"2025-12-02T22:34:14.938Z","date":"2025-12-02","time":"22:34:14"},{"rt":null,"stimulus":"<p style=\"font-size: 50px; margin: 0; text-align: center;\">+</p>","response":null,"trial_type":"html-keyboard-response","trial_index":86,"plugin_version":"2.1.0","time_elapsed":196812,"subject_id":"87188","group":"Group2","full_date":"2025-12-02T22:34:14.938Z","date":"2025-12-02","time":"22:34:14"},{"task":"memory_phase","broad_category":"S","image_png":"S_Dolomite_07.png","image_id":391,"category_name":"Dolomite","category":25,"distinct_rating":1.73,"distinct_type":"Bottom","rt":null,"stimulus":"Stimuli_Rocks480/S_Dolomite_07.png","response":null,"trial_type":"image-keyboard-response","trial_index":87,"plugin_version":"2.1.0","time_elapsed":199318,"subject_id":"87188","group":"Group2","full_date":"2025-12-02T22:34:14.938Z","date":"2025-12-02","time":"22:34:14"},{"rt":null,"stimulus":"<p style=\"font-size: 50px; margin: 0; text-align: center;\">+</p>","response":null,"trial_type":"html-keyboard-response","trial_index":88,"plugin_version":"2.1.0","time_elapsed":200321,"subject_id":"87188","group":"Group2","full_date":"2025-12-02T22:34:14.938Z","date":"2025-12-02","time":"22:34:14"},{"task":"memory_phase","broad_category":"I","image_png":"I_Andesite_03.png","image_id":3,"category_name":"Andesite","category":1,"distinct_rating":3.17,"distinct_type":"Bottom","rt":null,"stimulus":"Stimuli_Rocks480/I_Andesite_03.png","response":null,"trial_type":"image-keyboard-response","trial_index":89,"plugin_version":"2.1.0","time_elapsed":202825,"subject_id":"87188","group":"Group2","full_date":"2025-12-02T22:34:14.938Z","date":"2025-12-02","time":"22:34:14"},{"rt":null,"stimulus":"<p style=\"font-size: 50px; margin: 0; text-align: center;\">+</p>","response":null,"trial_type":"html-keyboard-response","trial_index":90,"plugin_version":"2.1.0","time_elapsed":203828,"subject_id":"87188","group":"Group2","full_date":"2025-12-02T22:34:14.938Z","date":"2025-12-02","time":"22:34:14"},{"task":"memory_phase","broad_category":"M","image_png":"M_Gneiss_14.png","image_id":206,"category_name":"Gneiss","category":13,"distinct_rating":3.41,"distinct_type":"Bottom","rt":null,"stimulus":"Stimuli_Rocks480/M_Gneiss_14.png","response":null,"trial_type":"image-keyboard-response","trial_index":91,"plugin_version":"2.1.0","time_elapsed":206331,"subject_id":"87188","group":"Group2","full_date":"2025-12-02T22:34:14.938Z","date":"2025-12-02","time":"22:34:14"},{"rt":null,"stimulus":"<p style=\"font-size: 50px; margin: 0; text-align: center;\">+</p>","response":null,"trial_type":"html-keyboard-response","trial_index":92,"plugin_version":"2.1.0","time_elapsed":207334,"subject_id":"87188","group":"Group2","full_date":"2025-12-02T22:34:14.938Z","date":"2025-12-02","time":"22:34:14"},{"task":"memory_phase","broad_category":"M","image_png":"M_Gneiss_15.png","image_id":207,"category_name":"Gneiss","category":13,"distinct_rating":3.11,"distinct_type":"Bottom","rt":null,"stimulus":"Stimuli_Rocks480/M_Gneiss_15.png","response":null,"trial_type":"image-keyboard-response","trial_index":93,"plugin_version":"2.1.0","time_elapsed":209836,"subject_id":"87188","group":"Group2","full_date":"2025-12-02T22:34:14.938Z","date":"2025-12-02","time":"22:34:14"},{"rt":null,"stimulus":"<p style=\"font-size: 50px; margin: 0; text-align: center;\">+</p>","response":null,"trial_type":"html-keyboard-response","trial_index":94,"plugin_version":"2.1.0","time_elapsed":210840,"subject_id":"87188","group":"Group2","full_date":"2025-12-02T22:34:14.938Z","date":"2025-12-02","time":"22:34:14"},{"task":"memory_phase","broad_category":"I","image_png":"I_Diorite_10.png","image_id":42,"category_name":"Diorite","category":3,"distinct_rating":2.84,"distinct_type":"Bottom","rt":null,"stimulus":"Stimuli_Rocks480/I_Diorite_10.png","response":null,"trial_type":"image-keyboard-response","trial_index":95,"plugin_version":"2.1.0","time_elapsed":213343,"subject_id":"87188","group":"Group2","full_date":"2025-12-02T22:34:14.938Z","date":"2025-12-02","time":"22:34:14"},{"rt":null,"stimulus":"<p style=\"font-size: 50px; margin: 0; text-align: center;\">+</p>","response":null,"trial_type":"html-keyboard-response","trial_index":96,"plugin_version":"2.1.0","time_elapsed":214345,"subject_id":"87188","group":"Group2","full_date":"2025-12-02T22:34:14.938Z","date":"2025-12-02","time":"22:34:14"},{"task":"memory_phase","broad_category":"I","image_png":"I_Rhyolite_10.png","image_id":154,"category_name":"Rhyolite","category":10,"distinct_rating":2.88,"distinct_type":"Bottom","rt":null,"stimulus":"Stimuli_Rocks480/I_Rhyolite_10.png","response":null,"trial_type":"image-keyboard-response","trial_index":97,"plugin_version":"2.1.0","time_elapsed":216849,"subject_id":"87188","group":"Group2","full_date":"2025-12-02T22:34:14.938Z","date":"2025-12-02","time":"22:34:14"},{"rt":null,"stimulus":"<p style=\"font-size: 50px; margin: 0; text-align: center;\">+</p>","response":null,"trial_type":"html-keyboard-response","trial_index":98,"plugin_version":"2.1.0","time_elapsed":217851,"subject_id":"87188","group":"Group2","full_date":"2025-12-02T22:34:14.938Z","date":"2025-12-02","time":"22:34:14"},{"task":"memory_phase","broad_category":"M","image_png":"M_Marble_03.png","image_id":227,"category_name":"Marble","category":15,"distinct_rating":2.67,"distinct_type":"Bottom","rt":null,"stimulus":"Stimuli_Rocks480/M_Marble_03.png","response":null,"trial_type":"image-keyboard-response","trial_index":99,"plugin_version":"2.1.0","time_elapsed":220354,"subject_id":"87188","group":"Group2","full_date":"2025-12-02T22:34:14.938Z","date":"2025-12-02","time":"22:34:14"},{"rt":null,"stimulus":"<p style=\"font-size: 50px; margin: 0; text-align: center;\">+</p>","response":null,"trial_type":"html-keyboard-response","trial_index":100,"plugin_version":"2.1.0","time_elapsed":221357,"subject_id":"87188","group":"Group2","full_date":"2025-12-02T22:34:14.938Z","date":"2025-12-02","time":"22:34:14"},{"task":"memory_phase","broad_category":"I","image_png":"I_Basalt_13.png","image_id":29,"category_name":"Basalt","category":2,"distinct_rating":2.68,"distinct_type":"Bottom","rt":null,"stimulus":"Stimuli_Rocks480/I_Basalt_13.png","response":null,"trial_type":"image-keyboard-response","trial_index":101,"plugin_version":"2.1.0","time_elapsed":223860,"subject_id":"87188","group":"Group2","full_date":"2025-12-02T22:34:14.938Z","date":"2025-12-02","time":"22:34:14"},{"rt":null,"stimulus":"<p style=\"font-size: 50px; margin: 0; text-align: center;\">+</p>","response":null,"trial_type":"html-keyboard-response","trial_index":102,"plugin_version":"2.1.0","time_elapsed":224863,"subject_id":"87188","group":"Group2","full_date":"2025-12-02T22:34:14.938Z","date":"2025-12-02","time":"22:34:14"},{"task":"memory_phase","broad_category":"I","image_png":"I_Rhyolite_05.png","image_id":149,"category_name":"Rhyolite","category":10,"distinct_rating":3.02,"distinct_type":"Bottom","rt":null,"stimulus":"Stimuli_Rocks480/I_Rhyolite_05.png","response":null,"trial_type":"image-keyboard-response","trial_index":103,"plugin_version":"2.1.0","time_elapsed":227367,"subject_id":"87188","group":"Group2","full_date":"2025-12-02T22:34:14.938Z","date":"2025-12-02","time":"22:34:14"},{"rt":null,"stimulus":"<p style=\"font-size: 50px; margin: 0; text-align: center;\">+</p>","response":null,"trial_type":"html-keyboard-response","trial_index":104,"plugin_version":"2.1.0","time_elapsed":228370,"subject_id":"87188","group":"Group2","full_date":"2025-12-02T22:34:14.938Z","date":"2025-12-02","time":"22:34:14"},{"task":"memory_phase","broad_category":"I","image_png":"I_Obsidian_06.png","image_id":86,"category_name":"Obsidian","category":6,"distinct_rating":8.01,"distinct_type":"Top","rt":null,"stimulus":"Stimuli_Rocks480/I_Obsidian_06.png","response":null,"trial_type":"image-keyboard-response","trial_index":105,"plugin_version":"2.1.0","time_elapsed":230873,"subject_id":"87188","group":"Group2","full_date":"2025-12-02T22:34:14.938Z","date":"2025-12-02","time":"22:34:14"},{"rt":196269,"stimulus":"<p style=\"max-width: 760px; margin: auto; font-size: 35px; line-height: 1.5;\">You have completed 1 study phase. Now, we'll show you all the images again 2 more times.<br><br>Press SPACE to continue</p>","response":" ","trial_type":"html-keyboard-response","trial_index":106,"plugin_version":"2.1.0","time_elapsed":686071,"subject_id":"87188","group":"Group2","full_date":"2025-12-02T22:34:14.938Z","date":"2025-12-02","time":"22:34:14"},{"rt":null,"stimulus":"<p style=\"font-size: 50px; margin: 0; text-align: center;\">+</p>","response":null,"trial_type":"html-keyboard-response","trial_index":107,"plugin_version":"2.1.0","time_elapsed":687077,"subject_id":"87188","group":"Group2","full_date":"2025-12-02T22:34:14.938Z","date":"2025-12-02","time":"22:34:14"},{"task":"memory_phase","broad_category":"S","image_png":"S_Sandstone_04.png","image_id":452,"category_name":"Sandstone","category":29,"distinct_rating":1.8,"distinct_type":"Bottom","rt":null,"stimulus":"Stimuli_Rocks480/S_Sandstone_04.png","response":null,"trial_type":"image-keyboard-response","trial_index":108,"plugin_version":"2.1.0","time_elapsed":689584,"subject_id":"87188","group":"Group2","full_date":"2025-12-02T22:34:14.938Z","date":"2025-12-02","time":"22:34:14"},{"rt":null,"stimulus":"<p style=\"font-size: 50px; margin: 0; text-align: center;\">+</p>","response":null,"trial_type":"html-keyboard-response","trial_index":109,"plugin_version":"2.1.0","time_elapsed":690588,"subject_id":"87188","group":"Group2","full_date":"2025-12-02T22:34:14.938Z","date":"2025-12-02","time":"22:34:14"},{"task":"memory_phase","broad_category":"I","image_png":"I_Pegmatite_11.png","image_id":107,"category_name":"Pegmatite","category":7,"distinct_rating":7.11,"distinct_type":"Top","rt":null,"stimulus":"Stimuli_Rocks480/I_Pegmatite_11.png","response":null,"trial_type":"image-keyboard-response","trial_index":110,"plugin_version":"2.1.0","time_elapsed":693096,"subject_id":"87188","group":"Group2","full_date":"2025-12-02T22:34:14.938Z","date":"2025-12-02","time":"22:34:14"},{"rt":null,"stimulus":"<p style=\"font-size: 50px; margin: 0; text-align: center;\">+</p>","response":null,"trial_type":"html-keyboard-response","trial_index":111,"plugin_version":"2.1.0","time_elapsed":694100,"subject_id":"87188","group":"Group2","full_date":"2025-12-02T22:34:14.938Z","date":"2025-12-02","time":"22:34:14"},{"task":"memory_phase","broad_category":"S","image_png":"S_Dolomite_07.png","image_id":391,"category_name":"Dolomite","category":25,"distinct_rating":1.73,"distinct_type":"Bottom","rt":null,"stimulus":"Stimuli_Rocks480/S_Dolomite_07.png","response":null,"trial_type":"image-keyboard-response","trial_index":112,"plugin_version":"2.1.0","time_elapsed":696608,"subject_id":"87188","group":"Group2","full_date":"2025-12-02T22:34:14.938Z","date":"2025-12-02","time":"22:34:14"},{"rt":null,"stimulus":"<p style=\"font-size: 50px; margin: 0; text-align: center;\">+</p>","response":null,"trial_type":"html-keyboard-response","trial_index":113,"plugin_version":"2.1.0","time_elapsed":697613,"subject_id":"87188","group":"Group2","full_date":"2025-12-02T22:34:14.938Z","date":"2025-12-02","time":"22:34:14"},{"task":"memory_phase","broad_category":"I","image_png":"I_Andesite_03.png","image_id":3,"category_name":"Andesite","category":1,"distinct_rating":3.17,"distinct_type":"Bottom","rt":null,"stimulus":"Stimuli_Rocks480/I_Andesite_03.png","response":null,"trial_type":"image-keyboard-response","trial_index":114,"plugin_version":"2.1.0","time_elapsed":700118,"subject_id":"87188","group":"Group2","full_date":"2025-12-02T22:34:14.938Z","date":"2025-12-02","time":"22:34:14"},{"rt":null,"stimulus":"<p style=\"font-size: 50px; margin: 0; text-align: center;\">+</p>","response":null,"trial_type":"html-keyboard-response","trial_index":115,"plugin_version":"2.1.0","time_elapsed":701121,"subject_id":"87188","group":"Group2","full_date":"2025-12-02T22:34:14.938Z","date":"2025-12-02","time":"22:34:14"},{"task":"memory_phase","broad_category":"S","image_png":"S_Sandstone_11.png","image_id":459,"category_name":"Sandstone","category":29,"distinct_rating":1.82,"distinct_type":"Bottom","rt":null,"stimulus":"Stimuli_Rocks480/S_Sandstone_11.png","response":null,"trial_type":"image-keyboard-response","trial_index":116,"plugin_version":"2.1.0","time_elapsed":703625,"subject_id":"87188","group":"Group2","full_date":"2025-12-02T22:34:14.938Z","date":"2025-12-02","time":"22:34:14"},{"rt":null,"stimulus":"<p style=\"font-size: 50px; margin: 0; text-align: center;\">+</p>","response":null,"trial_type":"html-keyboard-response","trial_index":117,"plugin_version":"2.1.0","time_elapsed":704629,"subject_id":"87188","group":"Group2","full_date":"2025-12-02T22:34:14.938Z","date":"2025-12-02","time":"22:34:14"},{"task":"memory_phase","broad_category":"S","image_png":"S_Shale_07.png","image_id":471,"category_name":"Shale","category":30,"distinct_rating":2.73,"distinct_type":"Bottom","rt":null,"stimulus":"Stimuli_Rocks480/S_Shale_07.png","response":null,"trial_type":"image-keyboard-response","trial_index":118,"plugin_version":"2.1.0","time_elapsed":707133,"subject_id":"87188","group":"Group2","full_date":"2025-12-02T22:34:14.938Z","date":"2025-12-02","time":"22:34:14"},{"rt":null,"stimulus":"<p style=\"font-size: 50px; margin: 0; text-align: center;\">+</p>","response":null,"trial_type":"html-keyboard-response","trial_index":119,"plugin_version":"2.1.0","time_elapsed":708135,"subject_id":"87188","group":"Group2","full_date":"2025-12-02T22:34:14.938Z","date":"2025-12-02","time":"22:34:14"},{"task":"memory_phase","broad_category":"I","image_png":"I_Basalt_08.png","image_id":24,"category_name":"Basalt","category":2,"distinct_rating":2.31,"distinct_type":"Bottom","rt":null,"stimulus":"Stimuli_Rocks480/I_Basalt_08.png","response":null,"trial_type":"image-keyboard-response","trial_index":120,"plugin_version":"2.1.0","time_elapsed":710639,"subject_id":"87188","group":"Group2","full_date":"2025-12-02T22:34:14.938Z","date":"2025-12-02","time":"22:34:14"},{"rt":null,"stimulus":"<p style=\"font-size: 50px; margin: 0; text-align: center;\">+</p>","response":null,"trial_type":"html-keyboard-response","trial_index":121,"plugin_version":"2.1.0","time_elapsed":711642,"subject_id":"87188","group":"Group2","full_date":"2025-12-02T22:34:14.938Z","date":"2025-12-02","time":"22:34:14"},{"task":"memory_phase","broad_category":"M","image_png":"M_Marble_03.png","image_id":227,"category_name":"Marble","category":15,"distinct_rating":2.67,"distinct_type":"Bottom","rt":null,"stimulus":"Stimuli_Rocks480/M_Marble_03.png","response":null,"trial_type":"image-keyboard-response","trial_index":122,"plugin_version":"2.1.0","time_elapsed":714146,"subject_id":"87188","group":"Group2","full_date":"2025-12-02T22:34:14.938Z","date":"2025-12-02","time":"22:34:14"},{"rt":null,"stimulus":"<p style=\"font-size: 50px; margin: 0; text-align: center;\">+</p>","response":null,"trial_type":"html-keyboard-response","trial_index":123,"plugin_version":"2.1.0","time_elapsed":715149,"subject_id":"87188","group":"Group2","full_date":"2025-12-02T22:34:14.938Z","date":"2025-12-02","time":"22:34:14"},{"task":"memory_phase","broad_category":"I","image_png":"I_Obsidian_06.png","image_id":86,"category_name":"Obsidian","category":6,"distinct_rating":8.01,"distinct_type":"Top","rt":null,"stimulus":"Stimuli_Rocks480/I_Obsidian_06.png","response":null,"trial_type":"image-keyboard-response","trial_index":124,"plugin_version":"2.1.0","time_elapsed":717653,"subject_id":"87188","group":"Group2","full_date":"2025-12-02T22:34:14.938Z","date":"2025-12-02","time":"22:34:14"},{"rt":null,"stimulus":"<p style=\"font-size: 50px; margin: 0; text-align: center;\">+</p>","response":null,"trial_type":"html-keyboard-response","trial_index":125,"plugin_version":"2.1.0","time_elapsed":718656,"subject_id":"87188","group":"Group2","full_date":"2025-12-02T22:34:14.938Z","date":"2025-12-02","time":"22:34:14"},{"task":"memory_phase","broad_category":"M","image_png":"M_Quartzite_07.png","image_id":279,"category_name":"Quartzite","category":18,"distinct_rating":1.97,"distinct_type":"Bottom","rt":null,"stimulus":"Stimuli_Rocks480/M_Quartzite_07.png","response":null,"trial_type":"image-keyboard-response","trial_index":126,"plugin_version":"2.1.0","time_elapsed":721159,"subject_id":"87188","group":"Group2","full_date":"2025-12-02T22:34:14.938Z","date":"2025-12-02","time":"22:34:14"},{"rt":null,"stimulus":"<p style=\"font-size: 50px; margin: 0; text-align: center;\">+</p>","response":null,"trial_type":"html-keyboard-response","trial_index":127,"plugin_version":"2.1.0","time_elapsed":722162,"subject_id":"87188","group":"Group2","full_date":"2025-12-02T22:34:14.938Z","date":"2025-12-02","time":"22:34:14"},{"task":"memory_phase","broad_category":"I","image_png":"I_Pumice_01.png","image_id":129,"category_name":"Pumice","category":9,"distinct_rating":3.25,"distinct_type":"Bottom","rt":null,"stimulus":"Stimuli_Rocks480/I_Pumice_01.png","response":null,"trial_type":"image-keyboard-response","trial_index":128,"plugin_version":"2.1.0","time_elapsed":724665,"subject_id":"87188","group":"Group2","full_date":"2025-12-02T22:34:14.938Z","date":"2025-12-02","time":"22:34:14"},{"rt":null,"stimulus":"<p style=\"font-size: 50px; margin: 0; text-align: center;\">+</p>","response":null,"trial_type":"html-keyboard-response","trial_index":129,"plugin_version":"2.1.0","time_elapsed":725668,"subject_id":"87188","group":"Group2","full_date":"2025-12-02T22:34:14.938Z","date":"2025-12-02","time":"22:34:14"},{"task":"memory_phase","broad_category":"M","image_png":"M_Phyllite_02.png","image_id":258,"category_name":"Phyllite","category":17,"distinct_rating":2.89,"distinct_type":"Bottom","rt":null,"stimulus":"Stimuli_Rocks480/M_Phyllite_02.png","response":null,"trial_type":"image-keyboard-response","trial_index":130,"plugin_version":"2.1.0","time_elapsed":728171,"subject_id":"87188","group":"Group2","full_date":"2025-12-02T22:34:14.938Z","date":"2025-12-02","time":"22:34:14"},{"rt":null,"stimulus":"<p style=\"font-size: 50px; margin: 0; text-align: center;\">+</p>","response":null,"trial_type":"html-keyboard-response","trial_index":131,"plugin_version":"2.1.0","time_elapsed":729174,"subject_id":"87188","group":"Group2","full_date":"2025-12-02T22:34:14.938Z","date":"2025-12-02","time":"22:34:14"},{"task":"memory_phase","broad_category":"M","image_png":"M_Marble_14.png","image_id":238,"category_name":"Marble","category":15,"distinct_rating":3.31,"distinct_type":"Bottom","rt":null,"stimulus":"Stimuli_Rocks480/M_Marble_14.png","response":null,"trial_type":"image-keyboard-response","trial_index":132,"plugin_version":"2.1.0","time_elapsed":731678,"subject_id":"87188","group":"Group2","full_date":"2025-12-02T22:34:14.938Z","date":"2025-12-02","time":"22:34:14"},{"rt":null,"stimulus":"<p style=\"font-size: 50px; margin: 0; text-align: center;\">+</p>","response":null,"trial_type":"html-keyboard-response","trial_index":133,"plugin_version":"2.1.0","time_elapsed":732680,"subject_id":"87188","group":"Group2","full_date":"2025-12-02T22:34:14.938Z","date":"2025-12-02","time":"22:34:14"},{"task":"memory_phase","broad_category":"I","image_png":"I_Diorite_15.png","image_id":47,"category_name":"Diorite","category":3,"distinct_rating":3.05,"distinct_type":"Bottom","rt":null,"stimulus":"Stimuli_Rocks480/I_Diorite_15.png","response":null,"trial_type":"image-keyboard-response","trial_index":134,"plugin_version":"2.1.0","time_elapsed":735181,"subject_id":"87188","group":"Group2","full_date":"2025-12-02T22:34:14.938Z","date":"2025-12-02","time":"22:34:14"},{"rt":null,"stimulus":"<p style=\"font-size: 50px; margin: 0; text-align: center;\">+</p>","response":null,"trial_type":"html-keyboard-response","trial_index":135,"plugin_version":"2.1.0","time_elapsed":736185,"subject_id":"87188","group":"Group2","full_date":"2025-12-02T22:34:14.938Z","date":"2025-12-02","time":"22:34:14"},{"task":"memory_phase","broad_category":"I","image_png":"I_Gabbro_14.png","image_id":62,"category_name":"Gabbro","category":4,"distinct_rating":2.95,"distinct_type":"Bottom","rt":null,"stimulus":"Stimuli_Rocks480/I_Gabbro_14.png","response":null,"trial_type":"image-keyboard-response","trial_index":136,"plugin_version":"2.1.0","time_elapsed":738689,"subject_id":"87188","group":"Group2","full_date":"2025-12-02T22:34:14.938Z","date":"2025-12-02","time":"22:34:14"},{"rt":null,"stimulus":"<p style=\"font-size: 50px; margin: 0; text-align: center;\">+</p>","response":null,"trial_type":"html-keyboard-response","trial_index":137,"plugin_version":"2.1.0","time_elapsed":739694,"subject_id":"87188","group":"Group2","full_date":"2025-12-02T22:34:14.938Z","date":"2025-12-02","time":"22:34:14"},{"task":"memory_phase","broad_category":"M","image_png":"M_Phyllite_13.png","image_id":269,"category_name":"Phyllite","category":17,"distinct_rating":2.8,"distinct_type":"Bottom","rt":null,"stimulus":"Stimuli_Rocks480/M_Phyllite_13.png","response":null,"trial_type":"image-keyboard-response","trial_index":138,"plugin_version":"2.1.0","time_elapsed":742198,"subject_id":"87188","group":"Group2","full_date":"2025-12-02T22:34:14.938Z","date":"2025-12-02","time":"22:34:14"},{"rt":null,"stimulus":"<p style=\"font-size: 50px; margin: 0; text-align: center;\">+</p>","response":null,"trial_type":"html-keyboard-response","trial_index":139,"plugin_version":"2.1.0","time_elapsed":743203,"subject_id":"87188","group":"Group2","full_date":"2025-12-02T22:34:14.938Z","date":"2025-12-02","time":"22:34:14"},{"task":"memory_phase","broad_category":"I","image_png":"I_Diorite_01.png","image_id":33,"category_name":"Diorite","category":3,"distinct_rating":2.97,"distinct_type":"Bottom","rt":null,"stimulus":"Stimuli_Rocks480/I_Diorite_01.png","response":null,"trial_type":"image-keyboard-response","trial_index":140,"plugin_version":"2.1.0","time_elapsed":745707,"subject_id":"87188","group":"Group2","full_date":"2025-12-02T22:34:14.938Z","date":"2025-12-02","time":"22:34:14"},{"rt":null,"stimulus":"<p style=\"font-size: 50px; margin: 0; text-align: center;\">+</p>","response":null,"trial_type":"html-keyboard-response","trial_index":141,"plugin_version":"2.1.0","time_elapsed":746710,"subject_id":"87188","group":"Group2","full_date":"2025-12-02T22:34:14.938Z","date":"2025-12-02","time":"22:34:14"},{"task":"memory_phase","broad_category":"M","image_png":"M_Slate_04.png","image_id":308,"category_name":"Slate","category":20,"distinct_rating":2.2,"distinct_type":"Bottom","rt":null,"stimulus":"Stimuli_Rocks480/M_Slate_04.png","response":null,"trial_type":"image-keyboard-response","trial_index":142,"plugin_version":"2.1.0","time_elapsed":749213,"subject_id":"87188","group":"Group2","full_date":"2025-12-02T22:34:14.938Z","date":"2025-12-02","time":"22:34:14"},{"rt":null,"stimulus":"<p style=\"font-size: 50px; margin: 0; text-align: center;\">+</p>","response":null,"trial_type":"html-keyboard-response","trial_index":143,"plugin_version":"2.1.0","time_elapsed":750215,"subject_id":"87188","group":"Group2","full_date":"2025-12-02T22:34:14.938Z","date":"2025-12-02","time":"22:34:14"},{"task":"memory_phase","broad_category":"S","image_png":"S_Shale_02.png","image_id":466,"category_name":"Shale","category":30,"distinct_rating":2.9,"distinct_type":"Bottom","rt":null,"stimulus":"Stimuli_Rocks480/S_Shale_02.png","response":null,"trial_type":"image-keyboard-response","trial_index":144,"plugin_version":"2.1.0","time_elapsed":752718,"subject_id":"87188","group":"Group2","full_date":"2025-12-02T22:34:14.938Z","date":"2025-12-02","time":"22:34:14"},{"rt":null,"stimulus":"<p style=\"font-size: 50px; margin: 0; text-align: center;\">+</p>","response":null,"trial_type":"html-keyboard-response","trial_index":145,"plugin_version":"2.1.0","time_elapsed":753720,"subject_id":"87188","group":"Group2","full_date":"2025-12-02T22:34:14.938Z","date":"2025-12-02","time":"22:34:14"},{"task":"memory_phase","broad_category":"I","image_png":"I_Gabbro_02.png","image_id":50,"category_name":"Gabbro","category":4,"distinct_rating":2.73,"distinct_type":"Bottom","rt":null,"stimulus":"Stimuli_Rocks480/I_Gabbro_02.png","response":null,"trial_type":"image-keyboard-response","trial_index":146,"plugin_version":"2.1.0","time_elapsed":756223,"subject_id":"87188","group":"Group2","full_date":"2025-12-02T22:34:14.938Z","date":"2025-12-02","time":"22:34:14"},{"rt":null,"stimulus":"<p style=\"font-size: 50px; margin: 0; text-align: center;\">+</p>","response":null,"trial_type":"html-keyboard-response","trial_index":147,"plugin_version":"2.1.0","time_elapsed":757227,"subject_id":"87188","group":"Group2","full_date":"2025-12-02T22:34:14.938Z","date":"2025-12-02","time":"22:34:14"},{"task":"memory_phase","broad_category":"S","image_png":"S_Shale_03.png","image_id":467,"category_name":"Shale","category":30,"distinct_rating":1.95,"distinct_type":"Bottom","rt":null,"stimulus":"Stimuli_Rocks480/S_Shale_03.png","response":null,"trial_type":"image-keyboard-response","trial_index":148,"plugin_version":"2.1.0","time_elapsed":759732,"subject_id":"87188","group":"Group2","full_date":"2025-12-02T22:34:14.938Z","date":"2025-12-02","time":"22:34:14"},{"rt":null,"stimulus":"<p style=\"font-size: 50px; margin: 0; text-align: center;\">+</p>","response":null,"trial_type":"html-keyboard-response","trial_index":149,"plugin_version":"2.1.0","time_elapsed":760736,"subject_id":"87188","group":"Group2","full_date":"2025-12-02T22:34:14.938Z","date":"2025-12-02","time":"22:34:14"},{"task":"memory_phase","broad_category":"I","image_png":"I_Gabbro_12.png","image_id":60,"category_name":"Gabbro","category":4,"distinct_rating":2.6,"distinct_type":"Bottom","rt":null,"stimulus":"Stimuli_Rocks480/I_Gabbro_12.png","response":null,"trial_type":"image-keyboard-response","trial_index":150,"plugin_version":"2.1.0","time_elapsed":763241,"subject_id":"87188","group":"Group2","full_date":"2025-12-02T22:34:14.938Z","date":"2025-12-02","time":"22:34:14"},{"rt":null,"stimulus":"<p style=\"font-size: 50px; margin: 0; text-align: center;\">+</p>","response":null,"trial_type":"html-keyboard-response","trial_index":151,"plugin_version":"2.1.0","time_elapsed":764245,"subject_id":"87188","group":"Group2","full_date":"2025-12-02T22:34:14.938Z","date":"2025-12-02","time":"22:34:14"},{"task":"memory_phase","broad_category":"M","image_png":"M_Gneiss_15.png","image_id":207,"category_name":"Gneiss","category":13,"distinct_rating":3.11,"distinct_type":"Bottom","rt":null,"stimulus":"Stimuli_Rocks480/M_Gneiss_15.png","response":null,"trial_type":"image-keyboard-response","trial_index":152,"plugin_version":"2.1.0","time_elapsed":766749,"subject_id":"87188","group":"Group2","full_date":"2025-12-02T22:34:14.938Z","date":"2025-12-02","time":"22:34:14"},{"rt":null,"stimulus":"<p style=\"font-size: 50px; margin: 0; text-align: center;\">+</p>","response":null,"trial_type":"html-keyboard-response","trial_index":153,"plugin_version":"2.1.0","time_elapsed":767751,"subject_id":"87188","group":"Group2","full_date":"2025-12-02T22:34:14.938Z","date":"2025-12-02","time":"22:34:14"},{"task":"memory_phase","broad_category":"M","image_png":"M_Quartzite_12.png","image_id":284,"category_name":"Quartzite","category":18,"distinct_rating":1.92,"distinct_type":"Bottom","rt":null,"stimulus":"Stimuli_Rocks480/M_Quartzite_12.png","response":null,"trial_type":"image-keyboard-response","trial_index":154,"plugin_version":"2.1.0","time_elapsed":770254,"subject_id":"87188","group":"Group2","full_date":"2025-12-02T22:34:14.938Z","date":"2025-12-02","time":"22:34:14"},{"rt":null,"stimulus":"<p style=\"font-size: 50px; margin: 0; text-align: center;\">+</p>","response":null,"trial_type":"html-keyboard-response","trial_index":155,"plugin_version":"2.1.0","time_elapsed":771257,"subject_id":"87188","group":"Group2","full_date":"2025-12-02T22:34:14.938Z","date":"2025-12-02","time":"22:34:14"},{"task":"memory_phase","broad_category":"S","image_png":"S_Sandstone_08.png","image_id":456,"category_name":"Sandstone","category":29,"distinct_rating":1.5,"distinct_type":"Bottom","rt":null,"stimulus":"Stimuli_Rocks480/S_Sandstone_08.png","response":null,"trial_type":"image-keyboard-response","trial_index":156,"plugin_version":"2.1.0","time_elapsed":773760,"subject_id":"87188","group":"Group2","full_date":"2025-12-02T22:34:14.938Z","date":"2025-12-02","time":"22:34:14"},{"rt":13697,"stimulus":"<p style=\"max-width: 760px; margin: auto; font-size: 35px; line-height: 1.5;\">Press SPACE to continue study phase</p>","response":" ","trial_type":"html-keyboard-response","trial_index":157,"plugin_version":"2.1.0","time_elapsed":787459,"subject_id":"87188","group":"Group2","full_date":"2025-12-02T22:34:14.938Z","date":"2025-12-02","time":"22:34:14"},{"rt":null,"stimulus":"<p style=\"font-size: 50px; margin: 0; text-align: center;\">+</p>","response":null,"trial_type":"html-keyboard-response","trial_index":158,"plugin_version":"2.1.0","time_elapsed":788462,"subject_id":"87188","group":"Group2","full_date":"2025-12-02T22:34:14.938Z","date":"2025-12-02","time":"22:34:14"},{"task":"memory_phase","broad_category":"S","image_png":"S_Chert_13.png","image_id":365,"category_name":"Chert","category":23,"distinct_rating":6.57,"distinct_type":"Top","rt":null,"stimulus":"Stimuli_Rocks480/S_Chert_13.png","response":null,"trial_type":"image-keyboard-response","trial_index":159,"plugin_version":"2.1.0","time_elapsed":790965,"subject_id":"87188","group":"Group2","full_date":"2025-12-02T22:34:14.938Z","date":"2025-12-02","time":"22:34:14"},{"rt":null,"stimulus":"<p style=\"font-size: 50px; margin: 0; text-align: center;\">+</p>","response":null,"trial_type":"html-keyboard-response","trial_index":160,"plugin_version":"2.1.0","time_elapsed":791967,"subject_id":"87188","group":"Group2","full_date":"2025-12-02T22:34:14.938Z","date":"2025-12-02","time":"22:34:14"},{"task":"memory_phase","broad_category":"I","image_png":"I_Rhyolite_08.png","image_id":152,"category_name":"Rhyolite","category":10,"distinct_rating":1.38,"distinct_type":"Bottom","rt":null,"stimulus":"Stimuli_Rocks480/I_Rhyolite_08.png","response":null,"trial_type":"image-keyboard-response","trial_index":161,"plugin_version":"2.1.0","time_elapsed":794471,"subject_id":"87188","group":"Group2","full_date":"2025-12-02T22:34:14.938Z","date":"2025-12-02","time":"22:34:14"},{"rt":null,"stimulus":"<p style=\"font-size: 50px; margin: 0; text-align: center;\">+</p>","response":null,"trial_type":"html-keyboard-response","trial_index":162,"plugin_version":"2.1.0","time_elapsed":795474,"subject_id":"87188","group":"Group2","full_date":"2025-12-02T22:34:14.938Z","date":"2025-12-02","time":"22:34:14"},{"task":"memory_phase","broad_category":"M","image_png":"M_Phyllite_05.png","image_id":261,"category_name":"Phyllite","category":17,"distinct_rating":2.14,"distinct_type":"Bottom","rt":null,"stimulus":"Stimuli_Rocks480/M_Phyllite_05.png","response":null,"trial_type":"image-keyboard-response","trial_index":163,"plugin_version":"2.1.0","time_elapsed":797977,"subject_id":"87188","group":"Group2","full_date":"2025-12-02T22:34:14.938Z","date":"2025-12-02","time":"22:34:14"},{"rt":null,"stimulus":"<p style=\"font-size: 50px; margin: 0; text-align: center;\">+</p>","response":null,"trial_type":"html-keyboard-response","trial_index":164,"plugin_version":"2.1.0","time_elapsed":798979,"subject_id":"87188","group":"Group2","full_date":"2025-12-02T22:34:14.938Z","date":"2025-12-02","time":"22:34:14"},{"task":"memory_phase","broad_category":"I","image_png":"I_Pumice_13.png","image_id":141,"category_name":"Pumice","category":9,"distinct_rating":3.12,"distinct_type":"Bottom","rt":null,"stimulus":"Stimuli_Rocks480/I_Pumice_13.png","response":null,"trial_type":"image-keyboard-response","trial_index":165,"plugin_version":"2.1.0","time_elapsed":801482,"subject_id":"87188","group":"Group2","full_date":"2025-12-02T22:34:14.938Z","date":"2025-12-02","time":"22:34:14"},{"rt":null,"stimulus":"<p style=\"font-size: 50px; margin: 0; text-align: center;\">+</p>","response":null,"trial_type":"html-keyboard-response","trial_index":166,"plugin_version":"2.1.0","time_elapsed":802485,"subject_id":"87188","group":"Group2","full_date":"2025-12-02T22:34:14.938Z","date":"2025-12-02","time":"22:34:14"},{"task":"memory_phase","broad_category":"I","image_png":"I_Peridotite_13.png","image_id":125,"category_name":"Peridotite","category":8,"distinct_rating":7.28,"distinct_type":"Top","rt":null,"stimulus":"Stimuli_Rocks480/I_Peridotite_13.png","response":null,"trial_type":"image-keyboard-response","trial_index":167,"plugin_version":"2.1.0","time_elapsed":804988,"subject_id":"87188","group":"Group2","full_date":"2025-12-02T22:34:14.938Z","date":"2025-12-02","time":"22:34:14"},{"rt":null,"stimulus":"<p style=\"font-size: 50px; margin: 0; text-align: center;\">+</p>","response":null,"trial_type":"html-keyboard-response","trial_index":168,"plugin_version":"2.1.0","time_elapsed":805991,"subject_id":"87188","group":"Group2","full_date":"2025-12-02T22:34:14.938Z","date":"2025-12-02","time":"22:34:14"},{"task":"memory_phase","broad_category":"I","image_png":"I_Diorite_10.png","image_id":42,"category_name":"Diorite","category":3,"distinct_rating":2.84,"distinct_type":"Bottom","rt":null,"stimulus":"Stimuli_Rocks480/I_Diorite_10.png","response":null,"trial_type":"image-keyboard-response","trial_index":169,"plugin_version":"2.1.0","time_elapsed":808493,"subject_id":"87188","group":"Group2","full_date":"2025-12-02T22:34:14.938Z","date":"2025-12-02","time":"22:34:14"},{"rt":null,"stimulus":"<p style=\"font-size: 50px; margin: 0; text-align: center;\">+</p>","response":null,"trial_type":"html-keyboard-response","trial_index":170,"plugin_version":"2.1.0","time_elapsed":809496,"subject_id":"87188","group":"Group2","full_date":"2025-12-02T22:34:14.938Z","date":"2025-12-02","time":"22:34:14"},{"task":"memory_phase","broad_category":"I","image_png":"I_Andesite_09.png","image_id":9,"category_name":"Andesite","category":1,"distinct_rating":2.49,"distinct_type":"Bottom","rt":null,"stimulus":"Stimuli_Rocks480/I_Andesite_09.png","response":null,"trial_type":"image-keyboard-response","trial_index":171,"plugin_version":"2.1.0","time_elapsed":811999,"subject_id":"87188","group":"Group2","full_date":"2025-12-02T22:34:14.938Z","date":"2025-12-02","time":"22:34:14"},{"rt":null,"stimulus":"<p style=\"font-size: 50px; margin: 0; text-align: center;\">+</p>","response":null,"trial_type":"html-keyboard-response","trial_index":172,"plugin_version":"2.1.0","time_elapsed":813002,"subject_id":"87188","group":"Group2","full_date":"2025-12-02T22:34:14.938Z","date":"2025-12-02","time":"22:34:14"},{"task":"memory_phase","broad_category":"S","image_png":"S_Rock Salt_15.png","image_id":447,"category_name":"Rock Salt","category":28,"distinct_rating":7.79,"distinct_type":"Top","rt":null,"stimulus":"Stimuli_Rocks480/S_Rock Salt_15.png","response":null,"trial_type":"image-keyboard-response","trial_index":173,"plugin_version":"2.1.0","time_elapsed":815506,"subject_id":"87188","group":"Group2","full_date":"2025-12-02T22:34:14.938Z","date":"2025-12-02","time":"22:34:14"},{"rt":null,"stimulus":"<p style=\"font-size: 50px; margin: 0; text-align: center;\">+</p>","response":null,"trial_type":"html-keyboard-response","trial_index":174,"plugin_version":"2.1.0","time_elapsed":816509,"subject_id":"87188","group":"Group2","full_date":"2025-12-02T22:34:14.938Z","date":"2025-12-02","time":"22:34:14"},{"task":"memory_phase","broad_category":"S","image_png":"S_Dolomite_01.png","image_id":385,"category_name":"Dolomite","category":25,"distinct_rating":1.43,"distinct_type":"Bottom","rt":null,"stimulus":"Stimuli_Rocks480/S_Dolomite_01.png","response":null,"trial_type":"image-keyboard-response","trial_index":175,"plugin_version":"2.1.0","time_elapsed":819015,"subject_id":"87188","group":"Group2","full_date":"2025-12-02T22:34:14.938Z","date":"2025-12-02","time":"22:34:14"},{"rt":null,"stimulus":"<p style=\"font-size: 50px; margin: 0; text-align: center;\">+</p>","response":null,"trial_type":"html-keyboard-response","trial_index":176,"plugin_version":"2.1.0","time_elapsed":820018,"subject_id":"87188","group":"Group2","full_date":"2025-12-02T22:34:14.938Z","date":"2025-12-02","time":"22:34:14"},{"task":"memory_phase","broad_category":"M","image_png":"M_Gneiss_10.png","image_id":202,"category_name":"Gneiss","category":13,"distinct_rating":3.09,"distinct_type":"Bottom","rt":null,"stimulus":"Stimuli_Rocks480/M_Gneiss_10.png","response":null,"trial_type":"image-keyboard-response","trial_index":177,"plugin_version":"2.1.0","time_elapsed":822521,"subject_id":"87188","group":"Group2","full_date":"2025-12-02T22:34:14.938Z","date":"2025-12-02","time":"22:34:14"},{"rt":null,"stimulus":"<p style=\"font-size: 50px; margin: 0; text-align: center;\">+</p>","response":null,"trial_type":"html-keyboard-response","trial_index":178,"plugin_version":"2.1.0","time_elapsed":823524,"subject_id":"87188","group":"Group2","full_date":"2025-12-02T22:34:14.938Z","date":"2025-12-02","time":"22:34:14"},{"task":"memory_phase","broad_category":"M","image_png":"M_Marble_02.png","image_id":226,"category_name":"Marble","category":15,"distinct_rating":3.2,"distinct_type":"Bottom","rt":null,"stimulus":"Stimuli_Rocks480/M_Marble_02.png","response":null,"trial_type":"image-keyboard-response","trial_index":179,"plugin_version":"2.1.0","time_elapsed":826026,"subject_id":"87188","group":"Group2","full_date":"2025-12-02T22:34:14.938Z","date":"2025-12-02","time":"22:34:14"},{"rt":null,"stimulus":"<p style=\"font-size: 50px; margin: 0; text-align: center;\">+</p>","response":null,"trial_type":"html-keyboard-response","trial_index":180,"plugin_version":"2.1.0","time_elapsed":827028,"subject_id":"87188","group":"Group2","full_date":"2025-12-02T22:34:14.938Z","date":"2025-12-02","time":"22:34:14"},{"task":"memory_phase","broad_category":"M","image_png":"M_Slate_10.png","image_id":314,"category_name":"Slate","category":20,"distinct_rating":1.94,"distinct_type":"Bottom","rt":null,"stimulus":"Stimuli_Rocks480/M_Slate_10.png","response":null,"trial_type":"image-keyboard-response","trial_index":181,"plugin_version":"2.1.0","time_elapsed":829532,"subject_id":"87188","group":"Group2","full_date":"2025-12-02T22:34:14.938Z","date":"2025-12-02","time":"22:34:14"},{"rt":null,"stimulus":"<p style=\"font-size: 50px; margin: 0; text-align: center;\">+</p>","response":null,"trial_type":"html-keyboard-response","trial_index":182,"plugin_version":"2.1.0","time_elapsed":830534,"subject_id":"87188","group":"Group2","full_date":"2025-12-02T22:34:14.938Z","date":"2025-12-02","time":"22:34:14"},{"task":"memory_phase","broad_category":"M","image_png":"M_Slate_14.png","image_id":318,"category_name":"Slate","category":20,"distinct_rating":2.58,"distinct_type":"Bottom","rt":null,"stimulus":"Stimuli_Rocks480/M_Slate_14.png","response":null,"trial_type":"image-keyboard-response","trial_index":183,"plugin_version":"2.1.0","time_elapsed":833037,"subject_id":"87188","group":"Group2","full_date":"2025-12-02T22:34:14.938Z","date":"2025-12-02","time":"22:34:14"},{"rt":null,"stimulus":"<p style=\"font-size: 50px; margin: 0; text-align: center;\">+</p>","response":null,"trial_type":"html-keyboard-response","trial_index":184,"plugin_version":"2.1.0","time_elapsed":834039,"subject_id":"87188","group":"Group2","full_date":"2025-12-02T22:34:14.938Z","date":"2025-12-02","time":"22:34:14"},{"task":"memory_phase","broad_category":"I","image_png":"I_Andesite_04.png","image_id":4,"category_name":"Andesite","category":1,"distinct_rating":3.18,"distinct_type":"Bottom","rt":null,"stimulus":"Stimuli_Rocks480/I_Andesite_04.png","response":null,"trial_type":"image-keyboard-response","trial_index":185,"plugin_version":"2.1.0","time_elapsed":836542,"subject_id":"87188","group":"Group2","full_date":"2025-12-02T22:34:14.938Z","date":"2025-12-02","time":"22:34:14"},{"rt":null,"stimulus":"<p style=\"font-size: 50px; margin: 0; text-align: center;\">+</p>","response":null,"trial_type":"html-keyboard-response","trial_index":186,"plugin_version":"2.1.0","time_elapsed":837545,"subject_id":"87188","group":"Group2","full_date":"2025-12-02T22:34:14.938Z","date":"2025-12-02","time":"22:34:14"},{"task":"memory_phase","broad_category":"I","image_png":"I_Rhyolite_10.png","image_id":154,"category_name":"Rhyolite","category":10,"distinct_rating":2.88,"distinct_type":"Bottom","rt":null,"stimulus":"Stimuli_Rocks480/I_Rhyolite_10.png","response":null,"trial_type":"image-keyboard-response","trial_index":187,"plugin_version":"2.1.0","time_elapsed":840049,"subject_id":"87188","group":"Group2","full_date":"2025-12-02T22:34:14.938Z","date":"2025-12-02","time":"22:34:14"},{"rt":null,"stimulus":"<p style=\"font-size: 50px; margin: 0; text-align: center;\">+</p>","response":null,"trial_type":"html-keyboard-response","trial_index":188,"plugin_version":"2.1.0","time_elapsed":841052,"subject_id":"87188","group":"Group2","full_date":"2025-12-02T22:34:14.938Z","date":"2025-12-02","time":"22:34:14"},{"task":"memory_phase","broad_category":"I","image_png":"I_Basalt_13.png","image_id":29,"category_name":"Basalt","category":2,"distinct_rating":2.68,"distinct_type":"Bottom","rt":null,"stimulus":"Stimuli_Rocks480/I_Basalt_13.png","response":null,"trial_type":"image-keyboard-response","trial_index":189,"plugin_version":"2.1.0","time_elapsed":843555,"subject_id":"87188","group":"Group2","full_date":"2025-12-02T22:34:14.938Z","date":"2025-12-02","time":"22:34:14"},{"rt":null,"stimulus":"<p style=\"font-size: 50px; margin: 0; text-align: center;\">+</p>","response":null,"trial_type":"html-keyboard-response","trial_index":190,"plugin_version":"2.1.0","time_elapsed":844558,"subject_id":"87188","group":"Group2","full_date":"2025-12-02T22:34:14.938Z","date":"2025-12-02","time":"22:34:14"},{"task":"memory_phase","broad_category":"S","image_png":"S_Conglomerate_14.png","image_id":382,"category_name":"Conglomerate","category":24,"distinct_rating":6.86,"distinct_type":"Top","rt":null,"stimulus":"Stimuli_Rocks480/S_Conglomerate_14.png","response":null,"trial_type":"image-keyboard-response","trial_index":191,"plugin_version":"2.1.0","time_elapsed":847061,"subject_id":"87188","group":"Group2","full_date":"2025-12-02T22:34:14.938Z","date":"2025-12-02","time":"22:34:14"},{"rt":null,"stimulus":"<p style=\"font-size: 50px; margin: 0; text-align: center;\">+</p>","response":null,"trial_type":"html-keyboard-response","trial_index":192,"plugin_version":"2.1.0","time_elapsed":848063,"subject_id":"87188","group":"Group2","full_date":"2025-12-02T22:34:14.938Z","date":"2025-12-02","time":"22:34:14"},{"task":"memory_phase","broad_category":"M","image_png":"M_Gneiss_14.png","image_id":206,"category_name":"Gneiss","category":13,"distinct_rating":3.41,"distinct_type":"Bottom","rt":null,"stimulus":"Stimuli_Rocks480/M_Gneiss_14.png","response":null,"trial_type":"image-keyboard-response","trial_index":193,"plugin_version":"2.1.0","time_elapsed":850566,"subject_id":"87188","group":"Group2","full_date":"2025-12-02T22:34:14.938Z","date":"2025-12-02","time":"22:34:14"},{"rt":null,"stimulus":"<p style=\"font-size: 50px; margin: 0; text-align: center;\">+</p>","response":null,"trial_type":"html-keyboard-response","trial_index":194,"plugin_version":"2.1.0","time_elapsed":851570,"subject_id":"87188","group":"Group2","full_date":"2025-12-02T22:34:14.938Z","date":"2025-12-02","time":"22:34:14"},{"task":"memory_phase","broad_category":"S","image_png":"S_Dolomite_16.png","image_id":400,"category_name":"Dolomite","category":25,"distinct_rating":1.71,"distinct_type":"Bottom","rt":null,"stimulus":"Stimuli_Rocks480/S_Dolomite_16.png","response":null,"trial_type":"image-keyboard-response","trial_index":195,"plugin_version":"2.1.0","time_elapsed":854074,"subject_id":"87188","group":"Group2","full_date":"2025-12-02T22:34:14.938Z","date":"2025-12-02","time":"22:34:14"},{"rt":null,"stimulus":"<p style=\"font-size: 50px; margin: 0; text-align: center;\">+</p>","response":null,"trial_type":"html-keyboard-response","trial_index":196,"plugin_version":"2.1.0","time_elapsed":855076,"subject_id":"87188","group":"Group2","full_date":"2025-12-02T22:34:14.938Z","date":"2025-12-02","time":"22:34:14"},{"task":"memory_phase","broad_category":"I","image_png":"I_Pumice_14.png","image_id":142,"category_name":"Pumice","category":9,"distinct_rating":3.22,"distinct_type":"Bottom","rt":null,"stimulus":"Stimuli_Rocks480/I_Pumice_14.png","response":null,"trial_type":"image-keyboard-response","trial_index":197,"plugin_version":"2.1.0","time_elapsed":857579,"subject_id":"87188","group":"Group2","full_date":"2025-12-02T22:34:14.938Z","date":"2025-12-02","time":"22:34:14"},{"rt":null,"stimulus":"<p style=\"font-size: 50px; margin: 0; text-align: center;\">+</p>","response":null,"trial_type":"html-keyboard-response","trial_index":198,"plugin_version":"2.1.0","time_elapsed":858582,"subject_id":"87188","group":"Group2","full_date":"2025-12-02T22:34:14.938Z","date":"2025-12-02","time":"22:34:14"},{"task":"memory_phase","broad_category":"I","image_png":"I_Rhyolite_05.png","image_id":149,"category_name":"Rhyolite","category":10,"distinct_rating":3.02,"distinct_type":"Bottom","rt":null,"stimulus":"Stimuli_Rocks480/I_Rhyolite_05.png","response":null,"trial_type":"image-keyboard-response","trial_index":199,"plugin_version":"2.1.0","time_elapsed":861085,"subject_id":"87188","group":"Group2","full_date":"2025-12-02T22:34:14.938Z","date":"2025-12-02","time":"22:34:14"},{"rt":null,"stimulus":"<p style=\"font-size: 50px; margin: 0; text-align: center;\">+</p>","response":null,"trial_type":"html-keyboard-response","trial_index":200,"plugin_version":"2.1.0","time_elapsed":862087,"subject_id":"87188","group":"Group2","full_date":"2025-12-02T22:34:14.938Z","date":"2025-12-02","time":"22:34:14"},{"task":"memory_phase","broad_category":"I","image_png":"I_Pegmatite_03.png","image_id":99,"category_name":"Pegmatite","category":7,"distinct_rating":7.24,"distinct_type":"Top","rt":null,"stimulus":"Stimuli_Rocks480/I_Pegmatite_03.png","response":null,"trial_type":"image-keyboard-response","trial_index":201,"plugin_version":"2.1.0","time_elapsed":864591,"subject_id":"87188","group":"Group2","full_date":"2025-12-02T22:34:14.938Z","date":"2025-12-02","time":"22:34:14"},{"rt":null,"stimulus":"<p style=\"font-size: 50px; margin: 0; text-align: center;\">+</p>","response":null,"trial_type":"html-keyboard-response","trial_index":202,"plugin_version":"2.1.0","time_elapsed":865593,"subject_id":"87188","group":"Group2","full_date":"2025-12-02T22:34:14.938Z","date":"2025-12-02","time":"22:34:14"},{"task":"memory_phase","broad_category":"M","image_png":"M_Quartzite_15.png","image_id":287,"category_name":"Quartzite","category":18,"distinct_rating":2.19,"distinct_type":"Bottom","rt":null,"stimulus":"Stimuli_Rocks480/M_Quartzite_15.png","response":null,"trial_type":"image-keyboard-response","trial_index":203,"plugin_version":"2.1.0","time_elapsed":868097,"subject_id":"87188","group":"Group2","full_date":"2025-12-02T22:34:14.938Z","date":"2025-12-02","time":"22:34:14"},{"rt":null,"stimulus":"<p style=\"font-size: 50px; margin: 0; text-align: center;\">+</p>","response":null,"trial_type":"html-keyboard-response","trial_index":204,"plugin_version":"2.1.0","time_elapsed":869100,"subject_id":"87188","group":"Group2","full_date":"2025-12-02T22:34:14.938Z","date":"2025-12-02","time":"22:34:14"},{"task":"memory_phase","broad_category":"S","image_png":"S_Rock Salt_13.png","image_id":445,"category_name":"Rock Salt","category":28,"distinct_rating":7.58,"distinct_type":"Top","rt":null,"stimulus":"Stimuli_Rocks480/S_Rock Salt_13.png","response":null,"trial_type":"image-keyboard-response","trial_index":205,"plugin_version":"2.1.0","time_elapsed":871603,"subject_id":"87188","group":"Group2","full_date":"2025-12-02T22:34:14.938Z","date":"2025-12-02","time":"22:34:14"},{"rt":null,"stimulus":"<p style=\"font-size: 50px; margin: 0; text-align: center;\">+</p>","response":null,"trial_type":"html-keyboard-response","trial_index":206,"plugin_version":"2.1.0","time_elapsed":872606,"subject_id":"87188","group":"Group2","full_date":"2025-12-02T22:34:14.938Z","date":"2025-12-02","time":"22:34:14"},{"task":"memory_phase","broad_category":"I","image_png":"I_Basalt_10.png","image_id":26,"category_name":"Basalt","category":2,"distinct_rating":2.76,"distinct_type":"Bottom","rt":null,"stimulus":"Stimuli_Rocks480/I_Basalt_10.png","response":null,"trial_type":"image-keyboard-response","trial_index":207,"plugin_version":"2.1.0","time_elapsed":875109,"subject_id":"87188","group":"Group2","full_date":"2025-12-02T22:34:14.938Z","date":"2025-12-02","time":"22:34:14"},{"rt":52171,"stimulus":"<p style=\"max-width: 760px; margin: auto; font-size: 35px; line-height: 1.5;\">You have completed 2 study phases. Now, we'll show you all the images again 1 more time.<br><br>Press SPACE to continue</p>","response":" ","trial_type":"html-keyboard-response","trial_index":208,"plugin_version":"2.1.0","time_elapsed":927283,"subject_id":"87188","group":"Group2","full_date":"2025-12-02T22:34:14.938Z","date":"2025-12-02","time":"22:34:14"},{"rt":null,"stimulus":"<p style=\"font-size: 50px; margin: 0; text-align: center;\">+</p>","response":null,"trial_type":"html-keyboard-response","trial_index":209,"plugin_version":"2.1.0","time_elapsed":928285,"subject_id":"87188","group":"Group2","full_date":"2025-12-02T22:34:14.938Z","date":"2025-12-02","time":"22:34:14"},{"task":"memory_phase","broad_category":"M","image_png":"M_Marble_03.png","image_id":227,"category_name":"Marble","category":15,"distinct_rating":2.67,"distinct_type":"Bottom","rt":null,"stimulus":"Stimuli_Rocks480/M_Marble_03.png","response":null,"trial_type":"image-keyboard-response","trial_index":210,"plugin_version":"2.1.0","time_elapsed":930789,"subject_id":"87188","group":"Group2","full_date":"2025-12-02T22:34:14.938Z","date":"2025-12-02","time":"22:34:14"},{"rt":null,"stimulus":"<p style=\"font-size: 50px; margin: 0; text-align: center;\">+</p>","response":null,"trial_type":"html-keyboard-response","trial_index":211,"plugin_version":"2.1.0","time_elapsed":931792,"subject_id":"87188","group":"Group2","full_date":"2025-12-02T22:34:14.938Z","date":"2025-12-02","time":"22:34:14"},{"task":"memory_phase","broad_category":"I","image_png":"I_Andesite_04.png","image_id":4,"category_name":"Andesite","category":1,"distinct_rating":3.18,"distinct_type":"Bottom","rt":null,"stimulus":"Stimuli_Rocks480/I_Andesite_04.png","response":null,"trial_type":"image-keyboard-response","trial_index":212,"plugin_version":"2.1.0","time_elapsed":934295,"subject_id":"87188","group":"Group2","full_date":"2025-12-02T22:34:14.938Z","date":"2025-12-02","time":"22:34:14"},{"rt":null,"stimulus":"<p style=\"font-size: 50px; margin: 0; text-align: center;\">+</p>","response":null,"trial_type":"html-keyboard-response","trial_index":213,"plugin_version":"2.1.0","time_elapsed":935298,"subject_id":"87188","group":"Group2","full_date":"2025-12-02T22:34:14.938Z","date":"2025-12-02","time":"22:34:14"},{"task":"memory_phase","broad_category":"I","image_png":"I_Gabbro_14.png","image_id":62,"category_name":"Gabbro","category":4,"distinct_rating":2.95,"distinct_type":"Bottom","rt":null,"stimulus":"Stimuli_Rocks480/I_Gabbro_14.png","response":null,"trial_type":"image-keyboard-response","trial_index":214,"plugin_version":"2.1.0","time_elapsed":937803,"subject_id":"87188","group":"Group2","full_date":"2025-12-02T22:34:14.938Z","date":"2025-12-02","time":"22:34:14"},{"rt":null,"stimulus":"<p style=\"font-size: 50px; margin: 0; text-align: center;\">+</p>","response":null,"trial_type":"html-keyboard-response","trial_index":215,"plugin_version":"2.1.0","time_elapsed":938807,"subject_id":"87188","group":"Group2","full_date":"2025-12-02T22:34:14.938Z","date":"2025-12-02","time":"22:34:14"},{"task":"memory_phase","broad_category":"I","image_png":"I_Rhyolite_08.png","image_id":152,"category_name":"Rhyolite","category":10,"distinct_rating":1.38,"distinct_type":"Bottom","rt":null,"stimulus":"Stimuli_Rocks480/I_Rhyolite_08.png","response":null,"trial_type":"image-keyboard-response","trial_index":216,"plugin_version":"2.1.0","time_elapsed":941310,"subject_id":"87188","group":"Group2","full_date":"2025-12-02T22:34:14.938Z","date":"2025-12-02","time":"22:34:14"},{"rt":null,"stimulus":"<p style=\"font-size: 50px; margin: 0; text-align: center;\">+</p>","response":null,"trial_type":"html-keyboard-response","trial_index":217,"plugin_version":"2.1.0","time_elapsed":942313,"subject_id":"87188","group":"Group2","full_date":"2025-12-02T22:34:14.938Z","date":"2025-12-02","time":"22:34:14"},{"task":"memory_phase","broad_category":"I","image_png":"I_Andesite_09.png","image_id":9,"category_name":"Andesite","category":1,"distinct_rating":2.49,"distinct_type":"Bottom","rt":null,"stimulus":"Stimuli_Rocks480/I_Andesite_09.png","response":null,"trial_type":"image-keyboard-response","trial_index":218,"plugin_version":"2.1.0","time_elapsed":944818,"subject_id":"87188","group":"Group2","full_date":"2025-12-02T22:34:14.938Z","date":"2025-12-02","time":"22:34:14"},{"rt":null,"stimulus":"<p style=\"font-size: 50px; margin: 0; text-align: center;\">+</p>","response":null,"trial_type":"html-keyboard-response","trial_index":219,"plugin_version":"2.1.0","time_elapsed":945821,"subject_id":"87188","group":"Group2","full_date":"2025-12-02T22:34:14.938Z","date":"2025-12-02","time":"22:34:14"},{"task":"memory_phase","broad_category":"I","image_png":"I_Basalt_13.png","image_id":29,"category_name":"Basalt","category":2,"distinct_rating":2.68,"distinct_type":"Bottom","rt":null,"stimulus":"Stimuli_Rocks480/I_Basalt_13.png","response":null,"trial_type":"image-keyboard-response","trial_index":220,"plugin_version":"2.1.0","time_elapsed":948325,"subject_id":"87188","group":"Group2","full_date":"2025-12-02T22:34:14.938Z","date":"2025-12-02","time":"22:34:14"},{"rt":null,"stimulus":"<p style=\"font-size: 50px; margin: 0; text-align: center;\">+</p>","response":null,"trial_type":"html-keyboard-response","trial_index":221,"plugin_version":"2.1.0","time_elapsed":949328,"subject_id":"87188","group":"Group2","full_date":"2025-12-02T22:34:14.938Z","date":"2025-12-02","time":"22:34:14"},{"task":"memory_phase","broad_category":"M","image_png":"M_Marble_02.png","image_id":226,"category_name":"Marble","category":15,"distinct_rating":3.2,"distinct_type":"Bottom","rt":null,"stimulus":"Stimuli_Rocks480/M_Marble_02.png","response":null,"trial_type":"image-keyboard-response","trial_index":222,"plugin_version":"2.1.0","time_elapsed":951831,"subject_id":"87188","group":"Group2","full_date":"2025-12-02T22:34:14.938Z","date":"2025-12-02","time":"22:34:14"},{"rt":null,"stimulus":"<p style=\"font-size: 50px; margin: 0; text-align: center;\">+</p>","response":null,"trial_type":"html-keyboard-response","trial_index":223,"plugin_version":"2.1.0","time_elapsed":952833,"subject_id":"87188","group":"Group2","full_date":"2025-12-02T22:34:14.938Z","date":"2025-12-02","time":"22:34:14"},{"task":"memory_phase","broad_category":"I","image_png":"I_Pumice_14.png","image_id":142,"category_name":"Pumice","category":9,"distinct_rating":3.22,"distinct_type":"Bottom","rt":null,"stimulus":"Stimuli_Rocks480/I_Pumice_14.png","response":null,"trial_type":"image-keyboard-response","trial_index":224,"plugin_version":"2.1.0","time_elapsed":955336,"subject_id":"87188","group":"Group2","full_date":"2025-12-02T22:34:14.938Z","date":"2025-12-02","time":"22:34:14"},{"rt":null,"stimulus":"<p style=\"font-size: 50px; margin: 0; text-align: center;\">+</p>","response":null,"trial_type":"html-keyboard-response","trial_index":225,"plugin_version":"2.1.0","time_elapsed":956339,"subject_id":"87188","group":"Group2","full_date":"2025-12-02T22:34:14.938Z","date":"2025-12-02","time":"22:34:14"},{"task":"memory_phase","broad_category":"S","image_png":"S_Shale_02.png","image_id":466,"category_name":"Shale","category":30,"distinct_rating":2.9,"distinct_type":"Bottom","rt":null,"stimulus":"Stimuli_Rocks480/S_Shale_02.png","response":null,"trial_type":"image-keyboard-response","trial_index":226,"plugin_version":"2.1.0","time_elapsed":958843,"subject_id":"87188","group":"Group2","full_date":"2025-12-02T22:34:14.938Z","date":"2025-12-02","time":"22:34:14"},{"rt":null,"stimulus":"<p style=\"font-size: 50px; margin: 0; text-align: center;\">+</p>","response":null,"trial_type":"html-keyboard-response","trial_index":227,"plugin_version":"2.1.0","time_elapsed":959845,"subject_id":"87188","group":"Group2","full_date":"2025-12-02T22:34:14.938Z","date":"2025-12-02","time":"22:34:14"},{"task":"memory_phase","broad_category":"M","image_png":"M_Marble_14.png","image_id":238,"category_name":"Marble","category":15,"distinct_rating":3.31,"distinct_type":"Bottom","rt":null,"stimulus":"Stimuli_Rocks480/M_Marble_14.png","response":null,"trial_type":"image-keyboard-response","trial_index":228,"plugin_version":"2.1.0","time_elapsed":962348,"subject_id":"87188","group":"Group2","full_date":"2025-12-02T22:34:14.938Z","date":"2025-12-02","time":"22:34:14"},{"rt":null,"stimulus":"<p style=\"font-size: 50px; margin: 0; text-align: center;\">+</p>","response":null,"trial_type":"html-keyboard-response","trial_index":229,"plugin_version":"2.1.0","time_elapsed":963351,"subject_id":"87188","group":"Group2","full_date":"2025-12-02T22:34:14.938Z","date":"2025-12-02","time":"22:34:14"},{"task":"memory_phase","broad_category":"S","image_png":"S_Dolomite_01.png","image_id":385,"category_name":"Dolomite","category":25,"distinct_rating":1.43,"distinct_type":"Bottom","rt":null,"stimulus":"Stimuli_Rocks480/S_Dolomite_01.png","response":null,"trial_type":"image-keyboard-response","trial_index":230,"plugin_version":"2.1.0","time_elapsed":965854,"subject_id":"87188","group":"Group2","full_date":"2025-12-02T22:34:14.938Z","date":"2025-12-02","time":"22:34:14"},{"rt":null,"stimulus":"<p style=\"font-size: 50px; margin: 0; text-align: center;\">+</p>","response":null,"trial_type":"html-keyboard-response","trial_index":231,"plugin_version":"2.1.0","time_elapsed":966857,"subject_id":"87188","group":"Group2","full_date":"2025-12-02T22:34:14.938Z","date":"2025-12-02","time":"22:34:14"},{"task":"memory_phase","broad_category":"S","image_png":"S_Conglomerate_14.png","image_id":382,"category_name":"Conglomerate","category":24,"distinct_rating":6.86,"distinct_type":"Top","rt":null,"stimulus":"Stimuli_Rocks480/S_Conglomerate_14.png","response":null,"trial_type":"image-keyboard-response","trial_index":232,"plugin_version":"2.1.0","time_elapsed":969360,"subject_id":"87188","group":"Group2","full_date":"2025-12-02T22:34:14.938Z","date":"2025-12-02","time":"22:34:14"},{"rt":null,"stimulus":"<p style=\"font-size: 50px; margin: 0; text-align: center;\">+</p>","response":null,"trial_type":"html-keyboard-response","trial_index":233,"plugin_version":"2.1.0","time_elapsed":970363,"subject_id":"87188","group":"Group2","full_date":"2025-12-02T22:34:14.938Z","date":"2025-12-02","time":"22:34:14"},{"task":"memory_phase","broad_category":"I","image_png":"I_Pumice_01.png","image_id":129,"category_name":"Pumice","category":9,"distinct_rating":3.25,"distinct_type":"Bottom","rt":null,"stimulus":"Stimuli_Rocks480/I_Pumice_01.png","response":null,"trial_type":"image-keyboard-response","trial_index":234,"plugin_version":"2.1.0","time_elapsed":972866,"subject_id":"87188","group":"Group2","full_date":"2025-12-02T22:34:14.938Z","date":"2025-12-02","time":"22:34:14"},{"rt":null,"stimulus":"<p style=\"font-size: 50px; margin: 0; text-align: center;\">+</p>","response":null,"trial_type":"html-keyboard-response","trial_index":235,"plugin_version":"2.1.0","time_elapsed":973869,"subject_id":"87188","group":"Group2","full_date":"2025-12-02T22:34:14.938Z","date":"2025-12-02","time":"22:34:14"},{"task":"memory_phase","broad_category":"M","image_png":"M_Gneiss_14.png","image_id":206,"category_name":"Gneiss","category":13,"distinct_rating":3.41,"distinct_type":"Bottom","rt":null,"stimulus":"Stimuli_Rocks480/M_Gneiss_14.png","response":null,"trial_type":"image-keyboard-response","trial_index":236,"plugin_version":"2.1.0","time_elapsed":976372,"subject_id":"87188","group":"Group2","full_date":"2025-12-02T22:34:14.938Z","date":"2025-12-02","time":"22:34:14"},{"rt":null,"stimulus":"<p style=\"font-size: 50px; margin: 0; text-align: center;\">+</p>","response":null,"trial_type":"html-keyboard-response","trial_index":237,"plugin_version":"2.1.0","time_elapsed":977375,"subject_id":"87188","group":"Group2","full_date":"2025-12-02T22:34:14.938Z","date":"2025-12-02","time":"22:34:14"},{"task":"memory_phase","broad_category":"M","image_png":"M_Phyllite_13.png","image_id":269,"category_name":"Phyllite","category":17,"distinct_rating":2.8,"distinct_type":"Bottom","rt":null,"stimulus":"Stimuli_Rocks480/M_Phyllite_13.png","response":null,"trial_type":"image-keyboard-response","trial_index":238,"plugin_version":"2.1.0","time_elapsed":979879,"subject_id":"87188","group":"Group2","full_date":"2025-12-02T22:34:14.938Z","date":"2025-12-02","time":"22:34:14"},{"rt":null,"stimulus":"<p style=\"font-size: 50px; margin: 0; text-align: center;\">+</p>","response":null,"trial_type":"html-keyboard-response","trial_index":239,"plugin_version":"2.1.0","time_elapsed":980882,"subject_id":"87188","group":"Group2","full_date":"2025-12-02T22:34:14.938Z","date":"2025-12-02","time":"22:34:14"},{"task":"memory_phase","broad_category":"S","image_png":"S_Sandstone_08.png","image_id":456,"category_name":"Sandstone","category":29,"distinct_rating":1.5,"distinct_type":"Bottom","rt":null,"stimulus":"Stimuli_Rocks480/S_Sandstone_08.png","response":null,"trial_type":"image-keyboard-response","trial_index":240,"plugin_version":"2.1.0","time_elapsed":983385,"subject_id":"87188","group":"Group2","full_date":"2025-12-02T22:34:14.938Z","date":"2025-12-02","time":"22:34:14"},{"rt":null,"stimulus":"<p style=\"font-size: 50px; margin: 0; text-align: center;\">+</p>","response":null,"trial_type":"html-keyboard-response","trial_index":241,"plugin_version":"2.1.0","time_elapsed":984388,"subject_id":"87188","group":"Group2","full_date":"2025-12-02T22:34:14.938Z","date":"2025-12-02","time":"22:34:14"},{"task":"memory_phase","broad_category":"I","image_png":"I_Rhyolite_10.png","image_id":154,"category_name":"Rhyolite","category":10,"distinct_rating":2.88,"distinct_type":"Bottom","rt":null,"stimulus":"Stimuli_Rocks480/I_Rhyolite_10.png","response":null,"trial_type":"image-keyboard-response","trial_index":242,"plugin_version":"2.1.0","time_elapsed":986892,"subject_id":"87188","group":"Group2","full_date":"2025-12-02T22:34:14.938Z","date":"2025-12-02","time":"22:34:14"},{"rt":null,"stimulus":"<p style=\"font-size: 50px; margin: 0; text-align: center;\">+</p>","response":null,"trial_type":"html-keyboard-response","trial_index":243,"plugin_version":"2.1.0","time_elapsed":987894,"subject_id":"87188","group":"Group2","full_date":"2025-12-02T22:34:14.938Z","date":"2025-12-02","time":"22:34:14"},{"task":"memory_phase","broad_category":"M","image_png":"M_Phyllite_05.png","image_id":261,"category_name":"Phyllite","category":17,"distinct_rating":2.14,"distinct_type":"Bottom","rt":null,"stimulus":"Stimuli_Rocks480/M_Phyllite_05.png","response":null,"trial_type":"image-keyboard-response","trial_index":244,"plugin_version":"2.1.0","time_elapsed":990398,"subject_id":"87188","group":"Group2","full_date":"2025-12-02T22:34:14.938Z","date":"2025-12-02","time":"22:34:14"},{"rt":null,"stimulus":"<p style=\"font-size: 50px; margin: 0; text-align: center;\">+</p>","response":null,"trial_type":"html-keyboard-response","trial_index":245,"plugin_version":"2.1.0","time_elapsed":991400,"subject_id":"87188","group":"Group2","full_date":"2025-12-02T22:34:14.938Z","date":"2025-12-02","time":"22:34:14"},{"task":"memory_phase","broad_category":"I","image_png":"I_Pumice_13.png","image_id":141,"category_name":"Pumice","category":9,"distinct_rating":3.12,"distinct_type":"Bottom","rt":null,"stimulus":"Stimuli_Rocks480/I_Pumice_13.png","response":null,"trial_type":"image-keyboard-response","trial_index":246,"plugin_version":"2.1.0","time_elapsed":993903,"subject_id":"87188","group":"Group2","full_date":"2025-12-02T22:34:14.938Z","date":"2025-12-02","time":"22:34:14"},{"rt":null,"stimulus":"<p style=\"font-size: 50px; margin: 0; text-align: center;\">+</p>","response":null,"trial_type":"html-keyboard-response","trial_index":247,"plugin_version":"2.1.0","time_elapsed":994907,"subject_id":"87188","group":"Group2","full_date":"2025-12-02T22:34:14.938Z","date":"2025-12-02","time":"22:34:14"},{"task":"memory_phase","broad_category":"I","image_png":"I_Pegmatite_03.png","image_id":99,"category_name":"Pegmatite","category":7,"distinct_rating":7.24,"distinct_type":"Top","rt":null,"stimulus":"Stimuli_Rocks480/I_Pegmatite_03.png","response":null,"trial_type":"image-keyboard-response","trial_index":248,"plugin_version":"2.1.0","time_elapsed":997413,"subject_id"