[{"width":1432,"height":768,"webaudio":true,"browser":"edge-chromium","browser_version":"142.0.0","mobile":false,"os":"Windows 10","fullscreen":true,"vsync_rate":60.44,"webcam":true,"microphone":true,"trial_type":"browser-check","trial_index":0,"plugin_version":"2.1.0","time_elapsed":1005,"subject_id":"88456","group":"Group2","full_date":"2025-12-05T22:04:22.981Z","date":"2025-12-05","time":"22:04:22"},{"success":true,"timeout":false,"failed_images":[],"failed_audio":[],"failed_video":[],"trial_type":"preload","trial_index":1,"plugin_version":"2.1.0","time_elapsed":4065,"subject_id":"88456","group":"Group2","full_date":"2025-12-05T22:04:22.981Z","date":"2025-12-05","time":"22:04:22"},{"rt":4740,"url":"SONA_consent_memorability.html","trial_type":"external-html","trial_index":2,"plugin_version":"2.1.0","time_elapsed":8850,"subject_id":"88456","group":"Group2","full_date":"2025-12-05T22:04:22.981Z","date":"2025-12-05","time":"22:04:22"},{"success":true,"rt":1032,"trial_type":"fullscreen","trial_index":3,"plugin_version":"2.1.0","time_elapsed":10889,"subject_id":"88456","group":"Group2","full_date":"2025-12-05T22:04:22.981Z","date":"2025-12-05","time":"22:04:22"},{"rt":1096,"stimulus":"<div style=\"max-width: 760px; margin: auto; font-size: 20px; line-height: 1.5;\">\n      <h1 style=\"text-align:center; font-size: 30px;\">Instructions</h1>\n      <p>\n        Welcome to the study on <b>visual memory</b>. This experiment consists of <b>two phases</b>: \n        a <b>study phase</b> and a <b>test phase</b>.\n      </p>\n      <p>\n        In the study phase, you will see a series of rock images along with their category labels.\n        The images will appear one at a time.\n        <b>Your task</b> is to learn the categories to which the rock images belong \n        and to remember each image as accurately as possible.\n      </p> \n      <p>\n        Note that we will repeat the study phase <b>3 times</b>, \n        so you will have multiple opportunities to see and remember each image.\n      </p>\n      <p>\n        After the study phase, <b>your memory will be tested</b>. \n        Additional instructions for the test phase will be provided at that time.\n      </p>\n      <p>\n        If your computer has multiple <b>language settings</b> (e.g., English and another language),\n        please make sure it is set to English before starting.\n      </p>\n      <p>\n        You can track your progress using the <b>completion bar</b> at the top of the screen. \n        Please note that the bar will refresh when the test phase begins \n        to give you an accurate sense of your progress in both phases.\n      </p> \n      <p>\n        Press the button below when you are ready to begin.\n      </p>\n    </div>","response":0,"trial_type":"html-button-response","trial_index":4,"plugin_version":"2.1.0","time_elapsed":11988,"subject_id":"88456","group":"Group2","full_date":"2025-12-05T22:04:22.981Z","date":"2025-12-05","time":"22:04:22"},{"rt":null,"stimulus":"<p style=\"font-size: 50px; margin: 0; text-align: center;\">+</p>","response":null,"trial_type":"html-keyboard-response","trial_index":5,"plugin_version":"2.1.0","time_elapsed":12993,"subject_id":"88456","group":"Group2","full_date":"2025-12-05T22:04:22.981Z","date":"2025-12-05","time":"22:04:22"},{"task":"memory_phase","broad_category":"S","image_png":"S_Rock Salt_15.png","image_id":447,"category_name":"Rock Salt","category":28,"distinct_rating":7.79,"distinct_type":"Top","rt":null,"stimulus":"Stimuli_Rocks480/S_Rock Salt_15.png","response":null,"trial_type":"image-keyboard-response","trial_index":6,"plugin_version":"2.1.0","time_elapsed":15505,"subject_id":"88456","group":"Group2","full_date":"2025-12-05T22:04:22.981Z","date":"2025-12-05","time":"22:04:22"},{"rt":null,"stimulus":"<p style=\"font-size: 50px; margin: 0; text-align: center;\">+</p>","response":null,"trial_type":"html-keyboard-response","trial_index":7,"plugin_version":"2.1.0","time_elapsed":16509,"subject_id":"88456","group":"Group2","full_date":"2025-12-05T22:04:22.981Z","date":"2025-12-05","time":"22:04:22"},{"task":"memory_phase","broad_category":"S","image_png":"S_Sandstone_08.png","image_id":456,"category_name":"Sandstone","category":29,"distinct_rating":1.5,"distinct_type":"Bottom","rt":null,"stimulus":"Stimuli_Rocks480/S_Sandstone_08.png","response":null,"trial_type":"image-keyboard-response","trial_index":8,"plugin_version":"2.1.0","time_elapsed":19025,"subject_id":"88456","group":"Group2","full_date":"2025-12-05T22:04:22.981Z","date":"2025-12-05","time":"22:04:22"},{"rt":null,"stimulus":"<p style=\"font-size: 50px; margin: 0; text-align: center;\">+</p>","response":null,"trial_type":"html-keyboard-response","trial_index":9,"plugin_version":"2.1.0","time_elapsed":20030,"subject_id":"88456","group":"Group2","full_date":"2025-12-05T22:04:22.981Z","date":"2025-12-05","time":"22:04:22"},{"task":"memory_phase","broad_category":"M","image_png":"M_Gneiss_15.png","image_id":207,"category_name":"Gneiss","category":13,"distinct_rating":3.11,"distinct_type":"Bottom","rt":null,"stimulus":"Stimuli_Rocks480/M_Gneiss_15.png","response":null,"trial_type":"image-keyboard-response","trial_index":10,"plugin_version":"2.1.0","time_elapsed":22543,"subject_id":"88456","group":"Group2","full_date":"2025-12-05T22:04:22.981Z","date":"2025-12-05","time":"22:04:22"},{"rt":null,"stimulus":"<p style=\"font-size: 50px; margin: 0; text-align: center;\">+</p>","response":null,"trial_type":"html-keyboard-response","trial_index":11,"plugin_version":"2.1.0","time_elapsed":23549,"subject_id":"88456","group":"Group2","full_date":"2025-12-05T22:04:22.981Z","date":"2025-12-05","time":"22:04:22"},{"task":"memory_phase","broad_category":"I","image_png":"I_Peridotite_13.png","image_id":125,"category_name":"Peridotite","category":8,"distinct_rating":7.28,"distinct_type":"Top","rt":null,"stimulus":"Stimuli_Rocks480/I_Peridotite_13.png","response":null,"trial_type":"image-keyboard-response","trial_index":12,"plugin_version":"2.1.0","time_elapsed":26064,"subject_id":"88456","group":"Group2","full_date":"2025-12-05T22:04:22.981Z","date":"2025-12-05","time":"22:04:22"},{"rt":null,"stimulus":"<p style=\"font-size: 50px; margin: 0; text-align: center;\">+</p>","response":null,"trial_type":"html-keyboard-response","trial_index":13,"plugin_version":"2.1.0","time_elapsed":27070,"subject_id":"88456","group":"Group2","full_date":"2025-12-05T22:04:22.981Z","date":"2025-12-05","time":"22:04:22"},{"task":"memory_phase","broad_category":"M","image_png":"M_Slate_14.png","image_id":318,"category_name":"Slate","category":20,"distinct_rating":2.58,"distinct_type":"Bottom","rt":null,"stimulus":"Stimuli_Rocks480/M_Slate_14.png","response":null,"trial_type":"image-keyboard-response","trial_index":14,"plugin_version":"2.1.0","time_elapsed":29574,"subject_id":"88456","group":"Group2","full_date":"2025-12-05T22:04:22.981Z","date":"2025-12-05","time":"22:04:22"},{"rt":null,"stimulus":"<p style=\"font-size: 50px; margin: 0; text-align: center;\">+</p>","response":null,"trial_type":"html-keyboard-response","trial_index":15,"plugin_version":"2.1.0","time_elapsed":30578,"subject_id":"88456","group":"Group2","full_date":"2025-12-05T22:04:22.981Z","date":"2025-12-05","time":"22:04:22"},{"task":"memory_phase","broad_category":"S","image_png":"S_Rock Salt_13.png","image_id":445,"category_name":"Rock Salt","category":28,"distinct_rating":7.58,"distinct_type":"Top","rt":null,"stimulus":"Stimuli_Rocks480/S_Rock Salt_13.png","response":null,"trial_type":"image-keyboard-response","trial_index":16,"plugin_version":"2.1.0","time_elapsed":33089,"subject_id":"88456","group":"Group2","full_date":"2025-12-05T22:04:22.981Z","date":"2025-12-05","time":"22:04:22"},{"rt":null,"stimulus":"<p style=\"font-size: 50px; margin: 0; text-align: center;\">+</p>","response":null,"trial_type":"html-keyboard-response","trial_index":17,"plugin_version":"2.1.0","time_elapsed":34100,"subject_id":"88456","group":"Group2","full_date":"2025-12-05T22:04:22.981Z","date":"2025-12-05","time":"22:04:22"},{"task":"memory_phase","broad_category":"I","image_png":"I_Andesite_03.png","image_id":3,"category_name":"Andesite","category":1,"distinct_rating":3.17,"distinct_type":"Bottom","rt":null,"stimulus":"Stimuli_Rocks480/I_Andesite_03.png","response":null,"trial_type":"image-keyboard-response","trial_index":18,"plugin_version":"2.1.0","time_elapsed":36615,"subject_id":"88456","group":"Group2","full_date":"2025-12-05T22:04:22.981Z","date":"2025-12-05","time":"22:04:22"},{"rt":null,"stimulus":"<p style=\"font-size: 50px; margin: 0; text-align: center;\">+</p>","response":null,"trial_type":"html-keyboard-response","trial_index":19,"plugin_version":"2.1.0","time_elapsed":37620,"subject_id":"88456","group":"Group2","full_date":"2025-12-05T22:04:22.981Z","date":"2025-12-05","time":"22:04:22"},{"task":"memory_phase","broad_category":"I","image_png":"I_Diorite_01.png","image_id":33,"category_name":"Diorite","category":3,"distinct_rating":2.97,"distinct_type":"Bottom","rt":null,"stimulus":"Stimuli_Rocks480/I_Diorite_01.png","response":null,"trial_type":"image-keyboard-response","trial_index":20,"plugin_version":"2.1.0","time_elapsed":40127,"subject_id":"88456","group":"Group2","full_date":"2025-12-05T22:04:22.981Z","date":"2025-12-05","time":"22:04:22"},{"rt":null,"stimulus":"<p style=\"font-size: 50px; margin: 0; text-align: center;\">+</p>","response":null,"trial_type":"html-keyboard-response","trial_index":21,"plugin_version":"2.1.0","time_elapsed":41136,"subject_id":"88456","group":"Group2","full_date":"2025-12-05T22:04:22.981Z","date":"2025-12-05","time":"22:04:22"},{"task":"memory_phase","broad_category":"I","image_png":"I_Diorite_10.png","image_id":42,"category_name":"Diorite","category":3,"distinct_rating":2.84,"distinct_type":"Bottom","rt":null,"stimulus":"Stimuli_Rocks480/I_Diorite_10.png","response":null,"trial_type":"image-keyboard-response","trial_index":22,"plugin_version":"2.1.0","time_elapsed":43644,"subject_id":"88456","group":"Group2","full_date":"2025-12-05T22:04:22.981Z","date":"2025-12-05","time":"22:04:22"},{"rt":null,"stimulus":"<p style=\"font-size: 50px; margin: 0; text-align: center;\">+</p>","response":null,"trial_type":"html-keyboard-response","trial_index":23,"plugin_version":"2.1.0","time_elapsed":44650,"subject_id":"88456","group":"Group2","full_date":"2025-12-05T22:04:22.981Z","date":"2025-12-05","time":"22:04:22"},{"task":"memory_phase","broad_category":"I","image_png":"I_Basalt_13.png","image_id":29,"category_name":"Basalt","category":2,"distinct_rating":2.68,"distinct_type":"Bottom","rt":null,"stimulus":"Stimuli_Rocks480/I_Basalt_13.png","response":null,"trial_type":"image-keyboard-response","trial_index":24,"plugin_version":"2.1.0","time_elapsed":47168,"subject_id":"88456","group":"Group2","full_date":"2025-12-05T22:04:22.981Z","date":"2025-12-05","time":"22:04:22"},{"rt":null,"stimulus":"<p style=\"font-size: 50px; margin: 0; text-align: center;\">+</p>","response":null,"trial_type":"html-keyboard-response","trial_index":25,"plugin_version":"2.1.0","time_elapsed":48171,"subject_id":"88456","group":"Group2","full_date":"2025-12-05T22:04:22.981Z","date":"2025-12-05","time":"22:04:22"},{"task":"memory_phase","broad_category":"S","image_png":"S_Dolomite_07.png","image_id":391,"category_name":"Dolomite","category":25,"distinct_rating":1.73,"distinct_type":"Bottom","rt":null,"stimulus":"Stimuli_Rocks480/S_Dolomite_07.png","response":null,"trial_type":"image-keyboard-response","trial_index":26,"plugin_version":"2.1.0","time_elapsed":50686,"subject_id":"88456","group":"Group2","full_date":"2025-12-05T22:04:22.981Z","date":"2025-12-05","time":"22:04:22"},{"rt":null,"stimulus":"<p style=\"font-size: 50px; margin: 0; text-align: center;\">+</p>","response":null,"trial_type":"html-keyboard-response","trial_index":27,"plugin_version":"2.1.0","time_elapsed":51688,"subject_id":"88456","group":"Group2","full_date":"2025-12-05T22:04:22.981Z","date":"2025-12-05","time":"22:04:22"},{"task":"memory_phase","broad_category":"I","image_png":"I_Gabbro_14.png","image_id":62,"category_name":"Gabbro","category":4,"distinct_rating":2.95,"distinct_type":"Bottom","rt":null,"stimulus":"Stimuli_Rocks480/I_Gabbro_14.png","response":null,"trial_type":"image-keyboard-response","trial_index":28,"plugin_version":"2.1.0","time_elapsed":54200,"subject_id":"88456","group":"Group2","full_date":"2025-12-05T22:04:22.981Z","date":"2025-12-05","time":"22:04:22"},{"rt":null,"stimulus":"<p style=\"font-size: 50px; margin: 0; text-align: center;\">+</p>","response":null,"trial_type":"html-keyboard-response","trial_index":29,"plugin_version":"2.1.0","time_elapsed":55204,"subject_id":"88456","group":"Group2","full_date":"2025-12-05T22:04:22.981Z","date":"2025-12-05","time":"22:04:22"},{"task":"memory_phase","broad_category":"I","image_png":"I_Rhyolite_10.png","image_id":154,"category_name":"Rhyolite","category":10,"distinct_rating":2.88,"distinct_type":"Bottom","rt":null,"stimulus":"Stimuli_Rocks480/I_Rhyolite_10.png","response":null,"trial_type":"image-keyboard-response","trial_index":30,"plugin_version":"2.1.0","time_elapsed":57710,"subject_id":"88456","group":"Group2","full_date":"2025-12-05T22:04:22.981Z","date":"2025-12-05","time":"22:04:22"},{"rt":null,"stimulus":"<p style=\"font-size: 50px; margin: 0; text-align: center;\">+</p>","response":null,"trial_type":"html-keyboard-response","trial_index":31,"plugin_version":"2.1.0","time_elapsed":58723,"subject_id":"88456","group":"Group2","full_date":"2025-12-05T22:04:22.981Z","date":"2025-12-05","time":"22:04:22"},{"task":"memory_phase","broad_category":"I","image_png":"I_Obsidian_06.png","image_id":86,"category_name":"Obsidian","category":6,"distinct_rating":8.01,"distinct_type":"Top","rt":null,"stimulus":"Stimuli_Rocks480/I_Obsidian_06.png","response":null,"trial_type":"image-keyboard-response","trial_index":32,"plugin_version":"2.1.0","time_elapsed":61237,"subject_id":"88456","group":"Group2","full_date":"2025-12-05T22:04:22.981Z","date":"2025-12-05","time":"22:04:22"},{"rt":null,"stimulus":"<p style=\"font-size: 50px; margin: 0; text-align: center;\">+</p>","response":null,"trial_type":"html-keyboard-response","trial_index":33,"plugin_version":"2.1.0","time_elapsed":62252,"subject_id":"88456","group":"Group2","full_date":"2025-12-05T22:04:22.981Z","date":"2025-12-05","time":"22:04:22"},{"task":"memory_phase","broad_category":"M","image_png":"M_Marble_03.png","image_id":227,"category_name":"Marble","category":15,"distinct_rating":2.67,"distinct_type":"Bottom","rt":null,"stimulus":"Stimuli_Rocks480/M_Marble_03.png","response":null,"trial_type":"image-keyboard-response","trial_index":34,"plugin_version":"2.1.0","time_elapsed":64767,"subject_id":"88456","group":"Group2","full_date":"2025-12-05T22:04:22.981Z","date":"2025-12-05","time":"22:04:22"},{"rt":null,"stimulus":"<p style=\"font-size: 50px; margin: 0; text-align: center;\">+</p>","response":null,"trial_type":"html-keyboard-response","trial_index":35,"plugin_version":"2.1.0","time_elapsed":65770,"subject_id":"88456","group":"Group2","full_date":"2025-12-05T22:04:22.981Z","date":"2025-12-05","time":"22:04:22"},{"task":"memory_phase","broad_category":"I","image_png":"I_Gabbro_12.png","image_id":60,"category_name":"Gabbro","category":4,"distinct_rating":2.6,"distinct_type":"Bottom","rt":null,"stimulus":"Stimuli_Rocks480/I_Gabbro_12.png","response":null,"trial_type":"image-keyboard-response","trial_index":36,"plugin_version":"2.1.0","time_elapsed":68292,"subject_id":"88456","group":"Group2","full_date":"2025-12-05T22:04:22.981Z","date":"2025-12-05","time":"22:04:22"},{"rt":null,"stimulus":"<p style=\"font-size: 50px; margin: 0; text-align: center;\">+</p>","response":null,"trial_type":"html-keyboard-response","trial_index":37,"plugin_version":"2.1.0","time_elapsed":69308,"subject_id":"88456","group":"Group2","full_date":"2025-12-05T22:04:22.981Z","date":"2025-12-05","time":"22:04:22"},{"task":"memory_phase","broad_category":"M","image_png":"M_Quartzite_15.png","image_id":287,"category_name":"Quartzite","category":18,"distinct_rating":2.19,"distinct_type":"Bottom","rt":null,"stimulus":"Stimuli_Rocks480/M_Quartzite_15.png","response":null,"trial_type":"image-keyboard-response","trial_index":38,"plugin_version":"2.1.0","time_elapsed":71814,"subject_id":"88456","group":"Group2","full_date":"2025-12-05T22:04:22.981Z","date":"2025-12-05","time":"22:04:22"},{"rt":null,"stimulus":"<p style=\"font-size: 50px; margin: 0; text-align: center;\">+</p>","response":null,"trial_type":"html-keyboard-response","trial_index":39,"plugin_version":"2.1.0","time_elapsed":72827,"subject_id":"88456","group":"Group2","full_date":"2025-12-05T22:04:22.981Z","date":"2025-12-05","time":"22:04:22"},{"task":"memory_phase","broad_category":"I","image_png":"I_Andesite_09.png","image_id":9,"category_name":"Andesite","category":1,"distinct_rating":2.49,"distinct_type":"Bottom","rt":null,"stimulus":"Stimuli_Rocks480/I_Andesite_09.png","response":null,"trial_type":"image-keyboard-response","trial_index":40,"plugin_version":"2.1.0","time_elapsed":75337,"subject_id":"88456","group":"Group2","full_date":"2025-12-05T22:04:22.981Z","date":"2025-12-05","time":"22:04:22"},{"rt":null,"stimulus":"<p style=\"font-size: 50px; margin: 0; text-align: center;\">+</p>","response":null,"trial_type":"html-keyboard-response","trial_index":41,"plugin_version":"2.1.0","time_elapsed":76342,"subject_id":"88456","group":"Group2","full_date":"2025-12-05T22:04:22.981Z","date":"2025-12-05","time":"22:04:22"},{"task":"memory_phase","broad_category":"I","image_png":"I_Basalt_10.png","image_id":26,"category_name":"Basalt","category":2,"distinct_rating":2.76,"distinct_type":"Bottom","rt":null,"stimulus":"Stimuli_Rocks480/I_Basalt_10.png","response":null,"trial_type":"image-keyboard-response","trial_index":42,"plugin_version":"2.1.0","time_elapsed":78856,"subject_id":"88456","group":"Group2","full_date":"2025-12-05T22:04:22.981Z","date":"2025-12-05","time":"22:04:22"},{"rt":null,"stimulus":"<p style=\"font-size: 50px; margin: 0; text-align: center;\">+</p>","response":null,"trial_type":"html-keyboard-response","trial_index":43,"plugin_version":"2.1.0","time_elapsed":79862,"subject_id":"88456","group":"Group2","full_date":"2025-12-05T22:04:22.981Z","date":"2025-12-05","time":"22:04:22"},{"task":"memory_phase","broad_category":"M","image_png":"M_Marble_02.png","image_id":226,"category_name":"Marble","category":15,"distinct_rating":3.2,"distinct_type":"Bottom","rt":null,"stimulus":"Stimuli_Rocks480/M_Marble_02.png","response":null,"trial_type":"image-keyboard-response","trial_index":44,"plugin_version":"2.1.0","time_elapsed":82366,"subject_id":"88456","group":"Group2","full_date":"2025-12-05T22:04:22.981Z","date":"2025-12-05","time":"22:04:22"},{"rt":null,"stimulus":"<p style=\"font-size: 50px; margin: 0; text-align: center;\">+</p>","response":null,"trial_type":"html-keyboard-response","trial_index":45,"plugin_version":"2.1.0","time_elapsed":83370,"subject_id":"88456","group":"Group2","full_date":"2025-12-05T22:04:22.981Z","date":"2025-12-05","time":"22:04:22"},{"task":"memory_phase","broad_category":"S","image_png":"S_Conglomerate_14.png","image_id":382,"category_name":"Conglomerate","category":24,"distinct_rating":6.86,"distinct_type":"Top","rt":null,"stimulus":"Stimuli_Rocks480/S_Conglomerate_14.png","response":null,"trial_type":"image-keyboard-response","trial_index":46,"plugin_version":"2.1.0","time_elapsed":85879,"subject_id":"88456","group":"Group2","full_date":"2025-12-05T22:04:22.981Z","date":"2025-12-05","time":"22:04:22"},{"rt":null,"stimulus":"<p style=\"font-size: 50px; margin: 0; text-align: center;\">+</p>","response":null,"trial_type":"html-keyboard-response","trial_index":47,"plugin_version":"2.1.0","time_elapsed":86883,"subject_id":"88456","group":"Group2","full_date":"2025-12-05T22:04:22.981Z","date":"2025-12-05","time":"22:04:22"},{"task":"memory_phase","broad_category":"S","image_png":"S_Dolomite_16.png","image_id":400,"category_name":"Dolomite","category":25,"distinct_rating":1.71,"distinct_type":"Bottom","rt":null,"stimulus":"Stimuli_Rocks480/S_Dolomite_16.png","response":null,"trial_type":"image-keyboard-response","trial_index":48,"plugin_version":"2.1.0","time_elapsed":89401,"subject_id":"88456","group":"Group2","full_date":"2025-12-05T22:04:22.981Z","date":"2025-12-05","time":"22:04:22"},{"rt":null,"stimulus":"<p style=\"font-size: 50px; margin: 0; text-align: center;\">+</p>","response":null,"trial_type":"html-keyboard-response","trial_index":49,"plugin_version":"2.1.0","time_elapsed":90405,"subject_id":"88456","group":"Group2","full_date":"2025-12-05T22:04:22.981Z","date":"2025-12-05","time":"22:04:22"},{"task":"memory_phase","broad_category":"M","image_png":"M_Quartzite_07.png","image_id":279,"category_name":"Quartzite","category":18,"distinct_rating":1.97,"distinct_type":"Bottom","rt":null,"stimulus":"Stimuli_Rocks480/M_Quartzite_07.png","response":null,"trial_type":"image-keyboard-response","trial_index":50,"plugin_version":"2.1.0","time_elapsed":92913,"subject_id":"88456","group":"Group2","full_date":"2025-12-05T22:04:22.981Z","date":"2025-12-05","time":"22:04:22"},{"rt":null,"stimulus":"<p style=\"font-size: 50px; margin: 0; text-align: center;\">+</p>","response":null,"trial_type":"html-keyboard-response","trial_index":51,"plugin_version":"2.1.0","time_elapsed":93916,"subject_id":"88456","group":"Group2","full_date":"2025-12-05T22:04:22.981Z","date":"2025-12-05","time":"22:04:22"},{"task":"memory_phase","broad_category":"I","image_png":"I_Rhyolite_08.png","image_id":152,"category_name":"Rhyolite","category":10,"distinct_rating":1.38,"distinct_type":"Bottom","rt":null,"stimulus":"Stimuli_Rocks480/I_Rhyolite_08.png","response":null,"trial_type":"image-keyboard-response","trial_index":52,"plugin_version":"2.1.0","time_elapsed":96433,"subject_id":"88456","group":"Group2","full_date":"2025-12-05T22:04:22.981Z","date":"2025-12-05","time":"22:04:22"},{"rt":null,"stimulus":"<p style=\"font-size: 50px; margin: 0; text-align: center;\">+</p>","response":null,"trial_type":"html-keyboard-response","trial_index":53,"plugin_version":"2.1.0","time_elapsed":97451,"subject_id":"88456","group":"Group2","full_date":"2025-12-05T22:04:22.981Z","date":"2025-12-05","time":"22:04:22"},{"task":"memory_phase","broad_category":"M","image_png":"M_Phyllite_13.png","image_id":269,"category_name":"Phyllite","category":17,"distinct_rating":2.8,"distinct_type":"Bottom","rt":null,"stimulus":"Stimuli_Rocks480/M_Phyllite_13.png","response":null,"trial_type":"image-keyboard-response","trial_index":54,"plugin_version":"2.1.0","time_elapsed":99955,"subject_id":"88456","group":"Group2","full_date":"2025-12-05T22:04:22.981Z","date":"2025-12-05","time":"22:04:22"},{"rt":5226,"stimulus":"<p style=\"max-width: 760px; margin: auto; font-size: 35px; line-height: 1.5;\">Press SPACE to continue study phase</p>","response":" ","trial_type":"html-keyboard-response","trial_index":55,"plugin_version":"2.1.0","time_elapsed":105182,"subject_id":"88456","group":"Group2","full_date":"2025-12-05T22:04:22.981Z","date":"2025-12-05","time":"22:04:22"},{"rt":null,"stimulus":"<p style=\"font-size: 50px; margin: 0; text-align: center;\">+</p>","response":null,"trial_type":"html-keyboard-response","trial_index":56,"plugin_version":"2.1.0","time_elapsed":106197,"subject_id":"88456","group":"Group2","full_date":"2025-12-05T22:04:22.981Z","date":"2025-12-05","time":"22:04:22"},{"task":"memory_phase","broad_category":"I","image_png":"I_Basalt_08.png","image_id":24,"category_name":"Basalt","category":2,"distinct_rating":2.31,"distinct_type":"Bottom","rt":null,"stimulus":"Stimuli_Rocks480/I_Basalt_08.png","response":null,"trial_type":"image-keyboard-response","trial_index":57,"plugin_version":"2.1.0","time_elapsed":108705,"subject_id":"88456","group":"Group2","full_date":"2025-12-05T22:04:22.981Z","date":"2025-12-05","time":"22:04:22"},{"rt":null,"stimulus":"<p style=\"font-size: 50px; margin: 0; text-align: center;\">+</p>","response":null,"trial_type":"html-keyboard-response","trial_index":58,"plugin_version":"2.1.0","time_elapsed":109708,"subject_id":"88456","group":"Group2","full_date":"2025-12-05T22:04:22.981Z","date":"2025-12-05","time":"22:04:22"},{"task":"memory_phase","broad_category":"S","image_png":"S_Shale_03.png","image_id":467,"category_name":"Shale","category":30,"distinct_rating":1.95,"distinct_type":"Bottom","rt":null,"stimulus":"Stimuli_Rocks480/S_Shale_03.png","response":null,"trial_type":"image-keyboard-response","trial_index":59,"plugin_version":"2.1.0","time_elapsed":112219,"subject_id":"88456","group":"Group2","full_date":"2025-12-05T22:04:22.981Z","date":"2025-12-05","time":"22:04:22"},{"rt":null,"stimulus":"<p style=\"font-size: 50px; margin: 0; text-align: center;\">+</p>","response":null,"trial_type":"html-keyboard-response","trial_index":60,"plugin_version":"2.1.0","time_elapsed":113235,"subject_id":"88456","group":"Group2","full_date":"2025-12-05T22:04:22.981Z","date":"2025-12-05","time":"22:04:22"},{"task":"memory_phase","broad_category":"S","image_png":"S_Sandstone_04.png","image_id":452,"category_name":"Sandstone","category":29,"distinct_rating":1.8,"distinct_type":"Bottom","rt":null,"stimulus":"Stimuli_Rocks480/S_Sandstone_04.png","response":null,"trial_type":"image-keyboard-response","trial_index":61,"plugin_version":"2.1.0","time_elapsed":115747,"subject_id":"88456","group":"Group2","full_date":"2025-12-05T22:04:22.981Z","date":"2025-12-05","time":"22:04:22"},{"rt":null,"stimulus":"<p style=\"font-size: 50px; margin: 0; text-align: center;\">+</p>","response":null,"trial_type":"html-keyboard-response","trial_index":62,"plugin_version":"2.1.0","time_elapsed":116762,"subject_id":"88456","group":"Group2","full_date":"2025-12-05T22:04:22.981Z","date":"2025-12-05","time":"22:04:22"},{"task":"memory_phase","broad_category":"I","image_png":"I_Diorite_15.png","image_id":47,"category_name":"Diorite","category":3,"distinct_rating":3.05,"distinct_type":"Bottom","rt":null,"stimulus":"Stimuli_Rocks480/I_Diorite_15.png","response":null,"trial_type":"image-keyboard-response","trial_index":63,"plugin_version":"2.1.0","time_elapsed":119278,"subject_id":"88456","group":"Group2","full_date":"2025-12-05T22:04:22.981Z","date":"2025-12-05","time":"22:04:22"},{"rt":null,"stimulus":"<p style=\"font-size: 50px; margin: 0; text-align: center;\">+</p>","response":null,"trial_type":"html-keyboard-response","trial_index":64,"plugin_version":"2.1.0","time_elapsed":120282,"subject_id":"88456","group":"Group2","full_date":"2025-12-05T22:04:22.981Z","date":"2025-12-05","time":"22:04:22"},{"task":"memory_phase","broad_category":"M","image_png":"M_Phyllite_05.png","image_id":261,"category_name":"Phyllite","category":17,"distinct_rating":2.14,"distinct_type":"Bottom","rt":null,"stimulus":"Stimuli_Rocks480/M_Phyllite_05.png","response":null,"trial_type":"image-keyboard-response","trial_index":65,"plugin_version":"2.1.0","time_elapsed":122786,"subject_id":"88456","group":"Group2","full_date":"2025-12-05T22:04:22.981Z","date":"2025-12-05","time":"22:04:22"},{"rt":null,"stimulus":"<p style=\"font-size: 50px; margin: 0; text-align: center;\">+</p>","response":null,"trial_type":"html-keyboard-response","trial_index":66,"plugin_version":"2.1.0","time_elapsed":123794,"subject_id":"88456","group":"Group2","full_date":"2025-12-05T22:04:22.981Z","date":"2025-12-05","time":"22:04:22"},{"task":"memory_phase","broad_category":"I","image_png":"I_Andesite_04.png","image_id":4,"category_name":"Andesite","category":1,"distinct_rating":3.18,"distinct_type":"Bottom","rt":null,"stimulus":"Stimuli_Rocks480/I_Andesite_04.png","response":null,"trial_type":"image-keyboard-response","trial_index":67,"plugin_version":"2.1.0","time_elapsed":126310,"subject_id":"88456","group":"Group2","full_date":"2025-12-05T22:04:22.981Z","date":"2025-12-05","time":"22:04:22"},{"rt":null,"stimulus":"<p style=\"font-size: 50px; margin: 0; text-align: center;\">+</p>","response":null,"trial_type":"html-keyboard-response","trial_index":68,"plugin_version":"2.1.0","time_elapsed":127326,"subject_id":"88456","group":"Group2","full_date":"2025-12-05T22:04:22.981Z","date":"2025-12-05","time":"22:04:22"},{"task":"memory_phase","broad_category":"M","image_png":"M_Marble_14.png","image_id":238,"category_name":"Marble","category":15,"distinct_rating":3.31,"distinct_type":"Bottom","rt":null,"stimulus":"Stimuli_Rocks480/M_Marble_14.png","response":null,"trial_type":"image-keyboard-response","trial_index":69,"plugin_version":"2.1.0","time_elapsed":129838,"subject_id":"88456","group":"Group2","full_date":"2025-12-05T22:04:22.981Z","date":"2025-12-05","time":"22:04:22"},{"rt":null,"stimulus":"<p style=\"font-size: 50px; margin: 0; text-align: center;\">+</p>","response":null,"trial_type":"html-keyboard-response","trial_index":70,"plugin_version":"2.1.0","time_elapsed":130848,"subject_id":"88456","group":"Group2","full_date":"2025-12-05T22:04:22.981Z","date":"2025-12-05","time":"22:04:22"},{"task":"memory_phase","broad_category":"M","image_png":"M_Slate_10.png","image_id":314,"category_name":"Slate","category":20,"distinct_rating":1.94,"distinct_type":"Bottom","rt":null,"stimulus":"Stimuli_Rocks480/M_Slate_10.png","response":null,"trial_type":"image-keyboard-response","trial_index":71,"plugin_version":"2.1.0","time_elapsed":133353,"subject_id":"88456","group":"Group2","full_date":"2025-12-05T22:04:22.981Z","date":"2025-12-05","time":"22:04:22"},{"rt":null,"stimulus":"<p style=\"font-size: 50px; margin: 0; text-align: center;\">+</p>","response":null,"trial_type":"html-keyboard-response","trial_index":72,"plugin_version":"2.1.0","time_elapsed":134355,"subject_id":"88456","group":"Group2","full_date":"2025-12-05T22:04:22.981Z","date":"2025-12-05","time":"22:04:22"},{"task":"memory_phase","broad_category":"S","image_png":"S_Shale_02.png","image_id":466,"category_name":"Shale","category":30,"distinct_rating":2.9,"distinct_type":"Bottom","rt":null,"stimulus":"Stimuli_Rocks480/S_Shale_02.png","response":null,"trial_type":"image-keyboard-response","trial_index":73,"plugin_version":"2.1.0","time_elapsed":136863,"subject_id":"88456","group":"Group2","full_date":"2025-12-05T22:04:22.981Z","date":"2025-12-05","time":"22:04:22"},{"rt":null,"stimulus":"<p style=\"font-size: 50px; margin: 0; text-align: center;\">+</p>","response":null,"trial_type":"html-keyboard-response","trial_index":74,"plugin_version":"2.1.0","time_elapsed":137872,"subject_id":"88456","group":"Group2","full_date":"2025-12-05T22:04:22.981Z","date":"2025-12-05","time":"22:04:22"},{"task":"memory_phase","broad_category":"M","image_png":"M_Phyllite_02.png","image_id":258,"category_name":"Phyllite","category":17,"distinct_rating":2.89,"distinct_type":"Bottom","rt":null,"stimulus":"Stimuli_Rocks480/M_Phyllite_02.png","response":null,"trial_type":"image-keyboard-response","trial_index":75,"plugin_version":"2.1.0","time_elapsed":140390,"subject_id":"88456","group":"Group2","full_date":"2025-12-05T22:04:22.981Z","date":"2025-12-05","time":"22:04:22"},{"rt":null,"stimulus":"<p style=\"font-size: 50px; margin: 0; text-align: center;\">+</p>","response":null,"trial_type":"html-keyboard-response","trial_index":76,"plugin_version":"2.1.0","time_elapsed":141406,"subject_id":"88456","group":"Group2","full_date":"2025-12-05T22:04:22.981Z","date":"2025-12-05","time":"22:04:22"},{"task":"memory_phase","broad_category":"S","image_png":"S_Chert_13.png","image_id":365,"category_name":"Chert","category":23,"distinct_rating":6.57,"distinct_type":"Top","rt":null,"stimulus":"Stimuli_Rocks480/S_Chert_13.png","response":null,"trial_type":"image-keyboard-response","trial_index":77,"plugin_version":"2.1.0","time_elapsed":143916,"subject_id":"88456","group":"Group2","full_date":"2025-12-05T22:04:22.981Z","date":"2025-12-05","time":"22:04:22"},{"rt":null,"stimulus":"<p style=\"font-size: 50px; margin: 0; text-align: center;\">+</p>","response":null,"trial_type":"html-keyboard-response","trial_index":78,"plugin_version":"2.1.0","time_elapsed":144922,"subject_id":"88456","group":"Group2","full_date":"2025-12-05T22:04:22.981Z","date":"2025-12-05","time":"22:04:22"},{"task":"memory_phase","broad_category":"M","image_png":"M_Gneiss_10.png","image_id":202,"category_name":"Gneiss","category":13,"distinct_rating":3.09,"distinct_type":"Bottom","rt":null,"stimulus":"Stimuli_Rocks480/M_Gneiss_10.png","response":null,"trial_type":"image-keyboard-response","trial_index":79,"plugin_version":"2.1.0","time_elapsed":147425,"subject_id":"88456","group":"Group2","full_date":"2025-12-05T22:04:22.981Z","date":"2025-12-05","time":"22:04:22"},{"rt":null,"stimulus":"<p style=\"font-size: 50px; margin: 0; text-align: center;\">+</p>","response":null,"trial_type":"html-keyboard-response","trial_index":80,"plugin_version":"2.1.0","time_elapsed":148436,"subject_id":"88456","group":"Group2","full_date":"2025-12-05T22:04:22.981Z","date":"2025-12-05","time":"22:04:22"},{"task":"memory_phase","broad_category":"I","image_png":"I_Pumice_01.png","image_id":129,"category_name":"Pumice","category":9,"distinct_rating":3.25,"distinct_type":"Bottom","rt":null,"stimulus":"Stimuli_Rocks480/I_Pumice_01.png","response":null,"trial_type":"image-keyboard-response","trial_index":81,"plugin_version":"2.1.0","time_elapsed":150948,"subject_id":"88456","group":"Group2","full_date":"2025-12-05T22:04:22.981Z","date":"2025-12-05","time":"22:04:22"},{"rt":null,"stimulus":"<p style=\"font-size: 50px; margin: 0; text-align: center;\">+</p>","response":null,"trial_type":"html-keyboard-response","trial_index":82,"plugin_version":"2.1.0","time_elapsed":151963,"subject_id":"88456","group":"Group2","full_date":"2025-12-05T22:04:22.981Z","date":"2025-12-05","time":"22:04:22"},{"task":"memory_phase","broad_category":"I","image_png":"I_Rhyolite_05.png","image_id":149,"category_name":"Rhyolite","category":10,"distinct_rating":3.02,"distinct_type":"Bottom","rt":null,"stimulus":"Stimuli_Rocks480/I_Rhyolite_05.png","response":null,"trial_type":"image-keyboard-response","trial_index":83,"plugin_version":"2.1.0","time_elapsed":154469,"subject_id":"88456","group":"Group2","full_date":"2025-12-05T22:04:22.981Z","date":"2025-12-05","time":"22:04:22"},{"rt":null,"stimulus":"<p style=\"font-size: 50px; margin: 0; text-align: center;\">+</p>","response":null,"trial_type":"html-keyboard-response","trial_index":84,"plugin_version":"2.1.0","time_elapsed":155486,"subject_id":"88456","group":"Group2","full_date":"2025-12-05T22:04:22.981Z","date":"2025-12-05","time":"22:04:22"},{"task":"memory_phase","broad_category":"M","image_png":"M_Slate_04.png","image_id":308,"category_name":"Slate","category":20,"distinct_rating":2.2,"distinct_type":"Bottom","rt":null,"stimulus":"Stimuli_Rocks480/M_Slate_04.png","response":null,"trial_type":"image-keyboard-response","trial_index":85,"plugin_version":"2.1.0","time_elapsed":158002,"subject_id":"88456","group":"Group2","full_date":"2025-12-05T22:04:22.981Z","date":"2025-12-05","time":"22:04:22"},{"rt":null,"stimulus":"<p style=\"font-size: 50px; margin: 0; text-align: center;\">+</p>","response":null,"trial_type":"html-keyboard-response","trial_index":86,"plugin_version":"2.1.0","time_elapsed":159016,"subject_id":"88456","group":"Group2","full_date":"2025-12-05T22:04:22.981Z","date":"2025-12-05","time":"22:04:22"},{"task":"memory_phase","broad_category":"I","image_png":"I_Pumice_13.png","image_id":141,"category_name":"Pumice","category":9,"distinct_rating":3.12,"distinct_type":"Bottom","rt":null,"stimulus":"Stimuli_Rocks480/I_Pumice_13.png","response":null,"trial_type":"image-keyboard-response","trial_index":87,"plugin_version":"2.1.0","time_elapsed":161522,"subject_id":"88456","group":"Group2","full_date":"2025-12-05T22:04:22.981Z","date":"2025-12-05","time":"22:04:22"},{"rt":null,"stimulus":"<p style=\"font-size: 50px; margin: 0; text-align: center;\">+</p>","response":null,"trial_type":"html-keyboard-response","trial_index":88,"plugin_version":"2.1.0","time_elapsed":162528,"subject_id":"88456","group":"Group2","full_date":"2025-12-05T22:04:22.981Z","date":"2025-12-05","time":"22:04:22"},{"task":"memory_phase","broad_category":"I","image_png":"I_Pegmatite_11.png","image_id":107,"category_name":"Pegmatite","category":7,"distinct_rating":7.11,"distinct_type":"Top","rt":null,"stimulus":"Stimuli_Rocks480/I_Pegmatite_11.png","response":null,"trial_type":"image-keyboard-response","trial_index":89,"plugin_version":"2.1.0","time_elapsed":165041,"subject_id":"88456","group":"Group2","full_date":"2025-12-05T22:04:22.981Z","date":"2025-12-05","time":"22:04:22"},{"rt":null,"stimulus":"<p style=\"font-size: 50px; margin: 0; text-align: center;\">+</p>","response":null,"trial_type":"html-keyboard-response","trial_index":90,"plugin_version":"2.1.0","time_elapsed":166046,"subject_id":"88456","group":"Group2","full_date":"2025-12-05T22:04:22.981Z","date":"2025-12-05","time":"22:04:22"},{"task":"memory_phase","broad_category":"M","image_png":"M_Quartzite_12.png","image_id":284,"category_name":"Quartzite","category":18,"distinct_rating":1.92,"distinct_type":"Bottom","rt":null,"stimulus":"Stimuli_Rocks480/M_Quartzite_12.png","response":null,"trial_type":"image-keyboard-response","trial_index":91,"plugin_version":"2.1.0","time_elapsed":168547,"subject_id":"88456","group":"Group2","full_date":"2025-12-05T22:04:22.981Z","date":"2025-12-05","time":"22:04:22"},{"rt":null,"stimulus":"<p style=\"font-size: 50px; margin: 0; text-align: center;\">+</p>","response":null,"trial_type":"html-keyboard-response","trial_index":92,"plugin_version":"2.1.0","time_elapsed":169554,"subject_id":"88456","group":"Group2","full_date":"2025-12-05T22:04:22.981Z","date":"2025-12-05","time":"22:04:22"},{"task":"memory_phase","broad_category":"S","image_png":"S_Sandstone_11.png","image_id":459,"category_name":"Sandstone","category":29,"distinct_rating":1.82,"distinct_type":"Bottom","rt":null,"stimulus":"Stimuli_Rocks480/S_Sandstone_11.png","response":null,"trial_type":"image-keyboard-response","trial_index":93,"plugin_version":"2.1.0","time_elapsed":172059,"subject_id":"88456","group":"Group2","full_date":"2025-12-05T22:04:22.981Z","date":"2025-12-05","time":"22:04:22"},{"rt":null,"stimulus":"<p style=\"font-size: 50px; margin: 0; text-align: center;\">+</p>","response":null,"trial_type":"html-keyboard-response","trial_index":94,"plugin_version":"2.1.0","time_elapsed":173072,"subject_id":"88456","group":"Group2","full_date":"2025-12-05T22:04:22.981Z","date":"2025-12-05","time":"22:04:22"},{"task":"memory_phase","broad_category":"S","image_png":"S_Dolomite_01.png","image_id":385,"category_name":"Dolomite","category":25,"distinct_rating":1.43,"distinct_type":"Bottom","rt":null,"stimulus":"Stimuli_Rocks480/S_Dolomite_01.png","response":null,"trial_type":"image-keyboard-response","trial_index":95,"plugin_version":"2.1.0","time_elapsed":175581,"subject_id":"88456","group":"Group2","full_date":"2025-12-05T22:04:22.981Z","date":"2025-12-05","time":"22:04:22"},{"rt":null,"stimulus":"<p style=\"font-size: 50px; margin: 0; text-align: center;\">+</p>","response":null,"trial_type":"html-keyboard-response","trial_index":96,"plugin_version":"2.1.0","time_elapsed":176587,"subject_id":"88456","group":"Group2","full_date":"2025-12-05T22:04:22.981Z","date":"2025-12-05","time":"22:04:22"},{"task":"memory_phase","broad_category":"I","image_png":"I_Pegmatite_03.png","image_id":99,"category_name":"Pegmatite","category":7,"distinct_rating":7.24,"distinct_type":"Top","rt":null,"stimulus":"Stimuli_Rocks480/I_Pegmatite_03.png","response":null,"trial_type":"image-keyboard-response","trial_index":97,"plugin_version":"2.1.0","time_elapsed":179096,"subject_id":"88456","group":"Group2","full_date":"2025-12-05T22:04:22.981Z","date":"2025-12-05","time":"22:04:22"},{"rt":null,"stimulus":"<p style=\"font-size: 50px; margin: 0; text-align: center;\">+</p>","response":null,"trial_type":"html-keyboard-response","trial_index":98,"plugin_version":"2.1.0","time_elapsed":180111,"subject_id":"88456","group":"Group2","full_date":"2025-12-05T22:04:22.981Z","date":"2025-12-05","time":"22:04:22"},{"task":"memory_phase","broad_category":"I","image_png":"I_Gabbro_02.png","image_id":50,"category_name":"Gabbro","category":4,"distinct_rating":2.73,"distinct_type":"Bottom","rt":null,"stimulus":"Stimuli_Rocks480/I_Gabbro_02.png","response":null,"trial_type":"image-keyboard-response","trial_index":99,"plugin_version":"2.1.0","time_elapsed":182619,"subject_id":"88456","group":"Group2","full_date":"2025-12-05T22:04:22.981Z","date":"2025-12-05","time":"22:04:22"},{"rt":null,"stimulus":"<p style=\"font-size: 50px; margin: 0; text-align: center;\">+</p>","response":null,"trial_type":"html-keyboard-response","trial_index":100,"plugin_version":"2.1.0","time_elapsed":183635,"subject_id":"88456","group":"Group2","full_date":"2025-12-05T22:04:22.981Z","date":"2025-12-05","time":"22:04:22"},{"task":"memory_phase","broad_category":"S","image_png":"S_Shale_07.png","image_id":471,"category_name":"Shale","category":30,"distinct_rating":2.73,"distinct_type":"Bottom","rt":null,"stimulus":"Stimuli_Rocks480/S_Shale_07.png","response":null,"trial_type":"image-keyboard-response","trial_index":101,"plugin_version":"2.1.0","time_elapsed":186148,"subject_id":"88456","group":"Group2","full_date":"2025-12-05T22:04:22.981Z","date":"2025-12-05","time":"22:04:22"},{"rt":null,"stimulus":"<p style=\"font-size: 50px; margin: 0; text-align: center;\">+</p>","response":null,"trial_type":"html-keyboard-response","trial_index":102,"plugin_version":"2.1.0","time_elapsed":187162,"subject_id":"88456","group":"Group2","full_date":"2025-12-05T22:04:22.981Z","date":"2025-12-05","time":"22:04:22"},{"task":"memory_phase","broad_category":"I","image_png":"I_Pumice_14.png","image_id":142,"category_name":"Pumice","category":9,"distinct_rating":3.22,"distinct_type":"Bottom","rt":null,"stimulus":"Stimuli_Rocks480/I_Pumice_14.png","response":null,"trial_type":"image-keyboard-response","trial_index":103,"plugin_version":"2.1.0","time_elapsed":189669,"subject_id":"88456","group":"Group2","full_date":"2025-12-05T22:04:22.981Z","date":"2025-12-05","time":"22:04:22"},{"rt":null,"stimulus":"<p style=\"font-size: 50px; margin: 0; text-align: center;\">+</p>","response":null,"trial_type":"html-keyboard-response","trial_index":104,"plugin_version":"2.1.0","time_elapsed":190675,"subject_id":"88456","group":"Group2","full_date":"2025-12-05T22:04:22.981Z","date":"2025-12-05","time":"22:04:22"},{"task":"memory_phase","broad_category":"M","image_png":"M_Gneiss_14.png","image_id":206,"category_name":"Gneiss","category":13,"distinct_rating":3.41,"distinct_type":"Bottom","rt":null,"stimulus":"Stimuli_Rocks480/M_Gneiss_14.png","response":null,"trial_type":"image-keyboard-response","trial_index":105,"plugin_version":"2.1.0","time_elapsed":193190,"subject_id":"88456","group":"Group2","full_date":"2025-12-05T22:04:22.981Z","date":"2025-12-05","time":"22:04:22"},{"rt":11652,"stimulus":"<p style=\"max-width: 760px; margin: auto; font-size: 35px; line-height: 1.5;\">You have completed 1 study phase. Now, we'll show you all the images again 2 more times.<br><br>Press SPACE to continue</p>","response":" ","trial_type":"html-keyboard-response","trial_index":106,"plugin_version":"2.1.0","time_elapsed":204843,"subject_id":"88456","group":"Group2","full_date":"2025-12-05T22:04:22.981Z","date":"2025-12-05","time":"22:04:22"},{"rt":null,"stimulus":"<p style=\"font-size: 50px; margin: 0; text-align: center;\">+</p>","response":null,"trial_type":"html-keyboard-response","trial_index":107,"plugin_version":"2.1.0","time_elapsed":205852,"subject_id":"88456","group":"Group2","full_date":"2025-12-05T22:04:22.981Z","date":"2025-12-05","time":"22:04:22"},{"task":"memory_phase","broad_category":"I","image_png":"I_Pumice_13.png","image_id":141,"category_name":"Pumice","category":9,"distinct_rating":3.12,"distinct_type":"Bottom","rt":null,"stimulus":"Stimuli_Rocks480/I_Pumice_13.png","response":null,"trial_type":"image-keyboard-response","trial_index":108,"plugin_version":"2.1.0","time_elapsed":208354,"subject_id":"88456","group":"Group2","full_date":"2025-12-05T22:04:22.981Z","date":"2025-12-05","time":"22:04:22"},{"rt":null,"stimulus":"<p style=\"font-size: 50px; margin: 0; text-align: center;\">+</p>","response":null,"trial_type":"html-keyboard-response","trial_index":109,"plugin_version":"2.1.0","time_elapsed":209357,"subject_id":"88456","group":"Group2","full_date":"2025-12-05T22:04:22.981Z","date":"2025-12-05","time":"22:04:22"},{"task":"memory_phase","broad_category":"I","image_png":"I_Andesite_04.png","image_id":4,"category_name":"Andesite","category":1,"distinct_rating":3.18,"distinct_type":"Bottom","rt":null,"stimulus":"Stimuli_Rocks480/I_Andesite_04.png","response":null,"trial_type":"image-keyboard-response","trial_index":110,"plugin_version":"2.1.0","time_elapsed":211866,"subject_id":"88456","group":"Group2","full_date":"2025-12-05T22:04:22.981Z","date":"2025-12-05","time":"22:04:22"},{"rt":null,"stimulus":"<p style=\"font-size: 50px; margin: 0; text-align: center;\">+</p>","response":null,"trial_type":"html-keyboard-response","trial_index":111,"plugin_version":"2.1.0","time_elapsed":212869,"subject_id":"88456","group":"Group2","full_date":"2025-12-05T22:04:22.981Z","date":"2025-12-05","time":"22:04:22"},{"task":"memory_phase","broad_category":"M","image_png":"M_Slate_14.png","image_id":318,"category_name":"Slate","category":20,"distinct_rating":2.58,"distinct_type":"Bottom","rt":null,"stimulus":"Stimuli_Rocks480/M_Slate_14.png","response":null,"trial_type":"image-keyboard-response","trial_index":112,"plugin_version":"2.1.0","time_elapsed":215372,"subject_id":"88456","group":"Group2","full_date":"2025-12-05T22:04:22.981Z","date":"2025-12-05","time":"22:04:22"},{"rt":null,"stimulus":"<p style=\"font-size: 50px; margin: 0; text-align: center;\">+</p>","response":null,"trial_type":"html-keyboard-response","trial_index":113,"plugin_version":"2.1.0","time_elapsed":216381,"subject_id":"88456","group":"Group2","full_date":"2025-12-05T22:04:22.981Z","date":"2025-12-05","time":"22:04:22"},{"task":"memory_phase","broad_category":"M","image_png":"M_Phyllite_05.png","image_id":261,"category_name":"Phyllite","category":17,"distinct_rating":2.14,"distinct_type":"Bottom","rt":null,"stimulus":"Stimuli_Rocks480/M_Phyllite_05.png","response":null,"trial_type":"image-keyboard-response","trial_index":114,"plugin_version":"2.1.0","time_elapsed":218889,"subject_id":"88456","group":"Group2","full_date":"2025-12-05T22:04:22.981Z","date":"2025-12-05","time":"22:04:22"},{"rt":null,"stimulus":"<p style=\"font-size: 50px; margin: 0; text-align: center;\">+</p>","response":null,"trial_type":"html-keyboard-response","trial_index":115,"plugin_version":"2.1.0","time_elapsed":219892,"subject_id":"88456","group":"Group2","full_date":"2025-12-05T22:04:22.981Z","date":"2025-12-05","time":"22:04:22"},{"task":"memory_phase","broad_category":"M","image_png":"M_Gneiss_10.png","image_id":202,"category_name":"Gneiss","category":13,"distinct_rating":3.09,"distinct_type":"Bottom","rt":null,"stimulus":"Stimuli_Rocks480/M_Gneiss_10.png","response":null,"trial_type":"image-keyboard-response","trial_index":116,"plugin_version":"2.1.0","time_elapsed":222404,"subject_id":"88456","group":"Group2","full_date":"2025-12-05T22:04:22.981Z","date":"2025-12-05","time":"22:04:22"},{"rt":null,"stimulus":"<p style=\"font-size: 50px; margin: 0; text-align: center;\">+</p>","response":null,"trial_type":"html-keyboard-response","trial_index":117,"plugin_version":"2.1.0","time_elapsed":223413,"subject_id":"88456","group":"Group2","full_date":"2025-12-05T22:04:22.981Z","date":"2025-12-05","time":"22:04:22"},{"task":"memory_phase","broad_category":"S","image_png":"S_Chert_13.png","image_id":365,"category_name":"Chert","category":23,"distinct_rating":6.57,"distinct_type":"Top","rt":null,"stimulus":"Stimuli_Rocks480/S_Chert_13.png","response":null,"trial_type":"image-keyboard-response","trial_index":118,"plugin_version":"2.1.0","time_elapsed":225920,"subject_id":"88456","group":"Group2","full_date":"2025-12-05T22:04:22.981Z","date":"2025-12-05","time":"22:04:22"},{"rt":null,"stimulus":"<p style=\"font-size: 50px; margin: 0; text-align: center;\">+</p>","response":null,"trial_type":"html-keyboard-response","trial_index":119,"plugin_version":"2.1.0","time_elapsed":226921,"subject_id":"88456","group":"Group2","full_date":"2025-12-05T22:04:22.981Z","date":"2025-12-05","time":"22:04:22"},{"task":"memory_phase","broad_category":"M","image_png":"M_Slate_04.png","image_id":308,"category_name":"Slate","category":20,"distinct_rating":2.2,"distinct_type":"Bottom","rt":null,"stimulus":"Stimuli_Rocks480/M_Slate_04.png","response":null,"trial_type":"image-keyboard-response","trial_index":120,"plugin_version":"2.1.0","time_elapsed":229426,"subject_id":"88456","group":"Group2","full_date":"2025-12-05T22:04:22.981Z","date":"2025-12-05","time":"22:04:22"},{"rt":null,"stimulus":"<p style=\"font-size: 50px; margin: 0; text-align: center;\">+</p>","response":null,"trial_type":"html-keyboard-response","trial_index":121,"plugin_version":"2.1.0","time_elapsed":230433,"subject_id":"88456","group":"Group2","full_date":"2025-12-05T22:04:22.981Z","date":"2025-12-05","time":"22:04:22"},{"task":"memory_phase","broad_category":"M","image_png":"M_Marble_02.png","image_id":226,"category_name":"Marble","category":15,"distinct_rating":3.2,"distinct_type":"Bottom","rt":null,"stimulus":"Stimuli_Rocks480/M_Marble_02.png","response":null,"trial_type":"image-keyboard-response","trial_index":122,"plugin_version":"2.1.0","time_elapsed":232936,"subject_id":"88456","group":"Group2","full_date":"2025-12-05T22:04:22.981Z","date":"2025-12-05","time":"22:04:22"},{"rt":null,"stimulus":"<p style=\"font-size: 50px; margin: 0; text-align: center;\">+</p>","response":null,"trial_type":"html-keyboard-response","trial_index":123,"plugin_version":"2.1.0","time_elapsed":233940,"subject_id":"88456","group":"Group2","full_date":"2025-12-05T22:04:22.981Z","date":"2025-12-05","time":"22:04:22"},{"task":"memory_phase","broad_category":"M","image_png":"M_Quartzite_07.png","image_id":279,"category_name":"Quartzite","category":18,"distinct_rating":1.97,"distinct_type":"Bottom","rt":null,"stimulus":"Stimuli_Rocks480/M_Quartzite_07.png","response":null,"trial_type":"image-keyboard-response","trial_index":124,"plugin_version":"2.1.0","time_elapsed":236454,"subject_id":"88456","group":"Group2","full_date":"2025-12-05T22:04:22.981Z","date":"2025-12-05","time":"22:04:22"},{"rt":null,"stimulus":"<p style=\"font-size: 50px; margin: 0; text-align: center;\">+</p>","response":null,"trial_type":"html-keyboard-response","trial_index":125,"plugin_version":"2.1.0","time_elapsed":237460,"subject_id":"88456","group":"Group2","full_date":"2025-12-05T22:04:22.981Z","date":"2025-12-05","time":"22:04:22"},{"task":"memory_phase","broad_category":"S","image_png":"S_Sandstone_11.png","image_id":459,"category_name":"Sandstone","category":29,"distinct_rating":1.82,"distinct_type":"Bottom","rt":null,"stimulus":"Stimuli_Rocks480/S_Sandstone_11.png","response":null,"trial_type":"image-keyboard-response","trial_index":126,"plugin_version":"2.1.0","time_elapsed":239969,"subject_id":"88456","group":"Group2","full_date":"2025-12-05T22:04:22.981Z","date":"2025-12-05","time":"22:04:22"},{"rt":null,"stimulus":"<p style=\"font-size: 50px; margin: 0; text-align: center;\">+</p>","response":null,"trial_type":"html-keyboard-response","trial_index":127,"plugin_version":"2.1.0","time_elapsed":240985,"subject_id":"88456","group":"Group2","full_date":"2025-12-05T22:04:22.981Z","date":"2025-12-05","time":"22:04:22"},{"task":"memory_phase","broad_category":"S","image_png":"S_Dolomite_07.png","image_id":391,"category_name":"Dolomite","category":25,"distinct_rating":1.73,"distinct_type":"Bottom","rt":null,"stimulus":"Stimuli_Rocks480/S_Dolomite_07.png","response":null,"trial_type":"image-keyboard-response","trial_index":128,"plugin_version":"2.1.0","time_elapsed":243494,"subject_id":"88456","group":"Group2","full_date":"2025-12-05T22:04:22.981Z","date":"2025-12-05","time":"22:04:22"},{"rt":null,"stimulus":"<p style=\"font-size: 50px; margin: 0; text-align: center;\">+</p>","response":null,"trial_type":"html-keyboard-response","trial_index":129,"plugin_version":"2.1.0","time_elapsed":244498,"subject_id":"88456","group":"Group2","full_date":"2025-12-05T22:04:22.981Z","date":"2025-12-05","time":"22:04:22"},{"task":"memory_phase","broad_category":"I","image_png":"I_Rhyolite_08.png","image_id":152,"category_name":"Rhyolite","category":10,"distinct_rating":1.38,"distinct_type":"Bottom","rt":null,"stimulus":"Stimuli_Rocks480/I_Rhyolite_08.png","response":null,"trial_type":"image-keyboard-response","trial_index":130,"plugin_version":"2.1.0","time_elapsed":247008,"subject_id":"88456","group":"Group2","full_date":"2025-12-05T22:04:22.981Z","date":"2025-12-05","time":"22:04:22"},{"rt":null,"stimulus":"<p style=\"font-size: 50px; margin: 0; text-align: center;\">+</p>","response":null,"trial_type":"html-keyboard-response","trial_index":131,"plugin_version":"2.1.0","time_elapsed":248021,"subject_id":"88456","group":"Group2","full_date":"2025-12-05T22:04:22.981Z","date":"2025-12-05","time":"22:04:22"},{"task":"memory_phase","broad_category":"I","image_png":"I_Diorite_15.png","image_id":47,"category_name":"Diorite","category":3,"distinct_rating":3.05,"distinct_type":"Bottom","rt":null,"stimulus":"Stimuli_Rocks480/I_Diorite_15.png","response":null,"trial_type":"image-keyboard-response","trial_index":132,"plugin_version":"2.1.0","time_elapsed":250527,"subject_id":"88456","group":"Group2","full_date":"2025-12-05T22:04:22.981Z","date":"2025-12-05","time":"22:04:22"},{"rt":null,"stimulus":"<p style=\"font-size: 50px; margin: 0; text-align: center;\">+</p>","response":null,"trial_type":"html-keyboard-response","trial_index":133,"plugin_version":"2.1.0","time_elapsed":251530,"subject_id":"88456","group":"Group2","full_date":"2025-12-05T22:04:22.981Z","date":"2025-12-05","time":"22:04:22"},{"task":"memory_phase","broad_category":"I","image_png":"I_Basalt_13.png","image_id":29,"category_name":"Basalt","category":2,"distinct_rating":2.68,"distinct_type":"Bottom","rt":null,"stimulus":"Stimuli_Rocks480/I_Basalt_13.png","response":null,"trial_type":"image-keyboard-response","trial_index":134,"plugin_version":"2.1.0","time_elapsed":254041,"subject_id":"88456","group":"Group2","full_date":"2025-12-05T22:04:22.981Z","date":"2025-12-05","time":"22:04:22"},{"rt":null,"stimulus":"<p style=\"font-size: 50px; margin: 0; text-align: center;\">+</p>","response":null,"trial_type":"html-keyboard-response","trial_index":135,"plugin_version":"2.1.0","time_elapsed":255052,"subject_id":"88456","group":"Group2","full_date":"2025-12-05T22:04:22.981Z","date":"2025-12-05","time":"22:04:22"},{"task":"memory_phase","broad_category":"I","image_png":"I_Basalt_08.png","image_id":24,"category_name":"Basalt","category":2,"distinct_rating":2.31,"distinct_type":"Bottom","rt":null,"stimulus":"Stimuli_Rocks480/I_Basalt_08.png","response":null,"trial_type":"image-keyboard-response","trial_index":136,"plugin_version":"2.1.0","time_elapsed":257561,"subject_id":"88456","group":"Group2","full_date":"2025-12-05T22:04:22.981Z","date":"2025-12-05","time":"22:04:22"},{"rt":null,"stimulus":"<p style=\"font-size: 50px; margin: 0; text-align: center;\">+</p>","response":null,"trial_type":"html-keyboard-response","trial_index":137,"plugin_version":"2.1.0","time_elapsed":258571,"subject_id":"88456","group":"Group2","full_date":"2025-12-05T22:04:22.981Z","date":"2025-12-05","time":"22:04:22"},{"task":"memory_phase","broad_category":"I","image_png":"I_Rhyolite_10.png","image_id":154,"category_name":"Rhyolite","category":10,"distinct_rating":2.88,"distinct_type":"Bottom","rt":null,"stimulus":"Stimuli_Rocks480/I_Rhyolite_10.png","response":null,"trial_type":"image-keyboard-response","trial_index":138,"plugin_version":"2.1.0","time_elapsed":261078,"subject_id":"88456","group":"Group2","full_date":"2025-12-05T22:04:22.981Z","date":"2025-12-05","time":"22:04:22"},{"rt":null,"stimulus":"<p style=\"font-size: 50px; margin: 0; text-align: center;\">+</p>","response":null,"trial_type":"html-keyboard-response","trial_index":139,"plugin_version":"2.1.0","time_elapsed":262084,"subject_id":"88456","group":"Group2","full_date":"2025-12-05T22:04:22.981Z","date":"2025-12-05","time":"22:04:22"},{"task":"memory_phase","broad_category":"M","image_png":"M_Phyllite_13.png","image_id":269,"category_name":"Phyllite","category":17,"distinct_rating":2.8,"distinct_type":"Bottom","rt":null,"stimulus":"Stimuli_Rocks480/M_Phyllite_13.png","response":null,"trial_type":"image-keyboard-response","trial_index":140,"plugin_version":"2.1.0","time_elapsed":264591,"subject_id":"88456","group":"Group2","full_date":"2025-12-05T22:04:22.981Z","date":"2025-12-05","time":"22:04:22"},{"rt":null,"stimulus":"<p style=\"font-size: 50px; margin: 0; text-align: center;\">+</p>","response":null,"trial_type":"html-keyboard-response","trial_index":141,"plugin_version":"2.1.0","time_elapsed":265597,"subject_id":"88456","group":"Group2","full_date":"2025-12-05T22:04:22.981Z","date":"2025-12-05","time":"22:04:22"},{"task":"memory_phase","broad_category":"S","image_png":"S_Conglomerate_14.png","image_id":382,"category_name":"Conglomerate","category":24,"distinct_rating":6.86,"distinct_type":"Top","rt":null,"stimulus":"Stimuli_Rocks480/S_Conglomerate_14.png","response":null,"trial_type":"image-keyboard-response","trial_index":142,"plugin_version":"2.1.0","time_elapsed":268102,"subject_id":"88456","group":"Group2","full_date":"2025-12-05T22:04:22.981Z","date":"2025-12-05","time":"22:04:22"},{"rt":null,"stimulus":"<p style=\"font-size: 50px; margin: 0; text-align: center;\">+</p>","response":null,"trial_type":"html-keyboard-response","trial_index":143,"plugin_version":"2.1.0","time_elapsed":269108,"subject_id":"88456","group":"Group2","full_date":"2025-12-05T22:04:22.981Z","date":"2025-12-05","time":"22:04:22"},{"task":"memory_phase","broad_category":"S","image_png":"S_Rock Salt_15.png","image_id":447,"category_name":"Rock Salt","category":28,"distinct_rating":7.79,"distinct_type":"Top","rt":null,"stimulus":"Stimuli_Rocks480/S_Rock Salt_15.png","response":null,"trial_type":"image-keyboard-response","trial_index":144,"plugin_version":"2.1.0","time_elapsed":271614,"subject_id":"88456","group":"Group2","full_date":"2025-12-05T22:04:22.981Z","date":"2025-12-05","time":"22:04:22"},{"rt":null,"stimulus":"<p style=\"font-size: 50px; margin: 0; text-align: center;\">+</p>","response":null,"trial_type":"html-keyboard-response","trial_index":145,"plugin_version":"2.1.0","time_elapsed":272616,"subject_id":"88456","group":"Group2","full_date":"2025-12-05T22:04:22.981Z","date":"2025-12-05","time":"22:04:22"},{"task":"memory_phase","broad_category":"I","image_png":"I_Pumice_14.png","image_id":142,"category_name":"Pumice","category":9,"distinct_rating":3.22,"distinct_type":"Bottom","rt":null,"stimulus":"Stimuli_Rocks480/I_Pumice_14.png","response":null,"trial_type":"image-keyboard-response","trial_index":146,"plugin_version":"2.1.0","time_elapsed":275123,"subject_id":"88456","group":"Group2","full_date":"2025-12-05T22:04:22.981Z","date":"2025-12-05","time":"22:04:22"},{"rt":null,"stimulus":"<p style=\"font-size: 50px; margin: 0; text-align: center;\">+</p>","response":null,"trial_type":"html-keyboard-response","trial_index":147,"plugin_version":"2.1.0","time_elapsed":276132,"subject_id":"88456","group":"Group2","full_date":"2025-12-05T22:04:22.981Z","date":"2025-12-05","time":"22:04:22"},{"task":"memory_phase","broad_category":"S","image_png":"S_Rock Salt_13.png","image_id":445,"category_name":"Rock Salt","category":28,"distinct_rating":7.58,"distinct_type":"Top","rt":null,"stimulus":"Stimuli_Rocks480/S_Rock Salt_13.png","response":null,"trial_type":"image-keyboard-response","trial_index":148,"plugin_version":"2.1.0","time_elapsed":278643,"subject_id":"88456","group":"Group2","full_date":"2025-12-05T22:04:22.981Z","date":"2025-12-05","time":"22:04:22"},{"rt":null,"stimulus":"<p style=\"font-size: 50px; margin: 0; text-align: center;\">+</p>","response":null,"trial_type":"html-keyboard-response","trial_index":149,"plugin_version":"2.1.0","time_elapsed":279651,"subject_id":"88456","group":"Group2","full_date":"2025-12-05T22:04:22.981Z","date":"2025-12-05","time":"22:04:22"},{"task":"memory_phase","broad_category":"I","image_png":"I_Pumice_01.png","image_id":129,"category_name":"Pumice","category":9,"distinct_rating":3.25,"distinct_type":"Bottom","rt":null,"stimulus":"Stimuli_Rocks480/I_Pumice_01.png","response":null,"trial_type":"image-keyboard-response","trial_index":150,"plugin_version":"2.1.0","time_elapsed":282155,"subject_id":"88456","group":"Group2","full_date":"2025-12-05T22:04:22.981Z","date":"2025-12-05","time":"22:04:22"},{"rt":null,"stimulus":"<p style=\"font-size: 50px; margin: 0; text-align: center;\">+</p>","response":null,"trial_type":"html-keyboard-response","trial_index":151,"plugin_version":"2.1.0","time_elapsed":283171,"subject_id":"88456","group":"Group2","full_date":"2025-12-05T22:04:22.981Z","date":"2025-12-05","time":"22:04:22"},{"task":"memory_phase","broad_category":"I","image_png":"I_Diorite_01.png","image_id":33,"category_name":"Diorite","category":3,"distinct_rating":2.97,"distinct_type":"Bottom","rt":null,"stimulus":"Stimuli_Rocks480/I_Diorite_01.png","response":null,"trial_type":"image-keyboard-response","trial_index":152,"plugin_version":"2.1.0","time_elapsed":285687,"subject_id":"88456","group":"Group2","full_date":"2025-12-05T22:04:22.981Z","date":"2025-12-05","time":"22:04:22"},{"rt":null,"stimulus":"<p style=\"font-size: 50px; margin: 0; text-align: center;\">+</p>","response":null,"trial_type":"html-keyboard-response","trial_index":153,"plugin_version":"2.1.0","time_elapsed":286699,"subject_id":"88456","group":"Group2","full_date":"2025-12-05T22:04:22.981Z","date":"2025-12-05","time":"22:04:22"},{"task":"memory_phase","broad_category":"M","image_png":"M_Phyllite_02.png","image_id":258,"category_name":"Phyllite","category":17,"distinct_rating":2.89,"distinct_type":"Bottom","rt":null,"stimulus":"Stimuli_Rocks480/M_Phyllite_02.png","response":null,"trial_type":"image-keyboard-response","trial_index":154,"plugin_version":"2.1.0","time_elapsed":289213,"subject_id":"88456","group":"Group2","full_date":"2025-12-05T22:04:22.981Z","date":"2025-12-05","time":"22:04:22"},{"rt":null,"stimulus":"<p style=\"font-size: 50px; margin: 0; text-align: center;\">+</p>","response":null,"trial_type":"html-keyboard-response","trial_index":155,"plugin_version":"2.1.0","time_elapsed":290228,"subject_id":"88456","group":"Group2","full_date":"2025-12-05T22:04:22.981Z","date":"2025-12-05","time":"22:04:22"},{"task":"memory_phase","broad_category":"S","image_png":"S_Shale_07.png","image_id":471,"category_name":"Shale","category":30,"distinct_rating":2.73,"distinct_type":"Bottom","rt":null,"stimulus":"Stimuli_Rocks480/S_Shale_07.png","response":null,"trial_type":"image-keyboard-response","trial_index":156,"plugin_version":"2.1.0","time_elapsed":292737,"subject_id":"88456","group":"Group2","full_date":"2025-12-05T22:04:22.981Z","date":"2025-12-05","time":"22:04:22"},{"rt":15542,"stimulus":"<p style=\"max-width: 760px; margin: auto; font-size: 35px; line-height: 1.5;\">Press SPACE to continue study phase</p>","response":" ","trial_type":"html-keyboard-response","trial_index":157,"plugin_version":"2.1.0","time_elapsed":308281,"subject_id":"88456","group":"Group2","full_date":"2025-12-05T22:04:22.981Z","date":"2025-12-05","time":"22:04:22"},{"rt":null,"stimulus":"<p style=\"font-size: 50px; margin: 0; text-align: center;\">+</p>","response":null,"trial_type":"html-keyboard-response","trial_index":158,"plugin_version":"2.1.0","time_elapsed":309290,"subject_id":"88456","group":"Group2","full_date":"2025-12-05T22:04:22.981Z","date":"2025-12-05","time":"22:04:22"},{"task":"memory_phase","broad_category":"I","image_png":"I_Gabbro_14.png","image_id":62,"category_name":"Gabbro","category":4,"distinct_rating":2.95,"distinct_type":"Bottom","rt":null,"stimulus":"Stimuli_Rocks480/I_Gabbro_14.png","response":null,"trial_type":"image-keyboard-response","trial_index":159,"plugin_version":"2.1.0","time_elapsed":311807,"subject_id":"88456","group":"Group2","full_date":"2025-12-05T22:04:22.981Z","date":"2025-12-05","time":"22:04:22"},{"rt":null,"stimulus":"<p style=\"font-size: 50px; margin: 0; text-align: center;\">+</p>","response":null,"trial_type":"html-keyboard-response","trial_index":160,"plugin_version":"2.1.0","time_elapsed":312815,"subject_id":"88456","group":"Group2","full_date":"2025-12-05T22:04:22.981Z","date":"2025-12-05","time":"22:04:22"},{"task":"memory_phase","broad_category":"I","image_png":"I_Obsidian_06.png","image_id":86,"category_name":"Obsidian","category":6,"distinct_rating":8.01,"distinct_type":"Top","rt":null,"stimulus":"Stimuli_Rocks480/I_Obsidian_06.png","response":null,"trial_type":"image-keyboard-response","trial_index":161,"plugin_version":"2.1.0","time_elapsed":315325,"subject_id":"88456","group":"Group2","full_date":"2025-12-05T22:04:22.981Z","date":"2025-12-05","time":"22:04:22"},{"rt":null,"stimulus":"<p style=\"font-size: 50px; margin: 0; text-align: center;\">+</p>","response":null,"trial_type":"html-keyboard-response","trial_index":162,"plugin_version":"2.1.0","time_elapsed":316329,"subject_id":"88456","group":"Group2","full_date":"2025-12-05T22:04:22.981Z","date":"2025-12-05","time":"22:04:22"},{"task":"memory_phase","broad_category":"I","image_png":"I_Peridotite_13.png","image_id":125,"category_name":"Peridotite","category":8,"distinct_rating":7.28,"distinct_type":"Top","rt":null,"stimulus":"Stimuli_Rocks480/I_Peridotite_13.png","response":null,"trial_type":"image-keyboard-response","trial_index":163,"plugin_version":"2.1.0","time_elapsed":318840,"subject_id":"88456","group":"Group2","full_date":"2025-12-05T22:04:22.981Z","date":"2025-12-05","time":"22:04:22"},{"rt":null,"stimulus":"<p style=\"font-size: 50px; margin: 0; text-align: center;\">+</p>","response":null,"trial_type":"html-keyboard-response","trial_index":164,"plugin_version":"2.1.0","time_elapsed":319844,"subject_id":"88456","group":"Group2","full_date":"2025-12-05T22:04:22.981Z","date":"2025-12-05","time":"22:04:22"},{"task":"memory_phase","broad_category":"I","image_png":"I_Gabbro_02.png","image_id":50,"category_name":"Gabbro","category":4,"distinct_rating":2.73,"distinct_type":"Bottom","rt":null,"stimulus":"Stimuli_Rocks480/I_Gabbro_02.png","response":null,"trial_type":"image-keyboard-response","trial_index":165,"plugin_version":"2.1.0","time_elapsed":322356,"subject_id":"88456","group":"Group2","full_date":"2025-12-05T22:04:22.981Z","date":"2025-12-05","time":"22:04:22"},{"rt":null,"stimulus":"<p style=\"font-size: 50px; margin: 0; text-align: center;\">+</p>","response":null,"trial_type":"html-keyboard-response","trial_index":166,"plugin_version":"2.1.0","time_elapsed":323360,"subject_id":"88456","group":"Group2","full_date":"2025-12-05T22:04:22.981Z","date":"2025-12-05","time":"22:04:22"},{"task":"memory_phase","broad_category":"M","image_png":"M_Marble_14.png","image_id":238,"category_name":"Marble","category":15,"distinct_rating":3.31,"distinct_type":"Bottom","rt":null,"stimulus":"Stimuli_Rocks480/M_Marble_14.png","response":null,"trial_type":"image-keyboard-response","trial_index":167,"plugin_version":"2.1.0","time_elapsed":325875,"subject_id":"88456","group":"Group2","full_date":"2025-12-05T22:04:22.981Z","date":"2025-12-05","time":"22:04:22"},{"rt":null,"stimulus":"<p style=\"font-size: 50px; margin: 0; text-align: center;\">+</p>","response":null,"trial_type":"html-keyboard-response","trial_index":168,"plugin_version":"2.1.0","time_elapsed":326886,"subject_id":"88456","group":"Group2","full_date":"2025-12-05T22:04:22.981Z","date":"2025-12-05","time":"22:04:22"},{"task":"memory_phase","broad_category":"M","image_png":"M_Gneiss_14.png","image_id":206,"category_name":"Gneiss","category":13,"distinct_rating":3.41,"distinct_type":"Bottom","rt":null,"stimulus":"Stimuli_Rocks480/M_Gneiss_14.png","response":null,"trial_type":"image-keyboard-response","trial_index":169,"plugin_version":"2.1.0","time_elapsed":329390,"subject_id":"88456","group":"Group2","full_date":"2025-12-05T22:04:22.981Z","date":"2025-12-05","time":"22:04:22"},{"rt":null,"stimulus":"<p style=\"font-size: 50px; margin: 0; text-align: center;\">+</p>","response":null,"trial_type":"html-keyboard-response","trial_index":170,"plugin_version":"2.1.0","time_elapsed":330394,"subject_id":"88456","group":"Group2","full_date":"2025-12-05T22:04:22.981Z","date":"2025-12-05","time":"22:04:22"},{"task":"memory_phase","broad_category":"I","image_png":"I_Rhyolite_05.png","image_id":149,"category_name":"Rhyolite","category":10,"distinct_rating":3.02,"distinct_type":"Bottom","rt":null,"stimulus":"Stimuli_Rocks480/I_Rhyolite_05.png","response":null,"trial_type":"image-keyboard-response","trial_index":171,"plugin_version":"2.1.0","time_elapsed":332901,"subject_id":"88456","group":"Group2","full_date":"2025-12-05T22:04:22.981Z","date":"2025-12-05","time":"22:04:22"},{"rt":null,"stimulus":"<p style=\"font-size: 50px; margin: 0; text-align: center;\">+</p>","response":null,"trial_type":"html-keyboard-response","trial_index":172,"plugin_version":"2.1.0","time_elapsed":333915,"subject_id":"88456","group":"Group2","full_date":"2025-12-05T22:04:22.981Z","date":"2025-12-05","time":"22:04:22"},{"task":"memory_phase","broad_category":"I","image_png":"I_Diorite_10.png","image_id":42,"category_name":"Diorite","category":3,"distinct_rating":2.84,"distinct_type":"Bottom","rt":null,"stimulus":"Stimuli_Rocks480/I_Diorite_10.png","response":null,"trial_type":"image-keyboard-response","trial_index":173,"plugin_version":"2.1.0","time_elapsed":336423,"subject_id":"88456","group":"Group2","full_date":"2025-12-05T22:04:22.981Z","date":"2025-12-05","time":"22:04:22"},{"rt":null,"stimulus":"<p style=\"font-size: 50px; margin: 0; text-align: center;\">+</p>","response":null,"trial_type":"html-keyboard-response","trial_index":174,"plugin_version":"2.1.0","time_elapsed":337427,"subject_id":"88456","group":"Group2","full_date":"2025-12-05T22:04:22.981Z","date":"2025-12-05","time":"22:04:22"},{"task":"memory_phase","broad_category":"I","image_png":"I_Andesite_03.png","image_id":3,"category_name":"Andesite","category":1,"distinct_rating":3.17,"distinct_type":"Bottom","rt":null,"stimulus":"Stimuli_Rocks480/I_Andesite_03.png","response":null,"trial_type":"image-keyboard-response","trial_index":175,"plugin_version":"2.1.0","time_elapsed":339941,"subject_id":"88456","group":"Group2","full_date":"2025-12-05T22:04:22.981Z","date":"2025-12-05","time":"22:04:22"},{"rt":null,"stimulus":"<p style=\"font-size: 50px; margin: 0; text-align: center;\">+</p>","response":null,"trial_type":"html-keyboard-response","trial_index":176,"plugin_version":"2.1.0","time_elapsed":340949,"subject_id":"88456","group":"Group2","full_date":"2025-12-05T22:04:22.981Z","date":"2025-12-05","time":"22:04:22"},{"task":"memory_phase","broad_category":"I","image_png":"I_Basalt_10.png","image_id":26,"category_name":"Basalt","category":2,"distinct_rating":2.76,"distinct_type":"Bottom","rt":null,"stimulus":"Stimuli_Rocks480/I_Basalt_10.png","response":null,"trial_type":"image-keyboard-response","trial_index":177,"plugin_version":"2.1.0","time_elapsed":343461,"subject_id":"88456","group":"Group2","full_date":"2025-12-05T22:04:22.981Z","date":"2025-12-05","time":"22:04:22"},{"rt":null,"stimulus":"<p style=\"font-size: 50px; margin: 0; text-align: center;\">+</p>","response":null,"trial_type":"html-keyboard-response","trial_index":178,"plugin_version":"2.1.0","time_elapsed":344475,"subject_id":"88456","group":"Group2","full_date":"2025-12-05T22:04:22.981Z","date":"2025-12-05","time":"22:04:22"},{"task":"memory_phase","broad_category":"I","image_png":"I_Pegmatite_11.png","image_id":107,"category_name":"Pegmatite","category":7,"distinct_rating":7.11,"distinct_type":"Top","rt":null,"stimulus":"Stimuli_Rocks480/I_Pegmatite_11.png","response":null,"trial_type":"image-keyboard-response","trial_index":179,"plugin_version":"2.1.0","time_elapsed":346989,"subject_id":"88456","group":"Group2","full_date":"2025-12-05T22:04:22.981Z","date":"2025-12-05","time":"22:04:22"},{"rt":null,"stimulus":"<p style=\"font-size: 50px; margin: 0; text-align: center;\">+</p>","response":null,"trial_type":"html-keyboard-response","trial_index":180,"plugin_version":"2.1.0","time_elapsed":347993,"subject_id":"88456","group":"Group2","full_date":"2025-12-05T22:04:22.981Z","date":"2025-12-05","time":"22:04:22"},{"task":"memory_phase","broad_category":"S","image_png":"S_Dolomite_01.png","image_id":385,"category_name":"Dolomite","category":25,"distinct_rating":1.43,"distinct_type":"Bottom","rt":null,"stimulus":"Stimuli_Rocks480/S_Dolomite_01.png","response":null,"trial_type":"image-keyboard-response","trial_index":181,"plugin_version":"2.1.0","time_elapsed":350503,"subject_id":"88456","group":"Group2","full_date":"2025-12-05T22:04:22.981Z","date":"2025-12-05","time":"22:04:22"},{"rt":null,"stimulus":"<p style=\"font-size: 50px; margin: 0; text-align: center;\">+</p>","response":null,"trial_type":"html-keyboard-response","trial_index":182,"plugin_version":"2.1.0","time_elapsed":351520,"subject_id":"88456","group":"Group2","full_date":"2025-12-05T22:04:22.981Z","date":"2025-12-05","time":"22:04:22"},{"task":"memory_phase","broad_category":"M","image_png":"M_Marble_03.png","image_id":227,"category_name":"Marble","category":15,"distinct_rating":2.67,"distinct_type":"Bottom","rt":null,"stimulus":"Stimuli_Rocks480/M_Marble_03.png","response":null,"trial_type":"image-keyboard-response","trial_index":183,"plugin_version":"2.1.0","time_elapsed":354022,"subject_id":"88456","group":"Group2","full_date":"2025-12-05T22:04:22.981Z","date":"2025-12-05","time":"22:04:22"},{"rt":null,"stimulus":"<p style=\"font-size: 50px; margin: 0; text-align: center;\">+</p>","response":null,"trial_type":"html-keyboard-response","trial_index":184,"plugin_version":"2.1.0","time_elapsed":355024,"subject_id":"88456","group":"Group2","full_date":"2025-12-05T22:04:22.981Z","date":"2025-12-05","time":"22:04:22"},{"task":"memory_phase","broad_category":"M","image_png":"M_Quartzite_12.png","image_id":284,"category_name":"Quartzite","category":18,"distinct_rating":1.92,"distinct_type":"Bottom","rt":null,"stimulus":"Stimuli_Rocks480/M_Quartzite_12.png","response":null,"trial_type":"image-keyboard-response","trial_index":185,"plugin_version":"2.1.0","time_elapsed":357528,"subject_id":"88456","group":"Group2","full_date":"2025-12-05T22:04:22.981Z","date":"2025-12-05","time":"22:04:22"},{"rt":null,"stimulus":"<p style=\"font-size: 50px; margin: 0; text-align: center;\">+</p>","response":null,"trial_type":"html-keyboard-response","trial_index":186,"plugin_version":"2.1.0","time_elapsed":358530,"subject_id":"88456","group":"Group2","full_date":"2025-12-05T22:04:22.981Z","date":"2025-12-05","time":"22:04:22"},{"task":"memory_phase","broad_category":"I","image_png":"I_Pegmatite_03.png","image_id":99,"category_name":"Pegmatite","category":7,"distinct_rating":7.24,"distinct_type":"Top","rt":null,"stimulus":"Stimuli_Rocks480/I_Pegmatite_03.png","response":null,"trial_type":"image-keyboard-response","trial_index":187,"plugin_version":"2.1.0","time_elapsed":361037,"subject_id":"88456","group":"Group2","full_date":"2025-12-05T22:04:22.981Z","date":"2025-12-05","time":"22:04:22"},{"rt":null,"stimulus":"<p style=\"font-size: 50px; margin: 0; text-align: center;\">+</p>","response":null,"trial_type":"html-keyboard-response","trial_index":188,"plugin_version":"2.1.0","time_elapsed":362048,"subject_id":"88456","group":"Group2","full_date":"2025-12-05T22:04:22.981Z","date":"2025-12-05","time":"22:04:22"},{"task":"memory_phase","broad_category":"I","image_png":"I_Andesite_09.png","image_id":9,"category_name":"Andesite","category":1,"distinct_rating":2.49,"distinct_type":"Bottom","rt":null,"stimulus":"Stimuli_Rocks480/I_Andesite_09.png","response":null,"trial_type":"image-keyboard-response","trial_index":189,"plugin_version":"2.1.0","time_elapsed":364560,"subject_id":"88456","group":"Group2","full_date":"2025-12-05T22:04:22.981Z","date":"2025-12-05","time":"22:04:22"},{"rt":null,"stimulus":"<p style=\"font-size: 50px; margin: 0; text-align: center;\">+</p>","response":null,"trial_type":"html-keyboard-response","trial_index":190,"plugin_version":"2.1.0","time_elapsed":365570,"subject_id":"88456","group":"Group2","full_date":"2025-12-05T22:04:22.981Z","date":"2025-12-05","time":"22:04:22"},{"task":"memory_phase","broad_category":"M","image_png":"M_Quartzite_15.png","image_id":287,"category_name":"Quartzite","category":18,"distinct_rating":2.19,"distinct_type":"Bottom","rt":null,"stimulus":"Stimuli_Rocks480/M_Quartzite_15.png","response":null,"trial_type":"image-keyboard-response","trial_index":191,"plugin_version":"2.1.0","time_elapsed":368079,"subject_id":"88456","group":"Group2","full_date":"2025-12-05T22:04:22.981Z","date":"2025-12-05","time":"22:04:22"},{"rt":null,"stimulus":"<p style=\"font-size: 50px; margin: 0; text-align: center;\">+</p>","response":null,"trial_type":"html-keyboard-response","trial_index":192,"plugin_version":"2.1.0","time_elapsed":369088,"subject_id":"88456","group":"Group2","full_date":"2025-12-05T22:04:22.981Z","date":"2025-12-05","time":"22:04:22"},{"task":"memory_phase","broad_category":"S","image_png":"S_Shale_03.png","image_id":467,"category_name":"Shale","category":30,"distinct_rating":1.95,"distinct_type":"Bottom","rt":null,"stimulus":"Stimuli_Rocks480/S_Shale_03.png","response":null,"trial_type":"image-keyboard-response","trial_index":193,"plugin_version":"2.1.0","time_elapsed":371603,"subject_id":"88456","group":"Group2","full_date":"2025-12-05T22:04:22.981Z","date":"2025-12-05","time":"22:04:22"},{"rt":null,"stimulus":"<p style=\"font-size: 50px; margin: 0; text-align: center;\">+</p>","response":null,"trial_type":"html-keyboard-response","trial_index":194,"plugin_version":"2.1.0","time_elapsed":372621,"subject_id":"88456","group":"Group2","full_date":"2025-12-05T22:04:22.981Z","date":"2025-12-05","time":"22:04:22"},{"task":"memory_phase","broad_category":"S","image_png":"S_Dolomite_16.png","image_id":400,"category_name":"Dolomite","category":25,"distinct_rating":1.71,"distinct_type":"Bottom","rt":null,"stimulus":"Stimuli_Rocks480/S_Dolomite_16.png","response":null,"trial_type":"image-keyboard-response","trial_index":195,"plugin_version":"2.1.0","time_elapsed":375134,"subject_id":"88456","group":"Group2","full_date":"2025-12-05T22:04:22.981Z","date":"2025-12-05","time":"22:04:22"},{"rt":null,"stimulus":"<p style=\"font-size: 50px; margin: 0; text-align: center;\">+</p>","response":null,"trial_type":"html-keyboard-response","trial_index":196,"plugin_version":"2.1.0","time_elapsed":376144,"subject_id":"88456","group":"Group2","full_date":"2025-12-05T22:04:22.981Z","date":"2025-12-05","time":"22:04:22"},{"task":"memory_phase","broad_category":"S","image_png":"S_Sandstone_04.png","image_id":452,"category_name":"Sandstone","category":29,"distinct_rating":1.8,"distinct_type":"Bottom","rt":null,"stimulus":"Stimuli_Rocks480/S_Sandstone_04.png","response":null,"trial_type":"image-keyboard-response","trial_index":197,"plugin_version":"2.1.0","time_elapsed":378651,"subject_id":"88456","group":"Group2","full_date":"2025-12-05T22:04:22.981Z","date":"2025-12-05","time":"22:04:22"},{"rt":null,"stimulus":"<p style=\"font-size: 50px; margin: 0; text-align: center;\">+</p>","response":null,"trial_type":"html-keyboard-response","trial_index":198,"plugin_version":"2.1.0","time_elapsed":379657,"subject_id":"88456","group":"Group2","full_date":"2025-12-05T22:04:22.981Z","date":"2025-12-05","time":"22:04:22"},{"task":"memory_phase","broad_category":"S","image_png":"S_Sandstone_08.png","image_id":456,"category_name":"Sandstone","category":29,"distinct_rating":1.5,"distinct_type":"Bottom","rt":null,"stimulus":"Stimuli_Rocks480/S_Sandstone_08.png","response":null,"trial_type":"image-keyboard-response","trial_index":199,"plugin_version":"2.1.0","time_elapsed":382174,"subject_id":"88456","group":"Group2","full_date":"2025-12-05T22:04:22.981Z","date":"2025-12-05","time":"22:04:22"},{"rt":null,"stimulus":"<p style=\"font-size: 50px; margin: 0; text-align: center;\">+</p>","response":null,"trial_type":"html-keyboard-response","trial_index":200,"plugin_version":"2.1.0","time_elapsed":383184,"subject_id":"88456","group":"Group2","full_date":"2025-12-05T22:04:22.981Z","date":"2025-12-05","time":"22:04:22"},{"task":"memory_phase","broad_category":"S","image_png":"S_Shale_02.png","image_id":466,"category_name":"Shale","category":30,"distinct_rating":2.9,"distinct_type":"Bottom","rt":null,"stimulus":"Stimuli_Rocks480/S_Shale_02.png","response":null,"trial_type":"image-keyboard-response","trial_index":201,"plugin_version":"2.1.0","time_elapsed":385697,"subject_id":"88456","group":"Group2","full_date":"2025-12-05T22:04:22.981Z","date":"2025-12-05","time":"22:04:22"},{"rt":null,"stimulus":"<p style=\"font-size: 50px; margin: 0; text-align: center;\">+</p>","response":null,"trial_type":"html-keyboard-response","trial_index":202,"plugin_version":"2.1.0","time_elapsed":386702,"subject_id":"88456","group":"Group2","full_date":"2025-12-05T22:04:22.981Z","date":"2025-12-05","time":"22:04:22"},{"task":"memory_phase","broad_category":"M","image_png":"M_Slate_10.png","image_id":314,"category_name":"Slate","category":20,"distinct_rating":1.94,"distinct_type":"Bottom","rt":null,"stimulus":"Stimuli_Rocks480/M_Slate_10.png","response":null,"trial_type":"image-keyboard-response","trial_index":203,"plugin_version":"2.1.0","time_elapsed":389212,"subject_id":"88456","group":"Group2","full_date":"2025-12-05T22:04:22.981Z","date":"2025-12-05","time":"22:04:22"},{"rt":null,"stimulus":"<p style=\"font-size: 50px; margin: 0; text-align: center;\">+</p>","response":null,"trial_type":"html-keyboard-response","trial_index":204,"plugin_version":"2.1.0","time_elapsed":390226,"subject_id":"88456","group":"Group2","full_date":"2025-12-05T22:04:22.981Z","date":"2025-12-05","time":"22:04:22"},{"task":"memory_phase","broad_category":"I","image_png":"I_Gabbro_12.png","image_id":60,"category_name":"Gabbro","category":4,"distinct_rating":2.6,"distinct_type":"Bottom","rt":null,"stimulus":"Stimuli_Rocks480/I_Gabbro_12.png","response":null,"trial_type":"image-keyboard-response","trial_index":205,"plugin_version":"2.1.0","time_elapsed":392741,"subject_id":"88456","group":"Group2","full_date":"2025-12-05T22:04:22.981Z","date":"2025-12-05","time":"22:04:22"},{"rt":null,"stimulus":"<p style=\"font-size: 50px; margin: 0; text-align: center;\">+</p>","response":null,"trial_type":"html-keyboard-response","trial_index":206,"plugin_version":"2.1.0","time_elapsed":393752,"subject_id":"88456","group":"Group2","full_date":"2025-12-05T22:04:22.981Z","date":"2025-12-05","time":"22:04:22"},{"task":"memory_phase","broad_category":"M","image_png":"M_Gneiss_15.png","image_id":207,"category_name":"Gneiss","category":13,"distinct_rating":3.11,"distinct_type":"Bottom","rt":null,"stimulus":"Stimuli_Rocks480/M_Gneiss_15.png","response":null,"trial_type":"image-keyboard-response","trial_index":207,"plugin_version":"2.1.0","time_elapsed":396260,"subject_id":"88456","group":"Group2","full_date":"2025-12-05T22:04:22.981Z","date":"2025-12-05","time":"22:04:22"},{"rt":3610,"stimulus":"<p style=\"max-width: 760px; margin: auto; font-size: 35px; line-height: 1.5;\">You have completed 2 study phases. Now, we'll show you all the images again 1 more time.<br><br>Press SPACE to continue</p>","response":" ","trial_type":"html-keyboard-response","trial_index":208,"plugin_version":"2.1.0","time_elapsed":399871,"subject_id":"88456","group":"Group2","full_date":"2025-12-05T22:04:22.981Z","date":"2025-12-05","time":"22:04:22"},{"rt":null,"stimulus":"<p style=\"font-size: 50px; margin: 0; text-align: center;\">+</p>","response":null,"trial_type":"html-keyboard-response","trial_index":209,"plugin_version":"2.1.0","time_elapsed":400885,"subject_id":"88456","group":"Group2","full_date":"2025-12-05T22:04:22.981Z","date":"2025-12-05","time":"22:04:22"},{"task":"memory_phase","broad_category":"M","image_png":"M_Quartzite_12.png","image_id":284,"category_name":"Quartzite","category":18,"distinct_rating":1.92,"distinct_type":"Bottom","rt":null,"stimulus":"Stimuli_Rocks480/M_Quartzite_12.png","response":null,"trial_type":"image-keyboard-response","trial_index":210,"plugin_version":"2.1.0","time_elapsed":403402,"subject_id":"88456","group":"Group2","full_date":"2025-12-05T22:04:22.981Z","date":"2025-12-05","time":"22:04:22"},{"rt":null,"stimulus":"<p style=\"font-size: 50px; margin: 0; text-align: center;\">+</p>","response":null,"trial_type":"html-keyboard-response","trial_index":211,"plugin_version":"2.1.0","time_elapsed":404418,"subject_id":"88456","group":"Group2","full_date":"2025-12-05T22:04:22.981Z","date":"2025-12-05","time":"22:04:22"},{"task":"memory_phase","broad_category":"M","image_png":"M_Slate_04.png","image_id":308,"category_name":"Slate","category":20,"distinct_rating":2.2,"distinct_type":"Bottom","rt":null,"stimulus":"Stimuli_Rocks480/M_Slate_04.png","response":null,"trial_type":"image-keyboard-response","trial_index":212,"plugin_version":"2.1.0","time_elapsed":406925,"subject_id":"88456","group":"Group2","full_date":"2025-12-05T22:04:22.981Z","date":"2025-12-05","time":"22:04:22"},{"rt":null,"stimulus":"<p style=\"font-size: 50px; margin: 0; text-align: center;\">+</p>","response":null,"trial_type":"html-keyboard-response","trial_index":213,"plugin_version":"2.1.0","time_elapsed":407927,"subject_id":"88456","group":"Group2","full_date":"2025-12-05T22:04:22.981Z","date":"2025-12-05","time":"22:04:22"},{"task":"memory_phase","broad_category":"M","image_png":"M_Marble_03.png","image_id":227,"category_name":"Marble","category":15,"distinct_rating":2.67,"distinct_type":"Bottom","rt":null,"stimulus":"Stimuli_Rocks480/M_Marble_03.png","response":null,"trial_type":"image-keyboard-response","trial_index":214,"plugin_version":"2.1.0","time_elapsed":410434,"subject_id":"88456","group":"Group2","full_date":"2025-12-05T22:04:22.981Z","date":"2025-12-05","time":"22:04:22"},{"rt":null,"stimulus":"<p style=\"font-size: 50px; margin: 0; text-align: center;\">+</p>","response":null,"trial_type":"html-keyboard-response","trial_index":215,"plugin_version":"2.1.0","time_elapsed":411444,"subject_id":"88456","group":"Group2","full_date":"2025-12-05T22:04:22.981Z","date":"2025-12-05","time":"22:04:22"},{"task":"memory_phase","broad_category":"I","image_png":"I_Pumice_01.png","image_id":129,"category_name":"Pumice","category":9,"distinct_rating":3.25,"distinct_type":"Bottom","rt":null,"stimulus":"Stimuli_Rocks480/I_Pumice_01.png","response":null,"trial_type":"image-keyboard-response","trial_index":216,"plugin_version":"2.1.0","time_elapsed":413947,"subject_id":"88456","group":"Group2","full_date":"2025-12-05T22:04:22.981Z","date":"2025-12-05","time":"22:04:22"},{"rt":null,"stimulus":"<p style=\"font-size: 50px; margin: 0; text-align: center;\">+</p>","response":null,"trial_type":"html-keyboard-response","trial_index":217,"plugin_version":"2.1.0","time_elapsed":414963,"subject_id":"88456","group":"Group2","full_date":"2025-12-05T22:04:22.981Z","date":"2025-12-05","time":"22:04:22"},{"task":"memory_phase","broad_category":"I","image_png":"I_Diorite_01.png","image_id":33,"category_name":"Diorite","category":3,"distinct_rating":2.97,"distinct_type":"Bottom","rt":null,"stimulus":"Stimuli_Rocks480/I_Diorite_01.png","response":null,"trial_type":"image-keyboard-response","trial_index":218,"plugin_version":"2.1.0","time_elapsed":417472,"subject_id":"88456","group":"Group2","full_date":"2025-12-05T22:04:22.981Z","date":"2025-12-05","time":"22:04:22"},{"rt":null,"stimulus":"<p style=\"font-size: 50px; margin: 0; text-align: center;\">+</p>","response":null,"trial_type":"html-keyboard-response","trial_index":219,"plugin_version":"2.1.0","time_elapsed":418474,"subject_id":"88456","group":"Group2","full_date":"2025-12-05T22:04:22.981Z","date":"2025-12-05","time":"22:04:22"},{"task":"memory_phase","broad_category":"M","image_png":"M_Phyllite_02.png","image_id":258,"category_name":"Phyllite","category":17,"distinct_rating":2.89,"distinct_type":"Bottom","rt":null,"stimulus":"Stimuli_Rocks480/M_Phyllite_02.png","response":null,"trial_type":"image-keyboard-response","trial_index":220,"plugin_version":"2.1.0","time_elapsed":420978,"subject_id":"88456","group":"Group2","full_date":"2025-12-05T22:04:22.981Z","date":"2025-12-05","time":"22:04:22"},{"rt":null,"stimulus":"<p style=\"font-size: 50px; margin: 0; text-align: center;\">+</p>","response":null,"trial_type":"html-keyboard-response","trial_index":221,"plugin_version":"2.1.0","time_elapsed":421987,"subject_id":"88456","group":"Group2","full_date":"2025-12-05T22:04:22.981Z","date":"2025-12-05","time":"22:04:22"},{"task":"memory_phase","broad_category":"S","image_png":"S_Shale_02.png","image_id":466,"category_name":"Shale","category":30,"distinct_rating":2.9,"distinct_type":"Bottom","rt":null,"stimulus":"Stimuli_Rocks480/S_Shale_02.png","response":null,"trial_type":"image-keyboard-response","trial_index":222,"plugin_version":"2.1.0","time_elapsed":424505,"subject_id":"88456","group":"Group2","full_date":"2025-12-05T22:04:22.981Z","date":"2025-12-05","time":"22:04:22"},{"rt":null,"stimulus":"<p style=\"font-size: 50px; margin: 0; text-align: center;\">+</p>","response":null,"trial_type":"html-keyboard-response","trial_index":223,"plugin_version":"2.1.0","time_elapsed":425511,"subject_id":"88456","group":"Group2","full_date":"2025-12-05T22:04:22.981Z","date":"2025-12-05","time":"22:04:22"},{"task":"memory_phase","broad_category":"M","image_png":"M_Phyllite_13.png","image_id":269,"category_name":"Phyllite","category":17,"distinct_rating":2.8,"distinct_type":"Bottom","rt":null,"stimulus":"Stimuli_Rocks480/M_Phyllite_13.png","response":null,"trial_type":"image-keyboard-response","trial_index":224,"plugin_version":"2.1.0","time_elapsed":428025,"subject_id":"88456","group":"Group2","full_date":"2025-12-05T22:04:22.981Z","date":"2025-12-05","time":"22:04:22"},{"rt":null,"stimulus":"<p style=\"font-size: 50px; margin: 0; text-align: center;\">+</p>","response":null,"trial_type":"html-keyboard-response","trial_index":225,"plugin_version":"2.1.0","time_elapsed":429029,"subject_id":"88456","group":"Group2","full_date":"2025-12-05T22:04:22.981Z","date":"2025-12-05","time":"22:04:22"},{"task":"memory_phase","broad_category":"S","image_png":"S_Conglomerate_14.png","image_id":382,"category_name":"Conglomerate","category":24,"distinct_rating":6.86,"distinct_type":"Top","rt":null,"stimulus":"Stimuli_Rocks480/S_Conglomerate_14.png","response":null,"trial_type":"image-keyboard-response","trial_index":226,"plugin_version":"2.1.0","time_elapsed":431545,"subject_id":"88456","group":"Group2","full_date":"2025-12-05T22:04:22.981Z","date":"2025-12-05","time":"22:04:22"},{"rt":null,"stimulus":"<p style=\"font-size: 50px; margin: 0; text-align: center;\">+</p>","response":null,"trial_type":"html-keyboard-response","trial_index":227,"plugin_version":"2.1.0","time_elapsed":432547,"subject_id":"88456","group":"Group2","full_date":"2025-12-05T22:04:22.981Z","date":"2025-12-05","time":"22:04:22"},{"task":"memory_phase","broad_category":"I","image_png":"I_Gabbro_12.png","image_id":60,"category_name":"Gabbro","category":4,"distinct_rating":2.6,"distinct_type":"Bottom","rt":null,"stimulus":"Stimuli_Rocks480/I_Gabbro_12.png","response":null,"trial_type":"image-keyboard-response","trial_index":228,"plugin_version":"2.1.0","time_elapsed":435057,"subject_id":"88456","group":"Group2","full_date":"2025-12-05T22:04:22.981Z","date":"2025-12-05","time":"22:04:22"},{"rt":null,"stimulus":"<p style=\"font-size: 50px; margin: 0; text-align: center;\">+</p>","response":null,"trial_type":"html-keyboard-response","trial_index":229,"plugin_version":"2.1.0","time_elapsed":436070,"subject_id":"88456","group":"Group2","full_date":"2025-12-05T22:04:22.981Z","date":"2025-12-05","time":"22:04:22"},{"task":"memory_phase","broad_category":"I","image_png":"I_Pumice_14.png","image_id":142,"category_name":"Pumice","category":9,"distinct_rating":3.22,"distinct_type":"Bottom","rt":null,"stimulus":"Stimuli_Rocks480/I_Pumice_14.png","response":null,"trial_type":"image-keyboard-response","trial_index":230,"plugin_version":"2.1.0","time_elapsed":438586,"subject_id":"88456","group":"Group2","full_date":"2025-12-05T22:04:22.981Z","date":"2025-12-05","time":"22:04:22"},{"rt":null,"stimulus":"<p style=\"font-size: 50px; margin: 0; text-align: center;\">+</p>","response":null,"trial_type":"html-keyboard-response","trial_index":231,"plugin_version":"2.1.0","time_elapsed":439604,"subject_id":"88456","group":"Group2","full_date":"2025-12-05T22:04:22.981Z","date":"2025-12-05","time":"22:04:22"},{"task":"memory_phase","broad_category":"S","image_png":"S_Dolomite_07.png","image_id":391,"category_name":"Dolomite","category":25,"distinct_rating":1.73,"distinct_type":"Bottom","rt":null,"stimulus":"Stimuli_Rocks480/S_Dolomite_07.png","response":null,"trial_type":"image-keyboard-response","trial_index":232,"plugin_version":"2.1.0","time_elapsed":442122,"subject_id":"88456","group":"Group2","full_date":"2025-12-05T22:04:22.981Z","date":"2025-12-05","time":"22:04:22"},{"rt":null,"stimulus":"<p style=\"font-size: 50px; margin: 0; text-align: center;\">+</p>","response":null,"trial_type":"html-keyboard-response","trial_index":233,"plugin_version":"2.1.0","time_elapsed":443138,"subject_id":"88456","group":"Group2","full_date":"2025-12-05T22:04:22.981Z","date":"2025-12-05","time":"22:04:22"},{"task":"memory_phase","broad_category":"M","image_png":"M_Gneiss_15.png","image_id":207,"category_name":"Gneiss","category":13,"distinct_rating":3.11,"distinct_type":"Bottom","rt":null,"stimulus":"Stimuli_Rocks480/M_Gneiss_15.png","response":null,"trial_type":"image-keyboard-response","trial_index":234,"plugin_version":"2.1.0","time_elapsed":445655,"subject_id":"88456","group":"Group2","full_date":"2025-12-05T22:04:22.981Z","date":"2025-12-05","time":"22:04:22"},{"rt":null,"stimulus":"<p style=\"font-size: 50px; margin: 0; text-align: center;\">+</p>","response":null,"trial_type":"html-keyboard-response","trial_index":235,"plugin_version":"2.1.0","time_elapsed":446668,"subject_id":"88456","group":"Group2","full_date":"2025-12-05T22:04:22.981Z","date":"2025-12-05","time":"22:04:22"},{"task":"memory_phase","broad_category":"I","image_png":"I_Rhyolite_05.png","image_id":149,"category_name":"Rhyolite","category":10,"distinct_rating":3.02,"distinct_type":"Bottom","rt":null,"stimulus":"Stimuli_Rocks480/I_Rhyolite_05.png","response":null,"trial_type":"image-keyboard-response","trial_index":236,"plugin_version":"2.1.0","time_elapsed":449184,"subject_id":"88456","group":"Group2","full_date":"2025-12-05T22:04:22.981Z","date":"2025-12-05","time":"22:04:22"},{"rt":null,"stimulus":"<p style=\"font-size: 50px; margin: 0; text-align: center;\">+</p>","response":null,"trial_type":"html-keyboard-response","trial_index":237,"plugin_version":"2.1.0","time_elapsed":450192,"subject_id":"88456","group":"Group2","full_date":"2025-12-05T22:04:22.981Z","date":"2025-12-05","time":"22:04:22"},{"task":"memory_phase","broad_category":"I","image_png":"I_Basalt_10.png","image_id":26,"category_name":"Basalt","category":2,"distinct_rating":2.76,"distinct_type":"Bottom","rt":null,"stimulus":"Stimuli_Rocks480/I_Basalt_10.png","response":null,"trial_type":"image-keyboard-response","trial_index":238,"plugin_version":"2.1.0","time_elapsed":452698,"subject_id":"88456","group":"Group2","full_date":"2025-12-05T22:04:22.981Z","date":"2025-12-05","time":"22:04:22"},{"rt":null,"stimulus":"<p style=\"font-size: 50px; margin: 0; text-align: center;\">+</p>","response":null,"trial_type":"html-keyboard-response","trial_index":239,"plugin_version":"2.1.0","time_elapsed":453702,"subject_id":"88456","group":"Group2","full_date":"2025-12-05T22:04:22.981Z","date":"2025-12-05","time":"22:04:22"},{"task":"memory_phase","broad_category":"M","image_png":"M_Quartzite_15.png","image_id":287,"category_name":"Quartzite","category":18,"distinct_rating":2.19,"distinct_type":"Bottom","rt":null,"stimulus":"Stimuli_Rocks480/M_Quartzite_15.png","response":null,"trial_type":"image-keyboard-response","trial_index":240,"plugin_version":"2.1.0","time_elapsed":456211,"subject_id":"88456","group":"Group2","full_date":"2025-12-05T22:04:22.981Z","date":"2025-12-05","time":"22:04:22"},{"rt":null,"stimulus":"<p style=\"font-size: 50px; margin: 0; text-align: center;\">+</p>","response":null,"trial_type":"html-keyboard-response","trial_index":241,"plugin_version":"2.1.0","time_elapsed":457218,"subject_id":"88456","group":"Group2","full_date":"2025-12-05T22:04:22.981Z","date":"2025-12-05","time":"22:04:22"},{"task":"memory_phase","broad_category":"I","image_png":"I_Gabbro_02.png","image_id":50,"category_name":"Gabbro","category":4,"distinct_rating":2.73,"distinct_type":"Bottom","rt":null,"stimulus":"Stimuli_Rocks480/I_Gabbro_02.png","response":null,"trial_type":"image-keyboard-response","trial_index":242,"plugin_version":"2.1.0","time_elapsed":459730,"subject_id":"88456","group":"Group2","full_date":"2025-12-05T22:04:22.981Z","date":"2025-12-05","time":"22:04:22"},{"rt":null,"stimulus":"<p style=\"font-size: 50px; margin: 0; text-align: center;\">+</p>","response":null,"trial_type":"html-keyboard-response","trial_index":243,"plugin_version":"2.1.0","time_elapsed":460743,"subject_id":"88456","group":"Group2","full_date":"2025-12-05T22:04:22.981Z","date":"2025-12-05","time":"22:04:22"},{"task":"memory_phase","broad_category":"S","image_png":"S_Sandstone_08.png","image_id":456,"category_name":"Sandstone","category":29,"distinct_rating":1.5,"distinct_type":"Bottom","rt":null,"stimulus":"Stimuli_Rocks480/S_Sandstone_08.png","response":null,"trial_type":"image-keyboard-response","trial_index":244,"plugin_version":"2.1.0","time_elapsed":463255,"subject_id":"88456","group":"Group2","full_date":"2025-12-05T22:04:22.981Z","date":"2025-12-05","time":"22:04:22"},{"rt":null,"stimulus":"<p style=\"font-size: 50px; margin: 0; text-align: center;\">+</p>","response":null,"trial_type":"html-keyboard-response","trial_index":245,"plugin_version":"2.1.0","time_elapsed":464267,"subject_id":"88456","group":"Group2","full_date":"2025-12-05T22:04:22.981Z","date":"2025-12-05","time":"22:04:22"},{"task":"memory_phase","broad_category":"I","image_png":"I_Peridotite_13.png","image_id":125,"category_name":"Peridotite","category":8,"distinct_rating":7.28,"distinct_type":"Top","rt":null,"stimulus":"Stimuli_Rocks480/I_Peridotite_13.png","response":null,"trial_type":"image-keyboard-response","trial_index":246,"plugin_version":"2.1.0","time_elapsed":466777,"subject_id":"88456","group":"Group2","full_date":"2025-12-05T22:04:22.981Z","date":"2025-12-05","time":"22:04:22"},{"rt":null,"stimulus":"<p style=\"font-size: 50px; margin: 0; text-align: center;\">+</p>","response":null,"trial_type":"html-keyboard-response","trial_index":247,"plugin_version":"2.1.0","time_elapsed":467792,"subject_id":"88456","group":"Group2","full_date":"2025-12-05T22:04:22.981Z","date":"2025-12-05","time":"22:04:22"},{"task":"memory_phase","broad_category":"M","image_png":"M_Gneiss_10.png","image_id":202,"category_name":"Gneiss","category":13,"distinct_rating":3.09,"distinct_type":"Bottom","rt":null,"stimulus":"Stimuli_Rocks480/M_Gneiss_10.png","response":null,"trial_type":"image-keyboard-response","trial_index":248,"plugin_version":"2.1.0","time_elapsed":470296,"subject_id":"88456","gr