[{"width":1440,"height":778,"webaudio":true,"browser":"chrome","browser_version":"128.0.0","mobile":false,"os":"Mac OS","fullscreen":true,"vsync_rate":61.8,"webcam":true,"microphone":true,"trial_type":"browser-check","trial_index":0,"plugin_version":"2.1.0","time_elapsed":1009,"subject_id":"86818","group":"Group2","full_date":"2025-11-26T23:43:33.177Z","date":"2025-11-26","time":"23:43:33"},{"success":true,"timeout":false,"failed_images":[],"failed_audio":[],"failed_video":[],"trial_type":"preload","trial_index":1,"plugin_version":"2.1.0","time_elapsed":16891,"subject_id":"86818","group":"Group2","full_date":"2025-11-26T23:43:33.177Z","date":"2025-11-26","time":"23:43:33"},{"rt":7062,"url":"SONA_consent_memorability.html","trial_type":"external-html","trial_index":2,"plugin_version":"2.1.0","time_elapsed":24020,"subject_id":"86818","group":"Group2","full_date":"2025-11-26T23:43:33.177Z","date":"2025-11-26","time":"23:43:33"},{"success":true,"rt":2275,"trial_type":"fullscreen","trial_index":3,"plugin_version":"2.1.0","time_elapsed":27301,"subject_id":"86818","group":"Group2","full_date":"2025-11-26T23:43:33.177Z","date":"2025-11-26","time":"23:43:33"},{"rt":21501,"stimulus":"<div style=\"max-width: 760px; margin: auto; font-size: 20px; line-height: 1.5;\">\n      <h1 style=\"text-align:center; font-size: 30px;\">Instructions</h1>\n      <p>\n        Welcome to the study on <b>visual memory</b>. This experiment consists of <b>two phases</b>: \n        a <b>study phase</b> and a <b>test phase</b>.\n      </p>\n      <p>\n        In the study phase, you will see a series of rock images along with their category labels.\n        The images will appear one at a time.\n        <b>Your task</b> is to learn the categories to which the rock images belong \n        and to remember each image as accurately as possible.\n      </p> \n      <p>\n        Note that we will repeat the study phase <b>3 times</b>, \n        so you will have multiple opportunities to see and remember each image.\n      </p>\n      <p>\n        After the study phase, <b>your memory will be tested</b>. \n        Additional instructions for the test phase will be provided at that time.\n      </p>\n      <p>\n        If your computer has multiple <b>language settings</b> (e.g., English and another language),\n        please make sure it is set to English before starting.\n      </p>\n      <p>\n        You can track your progress using the <b>completion bar</b> at the top of the screen. \n        Please note that the bar will refresh when the test phase begins \n        to give you an accurate sense of your progress in both phases.\n      </p> \n      <p>\n        Press the button below when you are ready to begin.\n      </p>\n    </div>","response":0,"trial_type":"html-button-response","trial_index":4,"plugin_version":"2.1.0","time_elapsed":48805,"subject_id":"86818","group":"Group2","full_date":"2025-11-26T23:43:33.177Z","date":"2025-11-26","time":"23:43:33"},{"rt":null,"stimulus":"<p style=\"font-size: 50px; margin: 0; text-align: center;\">+</p>","response":null,"trial_type":"html-keyboard-response","trial_index":5,"plugin_version":"2.1.0","time_elapsed":49809,"subject_id":"86818","group":"Group2","full_date":"2025-11-26T23:43:33.177Z","date":"2025-11-26","time":"23:43:33"},{"task":"memory_phase","broad_category":"I","image_png":"I_Gabbro_02.png","image_id":50,"category_name":"Gabbro","category":4,"distinct_rating":2.73,"distinct_type":"Bottom","rt":null,"stimulus":"Stimuli_Rocks480/I_Gabbro_02.png","response":null,"trial_type":"image-keyboard-response","trial_index":6,"plugin_version":"2.1.0","time_elapsed":52316,"subject_id":"86818","group":"Group2","full_date":"2025-11-26T23:43:33.177Z","date":"2025-11-26","time":"23:43:33"},{"rt":null,"stimulus":"<p style=\"font-size: 50px; margin: 0; text-align: center;\">+</p>","response":null,"trial_type":"html-keyboard-response","trial_index":7,"plugin_version":"2.1.0","time_elapsed":53317,"subject_id":"86818","group":"Group2","full_date":"2025-11-26T23:43:33.177Z","date":"2025-11-26","time":"23:43:33"},{"task":"memory_phase","broad_category":"M","image_png":"M_Gneiss_10.png","image_id":202,"category_name":"Gneiss","category":13,"distinct_rating":3.09,"distinct_type":"Bottom","rt":null,"stimulus":"Stimuli_Rocks480/M_Gneiss_10.png","response":null,"trial_type":"image-keyboard-response","trial_index":8,"plugin_version":"2.1.0","time_elapsed":55820,"subject_id":"86818","group":"Group2","full_date":"2025-11-26T23:43:33.177Z","date":"2025-11-26","time":"23:43:33"},{"rt":null,"stimulus":"<p style=\"font-size: 50px; margin: 0; text-align: center;\">+</p>","response":null,"trial_type":"html-keyboard-response","trial_index":9,"plugin_version":"2.1.0","time_elapsed":56823,"subject_id":"86818","group":"Group2","full_date":"2025-11-26T23:43:33.177Z","date":"2025-11-26","time":"23:43:33"},{"task":"memory_phase","broad_category":"S","image_png":"S_Shale_07.png","image_id":471,"category_name":"Shale","category":30,"distinct_rating":2.73,"distinct_type":"Bottom","rt":null,"stimulus":"Stimuli_Rocks480/S_Shale_07.png","response":null,"trial_type":"image-keyboard-response","trial_index":10,"plugin_version":"2.1.0","time_elapsed":59327,"subject_id":"86818","group":"Group2","full_date":"2025-11-26T23:43:33.177Z","date":"2025-11-26","time":"23:43:33"},{"rt":null,"stimulus":"<p style=\"font-size: 50px; margin: 0; text-align: center;\">+</p>","response":null,"trial_type":"html-keyboard-response","trial_index":11,"plugin_version":"2.1.0","time_elapsed":60330,"subject_id":"86818","group":"Group2","full_date":"2025-11-26T23:43:33.177Z","date":"2025-11-26","time":"23:43:33"},{"task":"memory_phase","broad_category":"I","image_png":"I_Andesite_09.png","image_id":9,"category_name":"Andesite","category":1,"distinct_rating":2.49,"distinct_type":"Bottom","rt":null,"stimulus":"Stimuli_Rocks480/I_Andesite_09.png","response":null,"trial_type":"image-keyboard-response","trial_index":12,"plugin_version":"2.1.0","time_elapsed":62834,"subject_id":"86818","group":"Group2","full_date":"2025-11-26T23:43:33.177Z","date":"2025-11-26","time":"23:43:33"},{"rt":null,"stimulus":"<p style=\"font-size: 50px; margin: 0; text-align: center;\">+</p>","response":null,"trial_type":"html-keyboard-response","trial_index":13,"plugin_version":"2.1.0","time_elapsed":63836,"subject_id":"86818","group":"Group2","full_date":"2025-11-26T23:43:33.177Z","date":"2025-11-26","time":"23:43:33"},{"task":"memory_phase","broad_category":"I","image_png":"I_Andesite_03.png","image_id":3,"category_name":"Andesite","category":1,"distinct_rating":3.17,"distinct_type":"Bottom","rt":null,"stimulus":"Stimuli_Rocks480/I_Andesite_03.png","response":null,"trial_type":"image-keyboard-response","trial_index":14,"plugin_version":"2.1.0","time_elapsed":66340,"subject_id":"86818","group":"Group2","full_date":"2025-11-26T23:43:33.177Z","date":"2025-11-26","time":"23:43:33"},{"rt":null,"stimulus":"<p style=\"font-size: 50px; margin: 0; text-align: center;\">+</p>","response":null,"trial_type":"html-keyboard-response","trial_index":15,"plugin_version":"2.1.0","time_elapsed":67343,"subject_id":"86818","group":"Group2","full_date":"2025-11-26T23:43:33.177Z","date":"2025-11-26","time":"23:43:33"},{"task":"memory_phase","broad_category":"I","image_png":"I_Pumice_14.png","image_id":142,"category_name":"Pumice","category":9,"distinct_rating":3.22,"distinct_type":"Bottom","rt":null,"stimulus":"Stimuli_Rocks480/I_Pumice_14.png","response":null,"trial_type":"image-keyboard-response","trial_index":16,"plugin_version":"2.1.0","time_elapsed":69847,"subject_id":"86818","group":"Group2","full_date":"2025-11-26T23:43:33.177Z","date":"2025-11-26","time":"23:43:33"},{"rt":null,"stimulus":"<p style=\"font-size: 50px; margin: 0; text-align: center;\">+</p>","response":null,"trial_type":"html-keyboard-response","trial_index":17,"plugin_version":"2.1.0","time_elapsed":70849,"subject_id":"86818","group":"Group2","full_date":"2025-11-26T23:43:33.177Z","date":"2025-11-26","time":"23:43:33"},{"task":"memory_phase","broad_category":"I","image_png":"I_Basalt_10.png","image_id":26,"category_name":"Basalt","category":2,"distinct_rating":2.76,"distinct_type":"Bottom","rt":null,"stimulus":"Stimuli_Rocks480/I_Basalt_10.png","response":null,"trial_type":"image-keyboard-response","trial_index":18,"plugin_version":"2.1.0","time_elapsed":73352,"subject_id":"86818","group":"Group2","full_date":"2025-11-26T23:43:33.177Z","date":"2025-11-26","time":"23:43:33"},{"rt":null,"stimulus":"<p style=\"font-size: 50px; margin: 0; text-align: center;\">+</p>","response":null,"trial_type":"html-keyboard-response","trial_index":19,"plugin_version":"2.1.0","time_elapsed":74358,"subject_id":"86818","group":"Group2","full_date":"2025-11-26T23:43:33.177Z","date":"2025-11-26","time":"23:43:33"},{"task":"memory_phase","broad_category":"S","image_png":"S_Sandstone_08.png","image_id":456,"category_name":"Sandstone","category":29,"distinct_rating":1.5,"distinct_type":"Bottom","rt":null,"stimulus":"Stimuli_Rocks480/S_Sandstone_08.png","response":null,"trial_type":"image-keyboard-response","trial_index":20,"plugin_version":"2.1.0","time_elapsed":76862,"subject_id":"86818","group":"Group2","full_date":"2025-11-26T23:43:33.177Z","date":"2025-11-26","time":"23:43:33"},{"rt":null,"stimulus":"<p style=\"font-size: 50px; margin: 0; text-align: center;\">+</p>","response":null,"trial_type":"html-keyboard-response","trial_index":21,"plugin_version":"2.1.0","time_elapsed":77865,"subject_id":"86818","group":"Group2","full_date":"2025-11-26T23:43:33.177Z","date":"2025-11-26","time":"23:43:33"},{"task":"memory_phase","broad_category":"I","image_png":"I_Basalt_13.png","image_id":29,"category_name":"Basalt","category":2,"distinct_rating":2.68,"distinct_type":"Bottom","rt":null,"stimulus":"Stimuli_Rocks480/I_Basalt_13.png","response":null,"trial_type":"image-keyboard-response","trial_index":22,"plugin_version":"2.1.0","time_elapsed":80368,"subject_id":"86818","group":"Group2","full_date":"2025-11-26T23:43:33.177Z","date":"2025-11-26","time":"23:43:33"},{"rt":null,"stimulus":"<p style=\"font-size: 50px; margin: 0; text-align: center;\">+</p>","response":null,"trial_type":"html-keyboard-response","trial_index":23,"plugin_version":"2.1.0","time_elapsed":81371,"subject_id":"86818","group":"Group2","full_date":"2025-11-26T23:43:33.177Z","date":"2025-11-26","time":"23:43:33"},{"task":"memory_phase","broad_category":"I","image_png":"I_Pumice_01.png","image_id":129,"category_name":"Pumice","category":9,"distinct_rating":3.25,"distinct_type":"Bottom","rt":null,"stimulus":"Stimuli_Rocks480/I_Pumice_01.png","response":null,"trial_type":"image-keyboard-response","trial_index":24,"plugin_version":"2.1.0","time_elapsed":83875,"subject_id":"86818","group":"Group2","full_date":"2025-11-26T23:43:33.177Z","date":"2025-11-26","time":"23:43:33"},{"rt":null,"stimulus":"<p style=\"font-size: 50px; margin: 0; text-align: center;\">+</p>","response":null,"trial_type":"html-keyboard-response","trial_index":25,"plugin_version":"2.1.0","time_elapsed":84877,"subject_id":"86818","group":"Group2","full_date":"2025-11-26T23:43:33.177Z","date":"2025-11-26","time":"23:43:33"},{"task":"memory_phase","broad_category":"I","image_png":"I_Diorite_15.png","image_id":47,"category_name":"Diorite","category":3,"distinct_rating":3.05,"distinct_type":"Bottom","rt":null,"stimulus":"Stimuli_Rocks480/I_Diorite_15.png","response":null,"trial_type":"image-keyboard-response","trial_index":26,"plugin_version":"2.1.0","time_elapsed":87380,"subject_id":"86818","group":"Group2","full_date":"2025-11-26T23:43:33.177Z","date":"2025-11-26","time":"23:43:33"},{"rt":null,"stimulus":"<p style=\"font-size: 50px; margin: 0; text-align: center;\">+</p>","response":null,"trial_type":"html-keyboard-response","trial_index":27,"plugin_version":"2.1.0","time_elapsed":88382,"subject_id":"86818","group":"Group2","full_date":"2025-11-26T23:43:33.177Z","date":"2025-11-26","time":"23:43:33"},{"task":"memory_phase","broad_category":"S","image_png":"S_Dolomite_16.png","image_id":400,"category_name":"Dolomite","category":25,"distinct_rating":1.71,"distinct_type":"Bottom","rt":null,"stimulus":"Stimuli_Rocks480/S_Dolomite_16.png","response":null,"trial_type":"image-keyboard-response","trial_index":28,"plugin_version":"2.1.0","time_elapsed":90884,"subject_id":"86818","group":"Group2","full_date":"2025-11-26T23:43:33.177Z","date":"2025-11-26","time":"23:43:33"},{"rt":null,"stimulus":"<p style=\"font-size: 50px; margin: 0; text-align: center;\">+</p>","response":null,"trial_type":"html-keyboard-response","trial_index":29,"plugin_version":"2.1.0","time_elapsed":91887,"subject_id":"86818","group":"Group2","full_date":"2025-11-26T23:43:33.177Z","date":"2025-11-26","time":"23:43:33"},{"task":"memory_phase","broad_category":"S","image_png":"S_Rock Salt_13.png","image_id":445,"category_name":"Rock Salt","category":28,"distinct_rating":7.58,"distinct_type":"Top","rt":null,"stimulus":"Stimuli_Rocks480/S_Rock Salt_13.png","response":null,"trial_type":"image-keyboard-response","trial_index":30,"plugin_version":"2.1.0","time_elapsed":94391,"subject_id":"86818","group":"Group2","full_date":"2025-11-26T23:43:33.177Z","date":"2025-11-26","time":"23:43:33"},{"rt":null,"stimulus":"<p style=\"font-size: 50px; margin: 0; text-align: center;\">+</p>","response":null,"trial_type":"html-keyboard-response","trial_index":31,"plugin_version":"2.1.0","time_elapsed":95392,"subject_id":"86818","group":"Group2","full_date":"2025-11-26T23:43:33.177Z","date":"2025-11-26","time":"23:43:33"},{"task":"memory_phase","broad_category":"M","image_png":"M_Slate_14.png","image_id":318,"category_name":"Slate","category":20,"distinct_rating":2.58,"distinct_type":"Bottom","rt":null,"stimulus":"Stimuli_Rocks480/M_Slate_14.png","response":null,"trial_type":"image-keyboard-response","trial_index":32,"plugin_version":"2.1.0","time_elapsed":97896,"subject_id":"86818","group":"Group2","full_date":"2025-11-26T23:43:33.177Z","date":"2025-11-26","time":"23:43:33"},{"rt":null,"stimulus":"<p style=\"font-size: 50px; margin: 0; text-align: center;\">+</p>","response":null,"trial_type":"html-keyboard-response","trial_index":33,"plugin_version":"2.1.0","time_elapsed":98898,"subject_id":"86818","group":"Group2","full_date":"2025-11-26T23:43:33.177Z","date":"2025-11-26","time":"23:43:33"},{"task":"memory_phase","broad_category":"I","image_png":"I_Peridotite_13.png","image_id":125,"category_name":"Peridotite","category":8,"distinct_rating":7.28,"distinct_type":"Top","rt":null,"stimulus":"Stimuli_Rocks480/I_Peridotite_13.png","response":null,"trial_type":"image-keyboard-response","trial_index":34,"plugin_version":"2.1.0","time_elapsed":101402,"subject_id":"86818","group":"Group2","full_date":"2025-11-26T23:43:33.177Z","date":"2025-11-26","time":"23:43:33"},{"rt":null,"stimulus":"<p style=\"font-size: 50px; margin: 0; text-align: center;\">+</p>","response":null,"trial_type":"html-keyboard-response","trial_index":35,"plugin_version":"2.1.0","time_elapsed":102404,"subject_id":"86818","group":"Group2","full_date":"2025-11-26T23:43:33.177Z","date":"2025-11-26","time":"23:43:33"},{"task":"memory_phase","broad_category":"S","image_png":"S_Sandstone_11.png","image_id":459,"category_name":"Sandstone","category":29,"distinct_rating":1.82,"distinct_type":"Bottom","rt":null,"stimulus":"Stimuli_Rocks480/S_Sandstone_11.png","response":null,"trial_type":"image-keyboard-response","trial_index":36,"plugin_version":"2.1.0","time_elapsed":104908,"subject_id":"86818","group":"Group2","full_date":"2025-11-26T23:43:33.177Z","date":"2025-11-26","time":"23:43:33"},{"rt":null,"stimulus":"<p style=\"font-size: 50px; margin: 0; text-align: center;\">+</p>","response":null,"trial_type":"html-keyboard-response","trial_index":37,"plugin_version":"2.1.0","time_elapsed":105910,"subject_id":"86818","group":"Group2","full_date":"2025-11-26T23:43:33.177Z","date":"2025-11-26","time":"23:43:33"},{"task":"memory_phase","broad_category":"I","image_png":"I_Pumice_13.png","image_id":141,"category_name":"Pumice","category":9,"distinct_rating":3.12,"distinct_type":"Bottom","rt":null,"stimulus":"Stimuli_Rocks480/I_Pumice_13.png","response":null,"trial_type":"image-keyboard-response","trial_index":38,"plugin_version":"2.1.0","time_elapsed":108413,"subject_id":"86818","group":"Group2","full_date":"2025-11-26T23:43:33.177Z","date":"2025-11-26","time":"23:43:33"},{"rt":null,"stimulus":"<p style=\"font-size: 50px; margin: 0; text-align: center;\">+</p>","response":null,"trial_type":"html-keyboard-response","trial_index":39,"plugin_version":"2.1.0","time_elapsed":109415,"subject_id":"86818","group":"Group2","full_date":"2025-11-26T23:43:33.177Z","date":"2025-11-26","time":"23:43:33"},{"task":"memory_phase","broad_category":"I","image_png":"I_Diorite_01.png","image_id":33,"category_name":"Diorite","category":3,"distinct_rating":2.97,"distinct_type":"Bottom","rt":null,"stimulus":"Stimuli_Rocks480/I_Diorite_01.png","response":null,"trial_type":"image-keyboard-response","trial_index":40,"plugin_version":"2.1.0","time_elapsed":111917,"subject_id":"86818","group":"Group2","full_date":"2025-11-26T23:43:33.177Z","date":"2025-11-26","time":"23:43:33"},{"rt":null,"stimulus":"<p style=\"font-size: 50px; margin: 0; text-align: center;\">+</p>","response":null,"trial_type":"html-keyboard-response","trial_index":41,"plugin_version":"2.1.0","time_elapsed":112920,"subject_id":"86818","group":"Group2","full_date":"2025-11-26T23:43:33.177Z","date":"2025-11-26","time":"23:43:33"},{"task":"memory_phase","broad_category":"M","image_png":"M_Marble_03.png","image_id":227,"category_name":"Marble","category":15,"distinct_rating":2.67,"distinct_type":"Bottom","rt":null,"stimulus":"Stimuli_Rocks480/M_Marble_03.png","response":null,"trial_type":"image-keyboard-response","trial_index":42,"plugin_version":"2.1.0","time_elapsed":115423,"subject_id":"86818","group":"Group2","full_date":"2025-11-26T23:43:33.177Z","date":"2025-11-26","time":"23:43:33"},{"rt":null,"stimulus":"<p style=\"font-size: 50px; margin: 0; text-align: center;\">+</p>","response":null,"trial_type":"html-keyboard-response","trial_index":43,"plugin_version":"2.1.0","time_elapsed":116426,"subject_id":"86818","group":"Group2","full_date":"2025-11-26T23:43:33.177Z","date":"2025-11-26","time":"23:43:33"},{"task":"memory_phase","broad_category":"I","image_png":"I_Rhyolite_08.png","image_id":152,"category_name":"Rhyolite","category":10,"distinct_rating":1.38,"distinct_type":"Bottom","rt":null,"stimulus":"Stimuli_Rocks480/I_Rhyolite_08.png","response":null,"trial_type":"image-keyboard-response","trial_index":44,"plugin_version":"2.1.0","time_elapsed":118929,"subject_id":"86818","group":"Group2","full_date":"2025-11-26T23:43:33.177Z","date":"2025-11-26","time":"23:43:33"},{"rt":null,"stimulus":"<p style=\"font-size: 50px; margin: 0; text-align: center;\">+</p>","response":null,"trial_type":"html-keyboard-response","trial_index":45,"plugin_version":"2.1.0","time_elapsed":119932,"subject_id":"86818","group":"Group2","full_date":"2025-11-26T23:43:33.177Z","date":"2025-11-26","time":"23:43:33"},{"task":"memory_phase","broad_category":"M","image_png":"M_Quartzite_15.png","image_id":287,"category_name":"Quartzite","category":18,"distinct_rating":2.19,"distinct_type":"Bottom","rt":null,"stimulus":"Stimuli_Rocks480/M_Quartzite_15.png","response":null,"trial_type":"image-keyboard-response","trial_index":46,"plugin_version":"2.1.0","time_elapsed":122435,"subject_id":"86818","group":"Group2","full_date":"2025-11-26T23:43:33.177Z","date":"2025-11-26","time":"23:43:33"},{"rt":null,"stimulus":"<p style=\"font-size: 50px; margin: 0; text-align: center;\">+</p>","response":null,"trial_type":"html-keyboard-response","trial_index":47,"plugin_version":"2.1.0","time_elapsed":123437,"subject_id":"86818","group":"Group2","full_date":"2025-11-26T23:43:33.177Z","date":"2025-11-26","time":"23:43:33"},{"task":"memory_phase","broad_category":"S","image_png":"S_Shale_03.png","image_id":467,"category_name":"Shale","category":30,"distinct_rating":1.95,"distinct_type":"Bottom","rt":null,"stimulus":"Stimuli_Rocks480/S_Shale_03.png","response":null,"trial_type":"image-keyboard-response","trial_index":48,"plugin_version":"2.1.0","time_elapsed":125940,"subject_id":"86818","group":"Group2","full_date":"2025-11-26T23:43:33.177Z","date":"2025-11-26","time":"23:43:33"},{"rt":null,"stimulus":"<p style=\"font-size: 50px; margin: 0; text-align: center;\">+</p>","response":null,"trial_type":"html-keyboard-response","trial_index":49,"plugin_version":"2.1.0","time_elapsed":126942,"subject_id":"86818","group":"Group2","full_date":"2025-11-26T23:43:33.177Z","date":"2025-11-26","time":"23:43:33"},{"task":"memory_phase","broad_category":"M","image_png":"M_Marble_14.png","image_id":238,"category_name":"Marble","category":15,"distinct_rating":3.31,"distinct_type":"Bottom","rt":null,"stimulus":"Stimuli_Rocks480/M_Marble_14.png","response":null,"trial_type":"image-keyboard-response","trial_index":50,"plugin_version":"2.1.0","time_elapsed":129446,"subject_id":"86818","group":"Group2","full_date":"2025-11-26T23:43:33.177Z","date":"2025-11-26","time":"23:43:33"},{"rt":null,"stimulus":"<p style=\"font-size: 50px; margin: 0; text-align: center;\">+</p>","response":null,"trial_type":"html-keyboard-response","trial_index":51,"plugin_version":"2.1.0","time_elapsed":130449,"subject_id":"86818","group":"Group2","full_date":"2025-11-26T23:43:33.177Z","date":"2025-11-26","time":"23:43:33"},{"task":"memory_phase","broad_category":"I","image_png":"I_Obsidian_06.png","image_id":86,"category_name":"Obsidian","category":6,"distinct_rating":8.01,"distinct_type":"Top","rt":null,"stimulus":"Stimuli_Rocks480/I_Obsidian_06.png","response":null,"trial_type":"image-keyboard-response","trial_index":52,"plugin_version":"2.1.0","time_elapsed":132951,"subject_id":"86818","group":"Group2","full_date":"2025-11-26T23:43:33.177Z","date":"2025-11-26","time":"23:43:33"},{"rt":null,"stimulus":"<p style=\"font-size: 50px; margin: 0; text-align: center;\">+</p>","response":null,"trial_type":"html-keyboard-response","trial_index":53,"plugin_version":"2.1.0","time_elapsed":133954,"subject_id":"86818","group":"Group2","full_date":"2025-11-26T23:43:33.177Z","date":"2025-11-26","time":"23:43:33"},{"task":"memory_phase","broad_category":"S","image_png":"S_Conglomerate_14.png","image_id":382,"category_name":"Conglomerate","category":24,"distinct_rating":6.86,"distinct_type":"Top","rt":null,"stimulus":"Stimuli_Rocks480/S_Conglomerate_14.png","response":null,"trial_type":"image-keyboard-response","trial_index":54,"plugin_version":"2.1.0","time_elapsed":136457,"subject_id":"86818","group":"Group2","full_date":"2025-11-26T23:43:33.177Z","date":"2025-11-26","time":"23:43:33"},{"rt":11594,"stimulus":"<p style=\"max-width: 760px; margin: auto; font-size: 35px; line-height: 1.5;\">Press SPACE to continue study phase</p>","response":" ","trial_type":"html-keyboard-response","trial_index":55,"plugin_version":"2.1.0","time_elapsed":148052,"subject_id":"86818","group":"Group2","full_date":"2025-11-26T23:43:33.177Z","date":"2025-11-26","time":"23:43:33"},{"rt":null,"stimulus":"<p style=\"font-size: 50px; margin: 0; text-align: center;\">+</p>","response":null,"trial_type":"html-keyboard-response","trial_index":56,"plugin_version":"2.1.0","time_elapsed":149055,"subject_id":"86818","group":"Group2","full_date":"2025-11-26T23:43:33.177Z","date":"2025-11-26","time":"23:43:33"},{"task":"memory_phase","broad_category":"S","image_png":"S_Sandstone_04.png","image_id":452,"category_name":"Sandstone","category":29,"distinct_rating":1.8,"distinct_type":"Bottom","rt":null,"stimulus":"Stimuli_Rocks480/S_Sandstone_04.png","response":null,"trial_type":"image-keyboard-response","trial_index":57,"plugin_version":"2.1.0","time_elapsed":151558,"subject_id":"86818","group":"Group2","full_date":"2025-11-26T23:43:33.177Z","date":"2025-11-26","time":"23:43:33"},{"rt":null,"stimulus":"<p style=\"font-size: 50px; margin: 0; text-align: center;\">+</p>","response":null,"trial_type":"html-keyboard-response","trial_index":58,"plugin_version":"2.1.0","time_elapsed":152561,"subject_id":"86818","group":"Group2","full_date":"2025-11-26T23:43:33.177Z","date":"2025-11-26","time":"23:43:33"},{"task":"memory_phase","broad_category":"S","image_png":"S_Rock Salt_15.png","image_id":447,"category_name":"Rock Salt","category":28,"distinct_rating":7.79,"distinct_type":"Top","rt":null,"stimulus":"Stimuli_Rocks480/S_Rock Salt_15.png","response":null,"trial_type":"image-keyboard-response","trial_index":59,"plugin_version":"2.1.0","time_elapsed":155065,"subject_id":"86818","group":"Group2","full_date":"2025-11-26T23:43:33.177Z","date":"2025-11-26","time":"23:43:33"},{"rt":null,"stimulus":"<p style=\"font-size: 50px; margin: 0; text-align: center;\">+</p>","response":null,"trial_type":"html-keyboard-response","trial_index":60,"plugin_version":"2.1.0","time_elapsed":156067,"subject_id":"86818","group":"Group2","full_date":"2025-11-26T23:43:33.177Z","date":"2025-11-26","time":"23:43:33"},{"task":"memory_phase","broad_category":"I","image_png":"I_Gabbro_12.png","image_id":60,"category_name":"Gabbro","category":4,"distinct_rating":2.6,"distinct_type":"Bottom","rt":null,"stimulus":"Stimuli_Rocks480/I_Gabbro_12.png","response":null,"trial_type":"image-keyboard-response","trial_index":61,"plugin_version":"2.1.0","time_elapsed":158571,"subject_id":"86818","group":"Group2","full_date":"2025-11-26T23:43:33.177Z","date":"2025-11-26","time":"23:43:33"},{"rt":null,"stimulus":"<p style=\"font-size: 50px; margin: 0; text-align: center;\">+</p>","response":null,"trial_type":"html-keyboard-response","trial_index":62,"plugin_version":"2.1.0","time_elapsed":159575,"subject_id":"86818","group":"Group2","full_date":"2025-11-26T23:43:33.177Z","date":"2025-11-26","time":"23:43:33"},{"task":"memory_phase","broad_category":"M","image_png":"M_Gneiss_15.png","image_id":207,"category_name":"Gneiss","category":13,"distinct_rating":3.11,"distinct_type":"Bottom","rt":null,"stimulus":"Stimuli_Rocks480/M_Gneiss_15.png","response":null,"trial_type":"image-keyboard-response","trial_index":63,"plugin_version":"2.1.0","time_elapsed":162078,"subject_id":"86818","group":"Group2","full_date":"2025-11-26T23:43:33.177Z","date":"2025-11-26","time":"23:43:33"},{"rt":null,"stimulus":"<p style=\"font-size: 50px; margin: 0; text-align: center;\">+</p>","response":null,"trial_type":"html-keyboard-response","trial_index":64,"plugin_version":"2.1.0","time_elapsed":163082,"subject_id":"86818","group":"Group2","full_date":"2025-11-26T23:43:33.177Z","date":"2025-11-26","time":"23:43:33"},{"task":"memory_phase","broad_category":"I","image_png":"I_Rhyolite_05.png","image_id":149,"category_name":"Rhyolite","category":10,"distinct_rating":3.02,"distinct_type":"Bottom","rt":null,"stimulus":"Stimuli_Rocks480/I_Rhyolite_05.png","response":null,"trial_type":"image-keyboard-response","trial_index":65,"plugin_version":"2.1.0","time_elapsed":165585,"subject_id":"86818","group":"Group2","full_date":"2025-11-26T23:43:33.177Z","date":"2025-11-26","time":"23:43:33"},{"rt":null,"stimulus":"<p style=\"font-size: 50px; margin: 0; text-align: center;\">+</p>","response":null,"trial_type":"html-keyboard-response","trial_index":66,"plugin_version":"2.1.0","time_elapsed":166587,"subject_id":"86818","group":"Group2","full_date":"2025-11-26T23:43:33.177Z","date":"2025-11-26","time":"23:43:33"},{"task":"memory_phase","broad_category":"M","image_png":"M_Quartzite_07.png","image_id":279,"category_name":"Quartzite","category":18,"distinct_rating":1.97,"distinct_type":"Bottom","rt":null,"stimulus":"Stimuli_Rocks480/M_Quartzite_07.png","response":null,"trial_type":"image-keyboard-response","trial_index":67,"plugin_version":"2.1.0","time_elapsed":169090,"subject_id":"86818","group":"Group2","full_date":"2025-11-26T23:43:33.177Z","date":"2025-11-26","time":"23:43:33"},{"rt":null,"stimulus":"<p style=\"font-size: 50px; margin: 0; text-align: center;\">+</p>","response":null,"trial_type":"html-keyboard-response","trial_index":68,"plugin_version":"2.1.0","time_elapsed":170091,"subject_id":"86818","group":"Group2","full_date":"2025-11-26T23:43:33.177Z","date":"2025-11-26","time":"23:43:33"},{"task":"memory_phase","broad_category":"M","image_png":"M_Slate_10.png","image_id":314,"category_name":"Slate","category":20,"distinct_rating":1.94,"distinct_type":"Bottom","rt":null,"stimulus":"Stimuli_Rocks480/M_Slate_10.png","response":null,"trial_type":"image-keyboard-response","trial_index":69,"plugin_version":"2.1.0","time_elapsed":172592,"subject_id":"86818","group":"Group2","full_date":"2025-11-26T23:43:33.177Z","date":"2025-11-26","time":"23:43:33"},{"rt":null,"stimulus":"<p style=\"font-size: 50px; margin: 0; text-align: center;\">+</p>","response":null,"trial_type":"html-keyboard-response","trial_index":70,"plugin_version":"2.1.0","time_elapsed":173594,"subject_id":"86818","group":"Group2","full_date":"2025-11-26T23:43:33.177Z","date":"2025-11-26","time":"23:43:33"},{"task":"memory_phase","broad_category":"M","image_png":"M_Phyllite_13.png","image_id":269,"category_name":"Phyllite","category":17,"distinct_rating":2.8,"distinct_type":"Bottom","rt":null,"stimulus":"Stimuli_Rocks480/M_Phyllite_13.png","response":null,"trial_type":"image-keyboard-response","trial_index":71,"plugin_version":"2.1.0","time_elapsed":176097,"subject_id":"86818","group":"Group2","full_date":"2025-11-26T23:43:33.177Z","date":"2025-11-26","time":"23:43:33"},{"rt":null,"stimulus":"<p style=\"font-size: 50px; margin: 0; text-align: center;\">+</p>","response":null,"trial_type":"html-keyboard-response","trial_index":72,"plugin_version":"2.1.0","time_elapsed":177098,"subject_id":"86818","group":"Group2","full_date":"2025-11-26T23:43:33.177Z","date":"2025-11-26","time":"23:43:33"},{"task":"memory_phase","broad_category":"S","image_png":"S_Dolomite_01.png","image_id":385,"category_name":"Dolomite","category":25,"distinct_rating":1.43,"distinct_type":"Bottom","rt":null,"stimulus":"Stimuli_Rocks480/S_Dolomite_01.png","response":null,"trial_type":"image-keyboard-response","trial_index":73,"plugin_version":"2.1.0","time_elapsed":179600,"subject_id":"86818","group":"Group2","full_date":"2025-11-26T23:43:33.177Z","date":"2025-11-26","time":"23:43:33"},{"rt":null,"stimulus":"<p style=\"font-size: 50px; margin: 0; text-align: center;\">+</p>","response":null,"trial_type":"html-keyboard-response","trial_index":74,"plugin_version":"2.1.0","time_elapsed":180602,"subject_id":"86818","group":"Group2","full_date":"2025-11-26T23:43:33.177Z","date":"2025-11-26","time":"23:43:33"},{"task":"memory_phase","broad_category":"S","image_png":"S_Chert_13.png","image_id":365,"category_name":"Chert","category":23,"distinct_rating":6.57,"distinct_type":"Top","rt":null,"stimulus":"Stimuli_Rocks480/S_Chert_13.png","response":null,"trial_type":"image-keyboard-response","trial_index":75,"plugin_version":"2.1.0","time_elapsed":183105,"subject_id":"86818","group":"Group2","full_date":"2025-11-26T23:43:33.177Z","date":"2025-11-26","time":"23:43:33"},{"rt":null,"stimulus":"<p style=\"font-size: 50px; margin: 0; text-align: center;\">+</p>","response":null,"trial_type":"html-keyboard-response","trial_index":76,"plugin_version":"2.1.0","time_elapsed":184107,"subject_id":"86818","group":"Group2","full_date":"2025-11-26T23:43:33.177Z","date":"2025-11-26","time":"23:43:33"},{"task":"memory_phase","broad_category":"M","image_png":"M_Marble_02.png","image_id":226,"category_name":"Marble","category":15,"distinct_rating":3.2,"distinct_type":"Bottom","rt":null,"stimulus":"Stimuli_Rocks480/M_Marble_02.png","response":null,"trial_type":"image-keyboard-response","trial_index":77,"plugin_version":"2.1.0","time_elapsed":186611,"subject_id":"86818","group":"Group2","full_date":"2025-11-26T23:43:33.177Z","date":"2025-11-26","time":"23:43:33"},{"rt":null,"stimulus":"<p style=\"font-size: 50px; margin: 0; text-align: center;\">+</p>","response":null,"trial_type":"html-keyboard-response","trial_index":78,"plugin_version":"2.1.0","time_elapsed":187613,"subject_id":"86818","group":"Group2","full_date":"2025-11-26T23:43:33.177Z","date":"2025-11-26","time":"23:43:33"},{"task":"memory_phase","broad_category":"S","image_png":"S_Shale_02.png","image_id":466,"category_name":"Shale","category":30,"distinct_rating":2.9,"distinct_type":"Bottom","rt":null,"stimulus":"Stimuli_Rocks480/S_Shale_02.png","response":null,"trial_type":"image-keyboard-response","trial_index":79,"plugin_version":"2.1.0","time_elapsed":190116,"subject_id":"86818","group":"Group2","full_date":"2025-11-26T23:43:33.177Z","date":"2025-11-26","time":"23:43:33"},{"rt":null,"stimulus":"<p style=\"font-size: 50px; margin: 0; text-align: center;\">+</p>","response":null,"trial_type":"html-keyboard-response","trial_index":80,"plugin_version":"2.1.0","time_elapsed":191118,"subject_id":"86818","group":"Group2","full_date":"2025-11-26T23:43:33.177Z","date":"2025-11-26","time":"23:43:33"},{"task":"memory_phase","broad_category":"M","image_png":"M_Slate_04.png","image_id":308,"category_name":"Slate","category":20,"distinct_rating":2.2,"distinct_type":"Bottom","rt":null,"stimulus":"Stimuli_Rocks480/M_Slate_04.png","response":null,"trial_type":"image-keyboard-response","trial_index":81,"plugin_version":"2.1.0","time_elapsed":193621,"subject_id":"86818","group":"Group2","full_date":"2025-11-26T23:43:33.177Z","date":"2025-11-26","time":"23:43:33"},{"rt":null,"stimulus":"<p style=\"font-size: 50px; margin: 0; text-align: center;\">+</p>","response":null,"trial_type":"html-keyboard-response","trial_index":82,"plugin_version":"2.1.0","time_elapsed":194623,"subject_id":"86818","group":"Group2","full_date":"2025-11-26T23:43:33.177Z","date":"2025-11-26","time":"23:43:33"},{"task":"memory_phase","broad_category":"I","image_png":"I_Pegmatite_03.png","image_id":99,"category_name":"Pegmatite","category":7,"distinct_rating":7.24,"distinct_type":"Top","rt":null,"stimulus":"Stimuli_Rocks480/I_Pegmatite_03.png","response":null,"trial_type":"image-keyboard-response","trial_index":83,"plugin_version":"2.1.0","time_elapsed":197126,"subject_id":"86818","group":"Group2","full_date":"2025-11-26T23:43:33.177Z","date":"2025-11-26","time":"23:43:33"},{"rt":null,"stimulus":"<p style=\"font-size: 50px; margin: 0; text-align: center;\">+</p>","response":null,"trial_type":"html-keyboard-response","trial_index":84,"plugin_version":"2.1.0","time_elapsed":198129,"subject_id":"86818","group":"Group2","full_date":"2025-11-26T23:43:33.177Z","date":"2025-11-26","time":"23:43:33"},{"task":"memory_phase","broad_category":"I","image_png":"I_Pegmatite_11.png","image_id":107,"category_name":"Pegmatite","category":7,"distinct_rating":7.11,"distinct_type":"Top","rt":null,"stimulus":"Stimuli_Rocks480/I_Pegmatite_11.png","response":null,"trial_type":"image-keyboard-response","trial_index":85,"plugin_version":"2.1.0","time_elapsed":200631,"subject_id":"86818","group":"Group2","full_date":"2025-11-26T23:43:33.177Z","date":"2025-11-26","time":"23:43:33"},{"rt":null,"stimulus":"<p style=\"font-size: 50px; margin: 0; text-align: center;\">+</p>","response":null,"trial_type":"html-keyboard-response","trial_index":86,"plugin_version":"2.1.0","time_elapsed":201634,"subject_id":"86818","group":"Group2","full_date":"2025-11-26T23:43:33.177Z","date":"2025-11-26","time":"23:43:33"},{"task":"memory_phase","broad_category":"I","image_png":"I_Basalt_08.png","image_id":24,"category_name":"Basalt","category":2,"distinct_rating":2.31,"distinct_type":"Bottom","rt":null,"stimulus":"Stimuli_Rocks480/I_Basalt_08.png","response":null,"trial_type":"image-keyboard-response","trial_index":87,"plugin_version":"2.1.0","time_elapsed":204137,"subject_id":"86818","group":"Group2","full_date":"2025-11-26T23:43:33.177Z","date":"2025-11-26","time":"23:43:33"},{"rt":null,"stimulus":"<p style=\"font-size: 50px; margin: 0; text-align: center;\">+</p>","response":null,"trial_type":"html-keyboard-response","trial_index":88,"plugin_version":"2.1.0","time_elapsed":205139,"subject_id":"86818","group":"Group2","full_date":"2025-11-26T23:43:33.177Z","date":"2025-11-26","time":"23:43:33"},{"task":"memory_phase","broad_category":"I","image_png":"I_Diorite_10.png","image_id":42,"category_name":"Diorite","category":3,"distinct_rating":2.84,"distinct_type":"Bottom","rt":null,"stimulus":"Stimuli_Rocks480/I_Diorite_10.png","response":null,"trial_type":"image-keyboard-response","trial_index":89,"plugin_version":"2.1.0","time_elapsed":207642,"subject_id":"86818","group":"Group2","full_date":"2025-11-26T23:43:33.177Z","date":"2025-11-26","time":"23:43:33"},{"rt":null,"stimulus":"<p style=\"font-size: 50px; margin: 0; text-align: center;\">+</p>","response":null,"trial_type":"html-keyboard-response","trial_index":90,"plugin_version":"2.1.0","time_elapsed":208645,"subject_id":"86818","group":"Group2","full_date":"2025-11-26T23:43:33.177Z","date":"2025-11-26","time":"23:43:33"},{"task":"memory_phase","broad_category":"I","image_png":"I_Gabbro_14.png","image_id":62,"category_name":"Gabbro","category":4,"distinct_rating":2.95,"distinct_type":"Bottom","rt":null,"stimulus":"Stimuli_Rocks480/I_Gabbro_14.png","response":null,"trial_type":"image-keyboard-response","trial_index":91,"plugin_version":"2.1.0","time_elapsed":211148,"subject_id":"86818","group":"Group2","full_date":"2025-11-26T23:43:33.177Z","date":"2025-11-26","time":"23:43:33"},{"rt":null,"stimulus":"<p style=\"font-size: 50px; margin: 0; text-align: center;\">+</p>","response":null,"trial_type":"html-keyboard-response","trial_index":92,"plugin_version":"2.1.0","time_elapsed":212150,"subject_id":"86818","group":"Group2","full_date":"2025-11-26T23:43:33.177Z","date":"2025-11-26","time":"23:43:33"},{"task":"memory_phase","broad_category":"S","image_png":"S_Dolomite_07.png","image_id":391,"category_name":"Dolomite","category":25,"distinct_rating":1.73,"distinct_type":"Bottom","rt":null,"stimulus":"Stimuli_Rocks480/S_Dolomite_07.png","response":null,"trial_type":"image-keyboard-response","trial_index":93,"plugin_version":"2.1.0","time_elapsed":214654,"subject_id":"86818","group":"Group2","full_date":"2025-11-26T23:43:33.177Z","date":"2025-11-26","time":"23:43:33"},{"rt":null,"stimulus":"<p style=\"font-size: 50px; margin: 0; text-align: center;\">+</p>","response":null,"trial_type":"html-keyboard-response","trial_index":94,"plugin_version":"2.1.0","time_elapsed":215656,"subject_id":"86818","group":"Group2","full_date":"2025-11-26T23:43:33.177Z","date":"2025-11-26","time":"23:43:33"},{"task":"memory_phase","broad_category":"M","image_png":"M_Gneiss_14.png","image_id":206,"category_name":"Gneiss","category":13,"distinct_rating":3.41,"distinct_type":"Bottom","rt":null,"stimulus":"Stimuli_Rocks480/M_Gneiss_14.png","response":null,"trial_type":"image-keyboard-response","trial_index":95,"plugin_version":"2.1.0","time_elapsed":218160,"subject_id":"86818","group":"Group2","full_date":"2025-11-26T23:43:33.177Z","date":"2025-11-26","time":"23:43:33"},{"rt":null,"stimulus":"<p style=\"font-size: 50px; margin: 0; text-align: center;\">+</p>","response":null,"trial_type":"html-keyboard-response","trial_index":96,"plugin_version":"2.1.0","time_elapsed":219161,"subject_id":"86818","group":"Group2","full_date":"2025-11-26T23:43:33.177Z","date":"2025-11-26","time":"23:43:33"},{"task":"memory_phase","broad_category":"I","image_png":"I_Rhyolite_10.png","image_id":154,"category_name":"Rhyolite","category":10,"distinct_rating":2.88,"distinct_type":"Bottom","rt":null,"stimulus":"Stimuli_Rocks480/I_Rhyolite_10.png","response":null,"trial_type":"image-keyboard-response","trial_index":97,"plugin_version":"2.1.0","time_elapsed":221665,"subject_id":"86818","group":"Group2","full_date":"2025-11-26T23:43:33.177Z","date":"2025-11-26","time":"23:43:33"},{"rt":null,"stimulus":"<p style=\"font-size: 50px; margin: 0; text-align: center;\">+</p>","response":null,"trial_type":"html-keyboard-response","trial_index":98,"plugin_version":"2.1.0","time_elapsed":222668,"subject_id":"86818","group":"Group2","full_date":"2025-11-26T23:43:33.177Z","date":"2025-11-26","time":"23:43:33"},{"task":"memory_phase","broad_category":"M","image_png":"M_Quartzite_12.png","image_id":284,"category_name":"Quartzite","category":18,"distinct_rating":1.92,"distinct_type":"Bottom","rt":null,"stimulus":"Stimuli_Rocks480/M_Quartzite_12.png","response":null,"trial_type":"image-keyboard-response","trial_index":99,"plugin_version":"2.1.0","time_elapsed":225171,"subject_id":"86818","group":"Group2","full_date":"2025-11-26T23:43:33.177Z","date":"2025-11-26","time":"23:43:33"},{"rt":null,"stimulus":"<p style=\"font-size: 50px; margin: 0; text-align: center;\">+</p>","response":null,"trial_type":"html-keyboard-response","trial_index":100,"plugin_version":"2.1.0","time_elapsed":226173,"subject_id":"86818","group":"Group2","full_date":"2025-11-26T23:43:33.177Z","date":"2025-11-26","time":"23:43:33"},{"task":"memory_phase","broad_category":"M","image_png":"M_Phyllite_05.png","image_id":261,"category_name":"Phyllite","category":17,"distinct_rating":2.14,"distinct_type":"Bottom","rt":null,"stimulus":"Stimuli_Rocks480/M_Phyllite_05.png","response":null,"trial_type":"image-keyboard-response","trial_index":101,"plugin_version":"2.1.0","time_elapsed":228676,"subject_id":"86818","group":"Group2","full_date":"2025-11-26T23:43:33.177Z","date":"2025-11-26","time":"23:43:33"},{"rt":null,"stimulus":"<p style=\"font-size: 50px; margin: 0; text-align: center;\">+</p>","response":null,"trial_type":"html-keyboard-response","trial_index":102,"plugin_version":"2.1.0","time_elapsed":229678,"subject_id":"86818","group":"Group2","full_date":"2025-11-26T23:43:33.177Z","date":"2025-11-26","time":"23:43:33"},{"task":"memory_phase","broad_category":"I","image_png":"I_Andesite_04.png","image_id":4,"category_name":"Andesite","category":1,"distinct_rating":3.18,"distinct_type":"Bottom","rt":null,"stimulus":"Stimuli_Rocks480/I_Andesite_04.png","response":null,"trial_type":"image-keyboard-response","trial_index":103,"plugin_version":"2.1.0","time_elapsed":232182,"subject_id":"86818","group":"Group2","full_date":"2025-11-26T23:43:33.177Z","date":"2025-11-26","time":"23:43:33"},{"rt":null,"stimulus":"<p style=\"font-size: 50px; margin: 0; text-align: center;\">+</p>","response":null,"trial_type":"html-keyboard-response","trial_index":104,"plugin_version":"2.1.0","time_elapsed":233184,"subject_id":"86818","group":"Group2","full_date":"2025-11-26T23:43:33.177Z","date":"2025-11-26","time":"23:43:33"},{"task":"memory_phase","broad_category":"M","image_png":"M_Phyllite_02.png","image_id":258,"category_name":"Phyllite","category":17,"distinct_rating":2.89,"distinct_type":"Bottom","rt":null,"stimulus":"Stimuli_Rocks480/M_Phyllite_02.png","response":null,"trial_type":"image-keyboard-response","trial_index":105,"plugin_version":"2.1.0","time_elapsed":235687,"subject_id":"86818","group":"Group2","full_date":"2025-11-26T23:43:33.177Z","date":"2025-11-26","time":"23:43:33"},{"rt":4627,"stimulus":"<p style=\"max-width: 760px; margin: auto; font-size: 35px; line-height: 1.5;\">You have completed 1 study phase. Now, we'll show you all the images again 2 more times.<br><br>Press SPACE to continue</p>","response":" ","trial_type":"html-keyboard-response","trial_index":106,"plugin_version":"2.1.0","time_elapsed":240315,"subject_id":"86818","group":"Group2","full_date":"2025-11-26T23:43:33.177Z","date":"2025-11-26","time":"23:43:33"},{"rt":null,"stimulus":"<p style=\"font-size: 50px; margin: 0; text-align: center;\">+</p>","response":null,"trial_type":"html-keyboard-response","trial_index":107,"plugin_version":"2.1.0","time_elapsed":241317,"subject_id":"86818","group":"Group2","full_date":"2025-11-26T23:43:33.177Z","date":"2025-11-26","time":"23:43:33"},{"task":"memory_phase","broad_category":"I","image_png":"I_Gabbro_14.png","image_id":62,"category_name":"Gabbro","category":4,"distinct_rating":2.95,"distinct_type":"Bottom","rt":null,"stimulus":"Stimuli_Rocks480/I_Gabbro_14.png","response":null,"trial_type":"image-keyboard-response","trial_index":108,"plugin_version":"2.1.0","time_elapsed":243820,"subject_id":"86818","group":"Group2","full_date":"2025-11-26T23:43:33.177Z","date":"2025-11-26","time":"23:43:33"},{"rt":null,"stimulus":"<p style=\"font-size: 50px; margin: 0; text-align: center;\">+</p>","response":null,"trial_type":"html-keyboard-response","trial_index":109,"plugin_version":"2.1.0","time_elapsed":244823,"subject_id":"86818","group":"Group2","full_date":"2025-11-26T23:43:33.177Z","date":"2025-11-26","time":"23:43:33"},{"task":"memory_phase","broad_category":"S","image_png":"S_Chert_13.png","image_id":365,"category_name":"Chert","category":23,"distinct_rating":6.57,"distinct_type":"Top","rt":null,"stimulus":"Stimuli_Rocks480/S_Chert_13.png","response":null,"trial_type":"image-keyboard-response","trial_index":110,"plugin_version":"2.1.0","time_elapsed":247327,"subject_id":"86818","group":"Group2","full_date":"2025-11-26T23:43:33.177Z","date":"2025-11-26","time":"23:43:33"},{"rt":null,"stimulus":"<p style=\"font-size: 50px; margin: 0; text-align: center;\">+</p>","response":null,"trial_type":"html-keyboard-response","trial_index":111,"plugin_version":"2.1.0","time_elapsed":248328,"subject_id":"86818","group":"Group2","full_date":"2025-11-26T23:43:33.177Z","date":"2025-11-26","time":"23:43:33"},{"task":"memory_phase","broad_category":"S","image_png":"S_Dolomite_16.png","image_id":400,"category_name":"Dolomite","category":25,"distinct_rating":1.71,"distinct_type":"Bottom","rt":null,"stimulus":"Stimuli_Rocks480/S_Dolomite_16.png","response":null,"trial_type":"image-keyboard-response","trial_index":112,"plugin_version":"2.1.0","time_elapsed":250831,"subject_id":"86818","group":"Group2","full_date":"2025-11-26T23:43:33.177Z","date":"2025-11-26","time":"23:43:33"},{"rt":null,"stimulus":"<p style=\"font-size: 50px; margin: 0; text-align: center;\">+</p>","response":null,"trial_type":"html-keyboard-response","trial_index":113,"plugin_version":"2.1.0","time_elapsed":251834,"subject_id":"86818","group":"Group2","full_date":"2025-11-26T23:43:33.177Z","date":"2025-11-26","time":"23:43:33"},{"task":"memory_phase","broad_category":"S","image_png":"S_Dolomite_07.png","image_id":391,"category_name":"Dolomite","category":25,"distinct_rating":1.73,"distinct_type":"Bottom","rt":null,"stimulus":"Stimuli_Rocks480/S_Dolomite_07.png","response":null,"trial_type":"image-keyboard-response","trial_index":114,"plugin_version":"2.1.0","time_elapsed":254336,"subject_id":"86818","group":"Group2","full_date":"2025-11-26T23:43:33.177Z","date":"2025-11-26","time":"23:43:33"},{"rt":null,"stimulus":"<p style=\"font-size: 50px; margin: 0; text-align: center;\">+</p>","response":null,"trial_type":"html-keyboard-response","trial_index":115,"plugin_version":"2.1.0","time_elapsed":255338,"subject_id":"86818","group":"Group2","full_date":"2025-11-26T23:43:33.177Z","date":"2025-11-26","time":"23:43:33"},{"task":"memory_phase","broad_category":"S","image_png":"S_Shale_07.png","image_id":471,"category_name":"Shale","category":30,"distinct_rating":2.73,"distinct_type":"Bottom","rt":null,"stimulus":"Stimuli_Rocks480/S_Shale_07.png","response":null,"trial_type":"image-keyboard-response","trial_index":116,"plugin_version":"2.1.0","time_elapsed":257844,"subject_id":"86818","group":"Group2","full_date":"2025-11-26T23:43:33.177Z","date":"2025-11-26","time":"23:43:33"},{"rt":null,"stimulus":"<p style=\"font-size: 50px; margin: 0; text-align: center;\">+</p>","response":null,"trial_type":"html-keyboard-response","trial_index":117,"plugin_version":"2.1.0","time_elapsed":258846,"subject_id":"86818","group":"Group2","full_date":"2025-11-26T23:43:33.177Z","date":"2025-11-26","time":"23:43:33"},{"task":"memory_phase","broad_category":"M","image_png":"M_Marble_14.png","image_id":238,"category_name":"Marble","category":15,"distinct_rating":3.31,"distinct_type":"Bottom","rt":null,"stimulus":"Stimuli_Rocks480/M_Marble_14.png","response":null,"trial_type":"image-keyboard-response","trial_index":118,"plugin_version":"2.1.0","time_elapsed":261349,"subject_id":"86818","group":"Group2","full_date":"2025-11-26T23:43:33.177Z","date":"2025-11-26","time":"23:43:33"},{"rt":null,"stimulus":"<p style=\"font-size: 50px; margin: 0; text-align: center;\">+</p>","response":null,"trial_type":"html-keyboard-response","trial_index":119,"plugin_version":"2.1.0","time_elapsed":262351,"subject_id":"86818","group":"Group2","full_date":"2025-11-26T23:43:33.177Z","date":"2025-11-26","time":"23:43:33"},{"task":"memory_phase","broad_category":"M","image_png":"M_Marble_03.png","image_id":227,"category_name":"Marble","category":15,"distinct_rating":2.67,"distinct_type":"Bottom","rt":null,"stimulus":"Stimuli_Rocks480/M_Marble_03.png","response":null,"trial_type":"image-keyboard-response","trial_index":120,"plugin_version":"2.1.0","time_elapsed":264854,"subject_id":"86818","group":"Group2","full_date":"2025-11-26T23:43:33.177Z","date":"2025-11-26","time":"23:43:33"},{"rt":null,"stimulus":"<p style=\"font-size: 50px; margin: 0; text-align: center;\">+</p>","response":null,"trial_type":"html-keyboard-response","trial_index":121,"plugin_version":"2.1.0","time_elapsed":265856,"subject_id":"86818","group":"Group2","full_date":"2025-11-26T23:43:33.177Z","date":"2025-11-26","time":"23:43:33"},{"task":"memory_phase","broad_category":"S","image_png":"S_Sandstone_04.png","image_id":452,"category_name":"Sandstone","category":29,"distinct_rating":1.8,"distinct_type":"Bottom","rt":null,"stimulus":"Stimuli_Rocks480/S_Sandstone_04.png","response":null,"trial_type":"image-keyboard-response","trial_index":122,"plugin_version":"2.1.0","time_elapsed":268359,"subject_id":"86818","group":"Group2","full_date":"2025-11-26T23:43:33.177Z","date":"2025-11-26","time":"23:43:33"},{"rt":null,"stimulus":"<p style=\"font-size: 50px; margin: 0; text-align: center;\">+</p>","response":null,"trial_type":"html-keyboard-response","trial_index":123,"plugin_version":"2.1.0","time_elapsed":269360,"subject_id":"86818","group":"Group2","full_date":"2025-11-26T23:43:33.177Z","date":"2025-11-26","time":"23:43:33"},{"task":"memory_phase","broad_category":"S","image_png":"S_Sandstone_08.png","image_id":456,"category_name":"Sandstone","category":29,"distinct_rating":1.5,"distinct_type":"Bottom","rt":null,"stimulus":"Stimuli_Rocks480/S_Sandstone_08.png","response":null,"trial_type":"image-keyboard-response","trial_index":124,"plugin_version":"2.1.0","time_elapsed":271863,"subject_id":"86818","group":"Group2","full_date":"2025-11-26T23:43:33.177Z","date":"2025-11-26","time":"23:43:33"},{"rt":null,"stimulus":"<p style=\"font-size: 50px; margin: 0; text-align: center;\">+</p>","response":null,"trial_type":"html-keyboard-response","trial_index":125,"plugin_version":"2.1.0","time_elapsed":272865,"subject_id":"86818","group":"Group2","full_date":"2025-11-26T23:43:33.177Z","date":"2025-11-26","time":"23:43:33"},{"task":"memory_phase","broad_category":"M","image_png":"M_Phyllite_02.png","image_id":258,"category_name":"Phyllite","category":17,"distinct_rating":2.89,"distinct_type":"Bottom","rt":null,"stimulus":"Stimuli_Rocks480/M_Phyllite_02.png","response":null,"trial_type":"image-keyboard-response","trial_index":126,"plugin_version":"2.1.0","time_elapsed":275369,"subject_id":"86818","group":"Group2","full_date":"2025-11-26T23:43:33.177Z","date":"2025-11-26","time":"23:43:33"},{"rt":null,"stimulus":"<p style=\"font-size: 50px; margin: 0; text-align: center;\">+</p>","response":null,"trial_type":"html-keyboard-response","trial_index":127,"plugin_version":"2.1.0","time_elapsed":276371,"subject_id":"86818","group":"Group2","full_date":"2025-11-26T23:43:33.177Z","date":"2025-11-26","time":"23:43:33"},{"task":"memory_phase","broad_category":"I","image_png":"I_Pegmatite_11.png","image_id":107,"category_name":"Pegmatite","category":7,"distinct_rating":7.11,"distinct_type":"Top","rt":null,"stimulus":"Stimuli_Rocks480/I_Pegmatite_11.png","response":null,"trial_type":"image-keyboard-response","trial_index":128,"plugin_version":"2.1.0","time_elapsed":278874,"subject_id":"86818","group":"Group2","full_date":"2025-11-26T23:43:33.177Z","date":"2025-11-26","time":"23:43:33"},{"rt":null,"stimulus":"<p style=\"font-size: 50px; margin: 0; text-align: center;\">+</p>","response":null,"trial_type":"html-keyboard-response","trial_index":129,"plugin_version":"2.1.0","time_elapsed":279877,"subject_id":"86818","group":"Group2","full_date":"2025-11-26T23:43:33.177Z","date":"2025-11-26","time":"23:43:33"},{"task":"memory_phase","broad_category":"M","image_png":"M_Slate_14.png","image_id":318,"category_name":"Slate","category":20,"distinct_rating":2.58,"distinct_type":"Bottom","rt":null,"stimulus":"Stimuli_Rocks480/M_Slate_14.png","response":null,"trial_type":"image-keyboard-response","trial_index":130,"plugin_version":"2.1.0","time_elapsed":282380,"subject_id":"86818","group":"Group2","full_date":"2025-11-26T23:43:33.177Z","date":"2025-11-26","time":"23:43:33"},{"rt":null,"stimulus":"<p style=\"font-size: 50px; margin: 0; text-align: center;\">+</p>","response":null,"trial_type":"html-keyboard-response","trial_index":131,"plugin_version":"2.1.0","time_elapsed":283383,"subject_id":"86818","group":"Group2","full_date":"2025-11-26T23:43:33.177Z","date":"2025-11-26","time":"23:43:33"},{"task":"memory_phase","broad_category":"S","image_png":"S_Rock Salt_13.png","image_id":445,"category_name":"Rock Salt","category":28,"distinct_rating":7.58,"distinct_type":"Top","rt":null,"stimulus":"Stimuli_Rocks480/S_Rock Salt_13.png","response":null,"trial_type":"image-keyboard-response","trial_index":132,"plugin_version":"2.1.0","time_elapsed":285886,"subject_id":"86818","group":"Group2","full_date":"2025-11-26T23:43:33.177Z","date":"2025-11-26","time":"23:43:33"},{"rt":null,"stimulus":"<p style=\"font-size: 50px; margin: 0; text-align: center;\">+</p>","response":null,"trial_type":"html-keyboard-response","trial_index":133,"plugin_version":"2.1.0","time_elapsed":286889,"subject_id":"86818","group":"Group2","full_date":"2025-11-26T23:43:33.177Z","date":"2025-11-26","time":"23:43:33"},{"task":"memory_phase","broad_category":"I","image_png":"I_Pumice_01.png","image_id":129,"category_name":"Pumice","category":9,"distinct_rating":3.25,"distinct_type":"Bottom","rt":null,"stimulus":"Stimuli_Rocks480/I_Pumice_01.png","response":null,"trial_type":"image-keyboard-response","trial_index":134,"plugin_version":"2.1.0","time_elapsed":289392,"subject_id":"86818","group":"Group2","full_date":"2025-11-26T23:43:33.177Z","date":"2025-11-26","time":"23:43:33"},{"rt":null,"stimulus":"<p style=\"font-size: 50px; margin: 0; text-align: center;\">+</p>","response":null,"trial_type":"html-keyboard-response","trial_index":135,"plugin_version":"2.1.0","time_elapsed":290394,"subject_id":"86818","group":"Group2","full_date":"2025-11-26T23:43:33.177Z","date":"2025-11-26","time":"23:43:33"},{"task":"memory_phase","broad_category":"I","image_png":"I_Pegmatite_03.png","image_id":99,"category_name":"Pegmatite","category":7,"distinct_rating":7.24,"distinct_type":"Top","rt":null,"stimulus":"Stimuli_Rocks480/I_Pegmatite_03.png","response":null,"trial_type":"image-keyboard-response","trial_index":136,"plugin_version":"2.1.0","time_elapsed":292898,"subject_id":"86818","group":"Group2","full_date":"2025-11-26T23:43:33.177Z","date":"2025-11-26","time":"23:43:33"},{"rt":null,"stimulus":"<p style=\"font-size: 50px; margin: 0; text-align: center;\">+</p>","response":null,"trial_type":"html-keyboard-response","trial_index":137,"plugin_version":"2.1.0","time_elapsed":293900,"subject_id":"86818","group":"Group2","full_date":"2025-11-26T23:43:33.177Z","date":"2025-11-26","time":"23:43:33"},{"task":"memory_phase","broad_category":"I","image_png":"I_Diorite_01.png","image_id":33,"category_name":"Diorite","category":3,"distinct_rating":2.97,"distinct_type":"Bottom","rt":null,"stimulus":"Stimuli_Rocks480/I_Diorite_01.png","response":null,"trial_type":"image-keyboard-response","trial_index":138,"plugin_version":"2.1.0","time_elapsed":296404,"subject_id":"86818","group":"Group2","full_date":"2025-11-26T23:43:33.177Z","date":"2025-11-26","time":"23:43:33"},{"rt":null,"stimulus":"<p style=\"font-size: 50px; margin: 0; text-align: center;\">+</p>","response":null,"trial_type":"html-keyboard-response","trial_index":139,"plugin_version":"2.1.0","time_elapsed":297406,"subject_id":"86818","group":"Group2","full_date":"2025-11-26T23:43:33.177Z","date":"2025-11-26","time":"23:43:33"},{"task":"memory_phase","broad_category":"S","image_png":"S_Shale_02.png","image_id":466,"category_name":"Shale","category":30,"distinct_rating":2.9,"distinct_type":"Bottom","rt":null,"stimulus":"Stimuli_Rocks480/S_Shale_02.png","response":null,"trial_type":"image-keyboard-response","trial_index":140,"plugin_version":"2.1.0","time_elapsed":299909,"subject_id":"86818","group":"Group2","full_date":"2025-11-26T23:43:33.177Z","date":"2025-11-26","time":"23:43:33"},{"rt":null,"stimulus":"<p style=\"font-size: 50px; margin: 0; text-align: center;\">+</p>","response":null,"trial_type":"html-keyboard-response","trial_index":141,"plugin_version":"2.1.0","time_elapsed":300911,"subject_id":"86818","group":"Group2","full_date":"2025-11-26T23:43:33.177Z","date":"2025-11-26","time":"23:43:33"},{"task":"memory_phase","broad_category":"M","image_png":"M_Phyllite_05.png","image_id":261,"category_name":"Phyllite","category":17,"distinct_rating":2.14,"distinct_type":"Bottom","rt":null,"stimulus":"Stimuli_Rocks480/M_Phyllite_05.png","response":null,"trial_type":"image-keyboard-response","trial_index":142,"plugin_version":"2.1.0","time_elapsed":303415,"subject_id":"86818","group":"Group2","full_date":"2025-11-26T23:43:33.177Z","date":"2025-11-26","time":"23:43:33"},{"rt":null,"stimulus":"<p style=\"font-size: 50px; margin: 0; text-align: center;\">+</p>","response":null,"trial_type":"html-keyboard-response","trial_index":143,"plugin_version":"2.1.0","time_elapsed":304417,"subject_id":"86818","group":"Group2","full_date":"2025-11-26T23:43:33.177Z","date":"2025-11-26","time":"23:43:33"},{"task":"memory_phase","broad_category":"M","image_png":"M_Gneiss_10.png","image_id":202,"category_name":"Gneiss","category":13,"distinct_rating":3.09,"distinct_type":"Bottom","rt":null,"stimulus":"Stimuli_Rocks480/M_Gneiss_10.png","response":null,"trial_type":"image-keyboard-response","trial_index":144,"plugin_version":"2.1.0","time_elapsed":306920,"subject_id":"86818","group":"Group2","full_date":"2025-11-26T23:43:33.177Z","date":"2025-11-26","time":"23:43:33"},{"rt":null,"stimulus":"<p style=\"font-size: 50px; margin: 0; text-align: center;\">+</p>","response":null,"trial_type":"html-keyboard-response","trial_index":145,"plugin_version":"2.1.0","time_elapsed":307923,"subject_id":"86818","group":"Group2","full_date":"2025-11-26T23:43:33.177Z","date":"2025-11-26","time":"23:43:33"},{"task":"memory_phase","broad_category":"I","image_png":"I_Andesite_03.png","image_id":3,"category_name":"Andesite","category":1,"distinct_rating":3.17,"distinct_type":"Bottom","rt":null,"stimulus":"Stimuli_Rocks480/I_Andesite_03.png","response":null,"trial_type":"image-keyboard-response","trial_index":146,"plugin_version":"2.1.0","time_elapsed":310426,"subject_id":"86818","group":"Group2","full_date":"2025-11-26T23:43:33.177Z","date":"2025-11-26","time":"23:43:33"},{"rt":null,"stimulus":"<p style=\"font-size: 50px; margin: 0; text-align: center;\">+</p>","response":null,"trial_type":"html-keyboard-response","trial_index":147,"plugin_version":"2.1.0","time_elapsed":311428,"subject_id":"86818","group":"Group2","full_date":"2025-11-26T23:43:33.177Z","date":"2025-11-26","time":"23:43:33"},{"task":"memory_phase","broad_category":"M","image_png":"M_Phyllite_13.png","image_id":269,"category_name":"Phyllite","category":17,"distinct_rating":2.8,"distinct_type":"Bottom","rt":null,"stimulus":"Stimuli_Rocks480/M_Phyllite_13.png","response":null,"trial_type":"image-keyboard-response","trial_index":148,"plugin_version":"2.1.0","time_elapsed":313932,"subject_id":"86818","group":"Group2","full_date":"2025-11-26T23:43:33.177Z","date":"2025-11-26","time":"23:43:33"},{"rt":null,"stimulus":"<p style=\"font-size: 50px; margin: 0; text-align: center;\">+</p>","response":null,"trial_type":"html-keyboard-response","trial_index":149,"plugin_version":"2.1.0","time_elapsed":314934,"subject_id":"86818","group":"Group2","full_date":"2025-11-26T23:43:33.177Z","date":"2025-11-26","time":"23:43:33"},{"task":"memory_phase","broad_category":"I","image_png":"I_Obsidian_06.png","image_id":86,"category_name":"Obsidian","category":6,"distinct_rating":8.01,"distinct_type":"Top","rt":null,"stimulus":"Stimuli_Rocks480/I_Obsidian_06.png","response":null,"trial_type":"image-keyboard-response","trial_index":150,"plugin_version":"2.1.0","time_elapsed":317437,"subject_id":"86818","group":"Group2","full_date":"2025-11-26T23:43:33.177Z","date":"2025-11-26","time":"23:43:33"},{"rt":null,"stimulus":"<p style=\"font-size: 50px; margin: 0; text-align: center;\">+</p>","response":null,"trial_type":"html-keyboard-response","trial_index":151,"plugin_version":"2.1.0","time_elapsed":318440,"subject_id":"86818","group":"Group2","full_date":"2025-11-26T23:43:33.177Z","date":"2025-11-26","time":"23:43:33"},{"task":"memory_phase","broad_category":"I","image_png":"I_Peridotite_13.png","image_id":125,"category_name":"Peridotite","category":8,"distinct_rating":7.28,"distinct_type":"Top","rt":null,"stimulus":"Stimuli_Rocks480/I_Peridotite_13.png","response":null,"trial_type":"image-keyboard-response","trial_index":152,"plugin_version":"2.1.0","time_elapsed":320944,"subject_id":"86818","group":"Group2","full_date":"2025-11-26T23:43:33.177Z","date":"2025-11-26","time":"23:43:33"},{"rt":null,"stimulus":"<p style=\"font-size: 50px; margin: 0; text-align: center;\">+</p>","response":null,"trial_type":"html-keyboard-response","trial_index":153,"plugin_version":"2.1.0","time_elapsed":321946,"subject_id":"86818","group":"Group2","full_date":"2025-11-26T23:43:33.177Z","date":"2025-11-26","time":"23:43:33"},{"task":"memory_phase","broad_category":"I","image_png":"I_Pumice_14.png","image_id":142,"category_name":"Pumice","category":9,"distinct_rating":3.22,"distinct_type":"Bottom","rt":null,"stimulus":"Stimuli_Rocks480/I_Pumice_14.png","response":null,"trial_type":"image-keyboard-response","trial_index":154,"plugin_version":"2.1.0","time_elapsed":324450,"subject_id":"86818","group":"Group2","full_date":"2025-11-26T23:43:33.177Z","date":"2025-11-26","time":"23:43:33"},{"rt":null,"stimulus":"<p style=\"font-size: 50px; margin: 0; text-align: center;\">+</p>","response":null,"trial_type":"html-keyboard-response","trial_index":155,"plugin_version":"2.1.0","time_elapsed":325453,"subject_id":"86818","group":"Group2","full_date":"2025-11-26T23:43:33.177Z","date":"2025-11-26","time":"23:43:33"},{"task":"memory_phase","broad_category":"S","image_png":"S_Shale_03.png","image_id":467,"category_name":"Shale","category":30,"distinct_rating":1.95,"distinct_type":"Bottom","rt":null,"stimulus":"Stimuli_Rocks480/S_Shale_03.png","response":null,"trial_type":"image-keyboard-response","trial_index":156,"plugin_version":"2.1.0","time_elapsed":327956,"subject_id":"86818","group":"Group2","full_date":"2025-11-26T23:43:33.177Z","date":"2025-11-26","time":"23:43:33"},{"rt":69826,"stimulus":"<p style=\"max-width: 760px; margin: auto; font-size: 35px; line-height: 1.5;\">Press SPACE to continue study phase</p>","response":" ","trial_type":"html-keyboard-response","trial_index":157,"plugin_version":"2.1.0","time_elapsed":397782,"subject_id":"86818","group":"Group2","full_date":"2025-11-26T23:43:33.177Z","date":"2025-11-26","time":"23:43:33"},{"rt":null,"stimulus":"<p style=\"font-size: 50px; margin: 0; text-align: center;\">+</p>","response":null,"trial_type":"html-keyboard-response","trial_index":158,"plugin_version":"2.1.0","time_elapsed":398784,"subject_id":"86818","group":"Group2","full_date":"2025-11-26T23:43:33.177Z","date":"2025-11-26","time":"23:43:33"},{"task":"memory_phase","broad_category":"M","image_png":"M_Quartzite_12.png","image_id":284,"category_name":"Quartzite","category":18,"distinct_rating":1.92,"distinct_type":"Bottom","rt":null,"stimulus":"Stimuli_Rocks480/M_Quartzite_12.png","response":null,"trial_type":"image-keyboard-response","trial_index":159,"plugin_version":"2.1.0","time_elapsed":401287,"subject_id":"86818","group":"Group2","full_date":"2025-11-26T23:43:33.177Z","date":"2025-11-26","time":"23:43:33"},{"rt":null,"stimulus":"<p style=\"font-size: 50px; margin: 0; text-align: center;\">+</p>","response":null,"trial_type":"html-keyboard-response","trial_index":160,"plugin_version":"2.1.0","time_elapsed":402290,"subject_id":"86818","group":"Group2","full_date":"2025-11-26T23:43:33.177Z","date":"2025-11-26","time":"23:43:33"},{"task":"memory_phase","broad_category":"M","image_png":"M_Gneiss_14.png","image_id":206,"category_name":"Gneiss","category":13,"distinct_rating":3.41,"distinct_type":"Bottom","rt":null,"stimulus":"Stimuli_Rocks480/M_Gneiss_14.png","response":null,"trial_type":"image-keyboard-response","trial_index":161,"plugin_version":"2.1.0","time_elapsed":404793,"subject_id":"86818","group":"Group2","full_date":"2025-11-26T23:43:33.177Z","date":"2025-11-26","time":"23:43:33"},{"rt":null,"stimulus":"<p style=\"font-size: 50px; margin: 0; text-align: center;\">+</p>","response":null,"trial_type":"html-keyboard-response","trial_index":162,"plugin_version":"2.1.0","time_elapsed":405796,"subject_id":"86818","group":"Group2","full_date":"2025-11-26T23:43:33.177Z","date":"2025-11-26","time":"23:43:33"},{"task":"memory_phase","broad_category":"M","image_png":"M_Gneiss_15.png","image_id":207,"category_name":"Gneiss","category":13,"distinct_rating":3.11,"distinct_type":"Bottom","rt":null,"stimulus":"Stimuli_Rocks480/M_Gneiss_15.png","response":null,"trial_type":"image-keyboard-response","trial_index":163,"plugin_version":"2.1.0","time_elapsed":408299,"subject_id":"86818","group":"Group2","full_date":"2025-11-26T23:43:33.177Z","date":"2025-11-26","time":"23:43:33"},{"rt":null,"stimulus":"<p style=\"font-size: 50px; margin: 0; text-align: center;\">+</p>","response":null,"trial_type":"html-keyboard-response","trial_index":164,"plugin_version":"2.1.0","time_elapsed":409301,"subject_id":"86818","group":"Group2","full_date":"2025-11-26T23:43:33.177Z","date":"2025-11-26","time":"23:43:33"},{"task":"memory_phase","broad_category":"I","image_png":"I_Rhyolite_10.png","image_id":154,"category_name":"Rhyolite","category":10,"distinct_rating":2.88,"distinct_type":"Bottom","rt":null,"stimulus":"Stimuli_Rocks480/I_Rhyolite_10.png","response":null,"trial_type":"image-keyboard-response","trial_index":165,"plugin_version":"2.1.0","time_elapsed":411805,"subject_id":"86818","group":"Group2","full_date":"2025-11-26T23:43:33.177Z","date":"2025-11-26","time":"23:43:33"},{"rt":null,"stimulus":"<p style=\"font-size: 50px; margin: 0; text-align: center;\">+</p>","response":null,"trial_type":"html-keyboard-response","trial_index":166,"plugin_version":"2.1.0","time_elapsed":412808,"subject_id":"86818","group":"Group2","full_date":"2025-11-26T23:43:33.177Z","date":"2025-11-26","time":"23:43:33"},{"task":"memory_phase","broad_category":"M","image_png":"M_Quartzite_15.png","image_id":287,"category_name":"Quartzite","category":18,"distinct_rating":2.19,"distinct_type":"Bottom","rt":null,"stimulus":"Stimuli_Rocks480/M_Quartzite_15.png","response":null,"trial_type":"image-keyboard-response","trial_index":167,"plugin_version":"2.1.0","time_elapsed":415311,"subject_id":"86818","group":"Group2","full_date":"2025-11-26T23:43:33.177Z","date":"2025-11-26","time":"23:43:33"},{"rt":null,"stimulus":"<p style=\"font-size: 50px; margin: 0; text-align: center;\">+</p>","response":null,"trial_type":"html-keyboard-response","trial_index":168,"plugin_version":"2.1.0","time_elapsed":416314,"subject_id":"86818","group":"Group2","full_date":"2025-11-26T23:43:33.177Z","date":"2025-11-26","time":"23:43:33"},{"task":"memory_phase","broad_category":"I","image_png":"I_Basalt_08.png","image_id":24,"category_name":"Basalt","category":2,"distinct_rating":2.31,"distinct_type":"Bottom","rt":null,"stimulus":"Stimuli_Rocks480/I_Basalt_08.png","response":null,"trial_type":"image-keyboard-response","trial_index":169,"plugin_version":"2.1.0","time_elapsed":418817,"subject_id":"86818","group":"Group2","full_date":"2025-11-26T23:43:33.177Z","date":"2025-11-26","time":"23:43:33"},{"rt":null,"stimulus":"<p style=\"font-size: 50px; margin: 0; text-align: center;\">+</p>","response":null,"trial_type":"html-keyboard-response","trial_index":170,"plugin_version":"2.1.0","time_elapsed":419819,"subject_id":"86818","group":"Group2","full_date":"2025-11-26T23:43:33.177Z","date":"2025-11-26","time":"23:43:33"},{"task":"memory_phase","broad_category":"I","image_png":"I_Diorite_15.png","image_id":47,"category_name":"Diorite","category":3,"distinct_rating":3.05,"distinct_type":"Bottom","rt":null,"stimulus":"Stimuli_Rocks480/I_Diorite_15.png","response":null,"trial_type":"image-keyboard-response","trial_index":171,"plugin_version":"2.1.0","time_elapsed":422323,"subject_id":"86818","group":"Group2","full_date":"2025-11-26T23:43:33.177Z","date":"2025-11-26","time":"23:43:33"},{"rt":null,"stimulus":"<p style=\"font-size: 50px; margin: 0; text-align: center;\">+</p>","response":null,"trial_type":"html-keyboard-response","trial_index":172,"plugin_version":"2.1.0","time_elapsed":423324,"subject_id":"86818","group":"Group2","full_date":"2025-11-26T23:43:33.177Z","date":"2025-11-26","time":"23:43:33"},{"task":"memory_phase","broad_category":"M","image_png":"M_Quartzite_07.png","image_id":279,"category_name":"Quartzite","category":18,"distinct_rating":1.97,"distinct_type":"Bottom","rt":null,"stimulus":"Stimuli_Rocks480/M_Quartzite_07.png","response":null,"trial_type":"image-keyboard-response","trial_index":173,"plugin_version":"2.1.0","time_elapsed":425827,"subject_id":"86818","group":"Group2","full_date":"2025-11-26T23:43:33.177Z","date":"2025-11-26","time":"23:43:33"},{"rt":null,"stimulus":"<p style=\"font-size: 50px; margin: 0; text-align: center;\">+</p>","response":null,"trial_type":"html-keyboard-response","trial_index":174,"plugin_version":"2.1.0","time_elapsed":426830,"subject_id":"86818","group":"Group2","full_date":"2025-11-26T23:43:33.177Z","date":"2025-11-26","time":"23:43:33"},{"task":"memory_phase","broad_category":"S","image_png":"S_Rock Salt_15.png","image_id":447,"category_name":"Rock Salt","category":28,"distinct_rating":7.79,"distinct_type":"Top","rt":null,"stimulus":"Stimuli_Rocks480/S_Rock Salt_15.png","response":null,"trial_type":"image-keyboard-response","trial_index":175,"plugin_version":"2.1.0","time_elapsed":429334,"subject_id":"86818","group":"Group2","full_date":"2025-11-26T23:43:33.177Z","date":"2025-11-26","time":"23:43:33"},{"rt":null,"stimulus":"<p style=\"font-size: 50px; margin: 0; text-align: center;\">+</p>","response":null,"trial_type":"html-keyboard-response","trial_index":176,"plugin_version":"2.1.0","time_elapsed":430337,"subject_id":"86818","group":"Group2","full_date":"2025-11-26T23:43:33.177Z","date":"2025-11-26","time":"23:43:33"},{"task":"memory_phase","broad_category":"M","image_png":"M_Marble_02.png","image_id":226,"category_name":"Marble","category":15,"distinct_rating":3.2,"distinct_type":"Bottom","rt":null,"stimulus":"Stimuli_Rocks480/M_Marble_02.png","response":null,"trial_type":"image-keyboard-response","trial_index":177,"plugin_version":"2.1.0","time_elapsed":432839,"subject_id":"86818","group":"Group2","full_date":"2025-11-26T23:43:33.177Z","date":"2025-11-26","time":"23:43:33"},{"rt":null,"stimulus":"<p style=\"font-size: 50px; margin: 0; text-align: center;\">+</p>","response":null,"trial_type":"html-keyboard-response","trial_index":178,"plugin_version":"2.1.0","time_elapsed":433841,"subject_id":"86818","group":"Group2","full_date":"2025-11-26T23:43:33.177Z","date":"2025-11-26","time":"23:43:33"},{"task":"memory_phase","broad_category":"M","image_png":"M_Slate_04.png","image_id":308,"category_name":"Slate","category":20,"distinct_rating":2.2,"distinct_type":"Bottom","rt":null,"stimulus":"Stimuli_Rocks480/M_Slate_04.png","response":null,"trial_type":"image-keyboard-response","trial_index":179,"plugin_version":"2.1.0","time_elapsed":436344,"subject_id":"86818","group":"Group2","full_date":"2025-11-26T23:43:33.177Z","date":"2025-11-26","time":"23:43:33"},{"rt":null,"stimulus":"<p style=\"font-size: 50px; margin: 0; text-align: center;\">+</p>","response":null,"trial_type":"html-keyboard-response","trial_index":180,"plugin_version":"2.1.0","time_elapsed":437345,"subject_id":"86818","group":"Group2","full_date":"2025-11-26T23:43:33.177Z","date":"2025-11-26","time":"23:43:33"},{"task":"memory_phase","broad_category":"I","image_png":"I_Diorite_10.png","image_id":42,"category_name":"Diorite","category":3,"distinct_rating":2.84,"distinct_type":"Bottom","rt":null,"stimulus":"Stimuli_Rocks480/I_Diorite_10.png","response":null,"trial_type":"image-keyboard-response","trial_index":181,"plugin_version":"2.1.0","time_elapsed":439848,"subject_id":"86818","group":"Group2","full_date":"2025-11-26T23:43:33.177Z","date":"2025-11-26","time":"23:43:33"},{"rt":null,"stimulus":"<p style=\"font-size: 50px; margin: 0; text-align: center;\">+</p>","response":null,"trial_type":"html-keyboard-response","trial_index":182,"plugin_version":"2.1.0","time_elapsed":440851,"subject_id":"86818","group":"Group2","full_date":"2025-11-26T23:43:33.177Z","date":"2025-11-26","time":"23:43:33"},{"task":"memory_phase","broad_category":"I","image_png":"I_Gabbro_12.png","image_id":60,"category_name":"Gabbro","category":4,"distinct_rating":2.6,"distinct_type":"Bottom","rt":null,"stimulus":"Stimuli_Rocks480/I_Gabbro_12.png","response":null,"trial_type":"image-keyboard-response","trial_index":183,"plugin_version":"2.1.0","time_elapsed":443355,"subject_id":"86818","group":"Group2","full_date":"2025-11-26T23:43:33.177Z","date":"2025-11-26","time":"23:43:33"},{"rt":null,"stimulus":"<p style=\"font-size: 50px; margin: 0; text-align: center;\">+</p>","response":null,"trial_type":"html-keyboard-response","trial_index":184,"plugin_version":"2.1.0","time_elapsed":444356,"subject_id":"86818","group":"Group2","full_date":"2025-11-26T23:43:33.177Z","date":"2025-11-26","time":"23:43:33"},{"task":"memory_phase","broad_category":"I","image_png":"I_Rhyolite_05.png","image_id":149,"category_name":"Rhyolite","category":10,"distinct_rating":3.02,"distinct_type":"Bottom","rt":null,"stimulus":"Stimuli_Rocks480/I_Rhyolite_05.png","response":null,"trial_type":"image-keyboard-response","trial_index":185,"plugin_version":"2.1.0","time_elapsed":446860,"subject_id":"86818","group":"Group2","full_date":"2025-11-26T23:43:33.177Z","date":"2025-11-26","time":"23:43:33"},{"rt":null,"stimulus":"<p style=\"font-size: 50px; margin: 0; text-align: center;\">+</p>","response":null,"trial_type":"html-keyboard-response","trial_index":186,"plugin_version":"2.1.0","time_elapsed":447862,"subject_id":"86818","group":"Group2","full_date":"2025-11-26T23:43:33.177Z","date":"2025-11-26","time":"23:43:33"},{"task":"memory_phase","broad_category":"I","image_png":"I_Andesite_09.png","image_id":9,"category_name":"Andesite","category":1,"distinct_rating":2.49,"distinct_type":"Bottom","rt":null,"stimulus":"Stimuli_Rocks480/I_Andesite_09.png","response":null,"trial_type":"image-keyboard-response","trial_index":187,"plugin_version":"2.1.0","time_elapsed":450365,"subject_id":"86818","group":"Group2","full_date":"2025-11-26T23:43:33.177Z","date":"2025-11-26","time":"23:43:33"},{"rt":null,"stimulus":"<p style=\"font-size: 50px; margin: 0; text-align: center;\">+</p>","response":null,"trial_type":"html-keyboard-response","trial_index":188,"plugin_version":"2.1.0","time_elapsed":451367,"subject_id":"86818","group":"Group2","full_date":"2025-11-26T23:43:33.177Z","date":"2025-11-26","time":"23:43:33"},{"task":"memory_phase","broad_category":"I","image_png":"I_Basalt_13.png","image_id":29,"category_name":"Basalt","category":2,"distinct_rating":2.68,"distinct_type":"Bottom","rt":null,"stimulus":"Stimuli_Rocks480/I_Basalt_13.png","response":null,"trial_type":"image-keyboard-response","trial_index":189,"plugin_version":"2.1.0","time_elapsed":453871,"subject_id":"86818","group":"Group2","full_date":"2025-11-26T23:43:33.177Z","date":"2025-11-26","time":"23:43:33"},{"rt":null,"stimulus":"<p style=\"font-size: 50px; margin: 0; text-align: center;\">+</p>","response":null,"trial_type":"html-keyboard-response","trial_index":190,"plugin_version":"2.1.0","time_elapsed":454873,"subject_id":"86818","group":"Group2","full_date":"2025-11-26T23:43:33.177Z","date":"2025-11-26","time":"23:43:33"},{"task":"memory_phase","broad_category":"S","image_png":"S_Conglomerate_14.png","image_id":382,"category_name":"Conglomerate","category":24,"distinct_rating":6.86,"distinct_type":"Top","rt":null,"stimulus":"Stimuli_Rocks480/S_Conglomerate_14.png","response":null,"trial_type":"image-keyboard-response","trial_index":191,"plugin_version":"2.1.0","time_elapsed":457376,"subject_id":"86818","group":"Group2","full_date":"2025-11-26T23:43:33.177Z","date":"2025-11-26","time":"23:43:33"},{"rt":null,"stimulus":"<p style=\"font-size: 50px; margin: 0; text-align: center;\">+</p>","response":null,"trial_type":"html-keyboard-response","trial_index":192,"plugin_version":"2.1.0","time_elapsed":458379,"subject_id":"86818","group":"Group2","full_date":"2025-11-26T23:43:33.177Z","date":"2025-11-26","time":"23:43:33"},{"task":"memory_phase","broad_category":"I","image_png":"I_Gabbro_02.png","image_id":50,"category_name":"Gabbro","category":4,"distinct_rating":2.73,"distinct_type":"Bottom","rt":null,"stimulus":"Stimuli_Rocks480/I_Gabbro_02.png","response":null,"trial_type":"image-keyboard-response","trial_index":193,"plugin_version":"2.1.0","time_elapsed":460882,"subject_id":"86818","group":"Group2","full_date":"2025-11-26T23:43:33.177Z","date":"2025-11-26","time":"23:43:33"},{"rt":null,"stimulus":"<p style=\"font-size: 50px; margin: 0; text-align: center;\">+</p>","response":null,"trial_type":"html-keyboard-response","trial_index":194,"plugin_version":"2.1.0","time_elapsed":461885,"subject_id":"86818","group":"Group2","full_date":"2025-11-26T23:43:33.177Z","date":"2025-11-26","time":"23:43:33"},{"task":"memory_phase","broad_category":"S","image_png":"S_Dolomite_01.png","image_id":385,"category_name":"Dolomite","category":25,"distinct_rating":1.43,"distinct_type":"Bottom","rt":null,"stimulus":"Stimuli_Rocks480/S_Dolomite_01.png","response":null,"trial_type":"image-keyboard-response","trial_index":195,"plugin_version":"2.1.0","time_elapsed":464388,"subject_id":"86818","group":"Group2","full_date":"2025-11-26T23:43:33.177Z","date":"2025-11-26","time":"23:43:33"},{"rt":null,"stimulus":"<p style=\"font-size: 50px; margin: 0; text-align: center;\">+</p>","response":null,"trial_type":"html-keyboard-response","trial_index":196,"plugin_version":"2.1.0","time_elapsed":465391,"subject_id":"86818","group":"Group2","full_date":"2025-11-26T23:43:33.177Z","date":"2025-11-26","time":"23:43:33"},{"task":"memory_phase","broad_category":"I","image_png":"I_Rhyolite_08.png","image_id":152,"category_name":"Rhyolite","category":10,"distinct_rating":1.38,"distinct_type":"Bottom","rt":null,"stimulus":"Stimuli_Rocks480/I_Rhyolite_08.png","response":null,"trial_type":"image-keyboard-response","trial_index":197,"plugin_version":"2.1.0","time_elapsed":467894,"subject_id":"86818","group":"Group2","full_date":"2025-11-26T23:43:33.177Z","date":"2025-11-26","time":"23:43:33"},{"rt":null,"stimulus":"<p style=\"font-size: 50px; margin: 0; text-align: center;\">+</p>","response":null,"trial_type":"html-keyboard-response","trial_index":198,"plugin_version":"2.1.0","time_elapsed":468897,"subject_id":"86818","group":"Group2","full_date":"2025-11-26T23:43:33.177Z","date":"2025-11-26","time":"23:43:33"},{"task":"memory_phase","broad_category":"M","image_png":"M_Slate_10.png","image_id":314,"category_name":"Slate","category":20,"distinct_rating":1.94,"distinct_type":"Bottom","rt":null,"stimulus":"Stimuli_Rocks480/M_Slate_10.png","response":null,"trial_type":"image-keyboard-response","trial_index":199,"plugin_version":"2.1.0","time_elapsed":471400,"subject_id":"86818","group":"Group2","full_date":"2025-11-26T23:43:33.177Z","date":"2025-11-26","time":"23:43:33"},{"rt":null,"stimulus":"<p style=\"font-size: 50px; margin: 0; text-align: center;\">+</p>","response":null,"trial_type":"html-keyboard-response","trial_index":200,"plugin_version":"2.1.0","time_elapsed":472403,"subject_id":"86818","group":"Group2","full_date":"2025-11-26T23:43:33.177Z","date":"2025-11-26","time":"23:43:33"},{"task":"memory_phase","broad_category":"I","image_png":"I_Pumice_13.png","image_id":141,"category_name":"Pumice","category":9,"distinct_rating":3.12,"distinct_type":"Bottom","rt":null,"stimulus":"Stimuli_Rocks480/I_Pumice_13.png","response":null,"trial_type":"image-keyboard-response","trial_index":201,"plugin_version":"2.1.0","time_elapsed":474906,"subject_id":"86818","group":"Group2","full_date":"2025-11-26T23:43:33.177Z","date":"2025-11-26","time":"23:43:33"},{"rt":null,"stimulus":"<p style=\"font-size: 50px; margin: 0; text-align: center;\">+</p>","response":null,"trial_type":"html-keyboard-response","trial_index":202,"plugin_version":"2.1.0","time_elapsed":475908,"subject_id":"86818","group":"Group2","full_date":"2025-11-26T23:43:33.177Z","date":"2025-11-26","time":"23:43:33"},{"task":"memory_phase","broad_category":"I","image_png":"I_Basalt_10.png","image_id":26,"category_name":"Basalt","category":2,"distinct_rating":2.76,"distinct_type":"Bottom","rt":null,"stimulus":"Stimuli_Rocks480/I_Basalt_10.png","response":null,"trial_type":"image-keyboard-response","trial_index":203,"plugin_version":"2.1.0","time_elapsed":478411,"subject_id":"86818","group":"Group2","full_date":"2025-11-26T23:43:33.177Z","date":"2025-11-26","time":"23:43:33"},{"rt":null,"stimulus":"<p style=\"font-size: 50px; margin: 0; text-align: center;\">+</p>","response":null,"trial_type":"html-keyboard-response","trial_index":204,"plugin_version":"2.1.0","time_elapsed":479414,"subject_id":"86818","group":"Group2","full_date":"2025-11-26T23:43:33.177Z","date":"2025-11-26","time":"23:43:33"},{"task":"memory_phase","broad_category":"S","image_png":"S_Sandstone_11.png","image_id":459,"category_name":"Sandstone","category":29,"distinct_rating":1.82,"distinct_type":"Bottom","rt":null,"stimulus":"Stimuli_Rocks480/S_Sandstone_11.png","response":null,"trial_type":"image-keyboard-response","trial_index":205,"plugin_version":"2.1.0","time_elapsed":481916,"subject_id":"86818","group":"Group2","full_date":"2025-11-26T23:43:33.177Z","date":"2025-11-26","time":"23:43:33"},{"rt":null,"stimulus":"<p style=\"font-size: 50px; margin: 0; text-align: center;\">+</p>","response":null,"trial_type":"html-keyboard-response","trial_index":206,"plugin_version":"2.1.0","time_elapsed":482918,"subject_id":"86818","group":"Group2","full_date":"2025-11-26T23:43:33.177Z","date":"2025-11-26","time":"23:43:33"},{"task":"memory_phase","broad_category":"I","image_png":"I_Andesite_04.png","image_id":4,"category_name":"Andesite","category":1,"distinct_rating":3.18,"distinct_type":"Bottom","rt":null,"stimulus":"Stimuli_Rocks480/I_Andesite_04.png","response":null,"trial_type":"image-keyboard-response","trial_index":207,"plugin_version":"2.1.0","time_elapsed":485421,"subject_id":"86818","group":"Group2","full_date":"2025-11-26T23:43:33.177Z","date":"2025-11-26","time":"23:43:33"},{"rt":24906,"stimulus":"<p style=\"max-width: 760px; margin: auto; font-size: 35px; line-height: 1.5;\">You have completed 2 study phases. Now, we'll show you all the images again 1 more time.<br><br>Press SPACE to continue</p>","response":" ","trial_type":"html-keyboard-response","trial_index":208,"plugin_version":"2.1.0","time_elapsed":510328,"subject_id":"86818","group":"Group2","full_date":"2025-11-26T23:43:33.177Z","date":"2025-11-26","time":"23:43:33"},{"rt":null,"stimulus":"<p style=\"font-size: 50px; margin: 0; text-align: center;\">+</p>","response":null,"trial_type":"html-keyboard-response","trial_index":209,"plugin_version":"2.1.0","time_elapsed":511330,"subject_id":"86818","group":"Group2","full_date":"2025-11-26T23:43:33.177Z","date":"2025-11-26","time":"23:43:33"},{"task":"memory_phase","broad_category":"I","image_png":"I_Andesite_04.png","image_id":4,"category_name":"Andesite","category":1,"distinct_rating":3.18,"distinct_type":"Bottom","rt":null,"stimulus":"Stimuli_Rocks480/I_Andesite_04.png","response":null,"trial_type":"image-keyboard-response","trial_index":210,"plugin_version":"2.1.0","time_elapsed":513834,"subject_id":"86818","group":"Group2","full_date":"2025-11-26T23:43:33.177Z","date":"2025-11-26","time":"23:43:33"},{"rt":null,"stimulus":"<p style=\"font-size: 50px; margin: 0; text-align: center;\">+</p>","response":null,"trial_type":"html-keyboard-response","trial_index":211,"plugin_version":"2.1.0","time_elapsed":514837,"subject_id":"86818","group":"Group2","full_date":"2025-11-26T23:43:33.177Z","date":"2025-11-26","time":"23:43:33"},{"task":"memory_phase","broad_category":"I","image_png":"I_Pumice_13.png","image_id":141,"category_name":"Pumice","category":9,"distinct_rating":3.12,"distinct_type":"Bottom","rt":null,"stimulus":"Stimuli_Rocks480/I_Pumice_13.png","response":null,"trial_type":"image-keyboard-response","trial_index":212,"plugin_version":"2.1.0","time_elapsed":517340,"subject_id":"86818","group":"Group2","full_date":"2025-11-26T23:43:33.177Z","date":"2025-11-26","time":"23:43:33"},{"rt":null,"stimulus":"<p style=\"font-size: 50px; margin: 0; text-align: center;\">+</p>","response":null,"trial_type":"html-keyboard-response","trial_index":213,"plugin_version":"2.1.0","time_elapsed":518343,"subject_id":"86818","group":"Group2","full_date":"2025-11-26T23:43:33.177Z","date":"2025-11-26","time":"23:43:33"},{"task":"memory_phase","broad_category":"M","image_png":"M_Phyllite_13.png","image_id":269,"category_name":"Phyllite","category":17,"distinct_rating":2.8,"distinct_type":"Bottom","rt":null,"stimulus":"Stimuli_Rocks480/M_Phyllite_13.png","response":null,"trial_type":"image-keyboard-response","trial_index":214,"plugin_version":"2.1.0","time_elapsed":520846,"subject_id":"86818","group":"Group2","full_date":"2025-11-26T23:43:33.177Z","date":"2025-11-26","time":"23:43:33"},{"rt":null,"stimulus":"<p style=\"font-size: 50px; margin: 0; text-align: center;\">+</p>","response":null,"trial_type":"html-keyboard-response","trial_index":215,"plugin_version":"2.1.0","time_elapsed":521848,"subject_id":"86818","group":"Group2","full_date":"2025-11-26T23:43:33.177Z","date":"2025-11-26","time":"23:43:33"},{"task":"memory_phase","broad_category":"M","image_png":"M_Phyllite_05.png","image_id":261,"category_name":"Phyllite","category":17,"distinct_rating":2.14,"distinct_type":"Bottom","rt":null,"stimulus":"Stimuli_Rocks480/M_Phyllite_05.png","response":null,"trial_type":"image-keyboard-response","trial_index":216,"plugin_version":"2.1.0","time_elapsed":524351,"subject_id":"86818","group":"Group2","full_date":"2025-11-26T23:43:33.177Z","date":"2025-11-26","time":"23:43:33"},{"rt":null,"stimulus":"<p style=\"font-size: 50px; margin: 0; text-align: center;\">+</p>","response":null,"trial_type":"html-keyboard-response","trial_index":217,"plugin_version":"2.1.0","time_elapsed":525354,"subject_id":"86818","group":"Group2","full_date":"2025-11-26T23:43:33.177Z","date":"2025-11-26","time":"23:43:33"},{"task":"memory_phase","broad_category":"M","image_png":"M_Slate_04.png","image_id":308,"category_name":"Slate","category":20,"distinct_rating":2.2,"distinct_type":"Bottom","rt":null,"stimulus":"Stimuli_Rocks480/M_Slate_04.png","response":null,"trial_type":"image-keyboard-response","trial_index":218,"plugin_version":"2.1.0","time_elapsed":527857,"subject_id":"86818","group":"Group2","full_date":"2025-11-26T23:43:33.177Z","date":"2025-11-26","time":"23:43:33"},{"rt":null,"stimulus":"<p style=\"font-size: 50px; margin: 0; text-align: center;\">+</p>","response":null,"trial_type":"html-keyboard-response","trial_index":219,"plugin_version":"2.1.0","time_elapsed":528859,"subject_id":"86818","group":"Group2","full_date":"2025-11-26T23:43:33.177Z","date":"2025-11-26","time":"23:43:33"},{"task":"memory_phase","broad_category":"M","image_png":"M_Slate_10.png","image_id":314,"category_name":"Slate","category":20,"distinct_rating":1.94,"distinct_type":"Bottom","rt":null,"stimulus":"Stimuli_Rocks480/M_Slate_10.png","response":null,"trial_type":"image-keyboard-response","trial_index":220,"plugin_version":"2.1.0","time_elapsed":531362,"subject_id":"86818","group":"Group2","full_date":"2025-11-26T23:43:33.177Z","date":"2025-11-26","time":"23:43:33"},{"rt":null,"stimulus":"<p style=\"font-size: 50px; margin: 0; text-align: center;\">+</p>","response":null,"trial_type":"html-keyboard-response","trial_index":221,"plugin_version":"2.1.0","time_elapsed":532364,"subject_id":"86818","group":"Group2","full_date":"2025-11-26T23:43:33.177Z","date":"2025-11-26","time":"23:43:33"},{"task":"memory_phase","broad_category":"M","image_png":"M_Slate_14.png","image_id":318,"category_name":"Slate","category":20,"distinct_rating":2.58,"distinct_type":"Bottom","rt":null,"stimulus":"Stimuli_Rocks480/M_Slate_14.png","response":null,"trial_type":"image-keyboard-response","trial_index":222,"plugin_version":"2.1.0","time_elapsed":534867,"subject_id":"86818","group":"Group2","full_date":"2025-11-26T23:43:33.177Z","date":"2025-11-26","time":"23:43:33"},{"rt":null,"stimulus":"<p style=\"font-size: 50px; margin: 0; text-align: center;\">+</p>","response":null,"trial_type":"html-keyboard-response","trial_index":223,"plugin_version":"2.1.0","time_elapsed":535870,"subject_id":"86818","group":"Group2","full_date":"2025-11-26T23:43:33.177Z","date":"2025-11-26","time":"23:43:33"},{"task":"memory_phase","broad_category":"I","image_png":"I_Rhyolite_08.png","image_id":152,"category_name":"Rhyolite","category":10,"distinct_rating":1.38,"distinct_type":"Bottom","rt":null,"stimulus":"Stimuli_Rocks480/I_Rhyolite_08.png","response":null,"trial_type":"image-keyboard-response","trial_index":224,"plugin_version":"2.1.0","time_elapsed":538372,"subject_id":"86818","group":"Group2","full_date":"2025-11-26T23:43:33.177Z","date":"2025-11-26","time":"23:43:33"},{"rt":null,"stimulus":"<p style=\"font-size: 50px; margin: 0; text-align: center;\">+</p>","response":null,"trial_type":"html-keyboard-response","trial_index":225,"plugin_version":"2.1.0","time_elapsed":539375,"subject_id":"86818","group":"Group2","full_date":"2025-11-26T23:43:33.177Z","date":"2025-11-26","time":"23:43:33"},{"task":"memory_phase","broad_category":"I","image_png":"I_Rhyolite_05.png","image_id":149,"category_name":"Rhyolite","category":10,"distinct_rating":3.02,"distinct_type":"Bottom","rt":null,"stimulus":"Stimuli_Rocks480/I_Rhyolite_05.png","response":null,"trial_type":"image-keyboard-response","trial_index":226,"plugin_version":"2.1.0","time_elapsed":541878,"subject_id":"86818","group":"Group2","full_date":"2025-11-26T23:43:33.177Z","date":"2025-11-26","time":"23:43:33"},{"rt":null,"stimulus":"<p style=\"font-size: 50px; margin: 0; text-align: center;\">+</p>","response":null,"trial_type":"html-keyboard-response","trial_index":227,"plugin_version":"2.1.0","time_elapsed":542880,"subject_id":"86818","group":"Group2","full_date":"2025-11-26T23:43:33.177Z","date":"2025-11-26","time":"23:43:33"},{"task":"memory_phase","broad_category":"I","image_png":"I_Basalt_10.png","image_id":26,"category_name":"Basalt","category":2,"distinct_rating":2.76,"distinct_type":"Bottom","rt":null,"stimulus":"Stimuli_Rocks480/I_Basalt_10.png","response":null,"trial_type":"image-keyboard-response","trial_index":228,"plugin_version":"2.1.0","time_elapsed":545384,"subject_id":"86818","group":"Group2","full_date":"2025-11-26T23:43:33.177Z","date":"2025-11-26","time":"23:43:33"},{"rt":null,"stimulus":"<p style=\"font-size: 50px; margin: 0; text-align: center;\">+</p>","response":null,"trial_type":"html-keyboard-response","trial_index":229,"plugin_version":"2.1.0","time_elapsed":546387,"subject_id":"86818","group":"Group2","full_date":"2025-11-26T23:43:33.177Z","date":"2025-11-26","time":"23:43:33"},{"task":"memory_phase","broad_category":"I","image_png":"I_Diorite_10.png","image_id":42,"category_name":"Diorite","category":3,"distinct_rating":2.84,"distinct_type":"Bottom","rt":null,"stimulus":"Stimuli_Rocks480/I_Diorite_10.png","response":null,"trial_type":"image-keyboard-response","trial_index":230,"plugin_version":"2.1.0","time_elapsed":548890,"subject_id":"86818","group":"Group2","full_date":"2025-11-26T23:43:33.177Z","date":"2025-11-26","time":"23:43:33"},{"rt":null,"stimulus":"<p style=\"font-size: 50px; margin: 0; text-align: center;\">+</p>","response":null,"trial_type":"html-keyboard-response","trial_index":231,"plugin_version":"2.1.0","time_elapsed":549893,"subject_id":"86818","group":"Group2","full_date":"2025-11-26T23:43:33.177Z","date":"2025-11-26","time":"23:43:33"},{"task":"memory_phase","broad_category":"M","image_png":"M_Quartzite_07.png","image_id":279,"category_name":"Quartzite","category":18,"distinct_rating":1.97,"distinct_type":"Bottom","rt":null,"stimulus":"Stimuli_Rocks480/M_Quartzite_07.png","response":null,"trial_type":"image-keyboard-response","trial_index":232,"plugin_version":"2.1.0","time_elapsed":552396,"subject_id":"86818","group":"Group2","full_date":"2025-11-26T23:43:33.177Z","date":"2025-11-26","time":"23:43:33"},{"rt":null,"stimulus":"<p style=\"font-size: 50px; margin: 0; text-align: center;\">+</p>","response":null,"trial_type":"html-keyboard-response","trial_index":233,"plugin_version":"2.1.0","time_elapsed":553397,"subject_id":"86818","group":"Group2","full_date":"2025-11-26T23:43:33.177Z","date":"2025-11-26","time":"23:43:33"},{"task":"memory_phase","broad_category":"S","image_png":"S_Dolomite_01.png","image_id":385,"category_name":"Dolomite","category":25,"distinct_rating":1.43,"distinct_type":"Bottom","rt":null,"stimulus":"Stimuli_Rocks480/S_Dolomite_01.png","response":null,"trial_type":"image-keyboard-response","trial_index":234,"plugin_version":"2.1.0","time_elapsed":555901,"subject_id":"86818","group":"Group2","full_date":"2025-11-26T23:43:33.177Z","date":"2025-11-26","time":"23:43:33"},{"rt":null,"stimulus":"<p style=\"font-size: 50px; margin: 0; text-align: center;\">+</p>","response":null,"trial_type":"html-keyboard-response","trial_index":235,"plugin_version":"2.1.0","time_elapsed":556903,"subject_id":"86818","group":"Group2","full_date":"2025-11-26T23:43:33.177Z","date":"2025-11-26","time":"23:43:33"},{"task":"memory_phase","broad_category":"S","image_png":"S_Shale_07.png","image_id":471,"category_name":"Shale","category":30,"distinct_rating":2.73,"distinct_type":"Bottom","rt":null,"stimulus":"Stimuli_Rocks480/S_Shale_07.png","response":null,"trial_type":"image-keyboard-response","trial_index":236,"plugin_version":"2.1.0","time_elapsed":559407,"subject_id":"86818","group":"Group2","full_date":"2025-11-26T23:43:33.177Z","date":"2025-11-26","time":"23:43:33"},{"rt":null,"stimulus":"<p style=\"font-size: 50px; margin: 0; text-align: center;\">+</p>","response":null,"trial_type":"html-keyboard-response","trial_index":237,"plugin_version":"2.1.0","time_elapsed":560409,"subject_id":"86818","group":"Group2","full_date":"2025-11-26T23:43:33.177Z","date":"2025-11-26","time":"23:43:33"},{"task":"memory_phase","broad_category":"I","image_png":"I_Diorite_15.png","image_id":47,"category_name":"Diorite","category":3,"distinct_rating":3.05,"distinct_type":"Bottom","rt":null,"stimulus":"Stimuli_Rocks480/I_Diorite_15.png","response":null,"trial_type":"image-keyboard-response","trial_index":238,"plugin_version":"2.1.0","time_elapsed":562912,"subject_id":"86818","group":"Group2","full_date":"2025-11-26T23:43:33.177Z","date":"2025-11-26","time":"23:43:33"},{"rt":null,"stimulus":"<p style=\"font-size: 50px; margin: 0; text-align: center;\">+</p>","response":null,"trial_type":"html-keyboard-response","trial_index":239,"plugin_version":"2.1.0","time_elapsed":563915,"subject_id":"86818","group":"Group2","full_date":"2025-11-26T23:43:33.177Z","date":"2025-11-26","time":"23:43:33"},{"task":"memory_phase","broad_category":"I","image_png":"I_Peridotite_13.png","image_id":125,"category_name":"Peridotite","category":8,"distinct_rating":7.28,"distinct_type":"Top","rt":null,"stimulus":"Stimuli_Rocks480/I_Peridotite_13.png","response":null,"trial_type":"image-keyboard-response","trial_index":240,"plugin_version":"2.1.0","time_elapsed":566419,"subject_id":"86818","group":"Group2","full_date":"2025-11-26T23:43:33.177Z","date":"2025-11-26","time":"23:43:33"},{"rt":null,"stimulus":"<p style=\"font-size: 50px; margin: 0; text-align: center;\">+</p>","response":null,"trial_type":"html-keyboard-response","trial_index":241,"plugin_version":"2.1.0","time_elapsed":567420,"subject_id":"86818","group":"Group2","full_date":"2025-11-26T23:43:33.177Z","date":"2025-11-26","time":"23:43:33"},{"task":"memory_phase","broad_category":"I","image_png":"I_Basalt_13.png","image_id":29,"category_name":"Basalt","category":2,"distinct_rating":2.68,"distinct_type":"Bottom","rt":null,"stimulus":"Stimuli_Rocks480/I_Basalt_13.png","response":null,"trial_type":"image-keyboard-response","trial_index":242,"plugin_version":"2.1.0","time_elapsed":569924,"subject_id":"86818","group":"Group2","full_date":"2025-11-26T23:43:33.177Z","date":"2025-11-26","time":"23:43:33"},{"rt":null,"stimulus":"<p style=\"font-size: 50px; margin: 0; text-align: center;\">+</p>","response":null,"trial_type":"html-keyboard-response","trial_index":243,"plugin_version":"2.1.0","time_elapsed":570926,"subject_id":"86818","group":"Group2","full_date":"2025-11-26T23:43:33.177Z","date":"2025-11-26","time":"23:43:33"},{"task":"memory_phase","broad_category":"I","image_png":"I_Andesite_03.png","image_id":3,"category_name":"Andesite","category":1,"distinct_rating":3.17,"distinct_type":"Bottom","rt":null,"stimulus":"Stimuli_Rocks480/I_Andesite_03.png","response":null,"trial_type":"image-keyboard-response","trial_index":244,"plugin_version":"2.1.0","time_elapsed":573430,"subject_id":"86818","group":"Group2","full_date":"2025-11-26T23:43:33.177Z","date":"2025-11-26","time":"23:43:33"},{"rt":null,"stimulus":"<p style=\"font-size: 50px; margin: 0; text-align: center;\">+</p>","response":null,"trial_type":"html-keyboard-response","trial_index":245,"plugin_version":"2.1.0","time_elapsed":574432,"subject_id":"86818","group":"Group2","full_date":"2025-11-26T23:43:33.177Z","date":"2025-11-26","time":"23:43:33"},{"task":"memory_phase","broad_category":"I","image_png":"I_Pumice_14.png","image_id":142,"category_name":"Pumice","category":9,"distinct_rating":3.22,"distinct_type":"Bottom","rt":null,"stimulus":"Stimuli_Rocks480/I_Pumice_14.png","response":null,"trial_type":"image-keyboard-response","trial_index":246,"plugin_version":"2.1.0","time_elapsed":576935,"subject_id":"86818","group":"Group2","full_date":"2025-11-26T23:43:33.177Z","date":"2025-11-26","time":"23:43:33"},{"rt":null,"stimulus":"<p style=\"font-size: 50px; margin: 0; text-align: center;\">+</p>","response":null,"trial_type":"html-keyboard-response","trial_index":247,"plugin_version":"2.1.0","time_elapsed":577938,"subject_id":"86818","group":"Group2","full_date":"2025-11-26T23:43:33.177Z","date":"2025-11-26","time":"23:43:33"},{"task":"memory_phase","broad_category":"S","image_png":"S_Shale_02.png","image_id":466,"category_name":"Shale","category":30,"distinct_rating":2.9,"distinct_type":"Bottom","rt":null,"stimulus":"Stimuli_Rocks480/S_Shale_02.png","response":null,"trial_type":"image-keyboard-response","trial_index":248,"plugin_version":"2.1.0","time_elapsed":580441,"subject_id":"86818","group":"Group2