[{"width":1186,"height":576,"webaudio":true,"browser":"chrome","browser_version":"142.0.0","mobile":false,"os":"Windows 10","fullscreen":true,"vsync_rate":60.14,"webcam":false,"microphone":true,"trial_type":"browser-check","trial_index":0,"plugin_version":"2.1.0","time_elapsed":1013,"subject_id":"90136","group":"Group2","full_date":"2025-11-21T04:02:23.568Z","date":"2025-11-21","time":"04:02:23"},{"success":true,"timeout":false,"failed_images":[],"failed_audio":[],"failed_video":[],"trial_type":"preload","trial_index":1,"plugin_version":"2.1.0","time_elapsed":37549,"subject_id":"90136","group":"Group2","full_date":"2025-11-21T04:02:23.568Z","date":"2025-11-21","time":"04:02:23"},{"rt":1210768,"url":"SONA_consent_memorability.html","trial_type":"external-html","trial_index":2,"plugin_version":"2.1.0","time_elapsed":1248393,"subject_id":"90136","group":"Group2","full_date":"2025-11-21T04:02:23.568Z","date":"2025-11-21","time":"04:02:23"},{"success":true,"rt":1029,"trial_type":"fullscreen","trial_index":3,"plugin_version":"2.1.0","time_elapsed":1250430,"subject_id":"90136","group":"Group2","full_date":"2025-11-21T04:02:23.568Z","date":"2025-11-21","time":"04:02:23"},{"rt":1829,"stimulus":"<div style=\"max-width: 760px; margin: auto; font-size: 20px; line-height: 1.5;\">\n      <h1 style=\"text-align:center; font-size: 30px;\">Instructions</h1>\n      <p>\n        Welcome to the study on <b>visual memory</b>. This experiment consists of <b>two phases</b>: \n        a <b>study phase</b> and a <b>test phase</b>.\n      </p>\n      <p>\n        In the study phase, you will see a series of rock images along with their category labels.\n        The images will appear one at a time.\n        <b>Your task</b> is to learn the categories to which the rock images belong \n        and to remember each image as accurately as possible.\n      </p> \n      <p>\n        Note that we will repeat the study phase <b>3 times</b>, \n        so you will have multiple opportunities to see and remember each image.\n      </p>\n      <p>\n        After the study phase, <b>your memory will be tested</b>. \n        Additional instructions for the test phase will be provided at that time.\n      </p>\n      <p>\n        If your computer has multiple <b>language settings</b> (e.g., English and another language),\n        please make sure it is set to English before starting.\n      </p>\n      <p>\n        You can track your progress using the <b>completion bar</b> at the top of the screen. \n        Please note that the bar will refresh when the test phase begins \n        to give you an accurate sense of your progress in both phases.\n      </p> \n      <p>\n        Press the button below when you are ready to begin.\n      </p>\n    </div>","response":0,"trial_type":"html-button-response","trial_index":4,"plugin_version":"2.1.0","time_elapsed":1252262,"subject_id":"90136","group":"Group2","full_date":"2025-11-21T04:02:23.568Z","date":"2025-11-21","time":"04:02:23"},{"rt":null,"stimulus":"<p style=\"font-size: 50px; margin: 0; text-align: center;\">+</p>","response":null,"trial_type":"html-keyboard-response","trial_index":5,"plugin_version":"2.1.0","time_elapsed":1253272,"subject_id":"90136","group":"Group2","full_date":"2025-11-21T04:02:23.568Z","date":"2025-11-21","time":"04:02:23"},{"task":"memory_phase","broad_category":"I","image_png":"I_Peridotite_13.png","image_id":125,"category_name":"Peridotite","category":8,"distinct_rating":7.28,"distinct_type":"Top","rt":null,"stimulus":"Stimuli_Rocks480/I_Peridotite_13.png","response":null,"trial_type":"image-keyboard-response","trial_index":6,"plugin_version":"2.1.0","time_elapsed":1255789,"subject_id":"90136","group":"Group2","full_date":"2025-11-21T04:02:23.568Z","date":"2025-11-21","time":"04:02:23"},{"rt":null,"stimulus":"<p style=\"font-size: 50px; margin: 0; text-align: center;\">+</p>","response":null,"trial_type":"html-keyboard-response","trial_index":7,"plugin_version":"2.1.0","time_elapsed":1256804,"subject_id":"90136","group":"Group2","full_date":"2025-11-21T04:02:23.568Z","date":"2025-11-21","time":"04:02:23"},{"task":"memory_phase","broad_category":"M","image_png":"M_Phyllite_05.png","image_id":261,"category_name":"Phyllite","category":17,"distinct_rating":2.14,"distinct_type":"Bottom","rt":null,"stimulus":"Stimuli_Rocks480/M_Phyllite_05.png","response":null,"trial_type":"image-keyboard-response","trial_index":8,"plugin_version":"2.1.0","time_elapsed":1259321,"subject_id":"90136","group":"Group2","full_date":"2025-11-21T04:02:23.568Z","date":"2025-11-21","time":"04:02:23"},{"rt":null,"stimulus":"<p style=\"font-size: 50px; margin: 0; text-align: center;\">+</p>","response":null,"trial_type":"html-keyboard-response","trial_index":9,"plugin_version":"2.1.0","time_elapsed":1260329,"subject_id":"90136","group":"Group2","full_date":"2025-11-21T04:02:23.568Z","date":"2025-11-21","time":"04:02:23"},{"task":"memory_phase","broad_category":"S","image_png":"S_Sandstone_08.png","image_id":456,"category_name":"Sandstone","category":29,"distinct_rating":1.5,"distinct_type":"Bottom","rt":null,"stimulus":"Stimuli_Rocks480/S_Sandstone_08.png","response":null,"trial_type":"image-keyboard-response","trial_index":10,"plugin_version":"2.1.0","time_elapsed":1262844,"subject_id":"90136","group":"Group2","full_date":"2025-11-21T04:02:23.568Z","date":"2025-11-21","time":"04:02:23"},{"rt":null,"stimulus":"<p style=\"font-size: 50px; margin: 0; text-align: center;\">+</p>","response":null,"trial_type":"html-keyboard-response","trial_index":11,"plugin_version":"2.1.0","time_elapsed":1263855,"subject_id":"90136","group":"Group2","full_date":"2025-11-21T04:02:23.568Z","date":"2025-11-21","time":"04:02:23"},{"task":"memory_phase","broad_category":"I","image_png":"I_Basalt_13.png","image_id":29,"category_name":"Basalt","category":2,"distinct_rating":2.68,"distinct_type":"Bottom","rt":null,"stimulus":"Stimuli_Rocks480/I_Basalt_13.png","response":null,"trial_type":"image-keyboard-response","trial_index":12,"plugin_version":"2.1.0","time_elapsed":1266366,"subject_id":"90136","group":"Group2","full_date":"2025-11-21T04:02:23.568Z","date":"2025-11-21","time":"04:02:23"},{"rt":null,"stimulus":"<p style=\"font-size: 50px; margin: 0; text-align: center;\">+</p>","response":null,"trial_type":"html-keyboard-response","trial_index":13,"plugin_version":"2.1.0","time_elapsed":1267371,"subject_id":"90136","group":"Group2","full_date":"2025-11-21T04:02:23.568Z","date":"2025-11-21","time":"04:02:23"},{"task":"memory_phase","broad_category":"I","image_png":"I_Basalt_10.png","image_id":26,"category_name":"Basalt","category":2,"distinct_rating":2.76,"distinct_type":"Bottom","rt":null,"stimulus":"Stimuli_Rocks480/I_Basalt_10.png","response":null,"trial_type":"image-keyboard-response","trial_index":14,"plugin_version":"2.1.0","time_elapsed":1269881,"subject_id":"90136","group":"Group2","full_date":"2025-11-21T04:02:23.568Z","date":"2025-11-21","time":"04:02:23"},{"rt":null,"stimulus":"<p style=\"font-size: 50px; margin: 0; text-align: center;\">+</p>","response":null,"trial_type":"html-keyboard-response","trial_index":15,"plugin_version":"2.1.0","time_elapsed":1270890,"subject_id":"90136","group":"Group2","full_date":"2025-11-21T04:02:23.568Z","date":"2025-11-21","time":"04:02:23"},{"task":"memory_phase","broad_category":"M","image_png":"M_Marble_02.png","image_id":226,"category_name":"Marble","category":15,"distinct_rating":3.2,"distinct_type":"Bottom","rt":null,"stimulus":"Stimuli_Rocks480/M_Marble_02.png","response":null,"trial_type":"image-keyboard-response","trial_index":16,"plugin_version":"2.1.0","time_elapsed":1273399,"subject_id":"90136","group":"Group2","full_date":"2025-11-21T04:02:23.568Z","date":"2025-11-21","time":"04:02:23"},{"rt":null,"stimulus":"<p style=\"font-size: 50px; margin: 0; text-align: center;\">+</p>","response":null,"trial_type":"html-keyboard-response","trial_index":17,"plugin_version":"2.1.0","time_elapsed":1274416,"subject_id":"90136","group":"Group2","full_date":"2025-11-21T04:02:23.568Z","date":"2025-11-21","time":"04:02:23"},{"task":"memory_phase","broad_category":"M","image_png":"M_Quartzite_07.png","image_id":279,"category_name":"Quartzite","category":18,"distinct_rating":1.97,"distinct_type":"Bottom","rt":null,"stimulus":"Stimuli_Rocks480/M_Quartzite_07.png","response":null,"trial_type":"image-keyboard-response","trial_index":18,"plugin_version":"2.1.0","time_elapsed":1276929,"subject_id":"90136","group":"Group2","full_date":"2025-11-21T04:02:23.568Z","date":"2025-11-21","time":"04:02:23"},{"rt":null,"stimulus":"<p style=\"font-size: 50px; margin: 0; text-align: center;\">+</p>","response":null,"trial_type":"html-keyboard-response","trial_index":19,"plugin_version":"2.1.0","time_elapsed":1277946,"subject_id":"90136","group":"Group2","full_date":"2025-11-21T04:02:23.568Z","date":"2025-11-21","time":"04:02:23"},{"task":"memory_phase","broad_category":"M","image_png":"M_Marble_03.png","image_id":227,"category_name":"Marble","category":15,"distinct_rating":2.67,"distinct_type":"Bottom","rt":null,"stimulus":"Stimuli_Rocks480/M_Marble_03.png","response":null,"trial_type":"image-keyboard-response","trial_index":20,"plugin_version":"2.1.0","time_elapsed":1280456,"subject_id":"90136","group":"Group2","full_date":"2025-11-21T04:02:23.568Z","date":"2025-11-21","time":"04:02:23"},{"rt":null,"stimulus":"<p style=\"font-size: 50px; margin: 0; text-align: center;\">+</p>","response":null,"trial_type":"html-keyboard-response","trial_index":21,"plugin_version":"2.1.0","time_elapsed":1281467,"subject_id":"90136","group":"Group2","full_date":"2025-11-21T04:02:23.568Z","date":"2025-11-21","time":"04:02:23"},{"task":"memory_phase","broad_category":"S","image_png":"S_Dolomite_01.png","image_id":385,"category_name":"Dolomite","category":25,"distinct_rating":1.43,"distinct_type":"Bottom","rt":null,"stimulus":"Stimuli_Rocks480/S_Dolomite_01.png","response":null,"trial_type":"image-keyboard-response","trial_index":22,"plugin_version":"2.1.0","time_elapsed":1283979,"subject_id":"90136","group":"Group2","full_date":"2025-11-21T04:02:23.568Z","date":"2025-11-21","time":"04:02:23"},{"rt":null,"stimulus":"<p style=\"font-size: 50px; margin: 0; text-align: center;\">+</p>","response":null,"trial_type":"html-keyboard-response","trial_index":23,"plugin_version":"2.1.0","time_elapsed":1284990,"subject_id":"90136","group":"Group2","full_date":"2025-11-21T04:02:23.568Z","date":"2025-11-21","time":"04:02:23"},{"task":"memory_phase","broad_category":"M","image_png":"M_Quartzite_15.png","image_id":287,"category_name":"Quartzite","category":18,"distinct_rating":2.19,"distinct_type":"Bottom","rt":null,"stimulus":"Stimuli_Rocks480/M_Quartzite_15.png","response":null,"trial_type":"image-keyboard-response","trial_index":24,"plugin_version":"2.1.0","time_elapsed":1287496,"subject_id":"90136","group":"Group2","full_date":"2025-11-21T04:02:23.568Z","date":"2025-11-21","time":"04:02:23"},{"rt":null,"stimulus":"<p style=\"font-size: 50px; margin: 0; text-align: center;\">+</p>","response":null,"trial_type":"html-keyboard-response","trial_index":25,"plugin_version":"2.1.0","time_elapsed":1288507,"subject_id":"90136","group":"Group2","full_date":"2025-11-21T04:02:23.568Z","date":"2025-11-21","time":"04:02:23"},{"task":"memory_phase","broad_category":"S","image_png":"S_Dolomite_16.png","image_id":400,"category_name":"Dolomite","category":25,"distinct_rating":1.71,"distinct_type":"Bottom","rt":null,"stimulus":"Stimuli_Rocks480/S_Dolomite_16.png","response":null,"trial_type":"image-keyboard-response","trial_index":26,"plugin_version":"2.1.0","time_elapsed":1291012,"subject_id":"90136","group":"Group2","full_date":"2025-11-21T04:02:23.568Z","date":"2025-11-21","time":"04:02:23"},{"rt":null,"stimulus":"<p style=\"font-size: 50px; margin: 0; text-align: center;\">+</p>","response":null,"trial_type":"html-keyboard-response","trial_index":27,"plugin_version":"2.1.0","time_elapsed":1292021,"subject_id":"90136","group":"Group2","full_date":"2025-11-21T04:02:23.568Z","date":"2025-11-21","time":"04:02:23"},{"task":"memory_phase","broad_category":"M","image_png":"M_Slate_04.png","image_id":308,"category_name":"Slate","category":20,"distinct_rating":2.2,"distinct_type":"Bottom","rt":null,"stimulus":"Stimuli_Rocks480/M_Slate_04.png","response":null,"trial_type":"image-keyboard-response","trial_index":28,"plugin_version":"2.1.0","time_elapsed":1294531,"subject_id":"90136","group":"Group2","full_date":"2025-11-21T04:02:23.568Z","date":"2025-11-21","time":"04:02:23"},{"rt":null,"stimulus":"<p style=\"font-size: 50px; margin: 0; text-align: center;\">+</p>","response":null,"trial_type":"html-keyboard-response","trial_index":29,"plugin_version":"2.1.0","time_elapsed":1295538,"subject_id":"90136","group":"Group2","full_date":"2025-11-21T04:02:23.568Z","date":"2025-11-21","time":"04:02:23"},{"task":"memory_phase","broad_category":"I","image_png":"I_Diorite_15.png","image_id":47,"category_name":"Diorite","category":3,"distinct_rating":3.05,"distinct_type":"Bottom","rt":null,"stimulus":"Stimuli_Rocks480/I_Diorite_15.png","response":null,"trial_type":"image-keyboard-response","trial_index":30,"plugin_version":"2.1.0","time_elapsed":1298051,"subject_id":"90136","group":"Group2","full_date":"2025-11-21T04:02:23.568Z","date":"2025-11-21","time":"04:02:23"},{"rt":null,"stimulus":"<p style=\"font-size: 50px; margin: 0; text-align: center;\">+</p>","response":null,"trial_type":"html-keyboard-response","trial_index":31,"plugin_version":"2.1.0","time_elapsed":1299065,"subject_id":"90136","group":"Group2","full_date":"2025-11-21T04:02:23.568Z","date":"2025-11-21","time":"04:02:23"},{"task":"memory_phase","broad_category":"M","image_png":"M_Gneiss_15.png","image_id":207,"category_name":"Gneiss","category":13,"distinct_rating":3.11,"distinct_type":"Bottom","rt":null,"stimulus":"Stimuli_Rocks480/M_Gneiss_15.png","response":null,"trial_type":"image-keyboard-response","trial_index":32,"plugin_version":"2.1.0","time_elapsed":1301569,"subject_id":"90136","group":"Group2","full_date":"2025-11-21T04:02:23.568Z","date":"2025-11-21","time":"04:02:23"},{"rt":null,"stimulus":"<p style=\"font-size: 50px; margin: 0; text-align: center;\">+</p>","response":null,"trial_type":"html-keyboard-response","trial_index":33,"plugin_version":"2.1.0","time_elapsed":1302575,"subject_id":"90136","group":"Group2","full_date":"2025-11-21T04:02:23.568Z","date":"2025-11-21","time":"04:02:23"},{"task":"memory_phase","broad_category":"I","image_png":"I_Rhyolite_10.png","image_id":154,"category_name":"Rhyolite","category":10,"distinct_rating":2.88,"distinct_type":"Bottom","rt":null,"stimulus":"Stimuli_Rocks480/I_Rhyolite_10.png","response":null,"trial_type":"image-keyboard-response","trial_index":34,"plugin_version":"2.1.0","time_elapsed":1305092,"subject_id":"90136","group":"Group2","full_date":"2025-11-21T04:02:23.568Z","date":"2025-11-21","time":"04:02:23"},{"rt":null,"stimulus":"<p style=\"font-size: 50px; margin: 0; text-align: center;\">+</p>","response":null,"trial_type":"html-keyboard-response","trial_index":35,"plugin_version":"2.1.0","time_elapsed":1306096,"subject_id":"90136","group":"Group2","full_date":"2025-11-21T04:02:23.568Z","date":"2025-11-21","time":"04:02:23"},{"task":"memory_phase","broad_category":"M","image_png":"M_Quartzite_12.png","image_id":284,"category_name":"Quartzite","category":18,"distinct_rating":1.92,"distinct_type":"Bottom","rt":null,"stimulus":"Stimuli_Rocks480/M_Quartzite_12.png","response":null,"trial_type":"image-keyboard-response","trial_index":36,"plugin_version":"2.1.0","time_elapsed":1308612,"subject_id":"90136","group":"Group2","full_date":"2025-11-21T04:02:23.568Z","date":"2025-11-21","time":"04:02:23"},{"rt":null,"stimulus":"<p style=\"font-size: 50px; margin: 0; text-align: center;\">+</p>","response":null,"trial_type":"html-keyboard-response","trial_index":37,"plugin_version":"2.1.0","time_elapsed":1309616,"subject_id":"90136","group":"Group2","full_date":"2025-11-21T04:02:23.568Z","date":"2025-11-21","time":"04:02:23"},{"task":"memory_phase","broad_category":"M","image_png":"M_Slate_10.png","image_id":314,"category_name":"Slate","category":20,"distinct_rating":1.94,"distinct_type":"Bottom","rt":null,"stimulus":"Stimuli_Rocks480/M_Slate_10.png","response":null,"trial_type":"image-keyboard-response","trial_index":38,"plugin_version":"2.1.0","time_elapsed":1312129,"subject_id":"90136","group":"Group2","full_date":"2025-11-21T04:02:23.568Z","date":"2025-11-21","time":"04:02:23"},{"rt":null,"stimulus":"<p style=\"font-size: 50px; margin: 0; text-align: center;\">+</p>","response":null,"trial_type":"html-keyboard-response","trial_index":39,"plugin_version":"2.1.0","time_elapsed":1313131,"subject_id":"90136","group":"Group2","full_date":"2025-11-21T04:02:23.568Z","date":"2025-11-21","time":"04:02:23"},{"task":"memory_phase","broad_category":"S","image_png":"S_Chert_13.png","image_id":365,"category_name":"Chert","category":23,"distinct_rating":6.57,"distinct_type":"Top","rt":null,"stimulus":"Stimuli_Rocks480/S_Chert_13.png","response":null,"trial_type":"image-keyboard-response","trial_index":40,"plugin_version":"2.1.0","time_elapsed":1315636,"subject_id":"90136","group":"Group2","full_date":"2025-11-21T04:02:23.568Z","date":"2025-11-21","time":"04:02:23"},{"rt":null,"stimulus":"<p style=\"font-size: 50px; margin: 0; text-align: center;\">+</p>","response":null,"trial_type":"html-keyboard-response","trial_index":41,"plugin_version":"2.1.0","time_elapsed":1316650,"subject_id":"90136","group":"Group2","full_date":"2025-11-21T04:02:23.568Z","date":"2025-11-21","time":"04:02:23"},{"task":"memory_phase","broad_category":"I","image_png":"I_Pegmatite_03.png","image_id":99,"category_name":"Pegmatite","category":7,"distinct_rating":7.24,"distinct_type":"Top","rt":null,"stimulus":"Stimuli_Rocks480/I_Pegmatite_03.png","response":null,"trial_type":"image-keyboard-response","trial_index":42,"plugin_version":"2.1.0","time_elapsed":1319162,"subject_id":"90136","group":"Group2","full_date":"2025-11-21T04:02:23.568Z","date":"2025-11-21","time":"04:02:23"},{"rt":null,"stimulus":"<p style=\"font-size: 50px; margin: 0; text-align: center;\">+</p>","response":null,"trial_type":"html-keyboard-response","trial_index":43,"plugin_version":"2.1.0","time_elapsed":1320167,"subject_id":"90136","group":"Group2","full_date":"2025-11-21T04:02:23.568Z","date":"2025-11-21","time":"04:02:23"},{"task":"memory_phase","broad_category":"M","image_png":"M_Gneiss_10.png","image_id":202,"category_name":"Gneiss","category":13,"distinct_rating":3.09,"distinct_type":"Bottom","rt":null,"stimulus":"Stimuli_Rocks480/M_Gneiss_10.png","response":null,"trial_type":"image-keyboard-response","trial_index":44,"plugin_version":"2.1.0","time_elapsed":1322686,"subject_id":"90136","group":"Group2","full_date":"2025-11-21T04:02:23.568Z","date":"2025-11-21","time":"04:02:23"},{"rt":null,"stimulus":"<p style=\"font-size: 50px; margin: 0; text-align: center;\">+</p>","response":null,"trial_type":"html-keyboard-response","trial_index":45,"plugin_version":"2.1.0","time_elapsed":1323700,"subject_id":"90136","group":"Group2","full_date":"2025-11-21T04:02:23.568Z","date":"2025-11-21","time":"04:02:23"},{"task":"memory_phase","broad_category":"I","image_png":"I_Obsidian_06.png","image_id":86,"category_name":"Obsidian","category":6,"distinct_rating":8.01,"distinct_type":"Top","rt":null,"stimulus":"Stimuli_Rocks480/I_Obsidian_06.png","response":null,"trial_type":"image-keyboard-response","trial_index":46,"plugin_version":"2.1.0","time_elapsed":1326214,"subject_id":"90136","group":"Group2","full_date":"2025-11-21T04:02:23.568Z","date":"2025-11-21","time":"04:02:23"},{"rt":null,"stimulus":"<p style=\"font-size: 50px; margin: 0; text-align: center;\">+</p>","response":null,"trial_type":"html-keyboard-response","trial_index":47,"plugin_version":"2.1.0","time_elapsed":1327232,"subject_id":"90136","group":"Group2","full_date":"2025-11-21T04:02:23.568Z","date":"2025-11-21","time":"04:02:23"},{"task":"memory_phase","broad_category":"I","image_png":"I_Pumice_01.png","image_id":129,"category_name":"Pumice","category":9,"distinct_rating":3.25,"distinct_type":"Bottom","rt":null,"stimulus":"Stimuli_Rocks480/I_Pumice_01.png","response":null,"trial_type":"image-keyboard-response","trial_index":48,"plugin_version":"2.1.0","time_elapsed":1329746,"subject_id":"90136","group":"Group2","full_date":"2025-11-21T04:02:23.568Z","date":"2025-11-21","time":"04:02:23"},{"rt":null,"stimulus":"<p style=\"font-size: 50px; margin: 0; text-align: center;\">+</p>","response":null,"trial_type":"html-keyboard-response","trial_index":49,"plugin_version":"2.1.0","time_elapsed":1330753,"subject_id":"90136","group":"Group2","full_date":"2025-11-21T04:02:23.568Z","date":"2025-11-21","time":"04:02:23"},{"task":"memory_phase","broad_category":"S","image_png":"S_Sandstone_11.png","image_id":459,"category_name":"Sandstone","category":29,"distinct_rating":1.82,"distinct_type":"Bottom","rt":null,"stimulus":"Stimuli_Rocks480/S_Sandstone_11.png","response":null,"trial_type":"image-keyboard-response","trial_index":50,"plugin_version":"2.1.0","time_elapsed":1333266,"subject_id":"90136","group":"Group2","full_date":"2025-11-21T04:02:23.568Z","date":"2025-11-21","time":"04:02:23"},{"rt":null,"stimulus":"<p style=\"font-size: 50px; margin: 0; text-align: center;\">+</p>","response":null,"trial_type":"html-keyboard-response","trial_index":51,"plugin_version":"2.1.0","time_elapsed":1334275,"subject_id":"90136","group":"Group2","full_date":"2025-11-21T04:02:23.568Z","date":"2025-11-21","time":"04:02:23"},{"task":"memory_phase","broad_category":"S","image_png":"S_Rock Salt_15.png","image_id":447,"category_name":"Rock Salt","category":28,"distinct_rating":7.79,"distinct_type":"Top","rt":null,"stimulus":"Stimuli_Rocks480/S_Rock Salt_15.png","response":null,"trial_type":"image-keyboard-response","trial_index":52,"plugin_version":"2.1.0","time_elapsed":1336790,"subject_id":"90136","group":"Group2","full_date":"2025-11-21T04:02:23.568Z","date":"2025-11-21","time":"04:02:23"},{"rt":null,"stimulus":"<p style=\"font-size: 50px; margin: 0; text-align: center;\">+</p>","response":null,"trial_type":"html-keyboard-response","trial_index":53,"plugin_version":"2.1.0","time_elapsed":1337795,"subject_id":"90136","group":"Group2","full_date":"2025-11-21T04:02:23.568Z","date":"2025-11-21","time":"04:02:23"},{"task":"memory_phase","broad_category":"I","image_png":"I_Pegmatite_11.png","image_id":107,"category_name":"Pegmatite","category":7,"distinct_rating":7.11,"distinct_type":"Top","rt":null,"stimulus":"Stimuli_Rocks480/I_Pegmatite_11.png","response":null,"trial_type":"image-keyboard-response","trial_index":54,"plugin_version":"2.1.0","time_elapsed":1340311,"subject_id":"90136","group":"Group2","full_date":"2025-11-21T04:02:23.568Z","date":"2025-11-21","time":"04:02:23"},{"rt":1092,"stimulus":"<p style=\"max-width: 760px; margin: auto; font-size: 35px; line-height: 1.5;\">Press SPACE to continue study phase</p>","response":" ","trial_type":"html-keyboard-response","trial_index":55,"plugin_version":"2.1.0","time_elapsed":1341407,"subject_id":"90136","group":"Group2","full_date":"2025-11-21T04:02:23.568Z","date":"2025-11-21","time":"04:02:23"},{"rt":null,"stimulus":"<p style=\"font-size: 50px; margin: 0; text-align: center;\">+</p>","response":null,"trial_type":"html-keyboard-response","trial_index":56,"plugin_version":"2.1.0","time_elapsed":1342415,"subject_id":"90136","group":"Group2","full_date":"2025-11-21T04:02:23.568Z","date":"2025-11-21","time":"04:02:23"},{"task":"memory_phase","broad_category":"M","image_png":"M_Phyllite_13.png","image_id":269,"category_name":"Phyllite","category":17,"distinct_rating":2.8,"distinct_type":"Bottom","rt":null,"stimulus":"Stimuli_Rocks480/M_Phyllite_13.png","response":null,"trial_type":"image-keyboard-response","trial_index":57,"plugin_version":"2.1.0","time_elapsed":1344918,"subject_id":"90136","group":"Group2","full_date":"2025-11-21T04:02:23.568Z","date":"2025-11-21","time":"04:02:23"},{"rt":null,"stimulus":"<p style=\"font-size: 50px; margin: 0; text-align: center;\">+</p>","response":null,"trial_type":"html-keyboard-response","trial_index":58,"plugin_version":"2.1.0","time_elapsed":1345928,"subject_id":"90136","group":"Group2","full_date":"2025-11-21T04:02:23.568Z","date":"2025-11-21","time":"04:02:23"},{"task":"memory_phase","broad_category":"S","image_png":"S_Shale_03.png","image_id":467,"category_name":"Shale","category":30,"distinct_rating":1.95,"distinct_type":"Bottom","rt":null,"stimulus":"Stimuli_Rocks480/S_Shale_03.png","response":null,"trial_type":"image-keyboard-response","trial_index":59,"plugin_version":"2.1.0","time_elapsed":1348432,"subject_id":"90136","group":"Group2","full_date":"2025-11-21T04:02:23.568Z","date":"2025-11-21","time":"04:02:23"},{"rt":null,"stimulus":"<p style=\"font-size: 50px; margin: 0; text-align: center;\">+</p>","response":null,"trial_type":"html-keyboard-response","trial_index":60,"plugin_version":"2.1.0","time_elapsed":1349434,"subject_id":"90136","group":"Group2","full_date":"2025-11-21T04:02:23.568Z","date":"2025-11-21","time":"04:02:23"},{"task":"memory_phase","broad_category":"S","image_png":"S_Dolomite_07.png","image_id":391,"category_name":"Dolomite","category":25,"distinct_rating":1.73,"distinct_type":"Bottom","rt":null,"stimulus":"Stimuli_Rocks480/S_Dolomite_07.png","response":null,"trial_type":"image-keyboard-response","trial_index":61,"plugin_version":"2.1.0","time_elapsed":1351951,"subject_id":"90136","group":"Group2","full_date":"2025-11-21T04:02:23.568Z","date":"2025-11-21","time":"04:02:23"},{"rt":null,"stimulus":"<p style=\"font-size: 50px; margin: 0; text-align: center;\">+</p>","response":null,"trial_type":"html-keyboard-response","trial_index":62,"plugin_version":"2.1.0","time_elapsed":1352970,"subject_id":"90136","group":"Group2","full_date":"2025-11-21T04:02:23.568Z","date":"2025-11-21","time":"04:02:23"},{"task":"memory_phase","broad_category":"S","image_png":"S_Conglomerate_14.png","image_id":382,"category_name":"Conglomerate","category":24,"distinct_rating":6.86,"distinct_type":"Top","rt":null,"stimulus":"Stimuli_Rocks480/S_Conglomerate_14.png","response":null,"trial_type":"image-keyboard-response","trial_index":63,"plugin_version":"2.1.0","time_elapsed":1355480,"subject_id":"90136","group":"Group2","full_date":"2025-11-21T04:02:23.568Z","date":"2025-11-21","time":"04:02:23"},{"rt":null,"stimulus":"<p style=\"font-size: 50px; margin: 0; text-align: center;\">+</p>","response":null,"trial_type":"html-keyboard-response","trial_index":64,"plugin_version":"2.1.0","time_elapsed":1356494,"subject_id":"90136","group":"Group2","full_date":"2025-11-21T04:02:23.568Z","date":"2025-11-21","time":"04:02:23"},{"task":"memory_phase","broad_category":"S","image_png":"S_Rock Salt_13.png","image_id":445,"category_name":"Rock Salt","category":28,"distinct_rating":7.58,"distinct_type":"Top","rt":null,"stimulus":"Stimuli_Rocks480/S_Rock Salt_13.png","response":null,"trial_type":"image-keyboard-response","trial_index":65,"plugin_version":"2.1.0","time_elapsed":1359014,"subject_id":"90136","group":"Group2","full_date":"2025-11-21T04:02:23.568Z","date":"2025-11-21","time":"04:02:23"},{"rt":null,"stimulus":"<p style=\"font-size: 50px; margin: 0; text-align: center;\">+</p>","response":null,"trial_type":"html-keyboard-response","trial_index":66,"plugin_version":"2.1.0","time_elapsed":1360032,"subject_id":"90136","group":"Group2","full_date":"2025-11-21T04:02:23.568Z","date":"2025-11-21","time":"04:02:23"},{"task":"memory_phase","broad_category":"I","image_png":"I_Andesite_03.png","image_id":3,"category_name":"Andesite","category":1,"distinct_rating":3.17,"distinct_type":"Bottom","rt":null,"stimulus":"Stimuli_Rocks480/I_Andesite_03.png","response":null,"trial_type":"image-keyboard-response","trial_index":67,"plugin_version":"2.1.0","time_elapsed":1362545,"subject_id":"90136","group":"Group2","full_date":"2025-11-21T04:02:23.568Z","date":"2025-11-21","time":"04:02:23"},{"rt":null,"stimulus":"<p style=\"font-size: 50px; margin: 0; text-align: center;\">+</p>","response":null,"trial_type":"html-keyboard-response","trial_index":68,"plugin_version":"2.1.0","time_elapsed":1363556,"subject_id":"90136","group":"Group2","full_date":"2025-11-21T04:02:23.568Z","date":"2025-11-21","time":"04:02:23"},{"task":"memory_phase","broad_category":"I","image_png":"I_Gabbro_02.png","image_id":50,"category_name":"Gabbro","category":4,"distinct_rating":2.73,"distinct_type":"Bottom","rt":null,"stimulus":"Stimuli_Rocks480/I_Gabbro_02.png","response":null,"trial_type":"image-keyboard-response","trial_index":69,"plugin_version":"2.1.0","time_elapsed":1366073,"subject_id":"90136","group":"Group2","full_date":"2025-11-21T04:02:23.568Z","date":"2025-11-21","time":"04:02:23"},{"rt":null,"stimulus":"<p style=\"font-size: 50px; margin: 0; text-align: center;\">+</p>","response":null,"trial_type":"html-keyboard-response","trial_index":70,"plugin_version":"2.1.0","time_elapsed":1367083,"subject_id":"90136","group":"Group2","full_date":"2025-11-21T04:02:23.568Z","date":"2025-11-21","time":"04:02:23"},{"task":"memory_phase","broad_category":"I","image_png":"I_Rhyolite_08.png","image_id":152,"category_name":"Rhyolite","category":10,"distinct_rating":1.38,"distinct_type":"Bottom","rt":null,"stimulus":"Stimuli_Rocks480/I_Rhyolite_08.png","response":null,"trial_type":"image-keyboard-response","trial_index":71,"plugin_version":"2.1.0","time_elapsed":1369596,"subject_id":"90136","group":"Group2","full_date":"2025-11-21T04:02:23.568Z","date":"2025-11-21","time":"04:02:23"},{"rt":null,"stimulus":"<p style=\"font-size: 50px; margin: 0; text-align: center;\">+</p>","response":null,"trial_type":"html-keyboard-response","trial_index":72,"plugin_version":"2.1.0","time_elapsed":1370604,"subject_id":"90136","group":"Group2","full_date":"2025-11-21T04:02:23.568Z","date":"2025-11-21","time":"04:02:23"},{"task":"memory_phase","broad_category":"M","image_png":"M_Slate_14.png","image_id":318,"category_name":"Slate","category":20,"distinct_rating":2.58,"distinct_type":"Bottom","rt":null,"stimulus":"Stimuli_Rocks480/M_Slate_14.png","response":null,"trial_type":"image-keyboard-response","trial_index":73,"plugin_version":"2.1.0","time_elapsed":1373121,"subject_id":"90136","group":"Group2","full_date":"2025-11-21T04:02:23.568Z","date":"2025-11-21","time":"04:02:23"},{"rt":null,"stimulus":"<p style=\"font-size: 50px; margin: 0; text-align: center;\">+</p>","response":null,"trial_type":"html-keyboard-response","trial_index":74,"plugin_version":"2.1.0","time_elapsed":1374126,"subject_id":"90136","group":"Group2","full_date":"2025-11-21T04:02:23.568Z","date":"2025-11-21","time":"04:02:23"},{"task":"memory_phase","broad_category":"I","image_png":"I_Andesite_04.png","image_id":4,"category_name":"Andesite","category":1,"distinct_rating":3.18,"distinct_type":"Bottom","rt":null,"stimulus":"Stimuli_Rocks480/I_Andesite_04.png","response":null,"trial_type":"image-keyboard-response","trial_index":75,"plugin_version":"2.1.0","time_elapsed":1376630,"subject_id":"90136","group":"Group2","full_date":"2025-11-21T04:02:23.568Z","date":"2025-11-21","time":"04:02:23"},{"rt":null,"stimulus":"<p style=\"font-size: 50px; margin: 0; text-align: center;\">+</p>","response":null,"trial_type":"html-keyboard-response","trial_index":76,"plugin_version":"2.1.0","time_elapsed":1377645,"subject_id":"90136","group":"Group2","full_date":"2025-11-21T04:02:23.568Z","date":"2025-11-21","time":"04:02:23"},{"task":"memory_phase","broad_category":"I","image_png":"I_Andesite_09.png","image_id":9,"category_name":"Andesite","category":1,"distinct_rating":2.49,"distinct_type":"Bottom","rt":null,"stimulus":"Stimuli_Rocks480/I_Andesite_09.png","response":null,"trial_type":"image-keyboard-response","trial_index":77,"plugin_version":"2.1.0","time_elapsed":1380160,"subject_id":"90136","group":"Group2","full_date":"2025-11-21T04:02:23.568Z","date":"2025-11-21","time":"04:02:23"},{"rt":null,"stimulus":"<p style=\"font-size: 50px; margin: 0; text-align: center;\">+</p>","response":null,"trial_type":"html-keyboard-response","trial_index":78,"plugin_version":"2.1.0","time_elapsed":1381169,"subject_id":"90136","group":"Group2","full_date":"2025-11-21T04:02:23.568Z","date":"2025-11-21","time":"04:02:23"},{"task":"memory_phase","broad_category":"M","image_png":"M_Marble_14.png","image_id":238,"category_name":"Marble","category":15,"distinct_rating":3.31,"distinct_type":"Bottom","rt":null,"stimulus":"Stimuli_Rocks480/M_Marble_14.png","response":null,"trial_type":"image-keyboard-response","trial_index":79,"plugin_version":"2.1.0","time_elapsed":1383682,"subject_id":"90136","group":"Group2","full_date":"2025-11-21T04:02:23.568Z","date":"2025-11-21","time":"04:02:23"},{"rt":null,"stimulus":"<p style=\"font-size: 50px; margin: 0; text-align: center;\">+</p>","response":null,"trial_type":"html-keyboard-response","trial_index":80,"plugin_version":"2.1.0","time_elapsed":1384696,"subject_id":"90136","group":"Group2","full_date":"2025-11-21T04:02:23.568Z","date":"2025-11-21","time":"04:02:23"},{"task":"memory_phase","broad_category":"I","image_png":"I_Pumice_13.png","image_id":141,"category_name":"Pumice","category":9,"distinct_rating":3.12,"distinct_type":"Bottom","rt":null,"stimulus":"Stimuli_Rocks480/I_Pumice_13.png","response":null,"trial_type":"image-keyboard-response","trial_index":81,"plugin_version":"2.1.0","time_elapsed":1387216,"subject_id":"90136","group":"Group2","full_date":"2025-11-21T04:02:23.568Z","date":"2025-11-21","time":"04:02:23"},{"rt":null,"stimulus":"<p style=\"font-size: 50px; margin: 0; text-align: center;\">+</p>","response":null,"trial_type":"html-keyboard-response","trial_index":82,"plugin_version":"2.1.0","time_elapsed":1388233,"subject_id":"90136","group":"Group2","full_date":"2025-11-21T04:02:23.568Z","date":"2025-11-21","time":"04:02:23"},{"task":"memory_phase","broad_category":"I","image_png":"I_Gabbro_14.png","image_id":62,"category_name":"Gabbro","category":4,"distinct_rating":2.95,"distinct_type":"Bottom","rt":null,"stimulus":"Stimuli_Rocks480/I_Gabbro_14.png","response":null,"trial_type":"image-keyboard-response","trial_index":83,"plugin_version":"2.1.0","time_elapsed":1390754,"subject_id":"90136","group":"Group2","full_date":"2025-11-21T04:02:23.568Z","date":"2025-11-21","time":"04:02:23"},{"rt":null,"stimulus":"<p style=\"font-size: 50px; margin: 0; text-align: center;\">+</p>","response":null,"trial_type":"html-keyboard-response","trial_index":84,"plugin_version":"2.1.0","time_elapsed":1391769,"subject_id":"90136","group":"Group2","full_date":"2025-11-21T04:02:23.568Z","date":"2025-11-21","time":"04:02:23"},{"task":"memory_phase","broad_category":"I","image_png":"I_Pumice_14.png","image_id":142,"category_name":"Pumice","category":9,"distinct_rating":3.22,"distinct_type":"Bottom","rt":null,"stimulus":"Stimuli_Rocks480/I_Pumice_14.png","response":null,"trial_type":"image-keyboard-response","trial_index":85,"plugin_version":"2.1.0","time_elapsed":1394278,"subject_id":"90136","group":"Group2","full_date":"2025-11-21T04:02:23.568Z","date":"2025-11-21","time":"04:02:23"},{"rt":null,"stimulus":"<p style=\"font-size: 50px; margin: 0; text-align: center;\">+</p>","response":null,"trial_type":"html-keyboard-response","trial_index":86,"plugin_version":"2.1.0","time_elapsed":1395290,"subject_id":"90136","group":"Group2","full_date":"2025-11-21T04:02:23.568Z","date":"2025-11-21","time":"04:02:23"},{"task":"memory_phase","broad_category":"I","image_png":"I_Diorite_10.png","image_id":42,"category_name":"Diorite","category":3,"distinct_rating":2.84,"distinct_type":"Bottom","rt":null,"stimulus":"Stimuli_Rocks480/I_Diorite_10.png","response":null,"trial_type":"image-keyboard-response","trial_index":87,"plugin_version":"2.1.0","time_elapsed":1397801,"subject_id":"90136","group":"Group2","full_date":"2025-11-21T04:02:23.568Z","date":"2025-11-21","time":"04:02:23"},{"rt":null,"stimulus":"<p style=\"font-size: 50px; margin: 0; text-align: center;\">+</p>","response":null,"trial_type":"html-keyboard-response","trial_index":88,"plugin_version":"2.1.0","time_elapsed":1398819,"subject_id":"90136","group":"Group2","full_date":"2025-11-21T04:02:23.568Z","date":"2025-11-21","time":"04:02:23"},{"task":"memory_phase","broad_category":"I","image_png":"I_Rhyolite_05.png","image_id":149,"category_name":"Rhyolite","category":10,"distinct_rating":3.02,"distinct_type":"Bottom","rt":null,"stimulus":"Stimuli_Rocks480/I_Rhyolite_05.png","response":null,"trial_type":"image-keyboard-response","trial_index":89,"plugin_version":"2.1.0","time_elapsed":1401336,"subject_id":"90136","group":"Group2","full_date":"2025-11-21T04:02:23.568Z","date":"2025-11-21","time":"04:02:23"},{"rt":null,"stimulus":"<p style=\"font-size: 50px; margin: 0; text-align: center;\">+</p>","response":null,"trial_type":"html-keyboard-response","trial_index":90,"plugin_version":"2.1.0","time_elapsed":1402356,"subject_id":"90136","group":"Group2","full_date":"2025-11-21T04:02:23.568Z","date":"2025-11-21","time":"04:02:23"},{"task":"memory_phase","broad_category":"S","image_png":"S_Shale_02.png","image_id":466,"category_name":"Shale","category":30,"distinct_rating":2.9,"distinct_type":"Bottom","rt":null,"stimulus":"Stimuli_Rocks480/S_Shale_02.png","response":null,"trial_type":"image-keyboard-response","trial_index":91,"plugin_version":"2.1.0","time_elapsed":1404867,"subject_id":"90136","group":"Group2","full_date":"2025-11-21T04:02:23.568Z","date":"2025-11-21","time":"04:02:23"},{"rt":null,"stimulus":"<p style=\"font-size: 50px; margin: 0; text-align: center;\">+</p>","response":null,"trial_type":"html-keyboard-response","trial_index":92,"plugin_version":"2.1.0","time_elapsed":1405873,"subject_id":"90136","group":"Group2","full_date":"2025-11-21T04:02:23.568Z","date":"2025-11-21","time":"04:02:23"},{"task":"memory_phase","broad_category":"I","image_png":"I_Gabbro_12.png","image_id":60,"category_name":"Gabbro","category":4,"distinct_rating":2.6,"distinct_type":"Bottom","rt":null,"stimulus":"Stimuli_Rocks480/I_Gabbro_12.png","response":null,"trial_type":"image-keyboard-response","trial_index":93,"plugin_version":"2.1.0","time_elapsed":1408382,"subject_id":"90136","group":"Group2","full_date":"2025-11-21T04:02:23.568Z","date":"2025-11-21","time":"04:02:23"},{"rt":null,"stimulus":"<p style=\"font-size: 50px; margin: 0; text-align: center;\">+</p>","response":null,"trial_type":"html-keyboard-response","trial_index":94,"plugin_version":"2.1.0","time_elapsed":1409385,"subject_id":"90136","group":"Group2","full_date":"2025-11-21T04:02:23.568Z","date":"2025-11-21","time":"04:02:23"},{"task":"memory_phase","broad_category":"S","image_png":"S_Sandstone_04.png","image_id":452,"category_name":"Sandstone","category":29,"distinct_rating":1.8,"distinct_type":"Bottom","rt":null,"stimulus":"Stimuli_Rocks480/S_Sandstone_04.png","response":null,"trial_type":"image-keyboard-response","trial_index":95,"plugin_version":"2.1.0","time_elapsed":1411902,"subject_id":"90136","group":"Group2","full_date":"2025-11-21T04:02:23.568Z","date":"2025-11-21","time":"04:02:23"},{"rt":null,"stimulus":"<p style=\"font-size: 50px; margin: 0; text-align: center;\">+</p>","response":null,"trial_type":"html-keyboard-response","trial_index":96,"plugin_version":"2.1.0","time_elapsed":1412920,"subject_id":"90136","group":"Group2","full_date":"2025-11-21T04:02:23.568Z","date":"2025-11-21","time":"04:02:23"},{"task":"memory_phase","broad_category":"I","image_png":"I_Basalt_08.png","image_id":24,"category_name":"Basalt","category":2,"distinct_rating":2.31,"distinct_type":"Bottom","rt":null,"stimulus":"Stimuli_Rocks480/I_Basalt_08.png","response":null,"trial_type":"image-keyboard-response","trial_index":97,"plugin_version":"2.1.0","time_elapsed":1415433,"subject_id":"90136","group":"Group2","full_date":"2025-11-21T04:02:23.568Z","date":"2025-11-21","time":"04:02:23"},{"rt":null,"stimulus":"<p style=\"font-size: 50px; margin: 0; text-align: center;\">+</p>","response":null,"trial_type":"html-keyboard-response","trial_index":98,"plugin_version":"2.1.0","time_elapsed":1416449,"subject_id":"90136","group":"Group2","full_date":"2025-11-21T04:02:23.568Z","date":"2025-11-21","time":"04:02:23"},{"task":"memory_phase","broad_category":"M","image_png":"M_Phyllite_02.png","image_id":258,"category_name":"Phyllite","category":17,"distinct_rating":2.89,"distinct_type":"Bottom","rt":null,"stimulus":"Stimuli_Rocks480/M_Phyllite_02.png","response":null,"trial_type":"image-keyboard-response","trial_index":99,"plugin_version":"2.1.0","time_elapsed":1418956,"subject_id":"90136","group":"Group2","full_date":"2025-11-21T04:02:23.568Z","date":"2025-11-21","time":"04:02:23"},{"rt":null,"stimulus":"<p style=\"font-size: 50px; margin: 0; text-align: center;\">+</p>","response":null,"trial_type":"html-keyboard-response","trial_index":100,"plugin_version":"2.1.0","time_elapsed":1419969,"subject_id":"90136","group":"Group2","full_date":"2025-11-21T04:02:23.568Z","date":"2025-11-21","time":"04:02:23"},{"task":"memory_phase","broad_category":"I","image_png":"I_Diorite_01.png","image_id":33,"category_name":"Diorite","category":3,"distinct_rating":2.97,"distinct_type":"Bottom","rt":null,"stimulus":"Stimuli_Rocks480/I_Diorite_01.png","response":null,"trial_type":"image-keyboard-response","trial_index":101,"plugin_version":"2.1.0","time_elapsed":1422476,"subject_id":"90136","group":"Group2","full_date":"2025-11-21T04:02:23.568Z","date":"2025-11-21","time":"04:02:23"},{"rt":null,"stimulus":"<p style=\"font-size: 50px; margin: 0; text-align: center;\">+</p>","response":null,"trial_type":"html-keyboard-response","trial_index":102,"plugin_version":"2.1.0","time_elapsed":1423478,"subject_id":"90136","group":"Group2","full_date":"2025-11-21T04:02:23.568Z","date":"2025-11-21","time":"04:02:23"},{"task":"memory_phase","broad_category":"S","image_png":"S_Shale_07.png","image_id":471,"category_name":"Shale","category":30,"distinct_rating":2.73,"distinct_type":"Bottom","rt":null,"stimulus":"Stimuli_Rocks480/S_Shale_07.png","response":null,"trial_type":"image-keyboard-response","trial_index":103,"plugin_version":"2.1.0","time_elapsed":1425981,"subject_id":"90136","group":"Group2","full_date":"2025-11-21T04:02:23.568Z","date":"2025-11-21","time":"04:02:23"},{"rt":null,"stimulus":"<p style=\"font-size: 50px; margin: 0; text-align: center;\">+</p>","response":null,"trial_type":"html-keyboard-response","trial_index":104,"plugin_version":"2.1.0","time_elapsed":1426987,"subject_id":"90136","group":"Group2","full_date":"2025-11-21T04:02:23.568Z","date":"2025-11-21","time":"04:02:23"},{"task":"memory_phase","broad_category":"M","image_png":"M_Gneiss_14.png","image_id":206,"category_name":"Gneiss","category":13,"distinct_rating":3.41,"distinct_type":"Bottom","rt":null,"stimulus":"Stimuli_Rocks480/M_Gneiss_14.png","response":null,"trial_type":"image-keyboard-response","trial_index":105,"plugin_version":"2.1.0","time_elapsed":1429491,"subject_id":"90136","group":"Group2","full_date":"2025-11-21T04:02:23.568Z","date":"2025-11-21","time":"04:02:23"},{"rt":2995,"stimulus":"<p style=\"max-width: 760px; margin: auto; font-size: 35px; line-height: 1.5;\">You have completed 1 study phase. Now, we'll show you all the images again 2 more times.<br><br>Press SPACE to continue</p>","response":" ","trial_type":"html-keyboard-response","trial_index":106,"plugin_version":"2.1.0","time_elapsed":1432488,"subject_id":"90136","group":"Group2","full_date":"2025-11-21T04:02:23.568Z","date":"2025-11-21","time":"04:02:23"},{"rt":null,"stimulus":"<p style=\"font-size: 50px; margin: 0; text-align: center;\">+</p>","response":null,"trial_type":"html-keyboard-response","trial_index":107,"plugin_version":"2.1.0","time_elapsed":1433504,"subject_id":"90136","group":"Group2","full_date":"2025-11-21T04:02:23.568Z","date":"2025-11-21","time":"04:02:23"},{"task":"memory_phase","broad_category":"M","image_png":"M_Marble_03.png","image_id":227,"category_name":"Marble","category":15,"distinct_rating":2.67,"distinct_type":"Bottom","rt":null,"stimulus":"Stimuli_Rocks480/M_Marble_03.png","response":null,"trial_type":"image-keyboard-response","trial_index":108,"plugin_version":"2.1.0","time_elapsed":1436008,"subject_id":"90136","group":"Group2","full_date":"2025-11-21T04:02:23.568Z","date":"2025-11-21","time":"04:02:23"},{"rt":null,"stimulus":"<p style=\"font-size: 50px; margin: 0; text-align: center;\">+</p>","response":null,"trial_type":"html-keyboard-response","trial_index":109,"plugin_version":"2.1.0","time_elapsed":1437010,"subject_id":"90136","group":"Group2","full_date":"2025-11-21T04:02:23.568Z","date":"2025-11-21","time":"04:02:23"},{"task":"memory_phase","broad_category":"I","image_png":"I_Basalt_13.png","image_id":29,"category_name":"Basalt","category":2,"distinct_rating":2.68,"distinct_type":"Bottom","rt":null,"stimulus":"Stimuli_Rocks480/I_Basalt_13.png","response":null,"trial_type":"image-keyboard-response","trial_index":110,"plugin_version":"2.1.0","time_elapsed":1439519,"subject_id":"90136","group":"Group2","full_date":"2025-11-21T04:02:23.568Z","date":"2025-11-21","time":"04:02:23"},{"rt":null,"stimulus":"<p style=\"font-size: 50px; margin: 0; text-align: center;\">+</p>","response":null,"trial_type":"html-keyboard-response","trial_index":111,"plugin_version":"2.1.0","time_elapsed":1440534,"subject_id":"90136","group":"Group2","full_date":"2025-11-21T04:02:23.568Z","date":"2025-11-21","time":"04:02:23"},{"task":"memory_phase","broad_category":"I","image_png":"I_Andesite_04.png","image_id":4,"category_name":"Andesite","category":1,"distinct_rating":3.18,"distinct_type":"Bottom","rt":null,"stimulus":"Stimuli_Rocks480/I_Andesite_04.png","response":null,"trial_type":"image-keyboard-response","trial_index":112,"plugin_version":"2.1.0","time_elapsed":1443047,"subject_id":"90136","group":"Group2","full_date":"2025-11-21T04:02:23.568Z","date":"2025-11-21","time":"04:02:23"},{"rt":null,"stimulus":"<p style=\"font-size: 50px; margin: 0; text-align: center;\">+</p>","response":null,"trial_type":"html-keyboard-response","trial_index":113,"plugin_version":"2.1.0","time_elapsed":1444059,"subject_id":"90136","group":"Group2","full_date":"2025-11-21T04:02:23.568Z","date":"2025-11-21","time":"04:02:23"},{"task":"memory_phase","broad_category":"I","image_png":"I_Rhyolite_08.png","image_id":152,"category_name":"Rhyolite","category":10,"distinct_rating":1.38,"distinct_type":"Bottom","rt":null,"stimulus":"Stimuli_Rocks480/I_Rhyolite_08.png","response":null,"trial_type":"image-keyboard-response","trial_index":114,"plugin_version":"2.1.0","time_elapsed":1446574,"subject_id":"90136","group":"Group2","full_date":"2025-11-21T04:02:23.568Z","date":"2025-11-21","time":"04:02:23"},{"rt":null,"stimulus":"<p style=\"font-size: 50px; margin: 0; text-align: center;\">+</p>","response":null,"trial_type":"html-keyboard-response","trial_index":115,"plugin_version":"2.1.0","time_elapsed":1447583,"subject_id":"90136","group":"Group2","full_date":"2025-11-21T04:02:23.568Z","date":"2025-11-21","time":"04:02:23"},{"task":"memory_phase","broad_category":"S","image_png":"S_Shale_03.png","image_id":467,"category_name":"Shale","category":30,"distinct_rating":1.95,"distinct_type":"Bottom","rt":null,"stimulus":"Stimuli_Rocks480/S_Shale_03.png","response":null,"trial_type":"image-keyboard-response","trial_index":116,"plugin_version":"2.1.0","time_elapsed":1450099,"subject_id":"90136","group":"Group2","full_date":"2025-11-21T04:02:23.568Z","date":"2025-11-21","time":"04:02:23"},{"rt":null,"stimulus":"<p style=\"font-size: 50px; margin: 0; text-align: center;\">+</p>","response":null,"trial_type":"html-keyboard-response","trial_index":117,"plugin_version":"2.1.0","time_elapsed":1451103,"subject_id":"90136","group":"Group2","full_date":"2025-11-21T04:02:23.568Z","date":"2025-11-21","time":"04:02:23"},{"task":"memory_phase","broad_category":"I","image_png":"I_Diorite_01.png","image_id":33,"category_name":"Diorite","category":3,"distinct_rating":2.97,"distinct_type":"Bottom","rt":null,"stimulus":"Stimuli_Rocks480/I_Diorite_01.png","response":null,"trial_type":"image-keyboard-response","trial_index":118,"plugin_version":"2.1.0","time_elapsed":1453613,"subject_id":"90136","group":"Group2","full_date":"2025-11-21T04:02:23.568Z","date":"2025-11-21","time":"04:02:23"},{"rt":null,"stimulus":"<p style=\"font-size: 50px; margin: 0; text-align: center;\">+</p>","response":null,"trial_type":"html-keyboard-response","trial_index":119,"plugin_version":"2.1.0","time_elapsed":1454616,"subject_id":"90136","group":"Group2","full_date":"2025-11-21T04:02:23.568Z","date":"2025-11-21","time":"04:02:23"},{"task":"memory_phase","broad_category":"I","image_png":"I_Gabbro_12.png","image_id":60,"category_name":"Gabbro","category":4,"distinct_rating":2.6,"distinct_type":"Bottom","rt":null,"stimulus":"Stimuli_Rocks480/I_Gabbro_12.png","response":null,"trial_type":"image-keyboard-response","trial_index":120,"plugin_version":"2.1.0","time_elapsed":1457120,"subject_id":"90136","group":"Group2","full_date":"2025-11-21T04:02:23.568Z","date":"2025-11-21","time":"04:02:23"},{"rt":null,"stimulus":"<p style=\"font-size: 50px; margin: 0; text-align: center;\">+</p>","response":null,"trial_type":"html-keyboard-response","trial_index":121,"plugin_version":"2.1.0","time_elapsed":1458136,"subject_id":"90136","group":"Group2","full_date":"2025-11-21T04:02:23.568Z","date":"2025-11-21","time":"04:02:23"},{"task":"memory_phase","broad_category":"I","image_png":"I_Rhyolite_10.png","image_id":154,"category_name":"Rhyolite","category":10,"distinct_rating":2.88,"distinct_type":"Bottom","rt":null,"stimulus":"Stimuli_Rocks480/I_Rhyolite_10.png","response":null,"trial_type":"image-keyboard-response","trial_index":122,"plugin_version":"2.1.0","time_elapsed":1460640,"subject_id":"90136","group":"Group2","full_date":"2025-11-21T04:02:23.568Z","date":"2025-11-21","time":"04:02:23"},{"rt":null,"stimulus":"<p style=\"font-size: 50px; margin: 0; text-align: center;\">+</p>","response":null,"trial_type":"html-keyboard-response","trial_index":123,"plugin_version":"2.1.0","time_elapsed":1461645,"subject_id":"90136","group":"Group2","full_date":"2025-11-21T04:02:23.568Z","date":"2025-11-21","time":"04:02:23"},{"task":"memory_phase","broad_category":"S","image_png":"S_Sandstone_08.png","image_id":456,"category_name":"Sandstone","category":29,"distinct_rating":1.5,"distinct_type":"Bottom","rt":null,"stimulus":"Stimuli_Rocks480/S_Sandstone_08.png","response":null,"trial_type":"image-keyboard-response","trial_index":124,"plugin_version":"2.1.0","time_elapsed":1464157,"subject_id":"90136","group":"Group2","full_date":"2025-11-21T04:02:23.568Z","date":"2025-11-21","time":"04:02:23"},{"rt":null,"stimulus":"<p style=\"font-size: 50px; margin: 0; text-align: center;\">+</p>","response":null,"trial_type":"html-keyboard-response","trial_index":125,"plugin_version":"2.1.0","time_elapsed":1465171,"subject_id":"90136","group":"Group2","full_date":"2025-11-21T04:02:23.568Z","date":"2025-11-21","time":"04:02:23"},{"task":"memory_phase","broad_category":"S","image_png":"S_Shale_02.png","image_id":466,"category_name":"Shale","category":30,"distinct_rating":2.9,"distinct_type":"Bottom","rt":null,"stimulus":"Stimuli_Rocks480/S_Shale_02.png","response":null,"trial_type":"image-keyboard-response","trial_index":126,"plugin_version":"2.1.0","time_elapsed":1467675,"subject_id":"90136","group":"Group2","full_date":"2025-11-21T04:02:23.568Z","date":"2025-11-21","time":"04:02:23"},{"rt":null,"stimulus":"<p style=\"font-size: 50px; margin: 0; text-align: center;\">+</p>","response":null,"trial_type":"html-keyboard-response","trial_index":127,"plugin_version":"2.1.0","time_elapsed":1468691,"subject_id":"90136","group":"Group2","full_date":"2025-11-21T04:02:23.568Z","date":"2025-11-21","time":"04:02:23"},{"task":"memory_phase","broad_category":"M","image_png":"M_Phyllite_13.png","image_id":269,"category_name":"Phyllite","category":17,"distinct_rating":2.8,"distinct_type":"Bottom","rt":null,"stimulus":"Stimuli_Rocks480/M_Phyllite_13.png","response":null,"trial_type":"image-keyboard-response","trial_index":128,"plugin_version":"2.1.0","time_elapsed":1471208,"subject_id":"90136","group":"Group2","full_date":"2025-11-21T04:02:23.568Z","date":"2025-11-21","time":"04:02:23"},{"rt":null,"stimulus":"<p style=\"font-size: 50px; margin: 0; text-align: center;\">+</p>","response":null,"trial_type":"html-keyboard-response","trial_index":129,"plugin_version":"2.1.0","time_elapsed":1472224,"subject_id":"90136","group":"Group2","full_date":"2025-11-21T04:02:23.568Z","date":"2025-11-21","time":"04:02:23"},{"task":"memory_phase","broad_category":"I","image_png":"I_Gabbro_14.png","image_id":62,"category_name":"Gabbro","category":4,"distinct_rating":2.95,"distinct_type":"Bottom","rt":null,"stimulus":"Stimuli_Rocks480/I_Gabbro_14.png","response":null,"trial_type":"image-keyboard-response","trial_index":130,"plugin_version":"2.1.0","time_elapsed":1474743,"subject_id":"90136","group":"Group2","full_date":"2025-11-21T04:02:23.568Z","date":"2025-11-21","time":"04:02:23"},{"rt":null,"stimulus":"<p style=\"font-size: 50px; margin: 0; text-align: center;\">+</p>","response":null,"trial_type":"html-keyboard-response","trial_index":131,"plugin_version":"2.1.0","time_elapsed":1475748,"subject_id":"90136","group":"Group2","full_date":"2025-11-21T04:02:23.568Z","date":"2025-11-21","time":"04:02:23"},{"task":"memory_phase","broad_category":"M","image_png":"M_Gneiss_10.png","image_id":202,"category_name":"Gneiss","category":13,"distinct_rating":3.09,"distinct_type":"Bottom","rt":null,"stimulus":"Stimuli_Rocks480/M_Gneiss_10.png","response":null,"trial_type":"image-keyboard-response","trial_index":132,"plugin_version":"2.1.0","time_elapsed":1478261,"subject_id":"90136","group":"Group2","full_date":"2025-11-21T04:02:23.568Z","date":"2025-11-21","time":"04:02:23"},{"rt":null,"stimulus":"<p style=\"font-size: 50px; margin: 0; text-align: center;\">+</p>","response":null,"trial_type":"html-keyboard-response","trial_index":133,"plugin_version":"2.1.0","time_elapsed":1479267,"subject_id":"90136","group":"Group2","full_date":"2025-11-21T04:02:23.568Z","date":"2025-11-21","time":"04:02:23"},{"task":"memory_phase","broad_category":"I","image_png":"I_Andesite_03.png","image_id":3,"category_name":"Andesite","category":1,"distinct_rating":3.17,"distinct_type":"Bottom","rt":null,"stimulus":"Stimuli_Rocks480/I_Andesite_03.png","response":null,"trial_type":"image-keyboard-response","trial_index":134,"plugin_version":"2.1.0","time_elapsed":1481780,"subject_id":"90136","group":"Group2","full_date":"2025-11-21T04:02:23.568Z","date":"2025-11-21","time":"04:02:23"},{"rt":null,"stimulus":"<p style=\"font-size: 50px; margin: 0; text-align: center;\">+</p>","response":null,"trial_type":"html-keyboard-response","trial_index":135,"plugin_version":"2.1.0","time_elapsed":1482789,"subject_id":"90136","group":"Group2","full_date":"2025-11-21T04:02:23.568Z","date":"2025-11-21","time":"04:02:23"},{"task":"memory_phase","broad_category":"S","image_png":"S_Dolomite_07.png","image_id":391,"category_name":"Dolomite","category":25,"distinct_rating":1.73,"distinct_type":"Bottom","rt":null,"stimulus":"Stimuli_Rocks480/S_Dolomite_07.png","response":null,"trial_type":"image-keyboard-response","trial_index":136,"plugin_version":"2.1.0","time_elapsed":1485294,"subject_id":"90136","group":"Group2","full_date":"2025-11-21T04:02:23.568Z","date":"2025-11-21","time":"04:02:23"},{"rt":null,"stimulus":"<p style=\"font-size: 50px; margin: 0; text-align: center;\">+</p>","response":null,"trial_type":"html-keyboard-response","trial_index":137,"plugin_version":"2.1.0","time_elapsed":1486308,"subject_id":"90136","group":"Group2","full_date":"2025-11-21T04:02:23.568Z","date":"2025-11-21","time":"04:02:23"},{"task":"memory_phase","broad_category":"S","image_png":"S_Sandstone_04.png","image_id":452,"category_name":"Sandstone","category":29,"distinct_rating":1.8,"distinct_type":"Bottom","rt":null,"stimulus":"Stimuli_Rocks480/S_Sandstone_04.png","response":null,"trial_type":"image-keyboard-response","trial_index":138,"plugin_version":"2.1.0","time_elapsed":1488823,"subject_id":"90136","group":"Group2","full_date":"2025-11-21T04:02:23.568Z","date":"2025-11-21","time":"04:02:23"},{"rt":null,"stimulus":"<p style=\"font-size: 50px; margin: 0; text-align: center;\">+</p>","response":null,"trial_type":"html-keyboard-response","trial_index":139,"plugin_version":"2.1.0","time_elapsed":1489840,"subject_id":"90136","group":"Group2","full_date":"2025-11-21T04:02:23.568Z","date":"2025-11-21","time":"04:02:23"},{"task":"memory_phase","broad_category":"I","image_png":"I_Pumice_14.png","image_id":142,"category_name":"Pumice","category":9,"distinct_rating":3.22,"distinct_type":"Bottom","rt":null,"stimulus":"Stimuli_Rocks480/I_Pumice_14.png","response":null,"trial_type":"image-keyboard-response","trial_index":140,"plugin_version":"2.1.0","time_elapsed":1492348,"subject_id":"90136","group":"Group2","full_date":"2025-11-21T04:02:23.568Z","date":"2025-11-21","time":"04:02:23"},{"rt":null,"stimulus":"<p style=\"font-size: 50px; margin: 0; text-align: center;\">+</p>","response":null,"trial_type":"html-keyboard-response","trial_index":141,"plugin_version":"2.1.0","time_elapsed":1493353,"subject_id":"90136","group":"Group2","full_date":"2025-11-21T04:02:23.568Z","date":"2025-11-21","time":"04:02:23"},{"task":"memory_phase","broad_category":"M","image_png":"M_Marble_02.png","image_id":226,"category_name":"Marble","category":15,"distinct_rating":3.2,"distinct_type":"Bottom","rt":null,"stimulus":"Stimuli_Rocks480/M_Marble_02.png","response":null,"trial_type":"image-keyboard-response","trial_index":142,"plugin_version":"2.1.0","time_elapsed":1495862,"subject_id":"90136","group":"Group2","full_date":"2025-11-21T04:02:23.568Z","date":"2025-11-21","time":"04:02:23"},{"rt":null,"stimulus":"<p style=\"font-size: 50px; margin: 0; text-align: center;\">+</p>","response":null,"trial_type":"html-keyboard-response","trial_index":143,"plugin_version":"2.1.0","time_elapsed":1496873,"subject_id":"90136","group":"Group2","full_date":"2025-11-21T04:02:23.568Z","date":"2025-11-21","time":"04:02:23"},{"task":"memory_phase","broad_category":"M","image_png":"M_Marble_14.png","image_id":238,"category_name":"Marble","category":15,"distinct_rating":3.31,"distinct_type":"Bottom","rt":null,"stimulus":"Stimuli_Rocks480/M_Marble_14.png","response":null,"trial_type":"image-keyboard-response","trial_index":144,"plugin_version":"2.1.0","time_elapsed":1499388,"subject_id":"90136","group":"Group2","full_date":"2025-11-21T04:02:23.568Z","date":"2025-11-21","time":"04:02:23"},{"rt":null,"stimulus":"<p style=\"font-size: 50px; margin: 0; text-align: center;\">+</p>","response":null,"trial_type":"html-keyboard-response","trial_index":145,"plugin_version":"2.1.0","time_elapsed":1500405,"subject_id":"90136","group":"Group2","full_date":"2025-11-21T04:02:23.568Z","date":"2025-11-21","time":"04:02:23"},{"task":"memory_phase","broad_category":"S","image_png":"S_Chert_13.png","image_id":365,"category_name":"Chert","category":23,"distinct_rating":6.57,"distinct_type":"Top","rt":null,"stimulus":"Stimuli_Rocks480/S_Chert_13.png","response":null,"trial_type":"image-keyboard-response","trial_index":146,"plugin_version":"2.1.0","time_elapsed":1502908,"subject_id":"90136","group":"Group2","full_date":"2025-11-21T04:02:23.568Z","date":"2025-11-21","time":"04:02:23"},{"rt":null,"stimulus":"<p style=\"font-size: 50px; margin: 0; text-align: center;\">+</p>","response":null,"trial_type":"html-keyboard-response","trial_index":147,"plugin_version":"2.1.0","time_elapsed":1503924,"subject_id":"90136","group":"Group2","full_date":"2025-11-21T04:02:23.568Z","date":"2025-11-21","time":"04:02:23"},{"task":"memory_phase","broad_category":"I","image_png":"I_Rhyolite_05.png","image_id":149,"category_name":"Rhyolite","category":10,"distinct_rating":3.02,"distinct_type":"Bottom","rt":null,"stimulus":"Stimuli_Rocks480/I_Rhyolite_05.png","response":null,"trial_type":"image-keyboard-response","trial_index":148,"plugin_version":"2.1.0","time_elapsed":1506440,"subject_id":"90136","group":"Group2","full_date":"2025-11-21T04:02:23.568Z","date":"2025-11-21","time":"04:02:23"},{"rt":null,"stimulus":"<p style=\"font-size: 50px; margin: 0; text-align: center;\">+</p>","response":null,"trial_type":"html-keyboard-response","trial_index":149,"plugin_version":"2.1.0","time_elapsed":1507456,"subject_id":"90136","group":"Group2","full_date":"2025-11-21T04:02:23.568Z","date":"2025-11-21","time":"04:02:23"},{"task":"memory_phase","broad_category":"S","image_png":"S_Rock Salt_15.png","image_id":447,"category_name":"Rock Salt","category":28,"distinct_rating":7.79,"distinct_type":"Top","rt":null,"stimulus":"Stimuli_Rocks480/S_Rock Salt_15.png","response":null,"trial_type":"image-keyboard-response","trial_index":150,"plugin_version":"2.1.0","time_elapsed":1509971,"subject_id":"90136","group":"Group2","full_date":"2025-11-21T04:02:23.568Z","date":"2025-11-21","time":"04:02:23"},{"rt":null,"stimulus":"<p style=\"font-size: 50px; margin: 0; text-align: center;\">+</p>","response":null,"trial_type":"html-keyboard-response","trial_index":151,"plugin_version":"2.1.0","time_elapsed":1510980,"subject_id":"90136","group":"Group2","full_date":"2025-11-21T04:02:23.568Z","date":"2025-11-21","time":"04:02:23"},{"task":"memory_phase","broad_category":"I","image_png":"I_Pumice_01.png","image_id":129,"category_name":"Pumice","category":9,"distinct_rating":3.25,"distinct_type":"Bottom","rt":null,"stimulus":"Stimuli_Rocks480/I_Pumice_01.png","response":null,"trial_type":"image-keyboard-response","trial_index":152,"plugin_version":"2.1.0","time_elapsed":1513485,"subject_id":"90136","group":"Group2","full_date":"2025-11-21T04:02:23.568Z","date":"2025-11-21","time":"04:02:23"},{"rt":null,"stimulus":"<p style=\"font-size: 50px; margin: 0; text-align: center;\">+</p>","response":null,"trial_type":"html-keyboard-response","trial_index":153,"plugin_version":"2.1.0","time_elapsed":1514489,"subject_id":"90136","group":"Group2","full_date":"2025-11-21T04:02:23.568Z","date":"2025-11-21","time":"04:02:23"},{"task":"memory_phase","broad_category":"S","image_png":"S_Sandstone_11.png","image_id":459,"category_name":"Sandstone","category":29,"distinct_rating":1.82,"distinct_type":"Bottom","rt":null,"stimulus":"Stimuli_Rocks480/S_Sandstone_11.png","response":null,"trial_type":"image-keyboard-response","trial_index":154,"plugin_version":"2.1.0","time_elapsed":1517000,"subject_id":"90136","group":"Group2","full_date":"2025-11-21T04:02:23.568Z","date":"2025-11-21","time":"04:02:23"},{"rt":null,"stimulus":"<p style=\"font-size: 50px; margin: 0; text-align: center;\">+</p>","response":null,"trial_type":"html-keyboard-response","trial_index":155,"plugin_version":"2.1.0","time_elapsed":1518005,"subject_id":"90136","group":"Group2","full_date":"2025-11-21T04:02:23.568Z","date":"2025-11-21","time":"04:02:23"},{"task":"memory_phase","broad_category":"M","image_png":"M_Gneiss_14.png","image_id":206,"category_name":"Gneiss","category":13,"distinct_rating":3.41,"distinct_type":"Bottom","rt":null,"stimulus":"Stimuli_Rocks480/M_Gneiss_14.png","response":null,"trial_type":"image-keyboard-response","trial_index":156,"plugin_version":"2.1.0","time_elapsed":1520518,"subject_id":"90136","group":"Group2","full_date":"2025-11-21T04:02:23.568Z","date":"2025-11-21","time":"04:02:23"},{"rt":2212,"stimulus":"<p style=\"max-width: 760px; margin: auto; font-size: 35px; line-height: 1.5;\">Press SPACE to continue study phase</p>","response":" ","trial_type":"html-keyboard-response","trial_index":157,"plugin_version":"2.1.0","time_elapsed":1522731,"subject_id":"90136","group":"Group2","full_date":"2025-11-21T04:02:23.568Z","date":"2025-11-21","time":"04:02:23"},{"rt":null,"stimulus":"<p style=\"font-size: 50px; margin: 0; text-align: center;\">+</p>","response":null,"trial_type":"html-keyboard-response","trial_index":158,"plugin_version":"2.1.0","time_elapsed":1523740,"subject_id":"90136","group":"Group2","full_date":"2025-11-21T04:02:23.568Z","date":"2025-11-21","time":"04:02:23"},{"task":"memory_phase","broad_category":"M","image_png":"M_Gneiss_15.png","image_id":207,"category_name":"Gneiss","category":13,"distinct_rating":3.11,"distinct_type":"Bottom","rt":null,"stimulus":"Stimuli_Rocks480/M_Gneiss_15.png","response":null,"trial_type":"image-keyboard-response","trial_index":159,"plugin_version":"2.1.0","time_elapsed":1526248,"subject_id":"90136","group":"Group2","full_date":"2025-11-21T04:02:23.568Z","date":"2025-11-21","time":"04:02:23"},{"rt":null,"stimulus":"<p style=\"font-size: 50px; margin: 0; text-align: center;\">+</p>","response":null,"trial_type":"html-keyboard-response","trial_index":160,"plugin_version":"2.1.0","time_elapsed":1527258,"subject_id":"90136","group":"Group2","full_date":"2025-11-21T04:02:23.568Z","date":"2025-11-21","time":"04:02:23"},{"task":"memory_phase","broad_category":"I","image_png":"I_Diorite_10.png","image_id":42,"category_name":"Diorite","category":3,"distinct_rating":2.84,"distinct_type":"Bottom","rt":null,"stimulus":"Stimuli_Rocks480/I_Diorite_10.png","response":null,"trial_type":"image-keyboard-response","trial_index":161,"plugin_version":"2.1.0","time_elapsed":1529771,"subject_id":"90136","group":"Group2","full_date":"2025-11-21T04:02:23.568Z","date":"2025-11-21","time":"04:02:23"},{"rt":null,"stimulus":"<p style=\"font-size: 50px; margin: 0; text-align: center;\">+</p>","response":null,"trial_type":"html-keyboard-response","trial_index":162,"plugin_version":"2.1.0","time_elapsed":1530778,"subject_id":"90136","group":"Group2","full_date":"2025-11-21T04:02:23.568Z","date":"2025-11-21","time":"04:02:23"},{"task":"memory_phase","broad_category":"I","image_png":"I_Peridotite_13.png","image_id":125,"category_name":"Peridotite","category":8,"distinct_rating":7.28,"distinct_type":"Top","rt":null,"stimulus":"Stimuli_Rocks480/I_Peridotite_13.png","response":null,"trial_type":"image-keyboard-response","trial_index":163,"plugin_version":"2.1.0","time_elapsed":1533294,"subject_id":"90136","group":"Group2","full_date":"2025-11-21T04:02:23.568Z","date":"2025-11-21","time":"04:02:23"},{"rt":null,"stimulus":"<p style=\"font-size: 50px; margin: 0; text-align: center;\">+</p>","response":null,"trial_type":"html-keyboard-response","trial_index":164,"plugin_version":"2.1.0","time_elapsed":1534297,"subject_id":"90136","group":"Group2","full_date":"2025-11-21T04:02:23.568Z","date":"2025-11-21","time":"04:02:23"},{"task":"memory_phase","broad_category":"S","image_png":"S_Dolomite_01.png","image_id":385,"category_name":"Dolomite","category":25,"distinct_rating":1.43,"distinct_type":"Bottom","rt":null,"stimulus":"Stimuli_Rocks480/S_Dolomite_01.png","response":null,"trial_type":"image-keyboard-response","trial_index":165,"plugin_version":"2.1.0","time_elapsed":1536805,"subject_id":"90136","group":"Group2","full_date":"2025-11-21T04:02:23.568Z","date":"2025-11-21","time":"04:02:23"},{"rt":null,"stimulus":"<p style=\"font-size: 50px; margin: 0; text-align: center;\">+</p>","response":null,"trial_type":"html-keyboard-response","trial_index":166,"plugin_version":"2.1.0","time_elapsed":1537809,"subject_id":"90136","group":"Group2","full_date":"2025-11-21T04:02:23.568Z","date":"2025-11-21","time":"04:02:23"},{"task":"memory_phase","broad_category":"M","image_png":"M_Slate_04.png","image_id":308,"category_name":"Slate","category":20,"distinct_rating":2.2,"distinct_type":"Bottom","rt":null,"stimulus":"Stimuli_Rocks480/M_Slate_04.png","response":null,"trial_type":"image-keyboard-response","trial_index":167,"plugin_version":"2.1.0","time_elapsed":1540316,"subject_id":"90136","group":"Group2","full_date":"2025-11-21T04:02:23.568Z","date":"2025-11-21","time":"04:02:23"},{"rt":null,"stimulus":"<p style=\"font-size: 50px; margin: 0; text-align: center;\">+</p>","response":null,"trial_type":"html-keyboard-response","trial_index":168,"plugin_version":"2.1.0","time_elapsed":1541324,"subject_id":"90136","group":"Group2","full_date":"2025-11-21T04:02:23.568Z","date":"2025-11-21","time":"04:02:23"},{"task":"memory_phase","broad_category":"M","image_png":"M_Slate_10.png","image_id":314,"category_name":"Slate","category":20,"distinct_rating":1.94,"distinct_type":"Bottom","rt":null,"stimulus":"Stimuli_Rocks480/M_Slate_10.png","response":null,"trial_type":"image-keyboard-response","trial_index":169,"plugin_version":"2.1.0","time_elapsed":1543830,"subject_id":"90136","group":"Group2","full_date":"2025-11-21T04:02:23.568Z","date":"2025-11-21","time":"04:02:23"},{"rt":null,"stimulus":"<p style=\"font-size: 50px; margin: 0; text-align: center;\">+</p>","response":null,"trial_type":"html-keyboard-response","trial_index":170,"plugin_version":"2.1.0","time_elapsed":1544838,"subject_id":"90136","group":"Group2","full_date":"2025-11-21T04:02:23.568Z","date":"2025-11-21","time":"04:02:23"},{"task":"memory_phase","broad_category":"S","image_png":"S_Dolomite_16.png","image_id":400,"category_name":"Dolomite","category":25,"distinct_rating":1.71,"distinct_type":"Bottom","rt":null,"stimulus":"Stimuli_Rocks480/S_Dolomite_16.png","response":null,"trial_type":"image-keyboard-response","trial_index":171,"plugin_version":"2.1.0","time_elapsed":1547352,"subject_id":"90136","group":"Group2","full_date":"2025-11-21T04:02:23.568Z","date":"2025-11-21","time":"04:02:23"},{"rt":null,"stimulus":"<p style=\"font-size: 50px; margin: 0; text-align: center;\">+</p>","response":null,"trial_type":"html-keyboard-response","trial_index":172,"plugin_version":"2.1.0","time_elapsed":1548357,"subject_id":"90136","group":"Group2","full_date":"2025-11-21T04:02:23.568Z","date":"2025-11-21","time":"04:02:23"},{"task":"memory_phase","broad_category":"S","image_png":"S_Conglomerate_14.png","image_id":382,"category_name":"Conglomerate","category":24,"distinct_rating":6.86,"distinct_type":"Top","rt":null,"stimulus":"Stimuli_Rocks480/S_Conglomerate_14.png","response":null,"trial_type":"image-keyboard-response","trial_index":173,"plugin_version":"2.1.0","time_elapsed":1550876,"subject_id":"90136","group":"Group2","full_date":"2025-11-21T04:02:23.568Z","date":"2025-11-21","time":"04:02:23"},{"rt":null,"stimulus":"<p style=\"font-size: 50px; margin: 0; text-align: center;\">+</p>","response":null,"trial_type":"html-keyboard-response","trial_index":174,"plugin_version":"2.1.0","time_elapsed":1551891,"subject_id":"90136","group":"Group2","full_date":"2025-11-21T04:02:23.568Z","date":"2025-11-21","time":"04:02:23"},{"task":"memory_phase","broad_category":"S","image_png":"S_Rock Salt_13.png","image_id":445,"category_name":"Rock Salt","category":28,"distinct_rating":7.58,"distinct_type":"Top","rt":null,"stimulus":"Stimuli_Rocks480/S_Rock Salt_13.png","response":null,"trial_type":"image-keyboard-response","trial_index":175,"plugin_version":"2.1.0","time_elapsed":1554406,"subject_id":"90136","group":"Group2","full_date":"2025-11-21T04:02:23.568Z","date":"2025-11-21","time":"04:02:23"},{"rt":null,"stimulus":"<p style=\"font-size: 50px; margin: 0; text-align: center;\">+</p>","response":null,"trial_type":"html-keyboard-response","trial_index":176,"plugin_version":"2.1.0","time_elapsed":1555415,"subject_id":"90136","group":"Group2","full_date":"2025-11-21T04:02:23.568Z","date":"2025-11-21","time":"04:02:23"},{"task":"memory_phase","broad_category":"I","image_png":"I_Obsidian_06.png","image_id":86,"category_name":"Obsidian","category":6,"distinct_rating":8.01,"distinct_type":"Top","rt":null,"stimulus":"Stimuli_Rocks480/I_Obsidian_06.png","response":null,"trial_type":"image-keyboard-response","trial_index":177,"plugin_version":"2.1.0","time_elapsed":1557925,"subject_id":"90136","group":"Group2","full_date":"2025-11-21T04:02:23.568Z","date":"2025-11-21","time":"04:02:23"},{"rt":null,"stimulus":"<p style=\"font-size: 50px; margin: 0; text-align: center;\">+</p>","response":null,"trial_type":"html-keyboard-response","trial_index":178,"plugin_version":"2.1.0","time_elapsed":1558928,"subject_id":"90136","group":"Group2","full_date":"2025-11-21T04:02:23.568Z","date":"2025-11-21","time":"04:02:23"},{"task":"memory_phase","broad_category":"I","image_png":"I_Basalt_08.png","image_id":24,"category_name":"Basalt","category":2,"distinct_rating":2.31,"distinct_type":"Bottom","rt":null,"stimulus":"Stimuli_Rocks480/I_Basalt_08.png","response":null,"trial_type":"image-keyboard-response","trial_index":179,"plugin_version":"2.1.0","time_elapsed":1561442,"subject_id":"90136","group":"Group2","full_date":"2025-11-21T04:02:23.568Z","date":"2025-11-21","time":"04:02:23"},{"rt":null,"stimulus":"<p style=\"font-size: 50px; margin: 0; text-align: center;\">+</p>","response":null,"trial_type":"html-keyboard-response","trial_index":180,"plugin_version":"2.1.0","time_elapsed":1562446,"subject_id":"90136","group":"Group2","full_date":"2025-11-21T04:02:23.568Z","date":"2025-11-21","time":"04:02:23"},{"task":"memory_phase","broad_category":"M","image_png":"M_Quartzite_15.png","image_id":287,"category_name":"Quartzite","category":18,"distinct_rating":2.19,"distinct_type":"Bottom","rt":null,"stimulus":"Stimuli_Rocks480/M_Quartzite_15.png","response":null,"trial_type":"image-keyboard-response","trial_index":181,"plugin_version":"2.1.0","time_elapsed":1564952,"subject_id":"90136","group":"Group2","full_date":"2025-11-21T04:02:23.568Z","date":"2025-11-21","time":"04:02:23"},{"rt":null,"stimulus":"<p style=\"font-size: 50px; margin: 0; text-align: center;\">+</p>","response":null,"trial_type":"html-keyboard-response","trial_index":182,"plugin_version":"2.1.0","time_elapsed":1565966,"subject_id":"90136","group":"Group2","full_date":"2025-11-21T04:02:23.568Z","date":"2025-11-21","time":"04:02:23"},{"task":"memory_phase","broad_category":"S","image_png":"S_Shale_07.png","image_id":471,"category_name":"Shale","category":30,"distinct_rating":2.73,"distinct_type":"Bottom","rt":null,"stimulus":"Stimuli_Rocks480/S_Shale_07.png","response":null,"trial_type":"image-keyboard-response","trial_index":183,"plugin_version":"2.1.0","time_elapsed":1568474,"subject_id":"90136","group":"Group2","full_date":"2025-11-21T04:02:23.568Z","date":"2025-11-21","time":"04:02:23"},{"rt":null,"stimulus":"<p style=\"font-size: 50px; margin: 0; text-align: center;\">+</p>","response":null,"trial_type":"html-keyboard-response","trial_index":184,"plugin_version":"2.1.0","time_elapsed":1569485,"subject_id":"90136","group":"Group2","full_date":"2025-11-21T04:02:23.568Z","date":"2025-11-21","time":"04:02:23"},{"task":"memory_phase","broad_category":"M","image_png":"M_Quartzite_12.png","image_id":284,"category_name":"Quartzite","category":18,"distinct_rating":1.92,"distinct_type":"Bottom","rt":null,"stimulus":"Stimuli_Rocks480/M_Quartzite_12.png","response":null,"trial_type":"image-keyboard-response","trial_index":185,"plugin_version":"2.1.0","time_elapsed":1572000,"subject_id":"90136","group":"Group2","full_date":"2025-11-21T04:02:23.568Z","date":"2025-11-21","time":"04:02:23"},{"rt":null,"stimulus":"<p style=\"font-size: 50px; margin: 0; text-align: center;\">+</p>","response":null,"trial_type":"html-keyboard-response","trial_index":186,"plugin_version":"2.1.0","time_elapsed":1573018,"subject_id":"90136","group":"Group2","full_date":"2025-11-21T04:02:23.568Z","date":"2025-11-21","time":"04:02:23"},{"task":"memory_phase","broad_category":"I","image_png":"I_Basalt_10.png","image_id":26,"category_name":"Basalt","category":2,"distinct_rating":2.76,"distinct_type":"Bottom","rt":null,"stimulus":"Stimuli_Rocks480/I_Basalt_10.png","response":null,"trial_type":"image-keyboard-response","trial_index":187,"plugin_version":"2.1.0","time_elapsed":1575528,"subject_id":"90136","group":"Group2","full_date":"2025-11-21T04:02:23.568Z","date":"2025-11-21","time":"04:02:23"},{"rt":null,"stimulus":"<p style=\"font-size: 50px; margin: 0; text-align: center;\">+</p>","response":null,"trial_type":"html-keyboard-response","trial_index":188,"plugin_version":"2.1.0","time_elapsed":1576535,"subject_id":"90136","group":"Group2","full_date":"2025-11-21T04:02:23.568Z","date":"2025-11-21","time":"04:02:23"},{"task":"memory_phase","broad_category":"I","image_png":"I_Gabbro_02.png","image_id":50,"category_name":"Gabbro","category":4,"distinct_rating":2.73,"distinct_type":"Bottom","rt":null,"stimulus":"Stimuli_Rocks480/I_Gabbro_02.png","response":null,"trial_type":"image-keyboard-response","trial_index":189,"plugin_version":"2.1.0","time_elapsed":1579045,"subject_id":"90136","group":"Group2","full_date":"2025-11-21T04:02:23.568Z","date":"2025-11-21","time":"04:02:23"},{"rt":null,"stimulus":"<p style=\"font-size: 50px; margin: 0; text-align: center;\">+</p>","response":null,"trial_type":"html-keyboard-response","trial_index":190,"plugin_version":"2.1.0","time_elapsed":1580052,"subject_id":"90136","group":"Group2","full_date":"2025-11-21T04:02:23.568Z","date":"2025-11-21","time":"04:02:23"},{"task":"memory_phase","broad_category":"M","image_png":"M_Quartzite_07.png","image_id":279,"category_name":"Quartzite","category":18,"distinct_rating":1.97,"distinct_type":"Bottom","rt":null,"stimulus":"Stimuli_Rocks480/M_Quartzite_07.png","response":null,"trial_type":"image-keyboard-response","trial_index":191,"plugin_version":"2.1.0","time_elapsed":1582566,"subject_id":"90136","group":"Group2","full_date":"2025-11-21T04:02:23.568Z","date":"2025-11-21","time":"04:02:23"},{"rt":null,"stimulus":"<p style=\"font-size: 50px; margin: 0; text-align: center;\">+</p>","response":null,"trial_type":"html-keyboard-response","trial_index":192,"plugin_version":"2.1.0","time_elapsed":1583581,"subject_id":"90136","group":"Group2","full_date":"2025-11-21T04:02:23.568Z","date":"2025-11-21","time":"04:02:23"},{"task":"memory_phase","broad_category":"M","image_png":"M_Phyllite_02.png","image_id":258,"category_name":"Phyllite","category":17,"distinct_rating":2.89,"distinct_type":"Bottom","rt":null,"stimulus":"Stimuli_Rocks480/M_Phyllite_02.png","response":null,"trial_type":"image-keyboard-response","trial_index":193,"plugin_version":"2.1.0","time_elapsed":1586085,"subject_id":"90136","group":"Group2","full_date":"2025-11-21T04:02:23.568Z","date":"2025-11-21","time":"04:02:23"},{"rt":null,"stimulus":"<p style=\"font-size: 50px; margin: 0; text-align: center;\">+</p>","response":null,"trial_type":"html-keyboard-response","trial_index":194,"plugin_version":"2.1.0","time_elapsed":1587091,"subject_id":"90136","group":"Group2","full_date":"2025-11-21T04:02:23.568Z","date":"2025-11-21","time":"04:02:23"},{"task":"memory_phase","broad_category":"I","image_png":"I_Pumice_13.png","image_id":141,"category_name":"Pumice","category":9,"distinct_rating":3.12,"distinct_type":"Bottom","rt":null,"stimulus":"Stimuli_Rocks480/I_Pumice_13.png","response":null,"trial_type":"image-keyboard-response","trial_index":195,"plugin_version":"2.1.0","time_elapsed":1589606,"subject_id":"90136","group":"Group2","full_date":"2025-11-21T04:02:23.568Z","date":"2025-11-21","time":"04:02:23"},{"rt":null,"stimulus":"<p style=\"font-size: 50px; margin: 0; text-align: center;\">+</p>","response":null,"trial_type":"html-keyboard-response","trial_index":196,"plugin_version":"2.1.0","time_elapsed":1590610,"subject_id":"90136","group":"Group2","full_date":"2025-11-21T04:02:23.568Z","date":"2025-11-21","time":"04:02:23"},{"task":"memory_phase","broad_category":"I","image_png":"I_Pegmatite_03.png","image_id":99,"category_name":"Pegmatite","category":7,"distinct_rating":7.24,"distinct_type":"Top","rt":null,"stimulus":"Stimuli_Rocks480/I_Pegmatite_03.png","response":null,"trial_type":"image-keyboard-response","trial_index":197,"plugin_version":"2.1.0","time_elapsed":1593123,"subject_id":"90136","group":"Group2","full_date":"2025-11-21T04:02:23.568Z","date":"2025-11-21","time":"04:02:23"},{"rt":null,"stimulus":"<p style=\"font-size: 50px; margin: 0; text-align: center;\">+</p>","response":null,"trial_type":"html-keyboard-response","trial_index":198,"plugin_version":"2.1.0","time_elapsed":1594131,"subject_id":"90136","group":"Group2","full_date":"2025-11-21T04:02:23.568Z","date":"2025-11-21","time":"04:02:23"},{"task":"memory_phase","broad_category":"M","image_png":"M_Phyllite_05.png","image_id":261,"category_name":"Phyllite","category":17,"distinct_rating":2.14,"distinct_type":"Bottom","rt":null,"stimulus":"Stimuli_Rocks480/M_Phyllite_05.png","response":null,"trial_type":"image-keyboard-response","trial_index":199,"plugin_version":"2.1.0","time_elapsed":1596636,"subject_id":"90136","group":"Group2","full_date":"2025-11-21T04:02:23.568Z","date":"2025-11-21","time":"04:02:23"},{"rt":null,"stimulus":"<p style=\"font-size: 50px; margin: 0; text-align: center;\">+</p>","response":null,"trial_type":"html-keyboard-response","trial_index":200,"plugin_version":"2.1.0","time_elapsed":1597653,"subject_id":"90136","group":"Group2","full_date":"2025-11-21T04:02:23.568Z","date":"2025-11-21","time":"04:02:23"},{"task":"memory_phase","broad_category":"I","image_png":"I_Diorite_15.png","image_id":47,"category_name":"Diorite","category":3,"distinct_rating":3.05,"distinct_type":"Bottom","rt":null,"stimulus":"Stimuli_Rocks480/I_Diorite_15.png","response":null,"trial_type":"image-keyboard-response","trial_index":201,"plugin_version":"2.1.0","time_elapsed":1600157,"subject_id":"90136","group":"Group2","full_date":"2025-11-21T04:02:23.568Z","date":"2025-11-21","time":"04:02:23"},{"rt":null,"stimulus":"<p style=\"font-size: 50px; margin: 0; text-align: center;\">+</p>","response":null,"trial_type":"html-keyboard-response","trial_index":202,"plugin_version":"2.1.0","time_elapsed":1601162,"subject_id":"90136","group":"Group2","full_date":"2025-11-21T04:02:23.568Z","date":"2025-11-21","time":"04:02:23"},{"task":"memory_phase","broad_category":"I","image_png":"I_Andesite_09.png","image_id":9,"category_name":"Andesite","category":1,"distinct_rating":2.49,"distinct_type":"Bottom","rt":null,"stimulus":"Stimuli_Rocks480/I_Andesite_09.png","response":null,"trial_type":"image-keyboard-response","trial_index":203,"plugin_version":"2.1.0","time_elapsed":1603670,"subject_id":"90136","group":"Group2","full_date":"2025-11-21T04:02:23.568Z","date":"2025-11-21","time":"04:02:23"},{"rt":null,"stimulus":"<p style=\"font-size: 50px; margin: 0; text-align: center;\">+</p>","response":null,"trial_type":"html-keyboard-response","trial_index":204,"plugin_version":"2.1.0","time_elapsed":1604679,"subject_id":"90136","group":"Group2","full_date":"2025-11-21T04:02:23.568Z","date":"2025-11-21","time":"04:02:23"},{"task":"memory_phase","broad_category":"M","image_png":"M_Slate_14.png","image_id":318,"category_name":"Slate","category":20,"distinct_rating":2.58,"distinct_type":"Bottom","rt":null,"stimulus":"Stimuli_Rocks480/M_Slate_14.png","response":null,"trial_type":"image-keyboard-response","trial_index":205,"plugin_version":"2.1.0","time_elapsed":1607190,"subject_id":"90136","group":"Group2","full_date":"2025-11-21T04:02:23.568Z","date":"2025-11-21","time":"04:02:23"},{"rt":null,"stimulus":"<p style=\"font-size: 50px; margin: 0; text-align: center;\">+</p>","response":null,"trial_type":"html-keyboard-response","trial_index":206,"plugin_version":"2.1.0","time_elapsed":1608204,"subject_id":"90136","group":"Group2","full_date":"2025-11-21T04:02:23.568Z","date":"2025-11-21","time":"04:02:23"},{"task":"memory_phase","broad_category":"I","image_png":"I_Pegmatite_11.png","image_id":107,"category_name":"Pegmatite","category":7,"distinct_rating":7.11,"distinct_type":"Top","rt":null,"stimulus":"Stimuli_Rocks480/I_Pegmatite_11.png","response":null,"trial_type":"image-keyboard-response","trial_index":207,"plugin_version":"2.1.0","time_elapsed":1610708,"subject_id":"90136","group":"Group2","full_date":"2025-11-21T04:02:23.568Z","date":"2025-11-21","time":"04:02:23"},{"rt":2614,"stimulus":"<p style=\"max-width: 760px; margin: auto; font-size: 35px; line-height: 1.5;\">You have completed 2 study phases. Now, we'll show you all the images again 1 more time.<br><br>Press SPACE to continue</p>","response":" ","trial_type":"html-keyboard-response","trial_index":208,"plugin_version":"2.1.0","time_elapsed":1613324,"subject_id":"90136","group":"Group2","full_date":"2025-11-21T04:02:23.568Z","date":"2025-11-21","time":"04:02:23"},{"rt":null,"stimulus":"<p style=\"font-size: 50px; margin: 0; text-align: center;\">+</p>","response":null,"trial_type":"html-keyboard-response","trial_index":209,"plugin_version":"2.1.0","time_elapsed":1614328,"subject_id":"90136","group":"Group2","full_date":"2025-11-21T04:02:23.568Z","date":"2025-11-21","time":"04:02:23"},{"task":"memory_phase","broad_category":"M","image_png":"M_Phyllite_05.png","image_id":261,"category_name":"Phyllite","category":17,"distinct_rating":2.14,"distinct_type":"Bottom","rt":null,"stimulus":"Stimuli_Rocks480/M_Phyllite_05.png","response":null,"trial_type":"image-keyboard-response","trial_index":210,"plugin_version":"2.1.0","time_elapsed":1616833,"subject_id":"90136","group":"Group2","full_date":"2025-11-21T04:02:23.568Z","date":"2025-11-21","time":"04:02:23"},{"rt":null,"stimulus":"<p style=\"font-size: 50px; margin: 0; text-align: center;\">+</p>","response":null,"trial_type":"html-keyboard-response","trial_index":211,"plugin_version":"2.1.0","time_elapsed":1617848,"subject_id":"90136","group":"Group2","full_date":"2025-11-21T04:02:23.568Z","date":"2025-11-21","time":"04:02:23"},{"task":"memory_phase","broad_category":"I","image_png":"I_Andesite_03.png","image_id":3,"category_name":"Andesite","category":1,"distinct_rating":3.17,"distinct_type":"Bottom","rt":null,"stimulus":"Stimuli_Rocks480/I_Andesite_03.png","response":null,"trial_type":"image-keyboard-response","trial_index":212,"plugin_version":"2.1.0","time_elapsed":1620368,"subject_id":"90136","group":"Group2","full_date":"2025-11-21T04:02:23.568Z","date":"2025-11-21","time":"04:02:23"},{"rt":null,"stimulus":"<p style=\"font-size: 50px; margin: 0; text-align: center;\">+</p>","response":null,"trial_type":"html-keyboard-response","trial_index":213,"plugin_version":"2.1.0","time_elapsed":1621379,"subject_id":"90136","group":"Group2","full_date":"2025-11-21T04:02:23.568Z","date":"2025-11-21","time":"04:02:23"},{"task":"memory_phase","broad_category":"S","image_png":"S_Dolomite_07.png","image_id":391,"category_name":"Dolomite","category":25,"distinct_rating":1.73,"distinct_type":"Bottom","rt":null,"stimulus":"Stimuli_Rocks480/S_Dolomite_07.png","response":null,"trial_type":"image-keyboard-response","trial_index":214,"plugin_version":"2.1.0","time_elapsed":1623890,"subject_id":"90136","group":"Group2","full_date":"2025-11-21T04:02:23.568Z","date":"2025-11-21","time":"04:02:23"},{"rt":null,"stimulus":"<p style=\"font-size: 50px; margin: 0; text-align: center;\">+</p>","response":null,"trial_type":"html-keyboard-response","trial_index":215,"plugin_version":"2.1.0","time_elapsed":1624908,"subject_id":"90136","group":"Group2","full_date":"2025-11-21T04:02:23.568Z","date":"2025-11-21","time":"04:02:23"},{"task":"memory_phase","broad_category":"M","image_png":"M_Quartzite_12.png","image_id":284,"category_name":"Quartzite","category":18,"distinct_rating":1.92,"distinct_type":"Bottom","rt":null,"stimulus":"Stimuli_Rocks480/M_Quartzite_12.png","response":null,"trial_type":"image-keyboard-response","trial_index":216,"plugin_version":"2.1.0","time_elapsed":1627420,"subject_id":"90136","group":"Group2","full_date":"2025-11-21T04:02:23.568Z","date":"2025-11-21","time":"04:02:23"},{"rt":null,"stimulus":"<p style=\"font-size: 50px; margin: 0; text-align: center;\">+</p>","response":null,"trial_type":"html-keyboard-response","trial_index":217,"plugin_version":"2.1.0","time_elapsed":1628425,"subject_id":"90136","group":"Group2","full_date":"2025-11-21T04:02:23.568Z","date":"2025-11-21","time":"04:02:23"},{"task":"memory_phase","broad_category":"I","image_png":"I_Diorite_15.png","image_id":47,"category_name":"Diorite","category":3,"distinct_rating":3.05,"distinct_type":"Bottom","rt":null,"stimulus":"Stimuli_Rocks480/I_Diorite_15.png","response":null,"trial_type":"image-keyboard-response","trial_index":218,"plugin_version":"2.1.0","time_elapsed":1630937,"subject_id":"90136","group":"Group2","full_date":"2025-11-21T04:02:23.568Z","date":"2025-11-21","time":"04:02:23"},{"rt":null,"stimulus":"<p style=\"font-size: 50px; margin: 0; text-align: center;\">+</p>","response":null,"trial_type":"html-keyboard-response","trial_index":219,"plugin_version":"2.1.0","time_elapsed":1631955,"subject_id":"90136","group":"Group2","full_date":"2025-11-21T04:02:23.568Z","date":"2025-11-21","time":"04:02:23"},{"task":"memory_phase","broad_category":"S","image_png":"S_Sandstone_04.png","image_id":452,"category_name":"Sandstone","category":29,"distinct_rating":1.8,"distinct_type":"Bottom","rt":null,"stimulus":"Stimuli_Rocks480/S_Sandstone_04.png","response":null,"trial_type":"image-keyboard-response","trial_index":220,"plugin_version":"2.1.0","time_elapsed":1634469,"subject_id":"90136","group":"Group2","full_date":"2025-11-21T04:02:23.568Z","date":"2025-11-21","time":"04:02:23"},{"rt":null,"stimulus":"<p style=\"font-size: 50px; margin: 0; text-align: center;\">+</p>","response":null,"trial_type":"html-keyboard-response","trial_index":221,"plugin_version":"2.1.0","time_elapsed":1635481,"subject_id":"90136","group":"Group2","full_date":"2025-11-21T04:02:23.568Z","date":"2025-11-21","time":"04:02:23"},{"task":"memory_phase","broad_category":"I","image_png":"I_Gabbro_02.png","image_id":50,"category_name":"Gabbro","category":4,"distinct_rating":2.73,"distinct_type":"Bottom","rt":null,"stimulus":"Stimuli_Rocks480/I_Gabbro_02.png","response":null,"trial_type":"image-keyboard-response","trial_index":222,"plugin_version":"2.1.0","time_elapsed":1637985,"subject_id":"90136","group":"Group2","full_date":"2025-11-21T04:02:23.568Z","date":"2025-11-21","time":"04:02:23"},{"rt":null,"stimulus":"<p style=\"font-size: 50px; margin: 0; text-align: center;\">+</p>","response":null,"trial_type":"html-keyboard-response","trial_index":223,"plugin_version":"2.1.0","time_elapsed":1639001,"subject_id":"90136","group":"Group2","full_date":"2025-11-21T04:02:23.568Z","date":"2025-11-21","time":"04:02:23"},{"task":"memory_phase","broad_category":"I","image_png":"I_Andesite_09.png","image_id":9,"category_name":"Andesite","category":1,"distinct_rating":2.49,"distinct_type":"Bottom","rt":null,"stimulus":"Stimuli_Rocks480/I_Andesite_09.png","response":null,"trial_type":"image-keyboard-response","trial_index":224,"plugin_version":"2.1.0","time_elapsed":1641514,"subject_id":"90136","group":"Group2","full_date":"2025-11-21T04:02:23.568Z","date":"2025-11-21","time":"04:02:23"},{"rt":null,"stimulus":"<p style=\"font-size: 50px; margin: 0; text-align: center;\">+</p>","response":null,"trial_type":"html-keyboard-response","trial_index":225,"plugin_version":"2.1.0","time_elapsed":1642531,"subject_id":"90136","group":"Group2","full_date":"2025-11-21T04:02:23.568Z","date":"2025-11-21","time":"04:02:23"},{"task":"memory_phase","broad_category":"I","image_png":"I_Pegmatite_03.png","image_id":99,"category_name":"Pegmatite","category":7,"distinct_rating":7.24,"distinct_type":"Top","rt":null,"stimulus":"Stimuli_Rocks480/I_Pegmatite_03.png","response":null,"trial_type":"image-keyboard-response","trial_index":226,"plugin_version":"2.1.0","time_elapsed":1645035,"subject_id":"90136","group":"Group2","full_date":"2025-11-21T04:02:23.568Z","date":"2025-11-21","time":"04:02:23"},{"rt":null,"stimulus":"<p style=\"font-size: 50px; margin: 0; text-align: center;\">+</p>","response":null,"trial_type":"html-keyboard-response","trial_index":227,"plugin_version":"2.1.0","time_elapsed":1646047,"subject_id":"90136","group":"Group2","full_date":"2025-11-21T04:02:23.568Z","date":"2025-11-21","time":"04:02:23"},{"task":"memory_phase","broad_category":"S","image_png":"S_Rock Salt_13.png","image_id":445,"category_name":"Rock Salt","category":28,"distinct_rating":7.58,"distinct_type":"Top","rt":null,"stimulus":"Stimuli_Rocks480/S_Rock Salt_13.png","response":null,"trial_type":"image-keyboard-response","trial_index":228,"plugin_version":"2.1.0","time_elapsed":1648560,"subject_id":"90136","group":"Group2","full_date":"2025-11-21T04:02:23.568Z","date":"2025-11-21","time":"04:02:23"},{"rt":null,"stimulus":"<p style=\"font-size: 50px; margin: 0; text-align: center;\">+</p>","response":null,"trial_type":"html-keyboard-response","trial_index":229,"plugin_version":"2.1.0","time_elapsed":1649570,"subject_id":"90136","group":"Group2","full_date":"2025-11-21T04:02:23.568Z","date":"2025-11-21","time":"04:02:23"},{"task":"memory_phase","broad_category":"M","image_png":"M_Marble_14.png","image_id":238,"category_name":"Marble","category":15,"distinct_rating":3.31,"distinct_type":"Bottom","rt":null,"stimulus":"Stimuli_Rocks480/M_Marble_14.png","response":null,"trial_type":"image-keyboard-response","trial_index":230,"plugin_version":"2.1.0","time_elapsed":1652080,"subject_id":"90136","group":"Group2","full_date":"2025-11-21T04:02:23.568Z","date":"2025-11-21","time":"04:02:23"},{"rt":null,"stimulus":"<p style=\"font-size: 50px; margin: 0; text-align: center;\">+</p>","response":null,"trial_type":"html-keyboard-response","trial_index":231,"plugin_version":"2.1.0","time_elapsed":1653095,"subject_id":"90136","group":"Group2","full_date":"2025-11-21T04:02:23.568Z","date":"2025-11-21","time":"04:02:23"},{"task":"memory_phase","broad_category":"S","image_png":"S_Dolomite_01.png","image_id":385,"category_name":"Dolomite","category":25,"distinct_rating":1.43,"distinct_type":"Bottom","rt":null,"stimulus":"Stimuli_Rocks480/S_Dolomite_01.png","response":null,"trial_type":"image-keyboard-response","trial_index":232,"plugin_version":"2.1.0","time_elapsed":1655612,"subject_id":"90136","group":"Group2","full_date":"2025-11-21T04:02:23.568Z","date":"2025-11-21","time":"04:02:23"},{"rt":null,"stimulus":"<p style=\"font-size: 50px; margin: 0; text-align: center;\">+</p>","response":null,"trial_type":"html-keyboard-response","trial_index":233,"plugin_version":"2.1.0","time_elapsed":1656630,"subject_id":"90136","group":"Group2","full_date":"2025-11-21T04:02:23.568Z","date":"2025-11-21","time":"04:02:23"},{"task":"memory_phase","broad_category":"I","image_png":"I_Pumice_01.png","image_id":129,"category_name":"Pumice","category":9,"distinct_rating":3.25,"distinct_type":"Bottom","rt":null,"stimulus":"Stimuli_Rocks480/I_Pumice_01.png","response":null,"trial_type":"image-keyboard-response","trial_index":234,"plugin_version":"2.1.0","time_elapsed":1659142,"subject_id":"90136","group":"Group2","full_date":"2025-11-21T04:02:23.568Z","date":"2025-11-21","time":"04:02:23"},{"rt":null,"stimulus":"<p style=\"font-size: 50px; margin: 0; text-align: center;\">+</p>","response":null,"trial_type":"html-keyboard-response","trial_index":235,"plugin_version":"2.1.0","time_elapsed":1660146,"subject_id":"90136","group":"Group2","full_date":"2025-11-21T04:02:23.568Z","date":"2025-11-21","time":"04:02:23"},{"task":"memory_phase","broad_category":"M","image_png":"M_Slate_10.png","image_id":314,"category_name":"Slate","category":20,"distinct_rating":1.94,"distinct_type":"Bottom","rt":null,"stimulus":"Stimuli_Rocks480/M_Slate_10.png","response":null,"trial_type":"image-keyboard-response","trial_index":236,"plugin_version":"2.1.0","time_elapsed":1662656,"subject_id":"90136","group":"Group2","full_date":"2025-11-21T04:02:23.568Z","date":"2025-11-21","time":"04:02:23"},{"rt":null,"stimulus":"<p style=\"font-size: 50px; margin: 0; text-align: center;\">+</p>","response":null,"trial_type":"html-keyboard-response","trial_index":237,"plugin_version":"2.1.0","time_elapsed":1663673,"subject_id":"90136","group":"Group2","full_date":"2025-11-21T04:02:23.568Z","date":"2025-11-21","time":"04:02:23"},{"task":"memory_phase","broad_category":"I","image_png":"I_Pumice_13.png","image_id":141,"category_name":"Pumice","category":9,"distinct_rating":3.12,"distinct_type":"Bottom","rt":null,"stimulus":"Stimuli_Rocks480/I_Pumice_13.png","response":null,"trial_type":"image-keyboard-response","trial_index":238,"plugin_version":"2.1.0","time_elapsed":1666178,"subject_id":"90136","group":"Group2","full_date":"2025-11-21T04:02:23.568Z","date":"2025-11-21","time":"04:02:23"},{"rt":null,"stimulus":"<p style=\"font-size: 50px; margin: 0; text-align: center;\">+</p>","response":null,"trial_type":"html-keyboard-response","trial_index":239,"plugin_version":"2.1.0","time_elapsed":1667196,"subject_id":"90136","group":"Group2","full_date":"2025-11-21T04:02:23.568Z","date":"2025-11-21","time":"04:02:23"},{"task":"memory_phase","broad_category":"S","image_png":"S_Sandstone_11.png","image_id":459,"category_name":"Sandstone","category":29,"distinct_rating":1.82,"distinct_type":"Bottom","rt":null,"stimulus":"Stimuli_Rocks480/S_Sandstone_11.png","response":null,"trial_type":"image-keyboard-response","trial_index":240,"plugin_version":"2.1.0","time_elapsed":1669708,"subject_id":"90136","group":"Group2","full_date":"2025-11-21T04:02:23.568Z","date":"2025-11-21","time":"04:02:23"},{"rt":null,"stimulus":"<p style=\"font-size: 50px; margin: 0; text-align: center;\">+</p>","response":null,"trial_type":"html-keyboard-response","trial_index":241,"plugin_version":"2.1.0","time_elapsed":1670714,"subject_id":"90136","group":"Group2","full_date":"2025-11-21T04:02:23.568Z","date":"2025-11-21","time":"04:02:23"},{"task":"memory_phase","broad_category":"S","image_png":"S_Conglomerate_14.png","image_id":382,"category_name":"Conglomerate","category":24,"distinct_rating":6.86,"distinct_type":"Top","rt":null,"stimulus":"Stimuli_Rocks480/S_Conglomerate_14.png","response":null,"trial_type":"image-keyboard-response","trial_index":242,"plugin_version":"2.1.0","time_elapsed":1673220,"subject_id":"90136","group":"Group2","full_date":"2025-11-21T04:02:23.568Z","date":"2025-11-21","time":"04:02:23"},{"rt":null,"stimulus":"<p style=\"font-size: 50px; margin: 0; text-align: center;\">+</p>","response":null,"trial_type":"html-keyboard-response","trial_index":243,"plugin_version":"2.1.0","time_elapsed":1674229,"subject_id":"90136","group":"Group2","full_date":"2025-11-21T04:02:23.568Z","date":"2025-11-21","time":"04:02:23"},{"task":"memory_phase","broad_category":"I","image_png":"I_Rhyolite_08.png","image_id":152,"category_name":"Rhyolite","category":10,"distinct_rating":1.38,"distinct_type":"Bottom","rt":null,"stimulus":"Stimuli_Rocks480/I_Rhyolite_08.png","response":null,"trial_type":"image-keyboard-response","trial_index":244,"plugin_version":"2.1.0","time_elapsed":1676738,"subject_id":"90136","group":"Group2","full_date":"2025-11-21T04:02:23.568Z","date":"2025-11-21","time":"04:02:23"},{"rt":null,"stimulus":"<p style=\"font-size: 50px; margin: 0; text-align: center;\">+</p>","response":null,"trial_type":"html-keyboard-response","trial_index":245,"plugin_version":"2.1.0","time_elapsed":1677741,"subject_id":"90136","group":"Group2","full_date":"2025-11-21T04:02:23.568Z","date":"2025-11-21","time":"04:02:23"},{"task":"memory_phase","broad_category":"I","image_png":"I_Peridotite_13.png","image_id":125,"category_name":"Peridotite","category":8,"distinct_rating":7.28,"distinct_type":"Top","rt":null,"stimulus":"Stimuli_Rocks480/I_Peridotite_13.png","response":null,"trial_type":"image-keyboard-response","trial_index":246,"plugin_version":"2.1.0","time_elapsed":1680244,"subject_id":"90136","group":"Group2","full_date":"2025-11-21T04:02:23.568Z","date":"2025-11-21","time":"04:02:23"},{"rt":null,"stimulus":"<p style=\"font-size: 50px; margin: 0; text-align: center;\">+</p>","response":null,"trial_type":"html-keyboard-response","trial_index":247,"plugin_version":"2.1.0","time_elapsed":1681256,"subject_id":"90136","group":"Group2","full_date":"2025-11-21T04:02:23.568Z","date":"2025-11-21","time":"04:02:23"},{"task":"memory_phase","broad_category":"M","image_pn