trial_index subject_id group condition task item_type response correct_response cor_ans rt category image_id distinct_rating distinct_type good_subj
1 2162 2 1 1 0 0 0 1 2746.0 18 285 2.27 0 1
2 2162 2 1 1 0 0 0 1 1188.0 25 397 1.77 0 1
3 2162 2 1 1 0 0 0 1 940.0 6 85 7.32 1 1
4 2162 2 1 1 0 0 0 1 946.0 1 10 3.15 0 1
5 2162 2 1 1 1 1 1 1 3154.0 10 149 3.02 0 1
6 2162 2 1 1 0 0 0 1 1303.0 15 240 2.57 0 1
7 2162 2 1 1 0 1 0 0 1414.0 10 160 2.19 0 1
8 2162 2 1 1 1 1 1 1 888.0 1 9 2.49 0 1
9 2162 2 1 1 0 0 0 1 839.0 17 266 2.6 0 1
10 2162 2 1 1 0 0 0 1 965.0 28 433 7.18 1 1
11 2162 2 1 1 1 1 1 1 745.0 28 445 7.58 1 1
12 2162 2 1 1 1 1 1 1 835.0 1 4 3.18 0 1
13 2162 2 1 1 1 1 1 1 827.0 3 47 3.05 0 1
14 2162 2 1 1 0 1 0 0 804.0 1 8 1.95 0 1
15 2162 2 1 1 0 0 0 1 885.0 29 463 2.0 0 1
16 2162 2 1 1 1 1 1 1 821.0 8 125 7.28 1 1
17 2162 2 1 1 1 1 1 1 1439.0 4 50 2.73 0 1
18 2162 2 1 1 1 1 1 1 989.0 2 24 2.31 0 1
19 2162 2 1 1 0 1 0 0 879.0 9 136 3.1 0 1
20 2162 2 1 1 0 1 0 0 844.0 20 315 2.75 0 1
21 2162 2 1 1 1 1 1 1 770.0 15 238 3.31 0 1
22 2162 2 1 1 1 1 1 1 803.0 30 467 1.95 0 1
23 2162 2 1 1 1 1 1 1 776.0 13 202 3.09 0 1
24 2162 2 1 1 0 0 0 1 839.0 7 106 7.66 1 1
25 2162 2 1 1 1 1 1 1 808.0 17 258 2.89 0 1
26 2162 2 1 1 1 1 1 1 773.0 10 154 2.88 0 1
27 2162 2 1 1 0 1 0 0 790.0 3 36 2.98 0 1
28 2162 2 1 1 0 1 0 0 1086.0 17 259 2.5 0 1
29 2162 2 1 1 1 1 1 1 662.0 7 107 7.11 1 1
30 2162 2 1 1 0 1 0 0 746.0 15 228 3.15 0 1
31 2162 2 1 1 1 1 1 1 751.0 17 269 2.8 0 1
32 2162 2 1 1 1 0 1 0 853.0 3 42 2.84 0 1
33 2162 2 1 1 1 1 1 1 870.0 9 142 3.22 0 1
34 2162 2 1 1 1 1 1 1 908.0 29 456 1.5 0 1
35 2162 2 1 1 0 1 0 0 709.0 3 37 3.08 0 1
36 2162 2 1 1 0 1 0 0 747.0 20 319 2.13 0 1
37 2162 2 1 1 1 0 1 0 818.0 30 466 2.9 0 1
38 2162 2 1 1 0 1 0 0 680.0 13 198 2.65 0 1
39 2162 2 1 1 1 1 1 1 867.0 20 314 1.94 0 1
40 2162 2 1 1 0 0 0 1 924.0 7 112 7.03 1 1
41 2162 2 1 1 1 1 1 1 779.0 2 29 2.68 0 1
42 2162 2 1 1 0 0 0 1 800.0 29 464 1.93 0 1
43 2162 2 1 1 1 1 1 1 1062.0 29 452 1.8 0 1
44 2162 2 1 1 1 1 1 1 903.0 15 227 2.67 0 1
45 2162 2 1 1 0 0 0 1 901.0 27 420 7.61 1 1
46 2162 2 1 1 0 0 0 1 1117.0 30 476 2.48 0 1
47 2162 2 1 1 1 1 1 1 911.0 4 60 2.6 0 1
48 2162 2 1 1 1 0 1 0 1110.0 9 129 3.25 0 1
49 2162 2 1 1 0 1 0 0 1381.0 4 64 2.52 0 1
50 2162 2 1 1 0 1 0 0 1007.0 17 263 2.59 0 1
51 2162 2 1 1 0 0 0 1 827.0 13 205 3.26 0 1
52 2162 2 1 1 0 0 0 1 957.0 4 56 3.02 0 1
53 2162 2 1 1 1 1 1 1 866.0 25 385 1.43 0 1
54 2162 2 1 1 1 1 1 1 1119.0 30 471 2.73 0 1
55 2162 2 1 1 0 0 0 1 1040.0 10 158 2.59 0 1
56 2162 2 1 1 1 1 1 1 927.0 18 284 1.92 0 1
57 2162 2 1 1 1 1 1 1 959.0 3 33 2.97 0 1
58 2162 2 1 1 0 0 0 1 874.0 4 59 1.99 0 1
59 2162 2 1 1 1 1 1 1 829.0 17 261 2.14 0 1
60 2162 2 1 1 0 1 0 0 1087.0 2 25 1.89 0 1
61 2162 2 1 1 0 0 0 1 916.0 23 362 7.17 1 1
62 2162 2 1 1 1 1 1 1 1947.0 4 62 2.95 0 1
63 2162 2 1 1 1 0 1 0 1196.0 29 459 1.82 0 1
64 2162 2 1 1 0 1 0 0 1175.0 10 155 1.73 0 1
65 2162 2 1 1 1 1 1 1 764.0 15 226 3.2 0 1
66 2162 2 1 1 0 0 0 1 754.0 22 347 6.7 1 1
67 2162 2 1 1 0 0 0 1 1138.0 2 18 1.84 0 1
68 2162 2 1 1 0 0 0 1 913.0 2 17 1.92 0 1
69 2162 2 1 1 1 0 1 0 855.0 18 287 2.19 0 1
70 2162 2 1 1 0 0 0 1 804.0 9 140 2.97 0 1
71 2162 2 1 1 1 1 1 1 745.0 13 206 3.41 0 1
72 2162 2 1 1 0 0 0 1 791.0 30 465 2.7 0 1
73 2162 2 1 1 1 1 1 1 1265.0 25 391 1.73 0 1
74 2162 2 1 1 0 1 0 0 1065.0 13 197 2.97 0 1
75 2162 2 1 1 0 0 0 1 798.0 18 277 2.23 0 1
76 2162 2 1 1 1 1 1 1 970.0 23 365 6.57 1 1
77 2162 2 1 1 0 1 0 0 1464.0 1 6 3.17 0 1
78 2162 2 1 1 0 1 0 0 680.0 18 280 2.15 0 1
79 2162 2 1 1 1 1 1 1 995.0 1 3 3.17 0 1
80 2162 2 1 1 1 1 1 1 2089.0 25 400 1.71 0 1
81 2162 2 1 1 0 0 0 1 921.0 25 396 1.85 0 1
82 2162 2 1 1 0 1 0 0 1384.0 25 398 1.43 0 1
83 2162 2 1 1 0 1 0 0 1425.0 9 139 1.74 0 1
84 2162 2 1 1 0 0 0 1 1314.0 20 307 1.87 0 1
85 2162 2 1 1 0 0 0 1 788.0 24 373 7.32 1 1
86 2162 2 1 1 0 0 0 1 1255.0 15 230 3.4 0 1
87 2162 2 1 1 1 1 1 1 745.0 13 207 3.11 0 1
88 2162 2 1 1 1 1 1 1 686.0 28 447 7.79 1 1
89 2162 2 1 1 0 1 0 0 831.0 3 35 3.14 0 1
90 2162 2 1 1 0 0 0 1 835.0 29 451 1.86 0 1
91 2162 2 1 1 1 1 1 1 746.0 20 308 2.2 0 1
92 2162 2 1 1 1 0 1 0 1195.0 9 141 3.12 0 1
93 2162 2 1 1 1 0 1 0 900.0 10 152 1.38 0 1
94 2162 2 1 1 1 1 1 1 991.0 18 279 1.97 0 1
95 2162 2 1 1 1 1 1 1 1699.0 20 318 2.58 0 1
96 2162 2 1 1 1 1 1 1 810.0 6 86 8.01 1 1
97 2162 2 1 1 1 1 1 1 1094.0 2 26 2.76 0 1
98 2162 2 1 1 1 0 1 0 1066.0 7 99 7.24 1 1
99 2162 2 1 1 0 0 0 1 1203.0 30 472 2.55 0 1
100 2162 2 1 1 1 0 1 0 832.0 24 382 6.86 1 1
1 2126 1 1 1 1 1 1 1 2286.0 7 112 7.03 1 1
2 2126 1 1 1 1 0 1 0 1810.0 25 397 1.77 0 1
3 2126 1 1 1 0 1 0 0 1321.0 20 318 2.58 0 1
4 2126 1 1 1 0 0 0 1 1805.0 25 391 1.73 0 1
5 2126 1 1 1 1 0 1 0 1914.0 17 263 2.59 0 1
6 2126 1 1 1 1 0 1 0 1167.0 10 160 2.19 0 1
7 2126 1 1 1 1 1 1 1 1016.0 2 25 1.89 0 1
8 2126 1 1 1 1 1 1 1 848.0 18 285 2.27 0 1
9 2126 1 1 1 0 0 0 1 1101.0 18 284 1.92 0 1
10 2126 1 1 1 0 0 0 1 1347.0 9 129 3.25 0 1
11 2126 1 1 1 0 0 0 1 1055.0 2 26 2.76 0 1
12 2126 1 1 1 0 0 0 1 1165.0 28 445 7.58 1 1
13 2126 1 1 1 0 1 0 0 779.0 18 279 1.97 0 1
14 2126 1 1 1 0 1 0 0 950.0 6 86 8.01 1 1
15 2126 1 1 1 1 1 1 1 865.0 20 319 2.13 0 1
16 2126 1 1 1 0 1 0 0 1063.0 29 459 1.82 0 1
17 2126 1 1 1 1 1 1 1 878.0 2 18 1.84 0 1
18 2126 1 1 1 0 0 0 1 2329.0 13 206 3.41 0 1
19 2126 1 1 1 1 1 1 1 968.0 24 373 7.32 1 1
20 2126 1 1 1 0 1 0 0 1807.0 17 269 2.8 0 1
21 2126 1 1 1 0 0 0 1 1233.0 4 50 2.73 0 1
22 2126 1 1 1 0 0 0 1 1372.0 28 447 7.79 1 1
23 2126 1 1 1 1 1 1 1 879.0 3 35 3.14 0 1
24 2126 1 1 1 1 1 1 1 1167.0 25 398 1.43 0 1
25 2126 1 1 1 0 1 0 0 806.0 20 308 2.2 0 1
26 2126 1 1 1 1 0 1 0 1608.0 22 347 6.7 1 1
27 2126 1 1 1 0 0 0 1 1417.0 10 152 1.38 0 1
28 2126 1 1 1 0 1 0 0 882.0 1 9 2.49 0 1
29 2126 1 1 1 1 1 1 1 865.0 9 140 2.97 0 1
30 2126 1 1 1 1 1 1 1 955.0 17 259 2.5 0 1
31 2126 1 1 1 1 1 1 1 801.0 18 277 2.23 0 1
32 2126 1 1 1 1 1 1 1 841.0 29 463 2.0 0 1
33 2126 1 1 1 1 1 1 1 807.0 15 228 3.15 0 1
34 2126 1 1 1 0 0 0 1 790.0 24 382 6.86 1 1
35 2126 1 1 1 0 1 0 0 770.0 2 24 2.31 0 1
36 2126 1 1 1 1 1 1 1 725.0 25 396 1.85 0 1
37 2126 1 1 1 0 1 0 0 899.0 3 33 2.97 0 1
38 2126 1 1 1 1 0 1 0 724.0 10 155 1.73 0 1
39 2126 1 1 1 0 1 0 0 694.0 25 400 1.71 0 1
40 2126 1 1 1 0 1 0 0 812.0 1 3 3.17 0 1
41 2126 1 1 1 1 1 1 1 730.0 28 433 7.18 1 1
42 2126 1 1 1 0 1 0 0 772.0 20 314 1.94 0 1
43 2126 1 1 1 1 0 1 0 714.0 30 472 2.55 0 1
44 2126 1 1 1 0 1 0 0 417.0 29 456 1.5 0 1
45 2126 1 1 1 1 0 1 0 233.0 4 56 3.02 0 1
46 2126 1 1 1 1 1 1 1 163.0 15 230 3.4 0 1
47 2126 1 1 1 1 1 1 1 1111.0 6 85 7.32 1 1
48 2126 1 1 1 1 1 1 1 828.0 10 158 2.59 0 1
49 2126 1 1 1 0 1 0 0 881.0 3 47 3.05 0 1
50 2126 1 1 1 1 1 1 1 641.0 3 37 3.08 0 1
51 2126 1 1 1 1 0 1 0 679.0 30 465 2.7 0 1
52 2126 1 1 1 0 0 0 1 643.0 7 99 7.24 1 1
53 2126 1 1 1 1 1 1 1 763.0 29 464 1.93 0 1
54 2126 1 1 1 1 0 1 0 1038.0 23 362 7.17 1 1
55 2126 1 1 1 0 1 0 0 671.0 29 452 1.8 0 1
56 2126 1 1 1 0 1 0 0 592.0 30 467 1.95 0 1
57 2126 1 1 1 0 1 0 0 679.0 9 141 3.12 0 1
58 2126 1 1 1 1 1 1 1 579.0 20 315 2.75 0 1
59 2126 1 1 1 1 1 1 1 577.0 9 139 1.74 0 1
60 2126 1 1 1 0 1 0 0 545.0 9 142 3.22 0 1
61 2126 1 1 1 1 1 1 1 515.0 13 205 3.26 0 1
62 2126 1 1 1 0 1 0 0 830.0 30 466 2.9 0 1
63 2126 1 1 1 0 0 0 1 950.0 23 365 6.57 1 1
64 2126 1 1 1 0 0 0 1 712.0 3 42 2.84 0 1
65 2126 1 1 1 0 1 0 0 1278.0 15 226 3.2 0 1
66 2126 1 1 1 0 0 0 1 1963.0 25 385 1.43 0 1
67 2126 1 1 1 1 1 1 1 1335.0 27 420 7.61 1 1
68 2126 1 1 1 1 1 1 1 704.0 15 240 2.57 0 1
69 2126 1 1 1 1 1 1 1 937.0 18 280 2.15 0 1
70 2126 1 1 1 1 1 1 1 769.0 1 10 3.15 0 1
71 2126 1 1 1 1 0 1 0 922.0 30 476 2.48 0 1
72 2126 1 1 1 1 1 1 1 634.0 13 198 2.65 0 1
73 2126 1 1 1 0 1 0 0 521.0 10 154 2.88 0 1
74 2126 1 1 1 1 0 1 0 678.0 1 6 3.17 0 1
75 2126 1 1 1 0 1 0 0 345.0 4 60 2.6 0 1
76 2126 1 1 1 0 0 0 1 1086.0 15 227 2.67 0 1
77 2126 1 1 1 0 1 0 0 1229.0 2 29 2.68 0 1
78 2126 1 1 1 0 0 0 1 1259.0 15 238 3.31 0 1
79 2126 1 1 1 1 1 1 1 2069.0 7 106 7.66 1 1
80 2126 1 1 1 0 1 0 0 3270.0 17 258 2.89 0 1
81 2126 1 1 1 1 1 1 1 1754.0 2 17 1.92 0 1
82 2126 1 1 1 1 0 1 0 904.0 13 197 2.97 0 1
83 2126 1 1 1 0 1 0 0 810.0 17 261 2.14 0 1
84 2126 1 1 1 0 1 0 0 778.0 10 149 3.02 0 1
85 2126 1 1 1 1 0 1 0 570.0 4 64 2.52 0 1
86 2126 1 1 1 0 1 0 0 455.0 13 202 3.09 0 1
87 2126 1 1 1 0 1 0 0 266.0 4 62 2.95 0 1
88 2126 1 1 1 0 1 0 0 187.0 8 125 7.28 1 1
89 2126 1 1 1 0 1 0 0 52.0 13 207 3.11 0 1
90 2126 1 1 1 1 1 1 1 29.0 9 136 3.1 0 1
91 2126 1 1 1 0 0 0 1 662.0 30 471 2.73 0 1
92 2126 1 1 1 1 1 1 1 1388.0 1 8 1.95 0 1
93 2126 1 1 1 0 1 0 0 1299.0 7 107 7.11 1 1
94 2126 1 1 1 1 1 1 1 831.0 17 266 2.6 0 1
95 2126 1 1 1 1 1 1 1 792.0 29 451 1.86 0 1
96 2126 1 1 1 1 1 1 1 739.0 4 59 1.99 0 1
97 2126 1 1 1 0 0 0 1 756.0 18 287 2.19 0 1
98 2126 1 1 1 1 1 1 1 838.0 3 36 2.98 0 1
99 2126 1 1 1 0 0 0 1 1025.0 1 4 3.18 0 1
100 2126 1 1 1 1 1 1 1 934.0 20 307 1.87 0 1
1 2013 1 1 1 1 1 1 1 15640.0 13 198 2.65 0 1
2 2013 1 1 1 0 1 0 0 2846.0 25 391 1.73 0 1
3 2013 1 1 1 0 0 0 1 1966.0 15 226 3.2 0 1
4 2013 1 1 1 0 0 0 1 1582.0 24 382 6.86 1 1
5 2013 1 1 1 0 1 0 0 1266.0 17 261 2.14 0 1
6 2013 1 1 1 1 1 1 1 869.0 30 472 2.55 0 1
7 2013 1 1 1 0 1 0 0 1512.0 20 318 2.58 0 1
8 2013 1 1 1 0 0 0 1 990.0 20 308 2.2 0 1
9 2013 1 1 1 1 1 1 1 1116.0 9 136 3.1 0 1
10 2013 1 1 1 0 0 0 1 1039.0 28 447 7.79 1 1
11 2013 1 1 1 0 0 0 1 1183.0 2 26 2.76 0 1
12 2013 1 1 1 1 1 1 1 1014.0 1 6 3.17 0 1
13 2013 1 1 1 0 0 0 1 934.0 9 141 3.12 0 1
14 2013 1 1 1 1 0 1 0 1297.0 3 36 2.98 0 1
15 2013 1 1 1 1 1 1 1 1524.0 18 285 2.27 0 1
16 2013 1 1 1 1 1 1 1 1032.0 2 25 1.89 0 1
17 2013 1 1 1 1 1 1 1 927.0 3 37 3.08 0 1
18 2013 1 1 1 0 1 0 0 2546.0 17 269 2.8 0 1
19 2013 1 1 1 1 0 1 0 1460.0 15 240 2.57 0 1
20 2013 1 1 1 1 1 1 1 1069.0 25 397 1.77 0 1
21 2013 1 1 1 1 1 1 1 912.0 20 315 2.75 0 1
22 2013 1 1 1 1 1 1 1 986.0 17 263 2.59 0 1
23 2013 1 1 1 0 0 0 1 1343.0 3 33 2.97 0 1
24 2013 1 1 1 0 0 0 1 2030.0 15 238 3.31 0 1
25 2013 1 1 1 0 1 0 0 985.0 18 287 2.19 0 1
26 2013 1 1 1 0 0 0 1 1129.0 13 206 3.41 0 1
27 2013 1 1 1 0 0 0 1 1137.0 1 4 3.18 0 1
28 2013 1 1 1 1 1 1 1 1055.0 7 112 7.03 1 1
29 2013 1 1 1 0 0 0 1 1338.0 3 47 3.05 0 1
30 2013 1 1 1 1 1 1 1 977.0 28 433 7.18 1 1
31 2013 1 1 1 0 0 0 1 1050.0 6 86 8.01 1 1
32 2013 1 1 1 0 1 0 0 2417.0 9 129 3.25 0 1
33 2013 1 1 1 1 0 1 0 1023.0 29 463 2.0 0 1
34 2013 1 1 1 0 1 0 0 819.0 10 149 3.02 0 1
35 2013 1 1 1 1 1 1 1 870.0 13 205 3.26 0 1
36 2013 1 1 1 0 1 0 0 874.0 25 385 1.43 0 1
37 2013 1 1 1 0 0 0 1 976.0 15 227 2.67 0 1
38 2013 1 1 1 1 1 1 1 1198.0 6 85 7.32 1 1
39 2013 1 1 1 1 1 1 1 1061.0 22 347 6.7 1 1
40 2013 1 1 1 1 1 1 1 1113.0 3 35 3.14 0 1
41 2013 1 1 1 0 1 0 0 992.0 17 258 2.89 0 1
42 2013 1 1 1 1 0 1 0 1025.0 4 56 3.02 0 1
43 2013 1 1 1 0 0 0 1 921.0 29 456 1.5 0 1
44 2013 1 1 1 0 0 0 1 975.0 23 365 6.57 1 1
45 2013 1 1 1 1 1 1 1 859.0 2 18 1.84 0 1
46 2013 1 1 1 1 0 1 0 2090.0 25 396 1.85 0 1
47 2013 1 1 1 1 1 1 1 1420.0 27 420 7.61 1 1
48 2013 1 1 1 1 1 1 1 859.0 30 465 2.7 0 1
49 2013 1 1 1 0 1 0 0 1161.0 20 314 1.94 0 1
50 2013 1 1 1 1 0 1 0 809.0 29 464 1.93 0 1
51 2013 1 1 1 1 1 1 1 840.0 2 17 1.92 0 1
52 2013 1 1 1 1 1 1 1 825.0 29 451 1.86 0 1
53 2013 1 1 1 0 0 0 1 916.0 28 445 7.58 1 1
54 2013 1 1 1 0 1 0 0 1009.0 7 107 7.11 1 1
55 2013 1 1 1 0 1 0 0 804.0 30 471 2.73 0 1
56 2013 1 1 1 1 1 1 1 1202.0 24 373 7.32 1 1
57 2013 1 1 1 0 1 0 0 966.0 1 9 2.49 0 1
58 2013 1 1 1 1 1 1 1 823.0 30 476 2.48 0 1
59 2013 1 1 1 0 0 0 1 2959.0 30 467 1.95 0 1
60 2013 1 1 1 0 1 0 0 901.0 1 3 3.17 0 1
61 2013 1 1 1 1 1 1 1 725.0 18 277 2.23 0 1
62 2013 1 1 1 0 0 0 1 877.0 8 125 7.28 1 1
63 2013 1 1 1 0 0 0 1 854.0 3 42 2.84 0 1
64 2013 1 1 1 1 1 1 1 1001.0 13 197 2.97 0 1
65 2013 1 1 1 0 1 0 0 959.0 29 452 1.8 0 1
66 2013 1 1 1 0 1 0 0 805.0 10 154 2.88 0 1
67 2013 1 1 1 0 1 0 0 917.0 18 284 1.92 0 1
68 2013 1 1 1 1 1 1 1 1186.0 10 158 2.59 0 1
69 2013 1 1 1 0 0 0 1 847.0 18 279 1.97 0 1
70 2013 1 1 1 1 0 1 0 933.0 1 8 1.95 0 1
71 2013 1 1 1 1 0 1 0 1302.0 17 259 2.5 0 1
72 2013 1 1 1 0 1 0 0 1078.0 10 152 1.38 0 1
73 2013 1 1 1 1 1 1 1 640.0 15 228 3.15 0 1
74 2013 1 1 1 0 0 0 1 827.0 9 142 3.22 0 1
75 2013 1 1 1 1 1 1 1 898.0 4 64 2.52 0 1
76 2013 1 1 1 1 1 1 1 869.0 10 160 2.19 0 1
77 2013 1 1 1 0 0 0 1 961.0 4 50 2.73 0 1
78 2013 1 1 1 1 1 1 1 1161.0 7 106 7.66 1 1
79 2013 1 1 1 1 0 1 0 3028.0 4 59 1.99 0 1
80 2013 1 1 1 0 1 0 0 970.0 7 99 7.24 1 1
81 2013 1 1 1 0 1 0 0 591.0 13 207 3.11 0 1
82 2013 1 1 1 0 0 0 1 787.0 2 24 2.31 0 1
83 2013 1 1 1 0 0 0 1 965.0 4 60 2.6 0 1
84 2013 1 1 1 1 1 1 1 777.0 10 155 1.73 0 1
85 2013 1 1 1 0 1 0 0 986.0 4 62 2.95 0 1
86 2013 1 1 1 1 1 1 1 865.0 25 398 1.43 0 1
87 2013 1 1 1 1 1 1 1 841.0 20 307 1.87 0 1
88 2013 1 1 1 1 0 1 0 728.0 1 10 3.15 0 1
89 2013 1 1 1 1 1 1 1 946.0 23 362 7.17 1 1
90 2013 1 1 1 0 1 0 0 768.0 13 202 3.09 0 1
91 2013 1 1 1 1 0 1 0 793.0 9 139 1.74 0 1
92 2013 1 1 1 1 1 1 1 687.0 17 266 2.6 0 1
93 2013 1 1 1 1 1 1 1 656.0 20 319 2.13 0 1
94 2013 1 1 1 1 1 1 1 747.0 15 230 3.4 0 1
95 2013 1 1 1 0 0 0 1 842.0 30 466 2.9 0 1
96 2013 1 1 1 1 1 1 1 934.0 18 280 2.15 0 1
97 2013 1 1 1 0 0 0 1 1118.0 2 29 2.68 0 1
98 2013 1 1 1 0 1 0 0 978.0 29 459 1.82 0 1
99 2013 1 1 1 0 1 0 0 586.0 25 400 1.71 0 1
100 2013 1 1 1 1 0 1 0 509.0 9 140 2.97 0 1
1 2116 2 1 1 0 1 0 0 4700.0 4 64 2.52 0 1
2 2116 2 1 1 0 1 0 0 1378.0 13 197 2.97 0 1
3 2116 2 1 1 0 0 0 1 1435.0 24 373 7.32 1 1
4 2116 2 1 1 1 1 1 1 1712.0 10 149 3.02 0 1
5 2116 2 1 1 1 1 1 1 1341.0 9 141 3.12 0 1
6 2116 2 1 1 1 1 1 1 930.0 3 47 3.05 0 1
7 2116 2 1 1 0 1 0 0 781.0 20 307 1.87 0 1
8 2116 2 1 1 1 1 1 1 975.0 20 308 2.2 0 1
9 2116 2 1 1 1 0 1 0 1730.0 25 400 1.71 0 1
10 2116 2 1 1 1 1 1 1 1074.0 7 107 7.11 1 1
11 2116 2 1 1 1 1 1 1 684.0 3 33 2.97 0 1
12 2116 2 1 1 1 1 1 1 835.0 2 24 2.31 0 1
13 2116 2 1 1 1 0 1 0 1392.0 7 99 7.24 1 1
14 2116 2 1 1 0 1 0 0 655.0 3 37 3.08 0 1
15 2116 2 1 1 0 1 0 0 750.0 20 319 2.13 0 1
16 2116 2 1 1 1 1 1 1 1066.0 28 445 7.58 1 1
17 2116 2 1 1 0 1 0 0 807.0 9 136 3.1 0 1
18 2116 2 1 1 0 1 0 0 1195.0 13 205 3.26 0 1
19 2116 2 1 1 1 1 1 1 920.0 25 385 1.43 0 1
20 2116 2 1 1 0 1 0 0 1111.0 17 259 2.5 0 1
21 2116 2 1 1 1 1 1 1 1063.0 13 207 3.11 0 1
22 2116 2 1 1 1 1 1 1 1196.0 1 4 3.18 0 1
23 2116 2 1 1 1 1 1 1 1325.0 4 50 2.73 0 1
24 2116 2 1 1 1 1 1 1 1217.0 20 318 2.58 0 1
25 2116 2 1 1 0 0 0 1 1695.0 9 140 2.97 0 1
26 2116 2 1 1 0 0 0 1 1004.0 22 347 6.7 1 1
27 2116 2 1 1 0 0 0 1 987.0 23 362 7.17 1 1
28 2116 2 1 1 1 1 1 1 950.0 29 452 1.8 0 1
29 2116 2 1 1 0 1 0 0 667.0 2 17 1.92 0 1
30 2116 2 1 1 1 1 1 1 1083.0 4 60 2.6 0 1
31 2116 2 1 1 1 1 1 1 755.0 29 459 1.82 0 1
32 2116 2 1 1 0 1 0 0 578.0 1 8 1.95 0 1
33 2116 2 1 1 1 1 1 1 716.0 29 456 1.5 0 1
34 2116 2 1 1 0 0 0 1 1451.0 7 112 7.03 1 1
35 2116 2 1 1 0 0 0 1 578.0 6 85 7.32 1 1
36 2116 2 1 1 0 1 0 0 970.0 29 463 2.0 0 1
37 2116 2 1 1 0 1 0 0 960.0 28 433 7.18 1 1
38 2116 2 1 1 1 1 1 1 1159.0 9 142 3.22 0 1
39 2116 2 1 1 0 1 0 0 650.0 3 36 2.98 0 1
40 2116 2 1 1 0 1 0 0 705.0 10 160 2.19 0 1
41 2116 2 1 1 1 1 1 1 759.0 2 26 2.76 0 1
42 2116 2 1 1 1 1 1 1 654.0 10 154 2.88 0 1
43 2116 2 1 1 1 1 1 1 645.0 4 62 2.95 0 1
44 2116 2 1 1 1 1 1 1 779.0 10 152 1.38 0 1
45 2116 2 1 1 1 1 1 1 838.0 17 269 2.8 0 1
46 2116 2 1 1 0 1 0 0 533.0 18 285 2.27 0 1
47 2116 2 1 1 1 1 1 1 922.0 20 314 1.94 0 1
48 2116 2 1 1 1 1 1 1 786.0 30 467 1.95 0 1
49 2116 2 1 1 0 1 0 0 807.0 10 155 1.73 0 1
50 2116 2 1 1 0 1 0 0 834.0 25 397 1.77 0 1
51 2116 2 1 1 1 1 1 1 872.0 13 206 3.41 0 1
52 2116 2 1 1 0 0 0 1 1024.0 29 451 1.86 0 1
53 2116 2 1 1 0 1 0 0 818.0 4 56 3.02 0 1
54 2116 2 1 1 1 0 1 0 1449.0 17 258 2.89 0 1
55 2116 2 1 1 1 0 1 0 771.0 25 391 1.73 0 1
56 2116 2 1 1 0 0 0 1 1533.0 1 10 3.15 0 1
57 2116 2 1 1 0 1 0 0 1069.0 18 280 2.15 0 1
58 2116 2 1 1 1 0 1 0 1133.0 30 466 2.9 0 1
59 2116 2 1 1 1 1 1 1 1453.0 15 238 3.31 0 1
60 2116 2 1 1 0 0 0 1 1137.0 17 263 2.59 0 1
61 2116 2 1 1 0 0 0 1 1143.0 13 198 2.65 0 1
62 2116 2 1 1 0 1 0 0 861.0 3 35 3.14 0 1
63 2116 2 1 1 1 0 1 0 1207.0 30 471 2.73 0 1
64 2116 2 1 1 1 0 1 0 765.0 18 279 1.97 0 1
65 2116 2 1 1 1 1 1 1 813.0 9 129 3.25 0 1
66 2116 2 1 1 0 0 0 1 866.0 17 266 2.6 0 1
67 2116 2 1 1 1 0 1 0 1873.0 18 287 2.19 0 1
68 2116 2 1 1 1 1 1 1 756.0 15 226 3.2 0 1
69 2116 2 1 1 1 1 1 1 954.0 18 284 1.92 0 1
70 2116 2 1 1 0 0 0 1 799.0 7 106 7.66 1 1
71 2116 2 1 1 0 1 0 0 876.0 25 396 1.85 0 1
72 2116 2 1 1 0 1 0 0 808.0 9 139 1.74 0 1
73 2116 2 1 1 1 1 1 1 1082.0 1 9 2.49 0 1
74 2116 2 1 1 0 1 0 0 1352.0 2 18 1.84 0 1
75 2116 2 1 1 1 1 1 1 2094.0 1 3 3.17 0 1
76 2116 2 1 1 0 0 0 1 995.0 1 6 3.17 0 1
77 2116 2 1 1 0 0 0 1 726.0 30 465 2.7 0 1
78 2116 2 1 1 0 1 0 0 1050.0 15 240 2.57 0 1
79 2116 2 1 1 0 1 0 0 1378.0 15 228 3.15 0 1
80 2116 2 1 1 1 0 1 0 839.0 24 382 6.86 1 1
81 2116 2 1 1 1 1 1 1 1212.0 15 227 2.67 0 1
82 2116 2 1 1 0 1 0 0 1473.0 30 476 2.48 0 1
83 2116 2 1 1 1 0 1 0 1531.0 17 261 2.14 0 1
84 2116 2 1 1 0 0 0 1 718.0 25 398 1.43 0 1
85 2116 2 1 1 0 0 0 1 942.0 29 464 1.93 0 1
86 2116 2 1 1 0 0 0 1 1182.0 20 315 2.75 0 1
87 2116 2 1 1 0 0 0 1 845.0 10 158 2.59 0 1
88 2116 2 1 1 1 1 1 1 1917.0 6 86 8.01 1 1
89 2116 2 1 1 1 1 1 1 866.0 3 42 2.84 0 1
90 2116 2 1 1 1 1 1 1 969.0 2 29 2.68 0 1
91 2116 2 1 1 0 1 0 0 967.0 4 59 1.99 0 1
92 2116 2 1 1 0 1 0 0 1143.0 30 472 2.55 0 1
93 2116 2 1 1 0 1 0 0 880.0 15 230 3.4 0 1
94 2116 2 1 1 1 0 1 0 655.0 28 447 7.79 1 1
95 2116 2 1 1 1 0 1 0 690.0 8 125 7.28 1 1
96 2116 2 1 1 0 1 0 0 1215.0 2 25 1.89 0 1
97 2116 2 1 1 0 0 0 1 1320.0 18 277 2.23 0 1
98 2116 2 1 1 0 0 0 1 813.0 27 420 7.61 1 1
99 2116 2 1 1 1 0 1 0 861.0 13 202 3.09 0 1
100 2116 2 1 1 1 1 1 1 1394.0 23 365 6.57 1 1
1 2007 1 1 1 0 0 0 1 6060.0 1 9 2.49 0 0
2 2007 1 1 1 1 1 1 1 1187.0 3 36 2.98 0 0
3 2007 1 1 1 0 1 0 0 1460.0 2 26 2.76 0 0
4 2007 1 1 1 1 1 1 1 608.0 15 228 3.15 0 0
5 2007 1 1 1 1 0 1 0 815.0 6 85 7.32 1 0
6 2007 1 1 1 0 1 0 0 529.0 15 238 3.31 0 0
7 2007 1 1 1 0 1 0 0 1438.0 17 269 2.8 0 0
8 2007 1 1 1 1 1 1 1 558.0 25 396 1.85 0 0
9 2007 1 1 1 1 0 1 0 837.0 30 476 2.48 0 0
10 2007 1 1 1 0 1 0 0 436.0 25 385 1.43 0 0
11 2007 1 1 1 1 1 1 1 383.0 7 112 7.03 1 0
12 2007 1 1 1 0 1 0 0 664.0 23 365 6.57 1 0
13 2007 1 1 1 0 1 0 0 345.0 30 466 2.9 0 0
14 2007 1 1 1 0 1 0 0 78.0 30 467 1.95 0 0
15 2007 1 1 1 0 1 0 0 3927.0 17 261 2.14 0 0
16 2007 1 1 1 0 1 0 0 465.0 15 227 2.67 0 0
17 2007 1 1 1 0 1 0 0 410.0 28 447 7.79 1 0
18 2007 1 1 1 1 1 1 1 362.0 1 10 3.15 0 0
19 2007 1 1 1 0 1 0 0 319.0 2 29 2.68 0 0
20 2007 1 1 1 0 1 0 0 605.0 6 86 8.01 1 0
21 2007 1 1 1 0 1 0 0 159.0 2 24 2.31 0 0
22 2007 1 1 1 0 1 0 0 373.0 20 318 2.58 0 0
23 2007 1 1 1 1 1 1 1 2038.0 9 136 3.1 0 0
24 2007 1 1 1 1 0 1 0 579.0 4 64 2.52 0 0
25 2007 1 1 1 1 1 1 1 744.0 4 59 1.99 0 0
26 2007 1 1 1 1 0 1 0 959.0 10 160 2.19 0 0
27 2007 1 1 1 0 1 0 0 508.0 13 206 3.41 0 0
28 2007 1 1 1 0 1 0 0 320.0 3 47 3.05 0 0
29 2007 1 1 1 1 1 1 1 187.0 2 25 1.89 0 0
30 2007 1 1 1 0 1 0 0 380.0 29 452 1.8 0 0
31 2007 1 1 1 1 0 1 0 952.0 29 451 1.86 0 0
32 2007 1 1 1 0 1 0 0 412.0 8 125 7.28 1 0
33 2007 1 1 1 0 0 0 1 182.0 3 33 2.97 0 0
34 2007 1 1 1 0 1 0 0 422.0 17 258 2.89 0 0
35 2007 1 1 1 0 0 0 1 386.0 29 456 1.5 0 0
36 2007 1 1 1 1 1 1 1 749.0 23 362 7.17 1 0
37 2007 1 1 1 1 1 1 1 119.0 20 315 2.75 0 0
38 2007 1 1 1 1 1 1 1 139.0 29 464 1.93 0 0
39 2007 1 1 1 1 0 1 0 329.0 13 197 2.97 0 0
40 2007 1 1 1 1 1 1 1 117.0 25 398 1.43 0 0
41 2007 1 1 1 1 1 1 1 200.0 1 8 1.95 0 0
42 2007 1 1 1 1 0 1 0 299.0 20 307 1.87 0 0
43 2007 1 1 1 1 1 1 1 157.0 17 263 2.59 0 0
44 2007 1 1 1 0 1 0 0 1.0 20 308 2.2 0 0
45 2007 1 1 1 1 1 1 1 2.0 17 266 2.6 0 0
46 2007 1 1 1 0 1 0 0 182.0 24 382 6.86 1 0
47 2007 1 1 1 1 1 1 1 1.0 9 140 2.97 0 0
48 2007 1 1 1 0 0 0 1 1192.0 4 62 2.95 0 0
49 2007 1 1 1 0 1 0 0 754.0 25 391 1.73 0 0
50 2007 1 1 1 0 1 0 0 0.0 29 459 1.82 0 0
51 2007 1 1 1 0 1 0 0 68.0 4 60 2.6 0 0
52 2007 1 1 1 0 1 0 0 203.0 4 50 2.73 0 0
53 2007 1 1 1 1 0 1 0 215.0 22 347 6.7 1 0
54 2007 1 1 1 1 1 1 1 88.0 28 433 7.18 1 0
55 2007 1 1 1 1 1 1 1 109.0 15 230 3.4 0 0
56 2007 1 1 1 0 1 0 0 253.0 9 141 3.12 0 0
57 2007 1 1 1 0 0 0 1 496.0 10 154 2.88 0 0
58 2007 1 1 1 1 1 1 1 1007.0 9 139 1.74 0 0
59 2007 1 1 1 1 0 1 0 345.0 13 205 3.26 0 0
60 2007 1 1 1 0 1 0 0 330.0 7 99 7.24 1 0
61 2007 1 1 1 0 1 0 0 180.0 30 471 2.73 0 0
62 2007 1 1 1 0 0 0 1 366.0 7 107 7.11 1 0
63 2007 1 1 1 0 1 0 0 1116.0 18 279 1.97 0 0
64 2007 1 1 1 1 1 1 1 296.0 15 240 2.57 0 0
65 2007 1 1 1 0 1 0 0 154.0 1 3 3.17 0 0
66 2007 1 1 1 1 1 1 1 182.0 10 155 1.73 0 0
67 2007 1 1 1 1 1 1 1 86.0 25 397 1.77 0 0
68 2007 1 1 1 1 1 1 1 492.0 13 198 2.65 0 0
69 2007 1 1 1 0 1 0 0 544.0 10 152 1.38 0 0
70 2007 1 1 1 0 0 0 1 366.0 9 142 3.22 0 0
71 2007 1 1 1 1 1 1 1 292.0 18 280 2.15 0 0
72 2007 1 1 1 1 1 1 1 231.0 4 56 3.02 0 0
73 2007 1 1 1 1 0 1 0 632.0 2 18 1.84 0 0
74 2007 1 1 1 1 1 1 1 148.0 18 285 2.27 0 0
75 2007 1 1 1 0 1 0 0 102.0 28 445 7.58 1 0
76 2007 1 1 1 0 0 0 1 394.0 9 129 3.25 0 0
77 2007 1 1 1 1 1 1 1 134.0 3 37 3.08 0 0
78 2007 1 1 1 1 1 1 1 21.0 20 319 2.13 0 0
79 2007 1 1 1 0 1 0 0 107.0 3 42 2.84 0 0
80 2007 1 1 1 0 0 0 1 428.0 1 4 3.18 0 0
81 2007 1 1 1 0 1 0 0 342.0 20 314 1.94 0 0
82 2007 1 1 1 1 1 1 1 228.0 10 158 2.59 0 0
83 2007 1 1 1 0 0 0 1 323.0 18 284 1.92 0 0
84 2007 1 1 1 1 1 1 1 601.0 3 35 3.14 0 0
85 2007 1 1 1 1 1 1 1 24.0 18 277 2.23 0 0
86 2007 1 1 1 1 1 1 1 244.0 29 463 2.0 0 0
87 2007 1 1 1 0 1 0 0 217.0 18 287 2.19 0 0
88 2007 1 1 1 0 0 0 1 825.0 10 149 3.02 0 0
89 2007 1 1 1 1 1 1 1 2272.0 27 420 7.61 1 0
90 2007 1 1 1 1 1 1 1 146.0 17 259 2.5 0 0
91 2007 1 1 1 0 1 0 0 198.0 13 202 3.09 0 0
92 2007 1 1 1 0 1 0 0 89.0 15 226 3.2 0 0
93 2007 1 1 1 1 0 1 0 202.0 2 17 1.92 0 0
94 2007 1 1 1 1 1 1 1 167.0 24 373 7.32 1 0
95 2007 1 1 1 1 1 1 1 255.0 30 472 2.55 0 0
96 2007 1 1 1 1 1 1 1 83.0 7 106 7.66 1 0
97 2007 1 1 1 0 1 0 0 28.0 25 400 1.71 0 0
98 2007 1 1 1 1 1 1 1 24.0 30 465 2.7 0 0
99 2007 1 1 1 1 0 1 0 502.0 1 6 3.17 0 0
100 2007 1 1 1 0 1 0 0 358.0 13 207 3.11 0 0
1 2187 2 1 1 0 0 0 1 1835.0 2 25 1.89 0 1
2 2187 2 1 1 1 1 1 1 6100.0 9 142 3.22 0 1
3 2187 2 1 1 1 1 1 1 1400.0 23 365 6.57 1 1
4 2187 2 1 1 0 0 0 1 2775.0 29 464 1.93 0 1
5 2187 2 1 1 1 1 1 1 1657.0 10 154 2.88 0 1
6 2187 2 1 1 1 1 1 1 1838.0 30 467 1.95 0 1
7 2187 2 1 1 0 0 0 1 1734.0 15 228 3.15 0 1
8 2187 2 1 1 0 0 0 1 3693.0 10 158 2.59 0 1
9 2187 2 1 1 1 1 1 1 1186.0 10 149 3.02 0 1
10 2187 2 1 1 1 1 1 1 1773.0 15 238 3.31 0 1
11 2187 2 1 1 1 1 1 1 1119.0 4 60 2.6 0 1
12 2187 2 1 1 0 1 0 0 817.0 3 36 2.98 0 1
13 2187 2 1 1 0 0 0 1 3853.0 13 205 3.26 0 1
14 2187 2 1 1 1 1 1 1 1426.0 17 261 2.14 0 1
15 2187 2 1 1 1 1 1 1 1239.0 18 284 1.92 0 1
16 2187 2 1 1 1 1 1 1 969.0 1 3 3.17 0 1
17 2187 2 1 1 0 0 0 1 1222.0 9 140 2.97 0 1
18 2187 2 1 1 1 1 1 1 871.0 7 107 7.11 1 1
19 2187 2 1 1 1 1 1 1 1891.0 25 400 1.71 0 1
20 2187 2 1 1 0 1 0 0 1289.0 25 397 1.77 0 1
21 2187 2 1 1 1 1 1 1 2175.0 30 471 2.73 0 1
22 2187 2 1 1 1 1 1 1 1353.0 4 62 2.95 0 1
23 2187 2 1 1 1 1 1 1 991.0 9 129 3.25 0 1
24 2187 2 1 1 0 0 0 1 2681.0 1 10 3.15 0 1
25 2187 2 1 1 1 1 1 1 884.0 1 9 2.49 0 1
26 2187 2 1 1 1 1 1 1 863.0 7 99 7.24 1 1
27 2187 2 1 1 0 1 0 0 2861.0 10 160 2.19 0 1
28 2187 2 1 1 0 0 0 1 2005.0 29 451 1.86 0 1
29 2187 2 1 1 1 0 1 0 1654.0 25 391 1.73 0 1
30 2187 2 1 1 1 1 1 1 1226.0 4 50 2.73 0 1
31 2187 2 1 1 0 1 0 0 1407.0 10 155 1.73 0 1
32 2187 2 1 1 0 1 0 0 1860.0 18 280 2.15 0 1
33 2187 2 1 1 0 0 0 1 2450.0 15 240 2.57 0 1
34 2187 2 1 1 1 1 1 1 956.0 13 202 3.09 0 1
35 2187 2 1 1 1 1 1 1 1327.0 15 227 2.67 0 1
36 2187 2 1 1 1 1 1 1 825.0 9 141 3.12 0 1
37 2187 2 1 1 0 1 0 0 1473.0 4 56 3.02 0 1
38 2187 2 1 1 1 1 1 1 764.0 15 226 3.2 0 1
39 2187 2 1 1 0 0 0 1 1059.0 13 198 2.65 0 1
40 2187 2 1 1 1 1 1 1 883.0 29 459 1.82 0 1
41 2187 2 1 1 0 0 0 1 865.0 18 277 2.23 0 1
42 2187 2 1 1 1 1 1 1 601.0 24 382 6.86 1 1
43 2187 2 1 1 0 0 0 1 1404.0 15 230 3.4 0 1
44 2187 2 1 1 0 0 0 1 1783.0 17 263 2.59 0 1
45 2187 2 1 1 0 1 0 0 1168.0 2 17 1.92 0 1
46 2187 2 1 1 0 0 0 1 5197.0 3 37 3.08 0 1
47 2187 2 1 1 1 1 1 1 1511.0 10 152 1.38 0 1
48 2187 2 1 1 0 1 0 0 1383.0 20 319 2.13 0 1
49 2187 2 1 1 1 0 1 0 2193.0 18 279 1.97 0 1
50 2187 2 1 1 0 0 0 1 4002.0 30 476 2.48 0 1
51 2187 2 1 1 1 0 1 0 2063.0 1 4 3.18 0 1
52 2187 2 1 1 0 0 0 1 1194.0 24 373 7.32 1 1
53 2187 2 1 1 1 1 1 1 817.0 13 206 3.41 0 1
54 2187 2 1 1 0 0 0 1 2035.0 30 465 2.7 0 1
55 2187 2 1 1 0 1 0 0 954.0 4 59 1.99 0 1
56 2187 2 1 1 1 0 1 0 1205.0 2 24 2.31 0 1
57 2187 2 1 1 0 0 0 1 1268.0 1 8 1.95 0 1
58 2187 2 1 1 0 0 0 1 904.0 22 347 6.7 1 1
59 2187 2 1 1 0 0 0 1 2507.0 25 396 1.85 0 1
60 2187 2 1 1 1 1 1 1 932.0 20 318 2.58 0 1
61 2187 2 1 1 0 0 0 1 1177.0 18 285 2.27 0 1
62 2187 2 1 1 0 0 0 1 887.0 30 472 2.55 0 1
63 2187 2 1 1 1 1 1 1 961.0 2 26 2.76 0 1
64 2187 2 1 1 0 0 0 1 1025.0 28 433 7.18 1 1
65 2187 2 1 1 1 1 1 1 798.0 13 207 3.11 0 1
66 2187 2 1 1 0 0 0 1 987.0 23 362 7.17 1 1
67 2187 2 1 1 0 0 0 1 1062.0 25 398 1.43 0 1
68 2187 2 1 1 1 0 1 0 1536.0 25 385 1.43 0 1
69 2187 2 1 1 0 0 0 1 783.0 7 106 7.66 1 1
70 2187 2 1 1 1 1 1 1 757.0 6 86 8.01 1 1
71 2187 2 1 1 1 0 1 0 1021.0 20 314 1.94 0 1
72 2187 2 1 1 0 0 0 1 1117.0 17 259 2.5 0 1
73 2187 2 1 1 1 1 1 1 1513.0 17 258 2.89 0 1
74 2187 2 1 1 0 0 0 1 1258.0 20 307 1.87 0 1
75 2187 2 1 1 1 1 1 1 928.0 29 452 1.8 0 1
76 2187 2 1 1 1 0 1 0 1809.0 17 269 2.8 0 1
77 2187 2 1 1 1 1 1 1 1166.0 28 447 7.79 1 1
78 2187 2 1 1 0 0 0 1 1280.0 20 315 2.75 0 1
79 2187 2 1 1 0 1 0 0 1160.0 29 463 2.0 0 1
80 2187 2 1 1 1 1 1 1 1117.0 20 308 2.2 0 1
81 2187 2 1 1 1 0 1 0 1657.0 28 445 7.58 1 1
82 2187 2 1 1 0 0 0 1 857.0 7 112 7.03 1 1
83 2187 2 1 1 0 1 0 0 968.0 4 64 2.52 0 1
84 2187 2 1 1 0 1 0 0 657.0 13 197 2.97 0 1
85 2187 2 1 1 0 0 0 1 716.0 9 136 3.1 0 1
86 2187 2 1 1 0 0 0 1 1026.0 9 139 1.74 0 1
87 2187 2 1 1 1 1 1 1 930.0 2 29 2.68 0 1
88 2187 2 1 1 1 1 1 1 1862.0 30 466 2.9 0 1
89 2187 2 1 1 1 1 1 1 999.0 3 47 3.05 0 1
90 2187 2 1 1 1 1 1 1 936.0 3 33 2.97 0 1
91 2187 2 1 1 0 0 0 1 712.0 6 85 7.32 1 1
92 2187 2 1 1 1 1 1 1 824.0 29 456 1.5 0 1
93 2187 2 1 1 0 1 0 0 642.0 3 35 3.14 0 1
94 2187 2 1 1 1 1 1 1 1014.0 3 42 2.84 0 1
95 2187 2 1 1 1 0 1 0 1003.0 18 287 2.19 0 1
96 2187 2 1 1 1 1 1 1 822.0 8 125 7.28 1 1
97 2187 2 1 1 0 1 0 0 860.0 2 18 1.84 0 1
98 2187 2 1 1 0 1 0 0 1210.0 1 6 3.17 0 1
99 2187 2 1 1 0 0 0 1 776.0 17 266 2.6 0 1
100 2187 2 1 1 0 0 0 1 778.0 27 420 7.61 1 1
1 2075 1 1 1 0 1 0 0 3309.0 25 391 1.73 0 1
2 2075 1 1 1 1 1 1 1 2707.0 17 263 2.59 0 1
3 2075 1 1 1 1 0 1 0 1376.0 28 433 7.18 1 1
4 2075 1 1 1 0 0 0 1 1068.0 23 365 6.57 1 1
5 2075 1 1 1 0 0 0 1 2035.0 28 445 7.58 1 1
6 2075 1 1 1 0 1 0 0 953.0 4 50 2.73 0 1
7 2075 1 1 1 1 1 1 1 1899.0 10 158 2.59 0 1
8 2075 1 1 1 1 0 1 0 2728.0 4 56 3.02 0 1
9 2075 1 1 1 0 0 0 1 1195.0 24 382 6.86 1 1
10 2075 1 1 1 0 0 0 1 940.0 20 318 2.58 0 1
11 2075 1 1 1 0 0 0 1 2566.0 17 258 2.89 0 1
12 2075 1 1 1 1 0 1 0 957.0 15 228 3.15 0 1
13 2075 1 1 1 1 1 1 1 856.0 2 17 1.92 0 1
14 2075 1 1 1 1 1 1 1 905.0 20 315 2.75 0 1
15 2075 1 1 1 1 0 1 0 1646.0 20 319 2.13 0 1
16 2075 1 1 1 0 0 0 1 1860.0 20 314 1.94 0 1
17 2075 1 1 1 1 0 1 0 1245.0 18 280 2.15 0 1
18 2075 1 1 1 1 1 1 1 1684.0 3 37 3.08 0 1
19 2075 1 1 1 0 1 0 0 1396.0 7 99 7.24 1 1
20 2075 1 1 1 0 0 0 1 1030.0 29 452 1.8 0 1
21 2075 1 1 1 0 1 0 0 1382.0 7 107 7.11 1 1
22 2075 1 1 1 1 0 1 0 1136.0 22 347 6.7 1 1
23 2075 1 1 1 0 0 0 1 1227.0 1 4 3.18 0 1
24 2075 1 1 1 1 0 1 0 1727.0 29 464 1.93 0 1
25 2075 1 1 1 0 1 0 0 2010.0 6 86 8.01 1 1
26 2075 1 1 1 0 1 0 0 1703.0 30 471 2.73 0 1
27 2075 1 1 1 1 0 1 0 2965.0 29 463 2.0 0 1
28 2075 1 1 1 0 0 0 1 994.0 10 149 3.02 0 1
29 2075 1 1 1 0 0 0 1 2087.0 10 152 1.38 0 1
30 2075 1 1 1 0 0 0 1 773.0 9 141 3.12 0 1
31 2075 1 1 1 1 1 1 1 1144.0 24 373 7.32 1 1
32 2075 1 1 1 0 0 0 1 2499.0 4 62 2.95 0 1
33 2075 1 1 1 0 0 0 1 599.0 9 142 3.22 0 1
34 2075 1 1 1 1 0 1 0 1017.0 13 205 3.26 0 1
35 2075 1 1 1 1 1 1 1 1211.0 20 307 1.87 0 1
36 2075 1 1 1 1 1 1 1 1355.0 25 398 1.43 0 1
37 2075 1 1 1 1 1 1 1 942.0 25 397 1.77 0 1
38 2075 1 1 1 1 1 1 1 671.0 9 136 3.1 0 1
39 2075 1 1 1 0 0 0 1 930.0 15 238 3.31 0 1
40 2075 1 1 1 0 0 0 1 812.0 17 269 2.8 0 1
41 2075 1 1 1 1 0 1 0 997.0 23 362 7.17 1 1
42 2075 1 1 1 0 0 0 1 963.0 1 3 3.17 0 1
43 2075 1 1 1 0 1 0 0 863.0 3 42 2.84 0 1
44 2075 1 1 1 0 0 0 1 544.0 25 400 1.71 0 1
45 2075 1 1 1 0 0 0 1 835.0 18 284 1.92 0 1
46 2075 1 1 1 0 1 0 0 3463.0 29 459 1.82 0 1
47 2075 1 1 1 1 0 1 0 2889.0 4 64 2.52 0 1
48 2075 1 1 1 1 1 1 1 1218.0 2 25 1.89 0 1
49 2075 1 1 1 1 1 1 1 1950.0 4 59 1.99 0 1
50 2075 1 1 1 1 1 1 1 1037.0 10 160 2.19 0 1
51 2075 1 1 1 1 0 1 0 998.0 30 465 2.7 0 1
52 2075 1 1 1 1 1 1 1 1720.0 7 106 7.66 1 1
53 2075 1 1 1 0 0 0 1 1384.0 28 447 7.79 1 1
54 2075 1 1 1 1 0 1 0 1147.0 29 451 1.86 0 1
55 2075 1 1 1 0 1 0 0 1154.0 30 466 2.9 0 1
56 2075 1 1 1 0 1 0 0 539.0 10 154 2.88 0 1
57 2075 1 1 1 0 1 0 0 1192.0 2 24 2.31 0 1
58 2075 1 1 1 0 1 0 0 668.0 29 456 1.5 0 1
59 2075 1 1 1 1 0 1 0 1144.0 30 476 2.48 0 1
60 2075 1 1 1 1 0 1 0 787.0 18 277 2.23 0 1
61 2075 1 1 1 1 0 1 0 1426.0 17 266 2.6 0 1
62 2075 1 1 1 0 0 0 1 579.0 13 207 3.11 0 1
63 2075 1 1 1 1 0 1 0 1481.0 15 230 3.4 0 1
64 2075 1 1 1 1 0 1 0 1007.0 30 472 2.55 0 1
65 2075 1 1 1 1 0 1 0 802.0 1 10 3.15 0 1
66 2075 1 1 1 0 1 0 0 536.0 9 129 3.25 0 1
67 2075 1 1 1 1 1 1 1 412.0 3 35 3.14 0 1
68 2075 1 1 1 0 1 0 0 843.0 20 308 2.2 0 1
69 2075 1 1 1 0 1 0 0 1012.0 18 279 1.97 0 1
70 2075 1 1 1 1 1 1 1 931.0 10 155 1.73 0 1
71 2075 1 1 1 0 0 0 1 803.0 4 60 2.6 0 1
72 2075 1 1 1 0 1 0 0 1691.0 15 226 3.2 0 1
73 2075 1 1 1 1 1 1 1 554.0 3 36 2.98 0 1
74 2075 1 1 1 0 1 0 0 581.0 18 287 2.19 0 1
75 2075 1 1 1 1 1 1 1 844.0 7 112 7.03 1 1
76 2075 1 1 1 0 0 0 1 1127.0 2 26 2.76 0 1
77 2075 1 1 1 1 1 1 1 1162.0 1 8 1.95 0 1
78 2075 1 1 1 0 1 0 0 789.0 25 385 1.43 0 1
79 2075 1 1 1 0 1 0 0 814.0 13 202 3.09 0 1
80 2075 1 1 1 0 1 0 0 1473.0 13 206 3.41 0 1
81 2075 1 1 1 0 0 0 1 562.0 17 261 2.14 0 1
82 2075 1 1 1 0 0 0 1 591.0 3 47 3.05 0 1
83 2075 1 1 1 0 1 0 0 1173.0 15 227 2.67 0 1
84 2075 1 1 1 0 0 0 1 642.0 1 9 2.49 0 1
85 2075 1 1 1 0 0 0 1 693.0 30 467 1.95 0 1
86 2075 1 1 1 1 0 1 0 613.0 2 18 1.84 0 1
87 2075 1 1 1 1 1 1 1 622.0 18 285 2.27 0 1
88 2075 1 1 1 1 1 1 1 921.0 9 140 2.97 0 1
89 2075 1 1 1 1 0 1 0 1014.0 25 396 1.85 0 1
90 2075 1 1 1 1 0 1 0 823.0 1 6 3.17 0 1
91 2075 1 1 1 1 1 1 1 453.0 9 139 1.74 0 1
92 2075 1 1 1 1 1 1 1 673.0 13 197 2.97 0 1
93 2075 1 1 1 1 0 1 0 1275.0 13 198 2.65 0 1
94 2075 1 1 1 1 1 1 1 653.0 15 240 2.57 0 1
95 2075 1 1 1 1 1 1 1 679.0 17 259 2.5 0 1
96 2075 1 1 1 0 1 0 0 765.0 2 29 2.68 0 1
97 2075 1 1 1 1 0 1 0 486.0 6 85 7.32 1 1
98 2075 1 1 1 0 1 0 0 1585.0 8 125 7.28 1 1
99 2075 1 1 1 1 1 1 1 1001.0 27 420 7.61 1 1
100 2075 1 1 1 0 1 0 0 1653.0 3 33 2.97 0 1
1 2131 1 1 1 1 1 1 1 132994.0 9 139 1.74 0 1
2 2131 1 1 1 1 0 1 0 10712.0 3 35 3.14 0 1
3 2131 1 1 1 0 0 0 1 1457.0 15 226 3.2 0 1
4 2131 1 1 1 0 0 0 1 1304.0 10 152 1.38 0 1
5 2131 1 1 1 1 0 1 0 2011.0 30 472 2.55 0 1
6 2131 1 1 1 0 0 0 1 1818.0 8 125 7.28 1 1
7 2131 1 1 1 1 1 1 1 1822.0 28 433 7.18 1 1
8 2131 1 1 1 1 1 1 1 1040.0 10 160 2.19 0 1
9 2131 1 1 1 1 1 1 1 1048.0 1 8 1.95 0 1
10 2131 1 1 1 1 1 1 1 1998.0 2 17 1.92 0 1
11 2131 1 1 1 0 0 0 1 2064.0 30 471 2.73 0 1
12 2131 1 1 1 1 0 1 0 3433.0 2 18 1.84 0 1
13 2131 1 1 1 1 1 1 1 1034.0 23 362 7.17 1 1
14 2131 1 1 1 1 0 1 0 1639.0 17 263 2.59 0 1
15 2131 1 1 1 1 1 1 1 952.0 9 136 3.1 0 1
16 2131 1 1 1 1 1 1 1 945.0 25 396 1.85 0 1
17 2131 1 1 1 1 1 1 1 808.0 4 59 1.99 0 1
18 2131 1 1 1 1 1 1 1 1020.0 4 56 3.02 0 1
19 2131 1 1 1 0 0 0 1 1251.0 24 382 6.86 1 1
20 2131 1 1 1 1 0 1 0 1459.0 27 420 7.61 1 1
21 2131 1 1 1 1 1 1 1 801.0 15 230 3.4 0 1
22 2131 1 1 1 1 1 1 1 549.0 3 36 2.98 0 1
23 2131 1 1 1 0 1 0 0 828.0 18 284 1.92 0 1
24 2131 1 1 1 0 1 0 0 854.0 17 261 2.14 0 1
25 2131 1 1 1 1 1 1 1 951.0 24 373 7.32 1 1
26 2131 1 1 1 1 1 1 1 863.0 29 464 1.93 0 1
27 2131 1 1 1 0 1 0 0 1242.0 10 149 3.02 0 1
28 2131 1 1 1 0 0 0 1 1129.0 20 318 2.58 0 1
29 2131 1 1 1 1 1 1 1 1140.0 30 476 2.48 0 1
30 2131 1 1 1 1 1 1 1 1216.0 9 140 2.97 0 1
31 2131 1 1 1 0 0 0 1 903.0 3 42 2.84 0 1
32 2131 1 1 1 0 1 0 0 1937.0 20 314 1.94 0 1
33 2131 1 1 1 1 1 1 1 711.0 7 112 7.03 1 1
34 2131 1 1 1 0 1 0 0 1939.0 9 142 3.22 0 1
35 2131 1 1 1 1 1 1 1 866.0 25 397 1.77 0 1
36 2131 1 1 1 0 1 0 0 984.0 4 60 2.6 0 1
37 2131 1 1 1 1 0 1 0 1215.0 2 25 1.89 0 1
38 2131 1 1 1 0 0 0 1 1230.0 28 445 7.58 1 1
39 2131 1 1 1 0 1 0 0 2501.0 2 26 2.76 0 1
40 2131 1 1 1 0 0 0 1 1347.0 7 99 7.24 1 1
41 2131 1 1 1 1 1 1 1 1686.0 15 228 3.15 0 1
42 2131 1 1 1 0 1 0 0 1049.0 18 279 1.97 0 1
43 2131 1 1 1 0 0 0 1 1344.0 28 447 7.79 1 1
44 2131 1 1 1 0 0 0 1 1066.0 17 258 2.89 0 1
45 2131 1 1 1 1 1 1 1 999.0 1 6 3.17 0 1
46 2131 1 1 1 0 0 0 1 1549.0 7 107 7.11 1 1
47 2131 1 1 1 0 0 0 1 2174.0 1 4 3.18 0 1
48 2131 1 1 1 0 1 0 0 1161.0 2 29 2.68 0 1
49 2131 1 1 1 0 1 0 0 1031.0 3 47 3.05 0 1
50 2131 1 1 1 1 0 1 0 1068.0 6 85 7.32 1 1
51 2131 1 1 1 0 0 0 1 1071.0 13 206 3.41 0 1
52 2131 1 1 1 0 0 0 1 2525.0 2 24 2.31 0 1
53 2131 1 1 1 1 0 1 0 1467.0 10 158 2.59 0 1
54 2131 1 1 1 1 0 1 0 775.0 20 315 2.75 0 1
55 2131 1 1 1 1 0 1 0 776.0 20 307 1.87 0 1
56 2131 1 1 1 0 1 0 0 1247.0 17 269 2.8 0 1
57 2131 1 1 1 0 1 0 0 1651.0 29 459 1.82 0 1
58 2131 1 1 1 0 1 0 0 768.0 3 33 2.97 0 1
59 2131 1 1 1 1 0 1 0 1884.0 4 64 2.52 0 1
60 2131 1 1 1 0 1 0 0 1206.0 20 308 2.2 0 1
61 2131 1 1 1 0 0 0 1 5882.0 1 3 3.17 0 1
62 2131 1 1 1 1 1 1 1 2003.0 13 197 2.97 0 1
63 2131 1 1 1 1 1 1 1 1051.0 3 37 3.08 0 1
64 2131 1 1 1 1 1 1 1 731.0 13 198 2.65 0 1
65 2131 1 1 1 0 1 0 0 1102.0 15 227 2.67 0 1
66 2131 1 1 1 1 0 1 0 958.0 25 398 1.43 0 1
67 2131 1 1 1 1 1 1 1 887.0 17 266 2.6 0 1
68 2131 1 1 1 0 1 0 0 1213.0 25 391 1.73 0 1
69 2131 1 1 1 1 0 1 0 1975.0 17 259 2.5 0 1
70 2131 1 1 1 0 0 0 1 4230.0 15 238 3.31 0 1
71 2131 1 1 1 1 1 1 1 1659.0 7 106 7.66 1 1
72 2131 1 1 1 0 0 0 1 1518.0 6 86 8.01 1 1
73 2131 1 1 1 1 1 1 1 972.0 10 155 1.73 0 1
74 2131 1 1 1 1 1 1 1 1042.0 18 285 2.27 0 1
75 2131 1 1 1 0 1 0 0 1117.0 13 202 3.09 0 1
76 2131 1 1 1 0 1 0 0 1009.0 18 287 2.19 0 1
77 2131 1 1 1 0 1 0 0 1143.0 29 452 1.8 0 1
78 2131 1 1 1 0 0 0 1 1116.0 23 365 6.57 1 1
79 2131 1 1 1 1 0 1 0 551.0 20 319 2.13 0 1
80 2131 1 1 1 1 1 1 1 1092.0 13 205 3.26 0 1
81 2131 1 1 1 0 0 0 1 2771.0 25 400 1.71 0 1
82 2131 1 1 1 1 1 1 1 1125.0 15 240 2.57 0 1
83 2131 1 1 1 0 0 0 1 1355.0 30 466 2.9 0 1
84 2131 1 1 1 1 1 1 1 1576.0 18 280 2.15 0 1
85 2131 1 1 1 1 0 1 0 1629.0 29 451 1.86 0 1
86 2131 1 1 1 0 0 0 1 1448.0 30 467 1.95 0 1
87 2131 1 1 1 0 1 0 0 1889.0 1 9 2.49 0 1
88 2131 1 1 1 0 0 0 1 1749.0 9 141 3.12 0 1
89 2131 1 1 1 0 1 0 0 1267.0 10 154 2.88 0 1
90 2131 1 1 1 1 0 1 0 1486.0 1 10 3.15 0 1
91 2131 1 1 1 0 1 0 0 1747.0 4 62 2.95 0 1
92 2131 1 1 1 1 1 1 1 1906.0 18 277 2.23 0 1
93 2131 1 1 1 0 1 0 0 1045.0 25 385 1.43 0 1
94 2131 1 1 1 1 0 1 0 1368.0 22 347 6.7 1 1
95 2131 1 1 1 0 0 0 1 1995.0 4 50 2.73 0 1
96 2131 1 1 1 0 0 0 1 1374.0 13 207 3.11 0 1
97 2131 1 1 1 0 0 0 1 1318.0 29 456 1.5 0 1
98 2131 1 1 1 0 0 0 1 1686.0 9 129 3.25 0 1
99 2131 1 1 1 1 0 1 0 2202.0 29 463 2.0 0 1
100 2131 1 1 1 1 1 1 1 2365.0 30 465 2.7 0 1
1 2062 1 1 1 0 0 0 1 4614.0 30 471 2.73 0 1
2 2062 1 1 1 1 1 1 1 2144.0 3 36 2.98 0 1
3 2062 1 1 1 0 0 0 1 1680.0 9 129 3.25 0 1
4 2062 1 1 1 0 1 0 0 1354.0 18 279 1.97 0 1
5 2062 1 1 1 1 1 1 1 1177.0 3 37 3.08 0 1
6 2062 1 1 1 1 1 1 1 1176.0 13 205 3.26 0 1
7 2062 1 1 1 1 0 1 0 1195.0 17 259 2.5 0 1
8 2062 1 1 1 0 0 0 1 1100.0 7 107 7.11 1 1
9 2062 1 1 1 0 0 0 1 1543.0 28 445 7.58 1 1
10 2062 1 1 1 0 0 0 1 1625.0 7 99 7.24 1 1
11 2062 1 1 1 1 1 1 1 1518.0 9 136 3.1 0 1
12 2062 1 1 1 1 1 1 1 837.0 30 476 2.48 0 1
13 2062 1 1 1 0 0 0 1 2787.0 3 47 3.05 0 1
14 2062 1 1 1 0 0 0 1 986.0 24 382 6.86 1 1
15 2062 1 1 1 1 1 1 1 951.0 24 373 7.32 1 1
16 2062 1 1 1 0 0 0 1 1052.0 15 238 3.31 0 1
17 2062 1 1 1 1 1 1 1 1743.0 3 35 3.14 0 1
18 2062 1 1 1 1 1 1 1 937.0 6 85 7.32 1 1
19 2062 1 1 1 0 0 0 1 1698.0 17 269 2.8 0 1
20 2062 1 1 1 0 0 0 1 1856.0 30 467 1.95 0 1
21 2062 1 1 1 1 0 1 0 1774.0 10 158 2.59 0 1
22 2062 1 1 1 0 1 0 0 980.0 3 42 2.84 0 1
23 2062 1 1 1 1 1 1 1 1164.0 25 396 1.85 0 1
24 2062 1 1 1 1 1 1 1 788.0 25 397 1.77 0 1
25 2062 1 1 1 1 1 1 1 1025.0 20 307 1.87 0 1
26 2062 1 1 1 0 0 0 1 921.0 23 365 6.57 1 1
27 2062 1 1 1 1 1 1 1 871.0 30 472 2.55 0 1
28 2062 1 1 1 0 0 0 1 1143.0 2 29 2.68 0 1
29 2062 1 1 1 1 1 1 1 962.0 7 112 7.03 1 1
30 2062 1 1 1 0 0 0 1 1295.0 25 385 1.43 0 1
31 2062 1 1 1 0 1 0 0 1335.0 20 318 2.58 0 1
32 2062 1 1 1 0 0 0 1 1140.0 4 60 2.6 0 1
33 2062 1 1 1 1 1 1 1 814.0 7 106 7.66 1 1
34 2062 1 1 1 0 0 0 1 1322.0 4 50 2.73 0 1
35 2062 1 1 1 0 1 0 0 1351.0 20 314 1.94 0 1
36 2062 1 1 1 1 1 1 1 1004.0 4 56 3.02 0 1
37 2062 1 1 1 0 0 0 1 1159.0 25 400 1.71 0 1
38 2062 1 1 1 1 1 1 1 1181.0 28 433 7.18 1 1
39 2062 1 1 1 1 1 1 1 749.0 4 59 1.99 0 1
40 2062 1 1 1 1 0 1 0 1683.0 20 315 2.75 0 1
41 2062 1 1 1 1 1 1 1 733.0 2 17 1.92 0 1
42 2062 1 1 1 1 1 1 1 836.0 9 140 2.97 0 1
43 2062 1 1 1 1 1 1 1 954.0 15 240 2.57 0 1
44 2062 1 1 1 0 1 0 0 961.0 13 202 3.09 0 1
45 2062 1 1 1 0 0 0 1 788.0 8 125 7.28 1 1
46 2062 1 1 1 1 1 1 1 718.0 2 18 1.84 0 1
47 2062 1 1 1 1 1 1 1 2012.0 29 463 2.0 0 1
48 2062 1 1 1 0 0 0 1 1681.0 2 24 2.31 0 1
49 2062 1 1 1 1 0 1 0 1560.0 25 398 1.43 0 1
50 2062 1 1 1 1 0 1 0 750.0 30 465 2.7 0 1
51 2062 1 1 1 1 1 1 1 820.0 20 319 2.13 0 1
52 2062 1 1 1 0 0 0 1 1056.0 17 258 2.89 0 1
53 2062 1 1 1 0 0 0 1 781.0 6 86 8.01 1 1
54 2062 1 1 1 1 0 1 0 1081.0 4 64 2.52 0 1
55 2062 1 1 1 0 0 0 1 754.0 18 287 2.19 0 1
56 2062 1 1 1 1 1 1 1 835.0 23 362 7.17 1 1
57 2062 1 1 1 1 0 1 0 2278.0 29 451 1.86 0 1
58 2062 1 1 1 1 1 1 1 1973.0 1 6 3.17 0 1
59 2062 1 1 1 0 0 0 1 925.0 1 3 3.17 0 1
60 2062 1 1 1 0 0 0 1 2334.0 1 4 3.18 0 1
61 2062 1 1 1 1 1 1 1 2301.0 15 228 3.15 0 1
62 2062 1 1 1 0 0 0 1 2156.0 29 459 1.82 0 1
63 2062 1 1 1 0 1 0 0 1153.0 3 33 2.97 0 1
64 2062 1 1 1 0 1 0 0 1133.0 9 141 3.12 0 1
65 2062 1 1 1 1 1 1 1 1176.0 10 160 2.19 0 1
66 2062 1 1 1 1 1 1 1 861.0 13 198 2.65 0 1
67 2062 1 1 1 0 0 0 1 990.0 2 26 2.76 0 1
68 2062 1 1 1 1 1 1 1 1506.0 9 139 1.74 0 1
69 2062 1 1 1 1 1 1 1 1007.0 1 8 1.95 0 1
70 2062 1 1 1 1 0 1 0 1588.0 27 420 7.61 1 1
71 2062 1 1 1 1 0 1 0 1695.0 18 285 2.27 0 1
72 2062 1 1 1 1 1 1 1 779.0 29 464 1.93 0 1
73 2062 1 1 1 0 1 0 0 922.0 13 206 3.41 0 1
74 2062 1 1 1 0 1 0 0 1308.0 10 154 2.88 0 1
75 2062 1 1 1 0 1 0 0 2220.0 17 261 2.14 0 1
76 2062 1 1 1 1 1 1 1 1020.0 18 277 2.23 0 1
77 2062 1 1 1 0 0 0 1 1135.0 13 207 3.11 0 1
78 2062 1 1 1 0 0 0 1 1276.0 9 142 3.22 0 1
79 2062 1 1 1 1 1 1 1 1014.0 10 155 1.73 0 1
80 2062 1 1 1 0 0 0 1 1827.0 10 149 3.02 0 1
81 2062 1 1 1 0 0 0 1 2122.0 15 227 2.67 0 1
82 2062 1 1 1 1 0 1 0 1382.0 1 10 3.15 0 1
83 2062 1 1 1 1 1 1 1 1208.0 13 197 2.97 0 1
84 2062 1 1 1 0 1 0 0 889.0 15 226 3.2 0 1
85 2062 1 1 1 1 1 1 1 801.0 15 230 3.4 0 1
86 2062 1 1 1 0 0 0 1 785.0 18 284 1.92 0 1
87 2062 1 1 1 0 0 0 1 846.0 29 456 1.5 0 1
88 2062 1 1 1 0 0 0 1 957.0 30 466 2.9 0 1
89 2062 1 1 1 0 0 0 1 1435.0 10 152 1.38 0 1
90 2062 1 1 1 0 1 0 0 1032.0 1 9 2.49 0 1
91 2062 1 1 1 1 1 1 1 743.0 2 25 1.89 0 1
92 2062 1 1 1 0 0 0 1 2072.0 20 308 2.2 0 1
93 2062 1 1 1 0 0 0 1 1731.0 29 452 1.8 0 1
94 2062 1 1 1 0 1 0 0 1043.0 4 62 2.95 0 1
95 2062 1 1 1 1 1 1 1 802.0 17 266 2.6 0 1
96 2062 1 1 1 1 1 1 1 882.0 22 347 6.7 1 1
97 2062 1 1 1 0 0 0 1 828.0 28 447 7.79 1 1
98 2062 1 1 1 1 0 1 0 1633.0 17 263 2.59 0 1
99 2062 1 1 1 0 1 0 0 837.0 25 391 1.73 0 1
100 2062 1 1 1 1 1 1 1 821.0 18 280 2.15 0 1
1 2180 1 1 1 0 1 0 0 6573.0 10 152 1.38 0 1
2 2180 1 1 1 0 1 0 0 1350.0 1 3 3.17 0 1
3 2180 1 1 1 0 0 0 1 1114.0 28 445 7.58 1 1
4 2180 1 1 1 0 1 0 0 1192.0 3 42 2.84 0 1
5 2180 1 1 1 0 0 0 1 2269.0 17 258 2.89 0 1
6 2180 1 1 1 0 0 0 1 1913.0 29 452 1.8 0 1
7 2180 1 1 1 0 0 0 1 1173.0 18 287 2.19 0 1
8 2180 1 1 1 1 1 1 1 2048.0 15 228 3.15 0 1
9 2180 1 1 1 0 0 0 1 1137.0 15 227 2.67 0 1
10 2180 1 1 1 1 1 1 1 1835.0 29 451 1.86 0 1
11 2180 1 1 1 0 1 0 0 866.0 20 308 2.2 0 1
12 2180 1 1 1 0 0 0 1 1603.0 10 154 2.88 0 1
13 2180 1 1 1 1 1 1 1 1122.0 4 56 3.02 0 1
14 2180 1 1 1 1 1 1 1 831.0 24 373 7.32 1 1
15 2180 1 1 1 0 0 0 1 751.0 7 107 7.11 1 1
16 2180 1 1 1 1 1 1 1 818.0 30 465 2.7 0 1
17 2180 1 1 1 1 0 1 0 714.0 29 464 1.93 0 1
18 2180 1 1 1 1 0 1 0 1425.0 9 136 3.1 0 1
19 2180 1 1 1 1 1 1 1 660.0 1 10 3.15 0 1
20 2180 1 1 1 0 0 0 1 801.0 9 141 3.12 0 1
21 2180 1 1 1 0 1 0 0 981.0 13 207 3.11 0 1
22 2180 1 1 1 1 0 1 0 1007.0 7 106 7.66 1 1
23 2180 1 1 1 1 0 1 0 2799.0 23 362 7.17 1 1
24 2180 1 1 1 1 1 1 1 677.0 3 37 3.08 0 1
25 2180 1 1 1 0 0 0 1 1329.0 1 4 3.18 0 1
26 2180 1 1 1 0 1 0 0 769.0 20 318 2.58 0 1
27 2180 1 1 1 0 1 0 0 711.0 20 314 1.94 0 1
28 2180 1 1 1 1 1 1 1 1204.0 20 315 2.75 0 1
29 2180 1 1 1 0 0 0 1 958.0 17 261 2.14 0 1
30 2180 1 1 1 1 0 1 0 14028.0 29 463 2.0 0 1
31 2180 1 1 1 0 0 0 1 1237.0 18 284 1.92 0 1
32 2180 1 1 1 1 0 1 0 3193.0 20 319 2.13 0 1
33 2180 1 1 1 0 0 0 1 676.0 25 385 1.43 0 1
34 2180 1 1 1 0 0 0 1 1100.0 23 365 6.57 1 1
35 2180 1 1 1 0 0 0 1 1099.0 28 447 7.79 1 1
36 2180 1 1 1 1 0 1 0 1092.0 18 285 2.27 0 1
37 2180 1 1 1 1 0 1 0 991.0 3 36 2.98 0 1
38 2180 1 1 1 1 0 1 0 756.0 30 472 2.55 0 1
39 2180 1 1 1 0 0 0 1 689.0 29 456 1.5 0 1
40 2180 1 1 1 0 0 0 1 962.0 15 238 3.31 0 1
41 2180 1 1 1 1 1 1 1 805.0 13 197 2.97 0 1
42 2180 1 1 1 0 1 0 0 1550.0 7 99 7.24 1 1
43 2180 1 1 1 1 1 1 1 765.0 28 433 7.18 1 1
44 2180 1 1 1 0 1 0 0 830.0 4 60 2.6 0 1
45 2180 1 1 1 0 0 0 1 741.0 8 125 7.28 1 1
46 2180 1 1 1 0 0 0 1 930.0 4 62 2.95 0 1
47 2180 1 1 1 0 1 0 0 1110.0 1 9 2.49 0 1
48 2180 1 1 1 1 0 1 0 705.0 9 139 1.74 0 1
49 2180 1 1 1 1 1 1 1 2110.0 27 420 7.61 1 1
50 2180 1 1 1 0 1 0 0 2629.0 30 466 2.9 0 1
51 2180 1 1 1 0 0 0 1 878.0 25 391 1.73 0 1
52 2180 1 1 1 1 0 1 0 686.0 20 307 1.87 0 1
53 2180 1 1 1 1 0 1 0 628.0 4 59 1.99 0 1
54 2180 1 1 1 0 0 0 1 499.0 2 29 2.68 0 1
55 2180 1 1 1 0 0 0 1 652.0 24 382 6.86 1 1
56 2180 1 1 1 1 0 1 0 469.0 30 476 2.48 0 1
57 2180 1 1 1 1 0 1 0 343.0 2 17 1.92 0 1
58 2180 1 1 1 1 1 1 1 1129.0 2 18 1.84 0 1
59 2180 1 1 1 1 1 1 1 915.0 13 205 3.26 0 1
60 2180 1 1 1 1 1 1 1 672.0 6 85 7.32 1 1
61 2180 1 1 1 0 0 0 1 746.0 4 50 2.73 0 1
62 2180 1 1 1 0 0 0 1 2320.0 25 400 1.71 0 1
63 2180 1 1 1 1 0 1 0 1200.0 17 263 2.59 0 1
64 2180 1 1 1 0 0 0 1 1040.0 17 269 2.8 0 1
65 2180 1 1 1 1 0 1 0 1127.0 10 160 2.19 0 1
66 2180 1 1 1 1 0 1 0 688.0 18 277 2.23 0 1
67 2180 1 1 1 1 0 1 0 702.0 10 158 2.59 0 1
68 2180 1 1 1 0 0 0 1 680.0 2 26 2.76 0 1
69 2180 1 1 1 1 1 1 1 780.0 18 280 2.15 0 1
70 2180 1 1 1 1 1 1 1 585.0 2 25 1.89 0 1
71 2180 1 1 1 1 0 1 0 1545.0 15 230 3.4 0 1
72 2180 1 1 1 0 0 0 1 753.0 30 471 2.73 0 1
73 2180 1 1 1 0 0 0 1 830.0 3 33 2.97 0 1
74 2180 1 1 1 0 0 0 1 620.0 30 467 1.95 0 1
75 2180 1 1 1 1 0 1 0 1149.0 17 266 2.6 0 1
76 2180 1 1 1 1 1 1 1 1113.0 3 35 3.14 0 1
77 2180 1 1 1 1 0 1 0 1884.0 10 155 1.73 0 1
78 2180 1 1 1 0 0 0 1 568.0 29 459 1.82 0 1
79 2180 1 1 1 1 0 1 0 1078.0 15 240 2.57 0 1
80 2180 1 1 1 0 0 0 1 273.0 3 47 3.05 0 1
81 2180 1 1 1 0 0 0 1 870.0 15 226 3.2 0 1
82 2180 1 1 1 0 0 0 1 1199.0 6 86 8.01 1 1
83 2180 1 1 1 0 0 0 1 639.0 9 142 3.22 0 1
84 2180 1 1 1 1 1 1 1 1402.0 1 8 1.95 0 1
85 2180 1 1 1 1 0 1 0 1489.0 7 112 7.03 1 1
86 2180 1 1 1 1 0 1 0 831.0 13 198 2.65 0 1
87 2180 1 1 1 1 0 1 0 623.0 25 396 1.85 0 1
88 2180 1 1 1 1 0 1 0 590.0 9 140 2.97 0 1
89 2180 1 1 1 0 0 0 1 636.0 18 279 1.97 0 1
90 2180 1 1 1 0 1 0 0 658.0 13 202 3.09 0 1
91 2180 1 1 1 1 1 1 1 503.0 1 6 3.17 0 1
92 2180 1 1 1 1 1 1 1 814.0 4 64 2.52 0 1
93 2180 1 1 1 0 0 0 1 992.0 9 129 3.25 0 1
94 2180 1 1 1 0 1 0 0 865.0 2 24 2.31 0 1
95 2180 1 1 1 1 1 1 1 587.0 17 259 2.5 0 1
96 2180 1 1 1 1 1 1 1 771.0 22 347 6.7 1 1
97 2180 1 1 1 1 1 1 1 1121.0 25 397 1.77 0 1
98 2180 1 1 1 1 0 1 0 1533.0 25 398 1.43 0 1
99 2180 1 1 1 0 1 0 0 610.0 13 206 3.41 0 1
100 2180 1 1 1 0 0 0 1 916.0 10 149 3.02 0 1
1 2211 2 1 1 0 1 0 0 6581.0 23 362 7.17 1 0
2 2211 2 1 1 0 1 0 0 2049.0 1 8 1.95 0 0
3 2211 2 1 1 1 1 1 1 793.0 8 125 7.28 1 0
4 2211 2 1 1 1 0 1 0 1561.0 15 238 3.31 0 0
5 2211 2 1 1 0 1 0 0 1084.0 29 463 2.0 0 0
6 2211 2 1 1 0 1 0 0 1246.0 28 433 7.18 1 0
7 2211 2 1 1 1 1 1 1 552.0 1 4 3.18 0 0
8 2211 2 1 1 1 0 1 0 839.0 3 42 2.84 0 0
9 2211 2 1 1 1 0 1 0 562.0 4 62 2.95 0 0
10 2211 2 1 1 1 0 1 0 317.0 18 287 2.19 0 0
11 2211 2 1 1 1 0 1 0 723.0 10 149 3.02 0 0
12 2211 2 1 1 1 1 1 1 729.0 17 258 2.89 0 0
13 2211 2 1 1 0 1 0 0 617.0 4 64 2.52 0 0
14 2211 2 1 1 0 0 0 1 733.0 22 347 6.7 1 0
15 2211 2 1 1 1 1 1 1 942.0 29 452 1.8 0 0
16 2211 2 1 1 1 1 1 1 948.0 29 459 1.82 0 0
17 2211 2 1 1 0 1 0 0 867.0 25 397 1.77 0 0
18 2211 2 1 1 0 1 0 0 666.0 18 280 2.15 0 0
19 2211 2 1 1 1 1 1 1 787.0 20 318 2.58 0 0
20 2211 2 1 1 0 0 0 1 838.0 29 451 1.86 0 0
21 2211 2 1 1 1 0 1 0 3471.0 1 9 2.49 0 0
22 2211 2 1 1 1 0 1 0 571.0 7 99 7.24 1 0
23 2211 2 1 1 0 0 0 1 551.0 29 464 1.93 0 0
24 2211 2 1 1 0 1 0 0 243723.0 2 17 1.92 0 0
25 2211 2 1 1 0 1 0 0 707.0 3 37 3.08 0 0
26 2211 2 1 1 0 1 0 0 486.0 30 465 2.7 0 0
27 2211 2 1 1 1 0 1 0 1562.0 28 445 7.58 1 0
28 2211 2 1 1 1 1 1 1 1383.0 9 142 3.22 0 0
29 2211 2 1 1 0 0 0 1 733.0 9 140 2.97 0 0
30 2211 2 1 1 1 0 1 0 803.0 13 202 3.09 0 0
31 2211 2 1 1 0 0 0 1 735.0 25 398 1.43 0 0
32 2211 2 1 1 1 1 1 1 992.0 29 456 1.5 0 0
33 2211 2 1 1 0 1 0 0 1364.0 18 277 2.23 0 0
34 2211 2 1 1 0 1 0 0 497.0 13 205 3.26 0 0
35 2211 2 1 1 1 0 1 0 420.0 15 226 3.2 0 0
36 2211 2 1 1 0 1 0 0 635.0 20 319 2.13 0 0
37 2211 2 1 1 1 1 1 1 482.0 2 24 2.31 0 0
38 2211 2 1 1 1 0 1 0 748.0 28 447 7.79 1 0
39 2211 2 1 1 0 0 0 1 549.0 15 240 2.57 0 0
40 2211 2 1 1 0 1 0 0 509.0 27 420 7.61 1 0
41 2211 2 1 1 1 1 1 1 227.0 30 471 2.73 0 0
42 2211 2 1 1 1 0 1 0 432.0 18 284 1.92 0 0
43 2211 2 1 1 0 0 0 1 344.0 2 25 1.89 0 0
44 2211 2 1 1 0 1 0 0 569.0 13 198 2.65 0 0
45 2211 2 1 1 0 1 0 0 236.0 25 396 1.85 0 0
46 2211 2 1 1 0 1 0 0 434.0 1 10 3.15 0 0
47 2211 2 1 1 1 1 1 1 323.0 30 467 1.95 0 0
48 2211 2 1 1 1 0 1 0 250.0 7 107 7.11 1 0
49 2211 2 1 1 0 0 0 1 193.0 20 307 1.87 0 0
50 2211 2 1 1 0 0 0 1 803.0 10 155 1.73 0 0
51 2211 2 1 1 0 1 0 0 524.0 18 285 2.27 0 0
52 2211 2 1 1 1 1 1 1 150.0 2 29 2.68 0 0
53 2211 2 1 1 0 0 0 1 463.0 7 112 7.03 1 0
54 2211 2 1 1 1 0 1 0 519.0 10 154 2.88 0 0
55 2211 2 1 1 0 1 0 0 416.0 17 263 2.59 0 0
56 2211 2 1 1 0 0 0 1 229.0 1 6 3.17 0 0
57 2211 2 1 1 1 0 1 0 597.0 4 60 2.6 0 0
58 2211 2 1 1 0 1 0 0 236.0 6 85 7.32 1 0
59 2211 2 1 1 1 1 1 1 588.0 24 382 6.86 1 0
60 2211 2 1 1 1 0 1 0 547.0 18 279 1.97 0 0
61 2211 2 1 1 0 0 0 1 261.0 9 139 1.74 0 0
62 2211 2 1 1 0 1 0 0 212.0 10 160 2.19 0 0
63 2211 2 1 1 1 1 1 1 169.0 10 152 1.38 0 0
64 2211 2 1 1 1 1 1 1 485.0 20 308 2.2 0 0
65 2211 2 1 1 1 0 1 0 4762.0 30 466 2.9 0 0
66 2211 2 1 1 0 0 0 1 300.0 13 197 2.97 0 0
67 2211 2 1 1 0 1 0 0 3520.0 17 259 2.5 0 0
68 2211 2 1 1 1 1 1 1 371.0 2 26 2.76 0 0
69 2211 2 1 1 0 0 0 1 6138.0 4 59 1.99 0 0
70 2211 2 1 1 0 1 0 0 3946.0 4 56 3.02 0 0
71 2211 2 1 1 1 1 1 1 392.0 1 3 3.17 0 0
72 2211 2 1 1 0 0 0 1 1336.0 10 158 2.59 0 0
73 2211 2 1 1 0 0 0 1 840.0 17 266 2.6 0 0
74 2211 2 1 1 1 0 1 0 1139.0 25 385 1.43 0 0
75 2211 2 1 1 0 0 0 1 235.0 20 315 2.75 0 0
76 2211 2 1 1 1 1 1 1 631.0 25 391 1.73 0 0
77 2211 2 1 1 1 1 1 1 1139.0 23 365 6.57 1 0
78 2211 2 1 1 0 0 0 1 737.0 9 136 3.1 0 0
79 2211 2 1 1 1 1 1 1 897.0 20 314 1.94 0 0
80 2211 2 1 1 1 0 1 0 839.0 17 261 2.14 0 0
81 2211 2 1 1 0 0 0 1 173.0 30 472 2.55 0 0
82 2211 2 1 1 0 1 0 0 588.0 2 18 1.84 0 0
83 2211 2 1 1 1 0 1 0 441.0 9 129 3.25 0 0
84 2211 2 1 1 1 1 1 1 1396.0 25 400 1.71 0 0
85 2211 2 1 1 0 1 0 0 777.0 30 476 2.48 0 0
86 2211 2 1 1 0 1 0 0 795.0 15 228 3.15 0 0
87 2211 2 1 1 0 1 0 0 7586.0 15 230 3.4 0 0
88 2211 2 1 1 1 0 1 0 31947.0 3 47 3.05 0 0
89 2211 2 1 1 0 0 0 1 116.0 3 36 2.98 0 0
90 2211 2 1 1 0 1 0 0 668.0 24 373 7.32 1 0
91 2211 2 1 1 1 1 1 1 98.0 17 269 2.8 0 0
92 2211 2 1 1 1 1 1 1 410.0 13 206 3.41 0 0
93 2211 2 1 1 1 0 1 0 819.0 3 33 2.97 0 0
94 2211 2 1 1 1 0 1 0 205.0 15 227 2.67 0 0
95 2211 2 1 1 0 1 0 0 169.0 3 35 3.14 0 0
96 2211 2 1 1 1 1 1 1 206.0 4 50 2.73 0 0
97 2211 2 1 1 1 1 1 1 428.0 6 86 8.01 1 0
98 2211 2 1 1 0 0 0 1 679.0 7 106 7.66 1 0
99 2211 2 1 1 1 0 1 0 1026.0 13 207 3.11 0 0
100 2211 2 1 1 1 1 1 1 622.0 9 141 3.12 0 0
1 2143 1 1 1 0 0 0 1 2715.0 8 125 7.28 1 1
2 2143 1 1 1 0 0 0 1 2942.0 25 400 1.71 0 1
3 2143 1 1 1 0 0 0 1 3347.0 15 226 3.2 0 1
4 2143 1 1 1 0 0 0 1 988.0 7 107 7.11 1 1
5 2143 1 1 1 0 1 0 0 1348.0 18 279 1.97 0 1
6 2143 1 1 1 0 1 0 0 1738.0 17 258 2.89 0 1
7 2143 1 1 1 1 1 1 1 1409.0 3 35 3.14 0 1
8 2143 1 1 1 1 1 1 1 1116.0 15 240 2.57 0 1
9 2143 1 1 1 0 0 0 1 1611.0 18 284 1.92 0 1
10 2143 1 1 1 1 1 1 1 1073.0 4 59 1.99 0 1
11 2143 1 1 1 1 0 1 0 2131.0 9 140 2.97 0 1
12 2143 1 1 1 0 0 0 1 1560.0 13 206 3.41 0 1
13 2143 1 1 1 0 0 0 1 1297.0 1 3 3.17 0 1
14 2143 1 1 1 0 0 0 1 1228.0 20 318 2.58 0 1
15 2143 1 1 1 1 1 1 1 1053.0 2 25 1.89 0 1
16 2143 1 1 1 1 0 1 0 1998.0 1 10 3.15 0 1
17 2143 1 1 1 0 0 0 1 870.0 28 445 7.58 1 1
18 2143 1 1 1 0 0 0 1 1863.0 9 141 3.12 0 1
19 2143 1 1 1 0 1 0 0 1057.0 13 202 3.09 0 1
20 2143 1 1 1 0 0 0 1 3073.0 10 149 3.02 0 1
21 2143 1 1 1 1 1 1 1 892.0 24 373 7.32 1 1
22 2143 1 1 1 1 1 1 1 1845.0 20 307 1.87 0 1
23 2143 1 1 1 0 0 0 1 1339.0 15 238 3.31 0 1
24 2143 1 1 1 1 1 1 1 1883.0 3 36 2.98 0 1
25 2143 1 1 1 1 1 1 1 1367.0 1 6 3.17 0 1
26 2143 1 1 1 0 0 0 1 2220.0 1 9 2.49 0 1
27 2143 1 1 1 0 1 0 0 1324.0 20 308 2.2 0 1
28 2143 1 1 1 1 1 1 1 1379.0 13 205 3.26 0 1
29 2143 1 1 1 0 1 0 0 885.0 9 129 3.25 0 1
30 2143 1 1 1 1 1 1 1 1133.0 29 463 2.0 0 1
31 2143 1 1 1 0 0 0 1 1095.0 25 385 1.43 0 1
32 2143 1 1 1 0 0 0 1 1822.0 4 50 2.73 0 1
33 2143 1 1 1 1 1 1 1 1774.0 27 420 7.61 1 1
34 2143 1 1 1 1 1 1 1 1147.0 20 315 2.75 0 1
35 2143 1 1 1 1 1 1 1 777.0 28 433 7.18 1 1
36 2143 1 1 1 0 0 0 1 1147.0 30 471 2.73 0 1
37 2143 1 1 1 0 0 0 1 976.0 28 447 7.79 1 1
38 2143 1 1 1 0 0 0 1 915.0 29 459 1.82 0 1
39 2143 1 1 1 1 1 1 1 1452.0 17 259 2.5 0 1
40 2143 1 1 1 1 1 1 1 1480.0 3 37 3.08 0 1
41 2143 1 1 1 1 1 1 1 830.0 13 198 2.65 0 1
42 2143 1 1 1 1 1 1 1 1135.0 2 17 1.92 0 1
43 2143 1 1 1 1 1 1 1 839.0 9 139 1.74 0 1
44 2143 1 1 1 0 0 0 1 1090.0 6 86 8.01 1 1
45 2143 1 1 1 1 1 1 1 1984.0 18 277 2.23 0 1
46 2143 1 1 1 0 1 0 0 1211.0 17 261 2.14 0 1
47 2143 1 1 1 1 1 1 1 2807.0 13 197 2.97 0 1
48 2143 1 1 1 1 1 1 1 1112.0 18 280 2.15 0 1
49 2143 1 1 1 0 0 0 1 1161.0 24 382 6.86 1 1
50 2143 1 1 1 0 0 0 1 1228.0 2 24 2.31 0 1
51 2143 1 1 1 1 1 1 1 1437.0 10 160 2.19 0 1
52 2143 1 1 1 0 0 0 1 1728.0 13 207 3.11 0 1
53 2143 1 1 1 1 1 1 1 826.0 6 85 7.32 1 1
54 2143 1 1 1 0 0 0 1 4969.0 30 467 1.95 0 1
55 2143 1 1 1 0 1 0 0 947.0 9 142 3.22 0 1
56 2143 1 1 1 0 0 0 1 1532.0 2 29 2.68 0 1
57 2143 1 1 1 0 1 0 0 1371.0 1 4 3.18 0 1
58 2143 1 1 1 0 0 0 1 3406.0 3 47 3.05 0 1
59 2143 1 1 1 1 1 1 1 1070.0 15 230 3.4 0 1
60 2143 1 1 1 1 1 1 1 1161.0 30 472 2.55 0 1
61 2143 1 1 1 1 1 1 1 1650.0 25 396 1.85 0 1
62 2143 1 1 1 1 1 1 1 868.0 7 112 7.03 1 1
63 2143 1 1 1 0 1 0 0 3413.0 25 391 1.73 0 1
64 2143 1 1 1 1 1 1 1 989.0 7 106 7.66 1 1
65 2143 1 1 1 1 1 1 1 1200.0 29 451 1.86 0 1
66 2143 1 1 1 1 1 1 1 1389.0 15 228 3.15 0 1
67 2143 1 1 1 1 1 1 1 846.0 9 136 3.1 0 1
68 2143 1 1 1 0 0 0 1 1002.0 2 26 2.76 0 1
69 2143 1 1 1 0 0 0 1 1179.0 15 227 2.67 0 1
70 2143 1 1 1 0 0 0 1 956.0 29 456 1.5 0 1
71 2143 1 1 1 1 1 1 1 849.0 23 362 7.17 1 1
72 2143 1 1 1 0 1 0 0 1177.0 29 452 1.8 0 1
73 2143 1 1 1 0 0 0 1 2539.0 30 466 2.9 0 1
74 2143 1 1 1 0 0 0 1 687.0 23 365 6.57 1 1
75 2143 1 1 1 1 1 1 1 787.0 17 263 2.59 0 1
76 2143 1 1 1 1 1 1 1 1591.0 20 319 2.13 0 1
77 2143 1 1 1 1 1 1 1 1462.0 1 8 1.95 0 1
78 2143 1 1 1 0 1 0 0 1407.0 17 269 2.8 0 1
79 2143 1 1 1 1 1 1 1 1283.0 29 464 1.93 0 1
80 2143 1 1 1 0 1 0 0 1326.0 20 314 1.94 0 1
81 2143 1 1 1 1 1 1 1 1383.0 25 397 1.77 0 1
82 2143 1 1 1 1 0 1 0 3175.0 17 266 2.6 0 1
83 2143 1 1 1 1 0 1 0 1938.0 30 465 2.7 0 1
84 2143 1 1 1 0 1 0 0 1375.0 10 152 1.38 0 1
85 2143 1 1 1 0 0 0 1 946.0 7 99 7.24 1 1
86 2143 1 1 1 1 1 1 1 1954.0 18 285 2.27 0 1
87 2143 1 1 1 0 1 0 0 1471.0 18 287 2.19 0 1
88 2143 1 1 1 1 0 1 0 1203.0 4 56 3.02 0 1
89 2143 1 1 1 1 0 1 0 951.0 10 158 2.59 0 1
90 2143 1 1 1 1 1 1 1 1559.0 4 64 2.52 0 1
91 2143 1 1 1 0 1 0 0 1785.0 4 60 2.6 0 1
92 2143 1 1 1 0 1 0 0 1734.0 3 42 2.84 0 1
93 2143 1 1 1 1 1 1 1 1181.0 30 476 2.48 0 1
94 2143 1 1 1 0 1 0 0 2421.0 4 62 2.95 0 1
95 2143 1 1 1 1 0 1 0 2562.0 10 155 1.73 0 1
96 2143 1 1 1 1 1 1 1 1025.0 22 347 6.7 1 1
97 2143 1 1 1 0 1 0 0 1505.0 3 33 2.97 0 1
98 2143 1 1 1 1 1 1 1 3186.0 2 18 1.84 0 1
99 2143 1 1 1 1 1 1 1 4397.0 25 398 1.43 0 1
100 2143 1 1 1 0 0 0 1 1225.0 10 154 2.88 0 1
1 2213 2 1 1 1 1 1 1 3886.0 29 456 1.5 0 1
2 2213 2 1 1 1 1 1 1 1418.0 17 258 2.89 0 1
3 2213 2 1 1 1 1 1 1 1775.0 25 391 1.73 0 1
4 2213 2 1 1 1 1 1 1 640.0 25 400 1.71 0 1
5 2213 2 1 1 0 1 0 0 697.0 1 6 3.17 0 1
6 2213 2 1 1 0 1 0 0 649.0 10 158 2.59 0 1
7 2213 2 1 1 0 1 0 0 598.0 1 8 1.95 0 1
8 2213 2 1 1 1 1 1 1 839.0 15 227 2.67 0 1
9 2213 2 1 1 1 1 1 1 588.0 25 385 1.43 0 1
10 2213 2 1 1 0 1 0 0 653.0 9 136 3.1 0 1
11 2213 2 1 1 0 1 0 0 584.0 4 59 1.99 0 1
12 2213 2 1 1 1 1 1 1 598.0 30 466 2.9 0 1
13 2213 2 1 1 1 1 1 1 779.0 18 279 1.97 0 1
14 2213 2 1 1 0 0 0 1 439.0 15 228 3.15 0 1
15 2213 2 1 1 1 1 1 1 875.0 28 445 7.58 1 1
16 2213 2 1 1 0 1 0 0 525.0 20 319 2.13 0 1
17 2213 2 1 1 1 1 1 1 871.0 10 154 2.88 0 1
18 2213 2 1 1 1 0 1 0 537.0 23 365 6.57 1 1
19 2213 2 1 1 0 1 0 0 706.0 4 64 2.52 0 1
20 2213 2 1 1 0 1 0 0 549.0 3 36 2.98 0 1
21 2213 2 1 1 0 1 0 0 572.0 30 472 2.55 0 1
22 2213 2 1 1 0 1 0 0 683.0 7 112 7.03 1 1
23 2213 2 1 1 1 0 1 0 659.0 15 226 3.2 0 1
24 2213 2 1 1 0 1 0 0 600.0 18 280 2.15 0 1
25 2213 2 1 1 0 1 0 0 476.0 13 205 3.26 0 1
26 2213 2 1 1 1 0 1 0 616.0 7 99 7.24 1 1
27 2213 2 1 1 1 0 1 0 759.0 13 207 3.11 0 1
28 2213 2 1 1 0 0 0 1 697.0 23 362 7.17 1 1
29 2213 2 1 1 1 1 1 1 717.0 7 107 7.11 1 1
30 2213 2 1 1 1 1 1 1 582.0 24 382 6.86 1 1
31 2213 2 1 1 0 1 0 0 687.0 15 230 3.4 0 1
32 2213 2 1 1 1 1 1 1 1259.0 13 206 3.41 0 1
33 2213 2 1 1 0 0 0 1 998.0 27 420 7.61 1 1
34 2213 2 1 1 1 0 1 0 641.0 9 142 3.22 0 1
35 2213 2 1 1 0 0 0 1 496.0 3 37 3.08 0 1
36 2213 2 1 1 1 1 1 1 491.0 17 269 2.8 0 1
37 2213 2 1 1 1 0 1 0 443.0 29 452 1.8 0 1
38 2213 2 1 1 1 0 1 0 328.0 8 125 7.28 1 1
39 2213 2 1 1 0 0 0 1 707.0 24 373 7.32 1 1
40 2213 2 1 1 0 0 0 1 846.0 7 106 7.66 1 1
41 2213 2 1 1 1 1 1 1 464.0 9 141 3.12 0 1
42 2213 2 1 1 1 1 1 1 450.0 15 238 3.31 0 1
43 2213 2 1 1 1 1 1 1 461.0 1 9 2.49 0 1
44 2213 2 1 1 0 1 0 0 898.0 30 476 2.48 0 1
45 2213 2 1 1 1 1 1 1 724.0 3 47 3.05 0 1
46 2213 2 1 1 0 1 0 0 1067.0 13 198 2.65 0 1
47 2213 2 1 1 1 1 1 1 622.0 30 467 1.95 0 1
48 2213 2 1 1 1 0 1 0 884.0 2 29 2.68 0 1
49 2213 2 1 1 1 1 1 1 974.0 10 149 3.02 0 1
50 2213 2 1 1 0 1 0 0 679.0 2 25 1.89 0 1
51 2213 2 1 1 0 0 0 1 502.0 2 17 1.92 0 1
52 2213 2 1 1 0 1 0 0 587.0 29 464 1.93 0 1
53 2213 2 1 1 0 0 0 1 291.0 20 307 1.87 0 1
54 2213 2 1 1 1 0 1 0 529.0 13 202 3.09 0 1
55 2213 2 1 1 1 0 1 0 415.0 20 318 2.58 0 1
56 2213 2 1 1 0 0 0 1 347.0 17 259 2.5 0 1
57 2213 2 1 1 1 1 1 1 350.0 28 447 7.79 1 1
58 2213 2 1 1 1 1 1 1 271.0 30 471 2.73 0 1
59 2213 2 1 1 0 0 0 1 288.0 10 155 1.73 0 1
60 2213 2 1 1 1 0 1 0 787.0 4 62 2.95 0 1
61 2213 2 1 1 1 1 1 1 330.0 6 86 8.01 1 1
62 2213 2 1 1 0 1 0 0 596.0 30 465 2.7 0 1
63 2213 2 1 1 0 0 0 1 267.0 20 315 2.75 0 1
64 2213 2 1 1 1 0 1 0 304.0 29 459 1.82 0 1
65 2213 2 1 1 0 0 0 1 358.0 2 18 1.84 0 1
66 2213 2 1 1 1 1 1 1 266.0 18 287 2.19 0 1
67 2213 2 1 1 0 1 0 0 244.0 29 463 2.0 0 1
68 2213 2 1 1 0 0 0 1 269.0 13 197 2.97 0 1
69 2213 2 1 1 1 1 1 1 257.0 17 261 2.14 0 1
70 2213 2 1 1 1 0 1 0 220.0 3 33 2.97 0 1
71 2213 2 1 1 0 0 0 1 332.0 18 285 2.27 0 1
72 2213 2 1 1 1 1 1 1 233.0 10 152 1.38 0 1
73 2213 2 1 1 1 1 1 1 310.0 2 24 2.31 0 1
74 2213 2 1 1 1 1 1 1 237.0 1 3 3.17 0 1
75 2213 2 1 1 0 0 0 1 685.0 22 347 6.7 1 1
76 2213 2 1 1 1 0 1 0 612.0 9 129 3.25 0 1
77 2213 2 1 1 0 1 0 0 183.0 3 35 3.14 0 1
78 2213 2 1 1 0 1 0 0 314.0 10 160 2.19 0 1
79 2213 2 1 1 1 1 1 1 500.0 4 50 2.73 0 1
80 2213 2 1 1 1 0 1 0 291.0 2 26 2.76 0 1
81 2213 2 1 1 1 0 1 0 208.0 3 42 2.84 0 1
82 2213 2 1 1 0 1 0 0 218.0 25 398 1.43 0 1
83 2213 2 1 1 0 0 0 1 419.0 25 397 1.77 0 1
84 2213 2 1 1 0 0 0 1 556.0 17 263 2.59 0 1
85 2213 2 1 1 1 1 1 1 484.0 1 4 3.18 0 1
86 2213 2 1 1 0 1 0 0 459.0 9 139 1.74 0 1
87 2213 2 1 1 0 1 0 0 457.0 25 396 1.85 0 1
88 2213 2 1 1 0 1 0 0 433.0 17 266 2.6 0 1
89 2213 2 1 1 0 1 0 0 446.0 1 10 3.15 0 1
90 2213 2 1 1 0 1 0 0 308.0 18 277 2.23 0 1
91 2213 2 1 1 0 0 0 1 267.0 9 140 2.97 0 1
92 2213 2 1 1 0 0 0 1 487.0 15 240 2.57 0 1
93 2213 2 1 1 0 0 0 1 939.0 4 56 3.02 0 1
94 2213 2 1 1 1 1 1 1 759.0 4 60 2.6 0 1
95 2213 2 1 1 0 1 0 0 539.0 28 433 7.18 1 1
96 2213 2 1 1 1 0 1 0 578.0 20 308 2.2 0 1
97 2213 2 1 1 1 0 1 0 190.0 18 284 1.92 0 1
98 2213 2 1 1 1 1 1 1 307.0 20 314 1.94 0 1
99 2213 2 1 1 0 0 0 1 598.0 6 85 7.32 1 1
100 2213 2 1 1 0 0 0 1 316.0 29 451 1.86 0 1
1 2147 1 1 1 1 1 1 1 5538.0 17 263 2.59 0 1
2 2147 1 1 1 0 0 0 1 2023.0 15 238 3.31 0 1
3 2147 1 1 1 1 1 1 1 1292.0 9 139 1.74 0 1
4 2147 1 1 1 1 1 1 1 942.0 18 280 2.15 0 1
5 2147 1 1 1 1 1 1 1 801.0 23 362 7.17 1 1
6 2147 1 1 1 1 1 1 1 758.0 9 140 2.97 0 1
7 2147 1 1 1 0 0 0 1 1383.0 7 99 7.24 1 1
8 2147 1 1 1 0 1 0 0 2554.0 20 314 1.94 0 1
9 2147 1 1 1 0 0 0 1 3042.0 17 261 2.14 0 1
10 2147 1 1 1 1 1 1 1 982.0 20 307 1.87 0 1
11 2147 1 1 1 1 1 1 1 1020.0 9 136 3.1 0 1
12 2147 1 1 1 0 0 0 1 1460.0 30 466 2.9 0 1
13 2147 1 1 1 1 1 1 1 1144.0 6 85 7.32 1 1
14 2147 1 1 1 1 1 1 1 2360.0 25 397 1.77 0 1
15 2147 1 1 1 0 0 0 1 1067.0 9 141 3.12 0 1
16 2147 1 1 1 1 0 1 0 2869.0 25 398 1.43 0 1
17 2147 1 1 1 1 1 1 1 1554.0 25 396 1.85 0 1
18 2147 1 1 1 0 1 0 0 994.0 30 467 1.95 0 1
19 2147 1 1 1 0 1 0 0 1063.0 9 142 3.22 0 1
20 2147 1 1 1 1 1 1 1 2640.0 4 59 1.99 0 1
21 2147 1 1 1 1 0 1 0 3219.0 1 10 3.15 0 1
22 2147 1 1 1 1 1 1 1 1325.0 7 106 7.66 1 1
23 2147 1 1 1 1 1 1 1 1510.0 29 464 1.93 0 1
24 2147 1 1 1 1 1 1 1 2942.0 3 36 2.98 0 1
25 2147 1 1 1 1 1 1 1 2364.0 29 451 1.86 0 1
26 2147 1 1 1 1 1 1 1 3167.0 15 240 2.57 0 1
27 2147 1 1 1 0 0 0 1 1285.0 13 206 3.41 0 1
28 2147 1 1 1 0 0 0 1 2233.0 29 456 1.5 0 1
29 2147 1 1 1 1 1 1 1 982.0 15 230 3.4 0 1
30 2147 1 1 1 1 1 1 1 2171.0 2 17 1.92 0 1
31 2147 1 1 1 1 1 1 1 1743.0 13 198 2.65 0 1
32 2147 1 1 1 0 0 0 1 1690.0 2 24 2.31 0 1
33 2147 1 1 1 1 1 1 1 4808.0 15 228 3.15 0 1
34 2147 1 1 1 0 0 0 1 4245.0 15 227 2.67 0 1
35 2147 1 1 1 1 1 1 1 836.0 22 347 6.7 1 1
36 2147 1 1 1 0 0 0 1 1219.0 30 471 2.73 0 1
37 2147 1 1 1 1 0 1 0 4015.0 13 205 3.26 0 1
38 2147 1 1 1 0 1 0 0 4052.0 29 459 1.82 0 1
39 2147 1 1 1 1 1 1 1 1473.0 10 158 2.59 0 1
40 2147 1 1 1 1 1 1 1 932.0 3 37 3.08 0 1
41 2147 1 1 1 0 1 0 0 5596.0 7 107 7.11 1 1
42 2147 1 1 1 0 0 0 1 4040.0 2 29 2.68 0 1
43 2147 1 1 1 1 0 1 0 2376.0 30 476 2.48 0 1
44 2147 1 1 1 1 1 1 1 1320.0 20 315 2.75 0 1
45 2147 1 1 1 0 1 0 0 889.0 9 129 3.25 0 1
46 2147 1 1 1 0 0 0 1 3233.0 20 318 2.58 0 1
47 2147 1 1 1 1 1 1 1 1176.0 27 420 7.61 1 1
48 2147 1 1 1 0 0 0 1 1243.0 17 269 2.8 0 1
49 2147 1 1 1 0 0 0 1 1320.0 2 26 2.76 0 1
50 2147 1 1 1 1 1 1 1 2550.0 17 259 2.5 0 1
51 2147 1 1 1 0 0 0 1 1916.0 13 202 3.09 0 1
52 2147 1 1 1 1 1 1 1 907.0 24 373 7.32 1 1
53 2147 1 1 1 1 1 1 1 721.0 28 433 7.18 1 1
54 2147 1 1 1 0 0 0 1 1008.0 24 382 6.86 1 1
55 2147 1 1 1 0 0 0 1 1277.0 23 365 6.57 1 1
56 2147 1 1 1 1 0 1 0 2691.0 1 8 1.95 0 1
57 2147 1 1 1 0 0 0 1 2162.0 10 154 2.88 0 1
58 2147 1 1 1 1 1 1 1 1578.0 13 197 2.97 0 1
59 2147 1 1 1 1 1 1 1 2241.0 18 277 2.23 0 1
60 2147 1 1 1 0 1 0 0 1250.0 3 47 3.05 0 1
61 2147 1 1 1 0 0 0 1 4823.0 29 452 1.8 0 1
62 2147 1 1 1 0 1 0 0 6473.0 25 391 1.73 0 1
63 2147 1 1 1 0 0 0 1 1138.0 10 149 3.02 0 1
64 2147 1 1 1 1 0 1 0 987.0 1 6 3.17 0 1
65 2147 1 1 1 0 1 0 0 1527.0 18 287 2.19 0 1
66 2147 1 1 1 0 0 0 1 1122.0 25 400 1.71 0 1
67 2147 1 1 1 0 0 0 1 1603.0 18 284 1.92 0 1
68 2147 1 1 1 0 1 0 0 811.0 15 226 3.2 0 1
69 2147 1 1 1 1 1 1 1 1686.0 18 285 2.27 0 1
70 2147 1 1 1 0 0 0 1 1570.0 6 86 8.01 1 1
71 2147 1 1 1 1 1 1 1 4751.0 4 56 3.02 0 1
72 2147 1 1 1 1 1 1 1 831.0 7 112 7.03 1 1
73 2147 1 1 1 1 1 1 1 2229.0 3 35 3.14 0 1
74 2147 1 1 1 1 0 1 0 954.0 17 266 2.6 0 1
75 2147 1 1 1 0 0 0 1 1079.0 10 152 1.38 0 1
76 2147 1 1 1 0 0 0 1 991.0 18 279 1.97 0 1
77 2147 1 1 1 1 1 1 1 960.0 30 472 2.55 0 1
78 2147 1 1 1 1 1 1 1 2216.0 20 319 2.13 0 1
79 2147 1 1 1 1 0 1 0 1484.0 2 25 1.89 0 1
80 2147 1 1 1 0 0 0 1 1748.0 25 385 1.43 0 1
81 2147 1 1 1 1 1 1 1 991.0 10 155 1.73 0 1
82 2147 1 1 1 0 1 0 0 1290.0 3 33 2.97 0 1
83 2147 1 1 1 1 1 1 1 1355.0 30 465 2.7 0 1
84 2147 1 1 1 1 0 1 0 1245.0 4 64 2.52 0 1
85 2147 1 1 1 0 0 0 1 1310.0 4 62 2.95 0 1
86 2147 1 1 1 1 1 1 1 885.0 29 463 2.0 0 1
87 2147 1 1 1 0 0 0 1 2555.0 4 60 2.6 0 1
88 2147 1 1 1 0 0 0 1 7206.0 1 4 3.18 0 1
89 2147 1 1 1 0 1 0 0 955.0 1 9 2.49 0 1
90 2147 1 1 1 0 0 0 1 908.0 28 445 7.58 1 1
91 2147 1 1 1 0 0 0 1 2346.0 28 447 7.79 1 1
92 2147 1 1 1 0 0 0 1 1251.0 20 308 2.2 0 1
93 2147 1 1 1 1 0 1 0 1969.0 2 18 1.84 0 1
94 2147 1 1 1 0 0 0 1 1046.0 1 3 3.17 0 1
95 2147 1 1 1 0 0 0 1 2514.0 3 42 2.84 0 1
96 2147 1 1 1 0 0 0 1 1846.0 13 207 3.11 0 1
97 2147 1 1 1 0 0 0 1 924.0 8 125 7.28 1 1
98 2147 1 1 1 1 1 1 1 1056.0 10 160 2.19 0 1
99 2147 1 1 1 0 0 0 1 2259.0 17 258 2.89 0 1
100 2147 1 1 1 0 0 0 1 1034.0 4 50 2.73 0 1
1 2036 1 1 1 1 1 1 1 5386.0 6 85 7.32 1 0
2 2036 1 1 1 0 1 0 0 715.0 25 385 1.43 0 0
3 2036 1 1 1 0 0 0 1 1482.0 17 261 2.14 0 0
4 2036 1 1 1 1 1 1 1 529.0 23 362 7.17 1 0
5 2036 1 1 1 1 0 1 0 512.0 3 37 3.08 0 0
6 2036 1 1 1 0 1 0 0 299.0 1 4 3.18 0 0
7 2036 1 1 1 0 1 0 0 618.0 6 86 8.01 1 0
8 2036 1 1 1 1 0 1 0 260.0 15 240 2.57 0 0
9 2036 1 1 1 1 1 1 1 462.0 25 398 1.43 0 0
10 2036 1 1 1 0 1 0 0 785.0 20 314 1.94 0 0
11 2036 1 1 1 0 0 0 1 562.0 7 99 7.24 1 0
12 2036 1 1 1 1 1 1 1 467.0 18 277 2.23 0 0
13 2036 1 1 1 1 1 1 1 610.0 29 464 1.93 0 0
14 2036 1 1 1 0 1 0 0 384.0 1 9 2.49 0 0
15 2036 1 1 1 1 0 1 0 737.0 2 17 1.92 0 0
16 2036 1 1 1 0 1 0 0 271.0 13 206 3.41 0 0
17 2036 1 1 1 1 1 1 1 549.0 2 18 1.84 0 0
18 2036 1 1 1 1 1 1 1 631.0 30 472 2.55 0 0
19 2036 1 1 1 1 1 1 1 755.0 18 285 2.27 0 0
20 2036 1 1 1 0 1 0 0 415.0 17 258 2.89 0 0
21 2036 1 1 1 1 0 1 0 416.0 30 465 2.7 0 0
22 2036 1 1 1 0 1 0 0 263.0 20 318 2.58 0 0
23 2036 1 1 1 1 0 1 0 465.0 7 112 7.03 1 0
24 2036 1 1 1 0 1 0 0 272.0 18 284 1.92 0 0
25 2036 1 1 1 0 1 0 0 408.0 30 471 2.73 0 0
26 2036 1 1 1 0 1 0 0 284.0 13 202 3.09 0 0
27 2036 1 1 1 1 0 1 0 474.0 20 307 1.87 0 0
28 2036 1 1 1 0 1 0 0 288.0 2 26 2.76 0 0
29 2036 1 1 1 1 1 1 1 2362.0 25 397 1.77 0 0
30 2036 1 1 1 0 1 0 0 620.0 3 47 3.05 0 0
31 2036 1 1 1 1 1 1 1 445.0 4 56 3.02 0 0
32 2036 1 1 1 0 1 0 0 513.0 2 29 2.68 0 0
33 2036 1 1 1 0 1 0 0 603.0 20 308 2.2 0 0
34 2036 1 1 1 0 0 0 1 256.0 10 154 2.88 0 0
35 2036 1 1 1 0 1 0 0 90.0 3 42 2.84 0 0
36 2036 1 1 1 0 0 0 1 93.0 18 279 1.97 0 0
37 2036 1 1 1 0 1 0 0 27.0 30 466 2.9 0 0
38 2036 1 1 1 1 0 1 0 597.0 25 396 1.85 0 0
39 2036 1 1 1 0 1 0 0 257.0 4 60 2.6 0 0
40 2036 1 1 1 0 1 0 0 252.0 10 149 3.02 0 0
41 2036 1 1 1 1 0 1 0 433.0 22 347 6.7 1 0
42 2036 1 1 1 1 1 1 1 497.0 17 263 2.59 0 0
43 2036 1 1 1 0 1 0 0 490.0 28 447 7.79 1 0
44 2036 1 1 1 1 0 1 0 685.0 4 59 1.99 0 0
45 2036 1 1 1 1 1 1 1 228.0 7 106 7.66 1 0
46 2036 1 1 1 0 1 0 0 241.0 1 3 3.17 0 0
47 2036 1 1 1 1 1 1 1 295.0 15 228 3.15 0 0
48 2036 1 1 1 1 1 1 1 353.0 20 315 2.75 0 0
49 2036 1 1 1 1 1 1 1 382.0 1 10 3.15 0 0
50 2036 1 1 1 1 1 1 1 268.0 9 139 1.74 0 0
51 2036 1 1 1 1 1 1 1 353.0 2 25 1.89 0 0
52 2036 1 1 1 0 1 0 0 330.0 30 467 1.95 0 0
53 2036 1 1 1 1 0 1 0 519.0 15 230 3.4 0 0
54 2036 1 1 1 0 1 0 0 283.0 13 207 3.11 0 0
55 2036 1 1 1 1 0 1 0 222.0 9 136 3.1 0 0
56 2036 1 1 1 1 1 1 1 136.0 9 140 2.97 0 0
57 2036 1 1 1 0 1 0 0 217.0 15 226 3.2 0 0
58 2036 1 1 1 0 1 0 0 240.0 9 141 3.12 0 0
59 2036 1 1 1 1 1 1 1 61.0 10 158 2.59 0 0
60 2036 1 1 1 1 1 1 1 2469.0 29 451 1.86 0 0
61 2036 1 1 1 1 1 1 1 23431.0 20 319 2.13 0 0
62 2036 1 1 1 1 1 1 1 140.0 10 155 1.73 0 0
63 2036 1 1 1 0 1 0 0 186.0 23 365 6.57 1 0
64 2036 1 1 1 0 1 0 0 509.0 3 33 2.97 0 0
65 2036 1 1 1 0 1 0 0 289.0 24 382 6.86 1 0
66 2036 1 1 1 1 0 1 0 989.0 17 266 2.6 0 0
67 2036 1 1 1 0 1 0 0 224.0 10 152 1.38 0 0
68 2036 1 1 1 0 0 0 1 319.0 7 107 7.11 1 0
69 2036 1 1 1 1 1 1 1 371.0 13 198 2.65 0 0
70 2036 1 1 1 0 1 0 0 369.0 15 238 3.31 0 0
71 2036 1 1 1 1 1 1 1 541.0 18 280 2.15 0 0
72 2036 1 1 1 1 1 1 1 934.0 13 197 2.97 0 0
73 2036 1 1 1 1 1 1 1 1107.0 17 259 2.5 0 0
74 2036 1 1 1 0 1 0 0 718.0 4 50 2.73 0 0
75 2036 1 1 1 0 1 0 0 8906.0 25 400 1.71 0 0
76 2036 1 1 1 1 0 1 0 1361.0 30 476 2.48 0 0
77 2036 1 1 1 0 1 0 0 229.0 9 129 3.25 0 0
78 2036 1 1 1 0 0 0 1 233.0 4 62 2.95 0 0
79 2036 1 1 1 1 0 1 0 509.0 10 160 2.19 0 0
80 2036 1 1 1 1 1 1 1 231.0 29 463 2.0 0 0
81 2036 1 1 1 1 1 1 1 352.0 27 420 7.61 1 0
82 2036 1 1 1 0 1 0 0 825.0 9 142 3.22 0 0
83 2036 1 1 1 0 1 0 0 1361.0 8 125 7.28 1 0
84 2036 1 1 1 1 1 1 1 361.0 28 433 7.18 1 0
85 2036 1 1 1 0 1 0 0 367.0 17 269 2.8 0 0
86 2036 1 1 1 0 0 0 1 309.0 25 391 1.73 0 0
87 2036 1 1 1 1 1 1 1 269.0 1 6 3.17 0 0
88 2036 1 1 1 0 0 0 1 281.0 15 227 2.67 0 0
89 2036 1 1 1 1 1 1 1 235.0 13 205 3.26 0 0
90 2036 1 1 1 0 1 0 0 414.0 18 287 2.19 0 0
91 2036 1 1 1 0 0 0 1 138.0 29 459 1.82 0 0
92 2036 1 1 1 0 0 0 1 593.0 28 445 7.58 1 0
93 2036 1 1 1 0 1 0 0 579.0 29 456 1.5 0 0
94 2036 1 1 1 0 0 0 1 145.0 29 452 1.8 0 0
95 2036 1 1 1 0 0 0 1 662.0 2 24 2.31 0 0
96 2036 1 1 1 1 1 1 1 4388.0 3 35 3.14 0 0
97 2036 1 1 1 1 1 1 1 226.0 3 36 2.98 0 0
98 2036 1 1 1 1 1 1 1 342.0 24 373 7.32 1 0
99 2036 1 1 1 1 1 1 1 319.0 4 64 2.52 0 0
100 2036 1 1 1 1 1 1 1 264.0 1 8 1.95 0 0
1 2130 2 1 1 1 0 1 0 2814.0 30 466 2.9 0 0
2 2130 2 1 1 0 1 0 0 1825.0 29 451 1.86 0 0
3 2130 2 1 1 0 0 0 1 2005.0 30 465 2.7 0 0
4 2130 2 1 1 1 0 1 0 1469.0 7 99 7.24 1 0
5 2130 2 1 1 1 0 1 0 1604.0 30 471 2.73 0 0
6 2130 2 1 1 1 0 1 0 1209.0 17 261 2.14 0 0
7 2130 2 1 1 0 1 0 0 1302.0 17 259 2.5 0 0
8 2130 2 1 1 0 1 0 0 2300.0 9 139 1.74 0 0
9 2130 2 1 1 1 0 1 0 1408.0 9 141 3.12 0 0
10 2130 2 1 1 1 1 1 1 2370.0 18 284 1.92 0 0
11 2130 2 1 1 0 1 0 0 1006.0 15 240 2.57 0 0
12 2130 2 1 1 0 1 0 0 1233.0 7 112 7.03 1 0
13 2130 2 1 1 0 1 0 0 1398.0 4 59 1.99 0 0
14 2130 2 1 1 1 1 1 1 962.0 8 125 7.28 1 0
15 2130 2 1 1 1 0 1 0 1198.0 23 365 6.57 1 0
16 2130 2 1 1 0 1 0 0 946.0 9 140 2.97 0 0
17 2130 2 1 1 1 1 1 1 1008.0 2 29 2.68 0 0
18 2130 2 1 1 1 0 1 0 1071.0 2 24 2.31 0 0
19 2130 2 1 1 1 1 1 1 972.0 15 227 2.67 0 0
20 2130 2 1 1 1 1 1 1 852.0 9 142 3.22 0 0
21 2130 2 1 1 0 1 0 0 881.0 10 155 1.73 0 0
22 2130 2 1 1 0 1 0 0 1066.0 28 433 7.18 1 0
23 2130 2 1 1 1 1 1 1 794.0 17 269 2.8 0 0
24 2130 2 1 1 0 1 0 0 769.0 30 472 2.55 0 0
25 2130 2 1 1 0 1 0 0 769.0 10 158 2.59 0 0
26 2130 2 1 1 0 1 0 0 1383.0 4 64 2.52 0 0
27 2130 2 1 1 0 1 0 0 954.0 25 398 1.43 0 0
28 2130 2 1 1 0 1 0 0 1148.0 30 476 2.48 0 0
29 2130 2 1 1 1 0 1 0 1161.0 13 207 3.11 0 0
30 2130 2 1 1 1 1 1 1 844.0 10 149 3.02 0 0
31 2130 2 1 1 0 1 0 0 908.0 2 25 1.89 0 0
32 2130 2 1 1 1 1 1 1 981.0 20 314 1.94 0 0
33 2130 2 1 1 1 1 1 1 1146.0 25 385 1.43 0 0
34 2130 2 1 1 0 0 0 1 1047.0 3 36 2.98 0 0
35 2130 2 1 1 1 0 1 0 1274.0 30 467 1.95 0 0
36 2130 2 1 1 1 1 1 1 1132.0 3 47 3.05 0 0
37 2130 2 1 1 1 1 1 1 773.0 10 152 1.38 0 0
38 2130 2 1 1 0 0 0 1 965.0 29 464 1.93 0 0
39 2130 2 1 1 1 0 1 0 1130.0 20 318 2.58 0 0
40 2130 2 1 1 1 1 1 1 803.0 15 226 3.2 0 0
41 2130 2 1 1 1 1 1 1 715.0 1 9 2.49 0 0
42 2130 2 1 1 0 1 0 0 734.0 13 197 2.97 0 0
43 2130 2 1 1 1 0 1 0 1459.0 7 107 7.11 1 0
44 2130 2 1 1 0 1 0 0 1131.0 17 263 2.59 0 0
45 2130 2 1 1 0 1 0 0 899.0 2 18 1.84 0 0
46 2130 2 1 1 1 1 1 1 900.0 2 26 2.76 0 0
47 2130 2 1 1 0 1 0 0 956.0 25 396 1.85 0 0
48 2130 2 1 1 0 0 0 1 1112.0 1 10 3.15 0 0
49 2130 2 1 1 1 1 1 1 1897.0 3 42 2.84 0 0
50 2130 2 1 1 1 0 1 0 1519.0 28 447 7.79 1 0
51 2130 2 1 1 1 1 1 1 849.0 4 50 2.73 0 0
52 2130 2 1 1 0 1 0 0 896.0 3 35 3.14 0 0
53 2130 2 1 1 0 0 0 1 1386.0 22 347 6.7 1 0
54 2130 2 1 1 0 0 0 1 1074.0 6 85 7.32 1 0
55 2130 2 1 1 1 1 1 1 952.0 18 279 1.97 0 0
56 2130 2 1 1 0 1 0 0 872.0 15 230 3.4 0 0
57 2130 2 1 1 0 0 0 1 1045.0 24 373 7.32 1 0
58 2130 2 1 1 1 1 1 1 865.0 1 4 3.18 0 0
59 2130 2 1 1 1 1 1 1 800.0 15 238 3.31 0 0
60 2130 2 1 1 0 1 0 0 992.0 20 315 2.75 0 0
61 2130 2 1 1 0 1 0 0 658.0 2 17 1.92 0 0
62 2130 2 1 1 0 1 0 0 771.0 1 8 1.95 0 0
63 2130 2 1 1 1 1 1 1 682.0 17 258 2.89 0 0
64 2130 2 1 1 0 1 0 0 756.0 18 285 2.27 0 0
65 2130 2 1 1 1 1 1 1 777.0 9 129 3.25 0 0
66 2130 2 1 1 1 0 1 0 1150.0 28 445 7.58 1 0
67 2130 2 1 1 0 1 0 0 822.0 25 397 1.77 0 0
68 2130 2 1 1 0 0 0 1 1115.0 7 106 7.66 1 0
69 2130 2 1 1 0 0 0 1 1054.0 29 463 2.0 0 0
70 2130 2 1 1 1 1 1 1 1265.0 18 287 2.19 0 0
71 2130 2 1 1 0 0 0 1 1364.0 15 228 3.15 0 0
72 2130 2 1 1 1 1 1 1 855.0 3 33 2.97 0 0
73 2130 2 1 1 0 0 0 1 1919.0 27 420 7.61 1 0
74 2130 2 1 1 1 0 1 0 872.0 24 382 6.86 1 0
75 2130 2 1 1 0 0 0 1 1160.0 10 160 2.19 0 0
76 2130 2 1 1 1 1 1 1 1419.0 20 308 2.2 0 0
77 2130 2 1 1 0 0 0 1 1248.0 1 6 3.17 0 0
78 2130 2 1 1 0 1 0 0 850.0 18 277 2.23 0 0
79 2130 2 1 1 1 1 1 1 1038.0 1 3 3.17 0 0
80 2130 2 1 1 0 1 0 0 774.0 18 280 2.15 0 0
81 2130 2 1 1 1 0 1 0 1072.0 13 202 3.09 0 0
82 2130 2 1 1 1 0 1 0 1469.0 10 154 2.88 0 0
83 2130 2 1 1 1 1 1 1 1128.0 4 60 2.6 0 0
84 2130 2 1 1 0 0 0 1 910.0 20 307 1.87 0 0
85 2130 2 1 1 0 0 0 1 1721.0 13 198 2.65 0 0
86 2130 2 1 1 0 0 0 1 1208.0 9 136 3.1 0 0
87 2130 2 1 1 0 1 0 0 775.0 17 266 2.6 0 0
88 2130 2 1 1 0 1 0 0 1335.0 4 56 3.02 0 0
89 2130 2 1 1 0 1 0 0 929.0 13 205 3.26 0 0
90 2130 2 1 1 1 0 1 0 958.0 25 400 1.71 0 0
91 2130 2 1 1 0 1 0 0 812.0 20 319 2.13 0 0
92 2130 2 1 1 0 1 0 0 555.0 23 362 7.17 1 0
93 2130 2 1 1 1 1 1 1 465.0 13 206 3.41 0 0
94 2130 2 1 1 1 1 1 1 1436.0 29 456 1.5 0 0
95 2130 2 1 1 1 0 1 0 1084.0 29 452 1.8 0 0
96 2130 2 1 1 0 0 0 1 832.0 3 37 3.08 0 0
97 2130 2 1 1 1 0 1 0 1036.0 6 86 8.01 1 0
98 2130 2 1 1 1 1 1 1 663.0 25 391 1.73 0 0
99 2130 2 1 1 1 0 1 0 934.0 4 62 2.95 0 0
100 2130 2 1 1 1 0 1 0 1029.0 29 459 1.82 0 0
1 2160 2 1 1 0 0 0 1 2336.0 23 362 7.17 1 1
2 2160 2 1 1 0 0 0 1 1674.0 29 464 1.93 0 1
3 2160 2 1 1 0 0 0 1 2201.0 17 259 2.5 0 1
4 2160 2 1 1 0 0 0 1 1138.0 3 35 3.14 0 1
5 2160 2 1 1 0 0 0 1 581.0 2 18 1.84 0 1
6 2160 2 1 1 0 0 0 1 462.0 4 64 2.52 0 1
7 2160 2 1 1 1 0 1 0 385.0 30 471 2.73 0 1
8 2160 2 1 1 0 1 0 0 755.0 9 140 2.97 0 1
9 2160 2 1 1 1 0 1 0 292.0 17 261 2.14 0 1
10 2160 2 1 1 1 1 1 1 257.0 6 86 8.01 1 1
11 2160 2 1 1 0 1 0 0 405.0 25 396 1.85 0 1
12 2160 2 1 1 0 0 0 1 211.0 7 106 7.66 1 1
13 2160 2 1 1 1 1 1 1 452.0 3 47 3.05 0 1
14 2160 2 1 1 0 1 0 0 218.0 30 476 2.48 0 1
15 2160 2 1 1 0 0 0 1 216.0 2 25 1.89 0 1
16 2160 2 1 1 0 0 0 1 278.0 3 36 2.98 0 1
17 2160 2 1 1 0 0 0 1 1220.0 1 6 3.17 0 1
18 2160 2 1 1 1 0 1 0 250.0 7 107 7.11 1 1
19 2160 2 1 1 0 1 0 0 50.0 28 433 7.18 1 1
20 2160 2 1 1 0 0 0 1 181.0 22 347 6.7 1 1
21 2160 2 1 1 0 0 0 1 198.0 20 319 2.13 0 1
22 2160 2 1 1 0 0 0 1 224.0 20 307 1.87 0 1
23 2160 2 1 1 0 0 0 1 206.0 29 463 2.0 0 1
24 2160 2 1 1 1 0 1 0 176.0 4 50 2.73 0 1
25 2160 2 1 1 1 1 1 1 178.0 24 382 6.86 1 1
26 2160 2 1 1 1 0 1 0 206.0 28 447 7.79 1 1
27 2160 2 1 1 1 1 1 1 59.0 28 445 7.58 1 1
28 2160 2 1 1 1 1 1 1 191.0 3 42 2.84 0 1
29 2160 2 1 1 1 1 1 1 126.0 20 314 1.94 0 1
30 2160 2 1 1 1 1 1 1 120.0 4 62 2.95 0 1
31 2160 2 1 1 1 1 1 1 69.0 17 258 2.89 0 1
32 2160 2 1 1 1 1 1 1 51.0 17 269 2.8 0 1
33 2160 2 1 1 1 1 1 1 83.0 13 207 3.11 0 1
34 2160 2 1 1 1 1 1 1 363.0 9 141 3.12 0 1
35 2160 2 1 1 1 1 1 1 93.0 15 227 2.67 0 1
36 2160 2 1 1 1 1 1 1 148.0 23 365 6.57 1 1
37 2160 2 1 1 1 1 1 1 83.0 29 456 1.5 0 1
38 2160 2 1 1 1 1 1 1 265.0 13 206 3.41 0 1
39 2160 2 1 1 0 1 0 0 114.0 25 398 1.43 0 1
40 2160 2 1 1 1 0 1 0 406.0 13 202 3.09 0 1
41 2160 2 1 1 0 1 0 0 200.0 9 139 1.74 0 1
42 2160 2 1 1 1 0 1 0 130.0 25 391 1.73 0 1
43 2160 2 1 1 0 1 0 0 593.0 13 205 3.26 0 1
44 2160 2 1 1 0 0 0 1 877.0 15 240 2.57 0 1
45 2160 2 1 1 0 0 0 1 216.0 4 59 1.99 0 1
46 2160 2 1 1 0 0 0 1 201.0 15 228 3.15 0 1
47 2160 2 1 1 1 0 1 0 10277.0 20 308 2.2 0 1
48 2160 2 1 1 0 1 0 0 242.0 18 277 2.23 0 1
49 2160 2 1 1 0 0 0 1 318.0 27 420 7.61 1 1
50 2160 2 1 1 1 0 1 0 221.0 30 467 1.95 0 1
51 2160 2 1 1 0 1 0 0 242.0 18 285 2.27 0 1
52 2160 2 1 1 1 0 1 0 237.0 18 279 1.97 0 1
53 2160 2 1 1 1 1 1 1 229.0 10 154 2.88 0 1
54 2160 2 1 1 0 1 0 0 741.0 25 397 1.77 0 1
55 2160 2 1 1 1 0 1 0 230.0 10 152 1.38 0 1
56 2160 2 1 1 1 1 1 1 198.0 29 459 1.82 0 1
57 2160 2 1 1 0 1 0 0 220.0 17 263 2.59 0 1
58 2160 2 1 1 0 0 0 1 194.0 10 158 2.59 0 1
59 2160 2 1 1 0 0 0 1 944.0 13 198 2.65 0 1
60 2160 2 1 1 0 0 0 1 732.0 1 10 3.15 0 1
61 2160 2 1 1 0 0 0 1 446.0 18 280 2.15 0 1
62 2160 2 1 1 1 0 1 0 570.0 25 400 1.71 0 1
63 2160 2 1 1 0 0 0 1 713.0 10 155 1.73 0 1
64 2160 2 1 1 1 1 1 1 576.0 18 284 1.92 0 1
65 2160 2 1 1 1 1 1 1 676.0 9 129 3.25 0 1
66 2160 2 1 1 0 0 0 1 714.0 17 266 2.6 0 1
67 2160 2 1 1 1 1 1 1 599.0 9 142 3.22 0 1
68 2160 2 1 1 0 0 0 1 686.0 30 465 2.7 0 1
69 2160 2 1 1 1 0 1 0 616.0 2 26 2.76 0 1
70 2160 2 1 1 0 1 0 0 517.0 29 451 1.86 0 1
71 2160 2 1 1 1 0 1 0 693.0 4 60 2.6 0 1
72 2160 2 1 1 1 1 1 1 841.0 29 452 1.8 0 1
73 2160 2 1 1 1 1 1 1 1081.0 18 287 2.19 0 1
74 2160 2 1 1 1 1 1 1 751.0 1 9 2.49 0 1
75 2160 2 1 1 1 1 1 1 711.0 30 466 2.9 0 1
76 2160 2 1 1 0 0 0 1 712.0 24 373 7.32 1 1
77 2160 2 1 1 0 0 0 1 863.0 3 37 3.08 0 1
78 2160 2 1 1 0 0 0 1 625.0 9 136 3.1 0 1
79 2160 2 1 1 0 0 0 1 585.0 7 112 7.03 1 1
80 2160 2 1 1 1 1 1 1 679.0 3 33 2.97 0 1
81 2160 2 1 1 0 1 0 0 734.0 4 56 3.02 0 1
82 2160 2 1 1 0 0 0 1 589.0 30 472 2.55 0 1
83 2160 2 1 1 1 1 1 1 692.0 2 24 2.31 0 1
84 2160 2 1 1 0 1 0 0 627.0 2 17 1.92 0 1
85 2160 2 1 1 0 0 0 1 282.0 1 8 1.95 0 1
86 2160 2 1 1 1 1 1 1 514.0 2 29 2.68 0 1
87 2160 2 1 1 0 0 0 1 333.0 13 197 2.97 0 1
88 2160 2 1 1 1 1 1 1 283.0 15 226 3.2 0 1
89 2160 2 1 1 0 1 0 0 552.0 20 315 2.75 0 1
90 2160 2 1 1 1 0 1 0 253.0 10 149 3.02 0 1
91 2160 2 1 1 1 1 1 1 217.0 7 99 7.24 1 1
92 2160 2 1 1 0 1 0 0 442.0 10 160 2.19 0 1
93 2160 2 1 1 1 0 1 0 195.0 1 4 3.18 0 1
94 2160 2 1 1 1 1 1 1 122.0 1 3 3.17 0 1
95 2160 2 1 1 1 1 1 1 513.0 20 318 2.58 0 1
96 2160 2 1 1 0 1 0 0 531.0 15 230 3.4 0 1
97 2160 2 1 1 0 0 0 1 295.0 6 85 7.32 1 1
98 2160 2 1 1 1 1 1 1 220.0 25 385 1.43 0 1
99 2160 2 1 1 1 1 1 1 327.0 8 125 7.28 1 1
100 2160 2 1 1 1 1 1 1 483.0 15 238 3.31 0 1
1 2020 1 1 1 1 1 1 1 2599.0 29 464 1.93 0 1
2 2020 1 1 1 1 1 1 1 1611.0 29 451 1.86 0 1
3 2020 1 1 1 1 1 1 1 946.0 1 10 3.15 0 1
4 2020 1 1 1 1 1 1 1 917.0 20 319 2.13 0 1
5 2020 1 1 1 1 1 1 1 816.0 23 362 7.17 1 1
6 2020 1 1 1 1 1 1 1 1042.0 30 476 2.48 0 1
7 2020 1 1 1 1 1 1 1 1008.0 18 285 2.27 0 1
8 2020 1 1 1 0 1 0 0 930.0 18 279 1.97 0 1
9 2020 1 1 1 1 1 1 1 1468.0 27 420 7.61 1 1
10 2020 1 1 1 1 1 1 1 1140.0 13 198 2.65 0 1
11 2020 1 1 1 1 1 1 1 876.0 29 463 2.0 0 1
12 2020 1 1 1 0 1 0 0 983.0 3 42 2.84 0 1
13 2020 1 1 1 1 1 1 1 4165.0 28 433 7.18 1 1
14 2020 1 1 1 1 1 1 1 1432.0 1 6 3.17 0 1
15 2020 1 1 1 1 1 1 1 954.0 7 106 7.66 1 1
16 2020 1 1 1 1 0 1 0 2913.0 9 136 3.1 0 1
17 2020 1 1 1 0 1 0 0 1361.0 9 141 3.12 0 1
18 2020 1 1 1 0 1 0 0 769.0 9 129 3.25 0 1
19 2020 1 1 1 0 1 0 0 859.0 7 99 7.24 1 1
20 2020 1 1 1 1 1 1 1 12304.0 3 37 3.08 0 1
21 2020 1 1 1 0 0 0 1 1857.0 2 24 2.31 0 1
22 2020 1 1 1 1 1 1 1 1315.0 15 230 3.4 0 1
23 2020 1 1 1 1 1 1 1 801.0 2 17 1.92 0 1
24 2020 1 1 1 1 1 1 1 1128.0 4 64 2.52 0 1
25 2020 1 1 1 1 1 1 1 934.0 25 396 1.85 0 1
26 2020 1 1 1 0 1 0 0 929.0 3 33 2.97 0 1
27 2020 1 1 1 0 1 0 0 878.0 2 29 2.68 0 1
28 2020 1 1 1 0 1 0 0 600.0 10 149 3.02 0 1
29 2020 1 1 1 0 1 0 0 2009.0 10 152 1.38 0 1
30 2020 1 1 1 0 1 0 0 4163.0 20 308 2.2 0 1
31 2020 1 1 1 1 0 1 0 1376.0 17 259 2.5 0 1
32 2020 1 1 1 1 1 1 1 900.0 18 280 2.15 0 1
33 2020 1 1 1 0 1 0 0 838.0 15 226 3.2 0 1
34 2020 1 1 1 1 1 1 1 724.0 6 85 7.32 1 1
35 2020 1 1 1 0 0 0 1 807.0 13 206 3.41 0 1
36 2020 1 1 1 0 0 0 1 837.0 17 258 2.89 0 1
37 2020 1 1 1 0 0 0 1 785.0 13 202 3.09 0 1
38 2020 1 1 1 0 0 0 1 838.0 4 50 2.73 0 1
39 2020 1 1 1 1 0 1 0 2111.0 17 266 2.6 0 1
40 2020 1 1 1 1 1 1 1 665.0 25 397 1.77 0 1
41 2020 1 1 1 0 0 0 1 874.0 28 445 7.58 1 1
42 2020 1 1 1 0 0 0 1 1069.0 30 471 2.73 0 1
43 2020 1 1 1 0 1 0 0 1027.0 20 314 1.94 0 1
44 2020 1 1 1 1 0 1 0 910.0 25 398 1.43 0 1
45 2020 1 1 1 1 1 1 1 1231.0 7 112 7.03 1 1
46 2020 1 1 1 0 0 0 1 935.0 15 238 3.31 0 1
47 2020 1 1 1 0 0 0 1 815.0 8 125 7.28 1 1
48 2020 1 1 1 0 0 0 1 781.0 6 86 8.01 1 1
49 2020 1 1 1 1 1 1 1 912.0 20 315 2.75 0 1
50 2020 1 1 1 1 1 1 1 826.0 4 56 3.02 0 1
51 2020 1 1 1 0 1 0 0 1190.0 15 227 2.67 0 1
52 2020 1 1 1 1 1 1 1 911.0 13 205 3.26 0 1
53 2020 1 1 1 1 0 1 0 724.0 22 347 6.7 1 1
54 2020 1 1 1 0 1 0 0 629.0 23 365 6.57 1 1
55 2020 1 1 1 0 1 0 0 765.0 7 107 7.11 1 1
56 2020 1 1 1 1 1 1 1 1046.0 10 155 1.73 0 1
57 2020 1 1 1 1 1 1 1 768.0 20 307 1.87 0 1
58 2020 1 1 1 0 0 0 1 880.0 28 447 7.79 1 1
59 2020 1 1 1 0 0 0 1 1003.0 30 466 2.9 0 1
60 2020 1 1 1 1 0 1 0 1335.0 1 8 1.95 0 1
61 2020 1 1 1 0 0 0 1 743.0 2 26 2.76 0 1
62 2020 1 1 1 0 0 0 1 1011.0 10 154 2.88 0 1
63 2020 1 1 1 0 1 0 0 768.0 9 142 3.22 0 1
64 2020 1 1 1 0 0 0 1 1191.0 17 261 2.14 0 1
65 2020 1 1 1 0 0 0 1 870.0 1 9 2.49 0 1
66 2020 1 1 1 0 1 0 0 1560.0 24 382 6.86 1 1
67 2020 1 1 1 1 1 1 1 975.0 30 465 2.7 0 1
68 2020 1 1 1 0 0 0 1 1082.0 29 452 1.8 0 1
69 2020 1 1 1 0 1 0 0 879.0 13 207 3.11 0 1
70 2020 1 1 1 1 0 1 0 734.0 4 59 1.99 0 1
71 2020 1 1 1 1 1 1 1 1060.0 10 160 2.19 0 1
72 2020 1 1 1 1 0 1 0 804.0 30 472 2.55 0 1
73 2020 1 1 1 1 1 1 1 595.0 13 197 2.97 0 1
74 2020 1 1 1 1 1 1 1 581.0 9 139 1.74 0 1
75 2020 1 1 1 0 0 0 1 826.0 25 400 1.71 0 1
76 2020 1 1 1 0 0 0 1 921.0 18 284 1.92 0 1
77 2020 1 1 1 1 1 1 1 899.0 2 18 1.84 0 1
78 2020 1 1 1 1 1 1 1 979.0 24 373 7.32 1 1
79 2020 1 1 1 0 0 0 1 1037.0 25 385 1.43 0 1
80 2020 1 1 1 1 0 1 0 740.0 2 25 1.89 0 1
81 2020 1 1 1 1 1 1 1 692.0 3 35 3.14 0 1
82 2020 1 1 1 1 1 1 1 763.0 15 228 3.15 0 1
83 2020 1 1 1 0 1 0 0 731.0 29 456 1.5 0 1
84 2020 1 1 1 0 1 0 0 768.0 20 318 2.58 0 1
85 2020 1 1 1 0 0 0 1 634.0 30 467 1.95 0 1
86 2020 1 1 1 0 0 0 1 839.0 29 459 1.82 0 1
87 2020 1 1 1 0 0 0 1 953.0 1 4 3.18 0 1
88 2020 1 1 1 0 0 0 1 709.0 25 391 1.73 0 1
89 2020 1 1 1 1 1 1 1 835.0 17 263 2.59 0 1
90 2020 1 1 1 0 0 0 1 742.0 1 3 3.17 0 1
91 2020 1 1 1 0 0 0 1 777.0 18 287 2.19 0 1
92 2020 1 1 1 1 0 1 0 807.0 10 158 2.59 0 1
93 2020 1 1 1 1 1 1 1 538.0 18 277 2.23 0 1
94 2020 1 1 1 1 1 1 1 832.0 9 140 2.97 0 1
95 2020 1 1 1 1 0 1 0 792.0 3 36 2.98 0 1
96 2020 1 1 1 0 1 0 0 526.0 4 62 2.95 0 1
97 2020 1 1 1 0 1 0 0 491.0 4 60 2.6 0 1
98 2020 1 1 1 0 1 0 0 505.0 3 47 3.05 0 1
99 2020 1 1 1 1 1 1 1 575.0 15 240 2.57 0 1
100 2020 1 1 1 0 0 0 1 671.0 17 269 2.8 0 1
1 2022 2 1 1 1 1 1 1 2593.0 2 26 2.76 0 0
2 2022 2 1 1 0 1 0 0 1303.0 30 472 2.55 0 0
3 2022 2 1 1 1 1 1 1 845.0 3 42 2.84 0 0
4 2022 2 1 1 0 1 0 0 939.0 25 396 1.85 0 0
5 2022 2 1 1 0 0 0 1 932.0 23 362 7.17 1 0
6 2022 2 1 1 1 0 1 0 764.0 10 149 3.02 0 0
7 2022 2 1 1 0 0 0 1 793.0 15 228 3.15 0 0
8 2022 2 1 1 1 1 1 1 629.0 9 141 3.12 0 0
9 2022 2 1 1 0 1 0 0 669.0 4 64 2.52 0 0
10 2022 2 1 1 1 0 1 0 898.0 23 365 6.57 1 0
11 2022 2 1 1 0 1 0 0 1151.0 13 197 2.97 0 0
12 2022 2 1 1 1 1 1 1 2773.0 29 459 1.82 0 0
13 2022 2 1 1 1 1 1 1 1281.0 2 29 2.68 0 0
14 2022 2 1 1 0 1 0 0 880.0 3 37 3.08 0 0
15 2022 2 1 1 1 1 1 1 758.0 18 279 1.97 0 0
16 2022 2 1 1 0 0 0 1 673.0 2 17 1.92 0 0
17 2022 2 1 1 1 0 1 0 1416.0 15 238 3.31 0 0
18 2022 2 1 1 1 1 1 1 592.0 4 62 2.95 0 0
19 2022 2 1 1 1 1 1 1 2207.0 10 152 1.38 0 0
20 2022 2 1 1 1 1 1 1 540.0 30 471 2.73 0 0
21 2022 2 1 1 0 1 0 0 1180.0 13 198 2.65 0 0
22 2022 2 1 1 0 1 0 0 773.0 18 280 2.15 0 0
23 2022 2 1 1 1 0 1 0 622.0 20 314 1.94 0 0
24 2022 2 1 1 0 1 0 0 510.0 10 160 2.19 0 0
25 2022 2 1 1 0 1 0 0 499.0 20 307 1.87 0 0
26 2022 2 1 1 0 0 0 1 669.0 20 315 2.75 0 0
27 2022 2 1 1 1 1 1 1 1592.0 2 24 2.31 0 0
28 2022 2 1 1 1 1 1 1 765.0 13 206 3.41 0 0
29 2022 2 1 1 0 1 0 0 738.0 17 263 2.59 0 0
30 2022 2 1 1 0 1 0 0 948.0 20 319 2.13 0 0
31 2022 2 1 1 0 0 0 1 668.0 6 85 7.32 1 0
32 2022 2 1 1 1 0 1 0 931.0 28 447 7.79 1 0
33 2022 2 1 1 1 1 1 1 994.0 3 33 2.97 0 0
34 2022 2 1 1 0 1 0 0 1647.0 10 158 2.59 0 0
35 2022 2 1 1 0 1 0 0 1541.0 15 240 2.57 0 0
36 2022 2 1 1 1 0 1 0 940.0 17 258 2.89 0 0
37 2022 2 1 1 1 1 1 1 535.0 9 142 3.22 0 0
38 2022 2 1 1 1 1 1 1 907.0 7 107 7.11 1 0
39 2022 2 1 1 1 1 1 1 943.0 1 3 3.17 0 0
40 2022 2 1 1 1 0 1 0 1031.0 8 125 7.28 1 0
41 2022 2 1 1 0 1 0 0 462.0 18 277 2.23 0 0
42 2022 2 1 1 1 0 1 0 381.0 1 4 3.18 0 0
43 2022 2 1 1 1 1 1 1 315.0 20 308 2.2 0 0
44 2022 2 1 1 1 0 1 0 554.0 7 99 7.24 1 0
45 2022 2 1 1 1 1 1 1 3092.0 24 382 6.86 1 0
46 2022 2 1 1 0 1 0 0 924.0 24 373 7.32 1 0
47 2022 2 1 1 1 1 1 1 118644.0 15 227 2.67 0 0
48 2022 2 1 1 0 0 0 1 2334.0 29 463 2.0 0 0
49 2022 2 1 1 1 0 1 0 582.0 29 452 1.8 0 0
50 2022 2 1 1 0 1 0 0 541.0 29 464 1.93 0 0
51 2022 2 1 1 0 1 0 0 1655.0 27 420 7.61 1 0
52 2022 2 1 1 1 1 1 1 811.0 10 154 2.88 0 0
53 2022 2 1 1 0 1 0 0 549.0 4 56 3.02 0 0
54 2022 2 1 1 0 1 0 0 685.0 2 18 1.84 0 0
55 2022 2 1 1 1 1 1 1 1292.0 28 445 7.58 1 0
56 2022 2 1 1 0 0 0 1 1682.0 30 465 2.7 0 0
57 2022 2 1 1 0 1 0 0 1535.0 1 8 1.95 0 0
58 2022 2 1 1 0 1 0 0 2653.0 18 285 2.27 0 0
59 2022 2 1 1 0 1 0 0 397.0 9 139 1.74 0 0
60 2022 2 1 1 0 0 0 1 348.0 28 433 7.18 1 0
61 2022 2 1 1 0 0 0 1 587.0 25 398 1.43 0 0
62 2022 2 1 1 0 0 0 1 626.0 1 10 3.15 0 0
63 2022 2 1 1 1 1 1 1 2868.0 25 385 1.43 0 0
64 2022 2 1 1 0 0 0 1 1539.0 9 136 3.1 0 0
65 2022 2 1 1 1 0 1 0 1920.0 9 129 3.25 0 0
66 2022 2 1 1 0 1 0 0 658.0 4 59 1.99 0 0
67 2022 2 1 1 0 1 0 0 749.0 2 25 1.89 0 0
68 2022 2 1 1 0 1 0 0 789.0 25 397 1.77 0 0
69 2022 2 1 1 1 0 1 0 2724.0 20 318 2.58 0 0
70 2022 2 1 1 1 1 1 1 1481.0 17 261 2.14 0 0
71 2022 2 1 1 0 1 0 0 1583.0 17 266 2.6 0 0
72 2022 2 1 1 0 0 0 1 407.0 13 205 3.26 0 0
73 2022 2 1 1 1 0 1 0 1031.0 4 50 2.73 0 0
74 2022 2 1 1 0 1 0 0 692.0 30 476 2.48 0 0
75 2022 2 1 1 1 0 1 0 336.0 13 207 3.11 0 0
76 2022 2 1 1 1 1 1 1 289.0 17 269 2.8 0 0
77 2022 2 1 1 0 1 0 0 292.0 7 106 7.66 1 0
78 2022 2 1 1 1 1 1 1 1989.0 29 456 1.5 0 0
79 2022 2 1 1 0 1 0 0 1306.0 3 35 3.14 0 0
80 2022 2 1 1 0 0 0 1 471.0 7 112 7.03 1 0
81 2022 2 1 1 1 0 1 0 2360.0 1 9 2.49 0 0
82 2022 2 1 1 1 1 1 1 838.0 18 287 2.19 0 0
83 2022 2 1 1 1 1 1 1 761.0 30 466 2.9 0 0
84 2022 2 1 1 0 1 0 0 771.0 9 140 2.97 0 0
85 2022 2 1 1 0 1 0 0 1188.0 15 230 3.4 0 0
86 2022 2 1 1 0 0 0 1 329.0 29 451 1.86 0 0
87 2022 2 1 1 1 0 1 0 988.0 3 47 3.05 0 0
88 2022 2 1 1 0 1 0 0 317.0 1 6 3.17 0 0
89 2022 2 1 1 1 1 1 1 246.0 25 400 1.71 0 0
90 2022 2 1 1 0 1 0 0 269.0 3 36 2.98 0 0
91 2022 2 1 1 1 0 1 0 260.0 25 391 1.73 0 0
92 2022 2 1 1 1 1 1 1 452.0 30 467 1.95 0 0
93 2022 2 1 1 0 1 0 0 1182.0 10 155 1.73 0 0
94 2022 2 1 1 1 0 1 0 303.0 6 86 8.01 1 0
95 2022 2 1 1 0 0 0 1 413.0 22 347 6.7 1 0
96 2022 2 1 1 0 0 0 1 650.0 17 259 2.5 0 0
97 2022 2 1 1 1 0 1 0 489.0 4 60 2.6 0 0
98 2022 2 1 1 1 1 1 1 423.0 15 226 3.2 0 0
99 2022 2 1 1 1 0 1 0 760.0 13 202 3.09 0 0
100 2022 2 1 1 1 1 1 1 614.0 18 284 1.92 0 0
1 2199 1 1 1 0 0 0 1 5295.0 25 385 1.43 0 1
2 2199 1 1 1 0 0 0 1 1601.0 25 400 1.71 0 1
3 2199 1 1 1 1 1 1 1 934.0 17 266 2.6 0 1
4 2199 1 1 1 0 1 0 0 885.0 17 261 2.14 0 1
5 2199 1 1 1 1 0 1 0 1899.0 30 465 2.7 0 1
6 2199 1 1 1 1 0 1 0 1567.0 10 155 1.73 0 1
7 2199 1 1 1 0 1 0 0 845.0 13 206 3.41 0 1
8 2199 1 1 1 1 1 1 1 1067.0 15 230 3.4 0 1
9 2199 1 1 1 1 1 1 1 1427.0 4 64 2.52 0 1
10 2199 1 1 1 1 1 1 1 732.0 3 36 2.98 0 1
11 2199 1 1 1 0 0 0 1 1663.0 20 318 2.58 0 1
12 2199 1 1 1 0 0 0 1 1092.0 4 60 2.6 0 1
13 2199 1 1 1 1 1 1 1 662.0 22 347 6.7 1 1
14 2199 1 1 1 0 0 0 1 1177.0 1 9 2.49 0 1
15 2199 1 1 1 1 1 1 1 683.0 3 35 3.14 0 1
16 2199 1 1 1 0 0 0 1 839.0 28 447 7.79 1 1
17 2199 1 1 1 1 1 1 1 778.0 18 280 2.15 0 1
18 2199 1 1 1 1 1 1 1 908.0 18 277 2.23 0 1
19 2199 1 1 1 0 1 0 0 1048.0 9 129 3.25 0 1
20 2199 1 1 1 1 1 1 1 789.0 1 6 3.17 0 1
21 2199 1 1 1 0 0 0 1 704.0 15 238 3.31 0 1
22 2199 1 1 1 0 0 0 1 833.0 3 42 2.84 0 1
23 2199 1 1 1 0 0 0 1 795.0 10 152 1.38 0 1
24 2199 1 1 1 1 1 1 1 655.0 6 85 7.32 1 1
25 2199 1 1 1 0 0 0 1 1023.0 15 226 3.2 0 1
26 2199 1 1 1 1 1 1 1 1101.0 29 451 1.86 0 1
27 2199 1 1 1 1 1 1 1 949.0 1 8 1.95 0 1
28 2199 1 1 1 1 1 1 1 891.0 2 18 1.84 0 1
29 2199 1 1 1 0 0 0 1 1008.0 29 459 1.82 0 1
30 2199 1 1 1 1 1 1 1 824.0 13 205 3.26 0 1
31 2199 1 1 1 0 0 0 1 688.0 28 445 7.58 1 1
32 2199 1 1 1 0 0 0 1 870.0 25 391 1.73 0 1
33 2199 1 1 1 0 0 0 1 737.0 29 452 1.8 0 1
34 2199 1 1 1 1 1 1 1 694.0 3 37 3.08 0 1
35 2199 1 1 1 1 1 1 1 651.0 7 106 7.66 1 1
36 2199 1 1 1 1 0 1 0 887.0 9 139 1.74 0 1
37 2199 1 1 1 0 0 0 1 1060.0 17 269 2.8 0 1
38 2199 1 1 1 0 0 0 1 767.0 29 456 1.5 0 1
39 2199 1 1 1 0 1 0 0 957.0 20 314 1.94 0 1
40 2199 1 1 1 0 0 0 1 817.0 2 24 2.31 0 1
41 2199 1 1 1 0 0 0 1 621.0 30 471 2.73 0 1
42 2199 1 1 1 1 1 1 1 733.0 29 464 1.93 0 1
43 2199 1 1 1 0 0 0 1 686.0 2 29 2.68 0 1
44 2199 1 1 1 0 0 0 1 670.0 4 50 2.73 0 1
45 2199 1 1 1 0 0 0 1 726.0 7 107 7.11 1 1
46 2199 1 1 1 0 0 0 1 860.0 3 47 3.05 0 1
47 2199 1 1 1 0 0 0 1 904.0 6 86 8.01 1 1
48 2199 1 1 1 0 0 0 1 1126.0 20 308 2.2 0 1
49 2199 1 1 1 0 1 0 0 674.0 10 154 2.88 0 1
50 2199 1 1 1 0 0 0 1 715.0 30 467 1.95 0 1
51 2199 1 1 1 1 0 1 0 879.0 4 56 3.02 0 1
52 2199 1 1 1 1 1 1 1 844.0 18 285 2.27 0 1
53 2199 1 1 1 1 0 1 0 717.0 2 25 1.89 0 1
54 2199 1 1 1 0 0 0 1 839.0 18 284 1.92 0 1
55 2199 1 1 1 0 1 0 0 680.0 13 202 3.09 0 1
56 2199 1 1 1 0 0 0 1 903.0 7 99 7.24 1 1
57 2199 1 1 1 0 0 0 1 677.0 30 466 2.9 0 1
58 2199 1 1 1 1 1 1 1 859.0 2 17 1.92 0 1
59 2199 1 1 1 1 1 1 1 856.0 25 398 1.43 0 1
60 2199 1 1 1 0 0 0 1 634.0 9 141 3.12 0 1
61 2199 1 1 1 1 1 1 1 632.0 23 362 7.17 1 1
62 2199 1 1 1 0 0 0 1 1282.0 3 33 2.97 0 1
63 2199 1 1 1 1 1 1 1 967.0 27 420 7.61 1 1
64 2199 1 1 1 1 1 1 1 944.0 13 198 2.65 0 1
65 2199 1 1 1 1 1 1 1 825.0 9 140 2.97 0 1
66 2199 1 1 1 0 1 0 0 831.0 18 287 2.19 0 1
67 2199 1 1 1 1 0 1 0 1215.0 25 397 1.77 0 1
68 2199 1 1 1 0 0 0 1 734.0 8 125 7.28 1 1
69 2199 1 1 1 0 1 0 0 820.0 13 207 3.11 0 1
70 2199 1 1 1 1 1 1 1 971.0 13 197 2.97 0 1
71 2199 1 1 1 1 0 1 0 734.0 20 307 1.87 0 1
72 2199 1 1 1 0 1 0 0 846.0 9 142 3.22 0 1
73 2199 1 1 1 0 0 0 1 763.0 10 149 3.02 0 1
74 2199 1 1 1 1 0 1 0 1382.0 29 463 2.0 0 1
75 2199 1 1 1 0 0 0 1 791.0 15 227 2.67 0 1
76 2199 1 1 1 0 0 0 1 752.0 24 382 6.86 1 1
77 2199 1 1 1 1 1 1 1 983.0 10 158 2.59 0 1
78 2199 1 1 1 1 0 1 0 1171.0 15 228 3.15 0 1
79 2199 1 1 1 0 1 0 0 1042.0 4 62 2.95 0 1
80 2199 1 1 1 0 0 0 1 942.0 2 26 2.76 0 1
81 2199 1 1 1 1 1 1 1 700.0 7 112 7.03 1 1
82 2199 1 1 1 0 0 0 1 716.0 23 365 6.57 1 1
83 2199 1 1 1 1 0 1 0 899.0 30 476 2.48 0 1
84 2199 1 1 1 1 0 1 0 716.0 17 259 2.5 0 1
85 2199 1 1 1 1 1 1 1 793.0 17 263 2.59 0 1
86 2199 1 1 1 1 0 1 0 1019.0 15 240 2.57 0 1
87 2199 1 1 1 1 1 1 1 710.0 28 433 7.18 1 1
88 2199 1 1 1 0 0 0 1 822.0 18 279 1.97 0 1
89 2199 1 1 1 1 1 1 1 860.0 30 472 2.55 0 1
90 2199 1 1 1 1 1 1 1 878.0 1 10 3.15 0 1
91 2199 1 1 1 0 0 0 1 748.0 17 258 2.89 0 1
92 2199 1 1 1 1 1 1 1 800.0 9 136 3.1 0 1
93 2199 1 1 1 0 1 0 0 677.0 1 4 3.18 0 1
94 2199 1 1 1 1 0 1 0 851.0 20 319 2.13 0 1
95 2199 1 1 1 1 1 1 1 590.0 24 373 7.32 1 1
96 2199 1 1 1 1 0 1 0 910.0 25 396 1.85 0 1
97 2199 1 1 1 1 1 1 1 847.0 20 315 2.75 0 1
98 2199 1 1 1 1 1 1 1 750.0 10 160 2.19 0 1
99 2199 1 1 1 1 1 1 1 656.0 4 59 1.99 0 1
100 2199 1 1 1 0 1 0 0 706.0 1 3 3.17 0 1
1 2097 2 1 1 0 1 0 0 5772.0 18 285 2.27 0 0
2 2097 2 1 1 0 1 0 0 2061.0 15 240 2.57 0 0
3 2097 2 1 1 1 0 1 0 3334.0 2 24 2.31 0 0
4 2097 2 1 1 0 1 0 0 1869.0 17 263 2.59 0 0
5 2097 2 1 1 1 0 1 0 2850.0 15 226 3.2 0 0
6 2097 2 1 1 0 1 0 0 843.0 29 451 1.86 0 0
7 2097 2 1 1 0 1 0 0 716.0 9 136 3.1 0 0
8 2097 2 1 1 1 1 1 1 366.0 7 99 7.24 1 0
9 2097 2 1 1 0 1 0 0 1058.0 22 347 6.7 1 0
10 2097 2 1 1 0 1 0 0 406.0 1 10 3.15 0 0
11 2097 2 1 1 1 0 1 0 506.0 20 308 2.2 0 0
12 2097 2 1 1 1 1 1 1 327.0 1 4 3.18 0 0
13 2097 2 1 1 1 1 1 1 391.0 25 391 1.73 0 0
14 2097 2 1 1 0 1 0 0 723.0 2 17 1.92 0 0
15 2097 2 1 1 1 1 1 1 225.0 10 149 3.02 0 0
16 2097 2 1 1 1 1 1 1 56.0 7 107 7.11 1 0
17 2097 2 1 1 1 1 1 1 95.0 13 206 3.41 0 0
18 2097 2 1 1 1 1 1 1 15.0 3 42 2.84 0 0
19 2097 2 1 1 0 1 0 0 14.0 4 56 3.02 0 0
20 2097 2 1 1 0 1 0 0 162.0 1 6 3.17 0 0
21 2097 2 1 1 1 0 1 0 928.0 1 3 3.17 0 0
22 2097 2 1 1 0 1 0 0 488.0 4 64 2.52 0 0
23 2097 2 1 1 0 1 0 0 621.0 3 35 3.14 0 0
24 2097 2 1 1 0 1 0 0 385.0 18 280 2.15 0 0
25 2097 2 1 1 0 1 0 0 854.0 13 197 2.97 0 0
26 2097 2 1 1 1 0 1 0 480.0 29 456 1.5 0 0
27 2097 2 1 1 1 1 1 1 425.0 20 318 2.58 0 0
28 2097 2 1 1 1 1 1 1 431.0 24 382 6.86 1 0
29 2097 2 1 1 0 1 0 0 63.0 17 259 2.5 0 0
30 2097 2 1 1 0 1 0 0 158.0 25 397 1.77 0 0
31 2097 2 1 1 1 0 1 0 109.0 4 50 2.73 0 0
32 2097 2 1 1 1 0 1 0 144.0 2 29 2.68 0 0
33 2097 2 1 1 0 0 0 1 90.0 27 420 7.61 1 0
34 2097 2 1 1 0 1 0 0 106.0 13 198 2.65 0 0
35 2097 2 1 1 0 1 0 0 87.0 24 373 7.32 1 0
36 2097 2 1 1 1 1 1 1 48.0 9 129 3.25 0 0
37 2097 2 1 1 0 1 0 0 83.0 9 139 1.74 0 0
38 2097 2 1 1 1 1 1 1 76.0 8 125 7.28 1 0
39 2097 2 1 1 0 1 0 0 660.0 25 398 1.43 0 0
40 2097 2 1 1 1 1 1 1 122.0 23 365 6.57 1 0
41 2097 2 1 1 1 1 1 1 23.0 18 287 2.19 0 0
42 2097 2 1 1 1 1 1 1 134.0 17 261 2.14 0 0
43 2097 2 1 1 0 1 0 0 103.0 18 277 2.23 0 0
44 2097 2 1 1 1 1 1 1 204.0 30 471 2.73 0 0
45 2097 2 1 1 1 1 1 1 183.0 17 269 2.8 0 0
46 2097 2 1 1 1 1 1 1 90.0 9 141 3.12 0 0
47 2097 2 1 1 0 0 0 1 58.0 2 25 1.89 0 0
48 2097 2 1 1 1 1 1 1 200.0 13 207 3.11 0 0
49 2097 2 1 1 1 1 1 1 40.0 18 284 1.92 0 0
50 2097 2 1 1 1 1 1 1 71.0 29 452 1.8 0 0
51 2097 2 1 1 0 0 0 1 15.0 6 85 7.32 1 0
52 2097 2 1 1 1 1 1 1 36.0 3 47 3.05 0 0
53 2097 2 1 1 1 1 1 1 66.0 4 60 2.6 0 0
54 2097 2 1 1 0 1 0 0 19.0 3 36 2.98 0 0
55 2097 2 1 1 0 0 0 1 56.0 10 155 1.73 0 0
56 2097 2 1 1 1 1 1 1 56.0 10 154 2.88 0 0
57 2097 2 1 1 0 1 0 0 103.0 25 396 1.85 0 0
58 2097 2 1 1 0 1 0 0 84.0 13 205 3.26 0 0
59 2097 2 1 1 0 1 0 0 114.0 30 465 2.7 0 0
60 2097 2 1 1 1 0 1 0 61.0 20 314 1.94 0 0
61 2097 2 1 1 1 0 1 0 28.0 1 9 2.49 0 0
62 2097 2 1 1 0 1 0 0 89.0 10 160 2.19 0 0
63 2097 2 1 1 0 1 0 0 51.0 1 8 1.95 0 0
64 2097 2 1 1 1 0 1 0 18.0 15 238 3.31 0 0
65 2097 2 1 1 0 1 0 0 193.0 4 59 1.99 0 0
66 2097 2 1 1 0 1 0 0 135.0 29 463 2.0 0 0
67 2097 2 1 1 0 1 0 0 42.0 7 112 7.03 1 0
68 2097 2 1 1 0 1 0 0 40.0 3 37 3.08 0 0
69 2097 2 1 1 1 1 1 1 50.0 30 466 2.9 0 0
70 2097 2 1 1 1 1 1 1 53.0 30 467 1.95 0 0
71 2097 2 1 1 1 1 1 1 58.0 29 459 1.82 0 0
72 2097 2 1 1 1 1 1 1 72.0 10 152 1.38 0 0
73 2097 2 1 1 1 1 1 1 88.0 3 33 2.97 0 0
74 2097 2 1 1 0 1 0 0 141.0 23 362 7.17 1 0
75 2097 2 1 1 1 1 1 1 155.0 4 62 2.95 0 0
76 2097 2 1 1 1 1 1 1 99.0 2 26 2.76 0 0
77 2097 2 1 1 0 1 0 0 134.0 20 307 1.87 0 0
78 2097 2 1 1 1 1 1 1 159.0 25 400 1.71 0 0
79 2097 2 1 1 1 1 1 1 13.0 28 445 7.58 1 0
80 2097 2 1 1 0 0 0 1 22.0 20 315 2.75 0 0
81 2097 2 1 1 0 1 0 0 12.0 2 18 1.84 0 0
82 2097 2 1 1 1 1 1 1 165.0 15 227 2.67 0 0
83 2097 2 1 1 1 0 1 0 121.0 28 447 7.79 1 0
84 2097 2 1 1 0 1 0 0 38.0 15 230 3.4 0 0
85 2097 2 1 1 1 1 1 1 86.0 6 86 8.01 1 0
86 2097 2 1 1 1 1 1 1 175.0 25 385 1.43 0 0
87 2097 2 1 1 1 1 1 1 111.0 17 258 2.89 0 0
88 2097 2 1 1 0 1 0 0 18.0 29 464 1.93 0 0
89 2097 2 1 1 1 1 1 1 75.0 9 142 3.22 0 0
90 2097 2 1 1 0 0 0 1 156.0 15 228 3.15 0 0
91 2097 2 1 1 0 1 0 0 80.0 10 158 2.59 0 0
92 2097 2 1 1 1 1 1 1 22.0 18 279 1.97 0 0
93 2097 2 1 1 0 0 0 1 155.0 20 319 2.13 0 0
94 2097 2 1 1 0 1 0 0 63.0 9 140 2.97 0 0
95 2097 2 1 1 1 0 1 0 30.0 13 202 3.09 0 0
96 2097 2 1 1 0 0 0 1 148.0 30 472 2.55 0 0
97 2097 2 1 1 0 0 0 1 82.0 30 476 2.48 0 0
98 2097 2 1 1 0 0 0 1 211.0 28 433 7.18 1 0
99 2097 2 1 1 0 0 0 1 26.0 17 266 2.6 0 0
100 2097 2 1 1 0 1 0 0 49.0 7 106 7.66 1 0
1 2105 2 1 1 1 1 1 1 1442.0 23 365 6.57 1 1
2 2105 2 1 1 1 1 1 1 1016.0 24 382 6.86 1 1
3 2105 2 1 1 0 1 0 0 1175.0 3 36 2.98 0 1
4 2105 2 1 1 1 0 1 0 2919.0 25 400 1.71 0 1
5 2105 2 1 1 0 0 0 1 1838.0 7 106 7.66 1 1
6 2105 2 1 1 1 1 1 1 1192.0 15 238 3.31 0 1
7 2105 2 1 1 0 0 0 1 1208.0 13 198 2.65 0 1
8 2105 2 1 1 1 1 1 1 2224.0 3 33 2.97 0 1
9 2105 2 1 1 0 0 0 1 945.0 3 37 3.08 0 1
10 2105 2 1 1 1 1 1 1 897.0 15 226 3.2 0 1
11 2105 2 1 1 1 1 1 1 1032.0 1 4 3.18 0 1
12 2105 2 1 1 0 0 0 1 1557.0 13 197 2.97 0 1
13 2105 2 1 1 1 1 1 1 1274.0 30 467 1.95 0 1
14 2105 2 1 1 0 0 0 1 1182.0 6 85 7.32 1 1
15 2105 2 1 1 0 0 0 1 1179.0 29 463 2.0 0 1
16 2105 2 1 1 1 1 1 1 1171.0 28 445 7.58 1 1
17 2105 2 1 1 0 0 0 1 3479.0 18 285 2.27 0 1
18 2105 2 1 1 0 0 0 1 1563.0 4 56 3.02 0 1
19 2105 2 1 1 0 0 0 1 1696.0 10 158 2.59 0 1
20 2105 2 1 1 0 0 0 1 1495.0 4 64 2.52 0 1
21 2105 2 1 1 0 1 0 0 1099.0 18 280 2.15 0 1
22 2105 2 1 1 0 0 0 1 1815.0 30 476 2.48 0 1
23 2105 2 1 1 0 1 0 0 1750.0 15 230 3.4 0 1
24 2105 2 1 1 1 0 1 0 1618.0 1 3 3.17 0 1
25 2105 2 1 1 1 1 1 1 849.0 13 206 3.41 0 1
26 2105 2 1 1 1 1 1 1 703.0 8 125 7.28 1 1
27 2105 2 1 1 1 0 1 0 2001.0 17 258 2.89 0 1
28 2105 2 1 1 1 0 1 0 2702.0 30 466 2.9 0 1
29 2105 2 1 1 1 1 1 1 1387.0 13 202 3.09 0 1
30 2105 2 1 1 1 1 1 1 1205.0 17 261 2.14 0 1
31 2105 2 1 1 1 1 1 1 1334.0 9 129 3.25 0 1
32 2105 2 1 1 0 0 0 1 2373.0 1 10 3.15 0 1
33 2105 2 1 1 1 1 1 1 1596.0 25 385 1.43 0 1
34 2105 2 1 1 0 1 0 0 1252.0 25 397 1.77 0 1
35 2105 2 1 1 1 0 1 0 1674.0 2 29 2.68 0 1
36 2105 2 1 1 0 0 0 1 6095.0 10 155 1.73 0 1
37 2105 2 1 1 0 0 0 1 1071.0 9 140 2.97 0 1
38 2105 2 1 1 0 0 0 1 2075.0 18 277 2.23 0 1
39 2105 2 1 1 1 1 1 1 1131.0 18 284 1.92 0 1
40 2105 2 1 1 1 0 1 0 1132.0 29 459 1.82 0 1
41 2105 2 1 1 0 0 0 1 951.0 22 347 6.7 1 1
42 2105 2 1 1 1 1 1 1 1765.0 20 314 1.94 0 1
43 2105 2 1 1 1 1 1 1 1394.0 30 471 2.73 0 1
44 2105 2 1 1 0 0 0 1 1037.0 27 420 7.61 1 1
45 2105 2 1 1 0 0 0 1 1611.0 9 136 3.1 0 1
46 2105 2 1 1 0 0 0 1 1106.0 29 464 1.93 0 1
47 2105 2 1 1 0 0 0 1 1203.0 17 259 2.5 0 1
48 2105 2 1 1 1 1 1 1 956.0 2 24 2.31 0 1
49 2105 2 1 1 1 1 1 1 1079.0 7 107 7.11 1 1
50 2105 2 1 1 0 1 0 0 5703.0 17 266 2.6 0 1
51 2105 2 1 1 0 0 0 1 829.0 24 373 7.32 1 1
52 2105 2 1 1 1 1 1 1 846.0 28 447 7.79 1 1
53 2105 2 1 1 1 1 1 1 1753.0 3 42 2.84 0 1
54 2105 2 1 1 0 0 0 1 1128.0 10 160 2.19 0 1
55 2105 2 1 1 1 1 1 1 1081.0 1 9 2.49 0 1
56 2105 2 1 1 0 1 0 0 940.0 4 59 1.99 0 1
57 2105 2 1 1 0 0 0 1 1094.0 20 315 2.75 0 1
58 2105 2 1 1 1 1 1 1 3401.0 3 47 3.05 0 1
59 2105 2 1 1 0 0 0 1 1362.0 1 8 1.95 0 1
60 2105 2 1 1 1 1 1 1 1092.0 9 141 3.12 0 1
61 2105 2 1 1 1 1 1 1 1418.0 2 26 2.76 0 1
62 2105 2 1 1 0 0 0 1 1583.0 30 465 2.7 0 1
63 2105 2 1 1 1 1 1 1 8168.0 13 207 3.11 0 1
64 2105 2 1 1 1 1 1 1 1198.0 20 308 2.2 0 1
65 2105 2 1 1 0 1 0 0 1704.0 2 25 1.89 0 1
66 2105 2 1 1 0 1 0 0 4889.0 17 263 2.59 0 1
67 2105 2 1 1 1 0 1 0 1889.0 18 287 2.19 0 1
68 2105 2 1 1 0 1 0 0 1188.0 9 139 1.74 0 1
69 2105 2 1 1 0 1 0 0 1379.0 3 35 3.14 0 1
70 2105 2 1 1 0 1 0 0 3240.0 15 240 2.57 0 1
71 2105 2 1 1 1 1 1 1 2858.0 18 279 1.97 0 1
72 2105 2 1 1 0 1 0 0 1324.0 29 451 1.86 0 1
73 2105 2 1 1 1 1 1 1 1669.0 20 318 2.58 0 1
74 2105 2 1 1 1 0 1 0 1508.0 25 391 1.73 0 1
75 2105 2 1 1 0 1 0 0 1336.0 20 307 1.87 0 1
76 2105 2 1 1 1 1 1 1 3703.0 9 142 3.22 0 1
77 2105 2 1 1 0 0 0 1 1235.0 15 228 3.15 0 1
78 2105 2 1 1 0 0 0 1 2354.0 2 18 1.84 0 1
79 2105 2 1 1 1 1 1 1 960.0 15 227 2.67 0 1
80 2105 2 1 1 1 1 1 1 941.0 7 99 7.24 1 1
81 2105 2 1 1 0 0 0 1 1894.0 30 472 2.55 0 1
82 2105 2 1 1 1 0 1 0 2032.0 10 149 3.02 0 1
83 2105 2 1 1 0 1 0 0 1172.0 25 398 1.43 0 1
84 2105 2 1 1 1 1 1 1 814.0 4 50 2.73 0 1
85 2105 2 1 1 0 1 0 0 1911.0 1 6 3.17 0 1
86 2105 2 1 1 0 1 0 0 1537.0 2 17 1.92 0 1
87 2105 2 1 1 1 1 1 1 8472.0 6 86 8.01 1 1
88 2105 2 1 1 1 1 1 1 4892.0 17 269 2.8 0 1
89 2105 2 1 1 0 0 0 1 1053.0 23 362 7.17 1 1
90 2105 2 1 1 0 0 0 1 3918.0 25 396 1.85 0 1
91 2105 2 1 1 1 1 1 1 928.0 29 456 1.5 0 1
92 2105 2 1 1 1 0 1 0 1390.0 4 62 2.95 0 1
93 2105 2 1 1 1 1 1 1 1275.0 10 152 1.38 0 1
94 2105 2 1 1 0 0 0 1 1041.0 7 112 7.03 1 1
95 2105 2 1 1 0 1 0 0 1191.0 20 319 2.13 0 1
96 2105 2 1 1 1 0 1 0 1561.0 4 60 2.6 0 1
97 2105 2 1 1 0 0 0 1 1306.0 13 205 3.26 0 1
98 2105 2 1 1 0 0 0 1 2632.0 28 433 7.18 1 1
99 2105 2 1 1 1 0 1 0 1440.0 10 154 2.88 0 1
100 2105 2 1 1 1 1 1 1 1850.0 29 452 1.8 0 1
1 2198 2 1 1 1 1 1 1 6235.0 3 47 3.05 0 1
2 2198 2 1 1 1 1 1 1 2194.0 17 258 2.89 0 1
3 2198 2 1 1 0 1 0 0 1759.0 17 263 2.59 0 1
4 2198 2 1 1 0 0 0 1 1766.0 1 6 3.17 0 1
5 2198 2 1 1 1 1 1 1 1649.0 30 471 2.73 0 1
6 2198 2 1 1 0 1 0 0 2161.0 9 136 3.1 0 1
7 2198 2 1 1 1 1 1 1 1495.0 10 149 3.02 0 1
8 2198 2 1 1 0 1 0 0 1959.0 20 319 2.13 0 1
9 2198 2 1 1 0 1 0 0 1144.0 2 17 1.92 0 1
10 2198 2 1 1 0 0 0 1 1963.0 4 59 1.99 0 1
11 2198 2 1 1 1 1 1 1 1320.0 7 107 7.11 1 1
12 2198 2 1 1 1 1 1 1 809.0 8 125 7.28 1 1
13 2198 2 1 1 0 1 0 0 1300.0 15 240 2.57 0 1
14 2198 2 1 1 0 1 0 0 1030.0 18 277 2.23 0 1
15 2198 2 1 1 0 0 0 1 1544.0 18 280 2.15 0 1
16 2198 2 1 1 0 0 0 1 1550.0 23 362 7.17 1 1
17 2198 2 1 1 0 1 0 0 2416.0 17 266 2.6 0 1
18 2198 2 1 1 1 1 1 1 963.0 20 314 1.94 0 1
19 2198 2 1 1 0 1 0 0 1246.0 10 160 2.19 0 1
20 2198 2 1 1 0 0 0 1 1781.0 29 451 1.86 0 1
21 2198 2 1 1 1 1 1 1 1312.0 17 269 2.8 0 1
22 2198 2 1 1 0 0 0 1 1556.0 29 464 1.93 0 1
23 2198 2 1 1 1 1 1 1 1253.0 3 42 2.84 0 1
24 2198 2 1 1 1 1 1 1 666.0 13 202 3.09 0 1
25 2198 2 1 1 1 0 1 0 2081.0 4 62 2.95 0 1
26 2198 2 1 1 0 1 0 0 2500.0 9 139 1.74 0 1
27 2198 2 1 1 1 1 1 1 742.0 28 445 7.58 1 1
28 2198 2 1 1 1 1 1 1 787.0 10 154 2.88 0 1
29 2198 2 1 1 1 1 1 1 557.0 13 206 3.41 0 1
30 2198 2 1 1 0 0 0 1 1203.0 24 373 7.32 1 1
31 2198 2 1 1 0 0 0 1 2043.0 30 472 2.55 0 1
32 2198 2 1 1 1 1 1 1 1691.0 13 207 3.11 0 1
33 2198 2 1 1 1 1 1 1 755.0 18 279 1.97 0 1
34 2198 2 1 1 0 0 0 1 1481.0 10 158 2.59 0 1
35 2198 2 1 1 1 1 1 1 1146.0 24 382 6.86 1 1
36 2198 2 1 1 1 0 1 0 1070.0 29 456 1.5 0 1
37 2198 2 1 1 1 1 1 1 1701.0 4 50 2.73 0 1
38 2198 2 1 1 0 0 0 1 1088.0 22 347 6.7 1 1
39 2198 2 1 1 0 1 0 0 1018.0 3 35 3.14 0 1
40 2198 2 1 1 1 1 1 1 860.0 9 141 3.12 0 1
41 2198 2 1 1 0 1 0 0 3078.0 18 285 2.27 0 1
42 2198 2 1 1 0 1 0 0 1018.0 4 56 3.02 0 1
43 2198 2 1 1 1 1 1 1 1454.0 30 466 2.9 0 1
44 2198 2 1 1 1 1 1 1 1078.0 1 9 2.49 0 1
45 2198 2 1 1 1 1 1 1 839.0 2 26 2.76 0 1
46 2198 2 1 1 1 1 1 1 727.0 7 99 7.24 1 1
47 2198 2 1 1 0 1 0 0 1740.0 4 64 2.52 0 1
48 2198 2 1 1 0 0 0 1 1919.0 13 198 2.65 0 1
49 2198 2 1 1 0 0 0 1 1164.0 9 140 2.97 0 1
50 2198 2 1 1 0 1 0 0 1638.0 3 37 3.08 0 1
51 2198 2 1 1 0 0 0 1 1471.0 2 18 1.84 0 1
52 2198 2 1 1 1 1 1 1 1268.0 28 447 7.79 1 1
53 2198 2 1 1 1 1 1 1 920.0 29 459 1.82 0 1
54 2198 2 1 1 1 1 1 1 836.0 18 284 1.92 0 1
55 2198 2 1 1 1 1 1 1 631.0 20 308 2.2 0 1
56 2198 2 1 1 1 1 1 1 636.0 9 129 3.25 0 1
57 2198 2 1 1 0 0 0 1 1676.0 15 230 3.4 0 1
58 2198 2 1 1 0 1 0 0 1051.0 3 36 2.98 0 1
59 2198 2 1 1 1 1 1 1 1119.0 6 86 8.01 1 1
60 2198 2 1 1 0 1 0 0 751.0 13 197 2.97 0 1
61 2198 2 1 1 1 1 1 1 711.0 29 452 1.8 0 1
62 2198 2 1 1 1 1 1 1 949.0 15 238 3.31 0 1
63 2198 2 1 1 1 0 1 0 1524.0 1 4 3.18 0 1
64 2198 2 1 1 1 0 1 0 1554.0 2 24 2.31 0 1
65 2198 2 1 1 1 1 1 1 996.0 23 365 6.57 1 1
66 2198 2 1 1 0 0 0 1 1666.0 7 106 7.66 1 1
67 2198 2 1 1 1 0 1 0 2222.0 17 261 2.14 0 1
68 2198 2 1 1 1 1 1 1 1734.0 25 400 1.71 0 1
69 2198 2 1 1 1 1 1 1 683.0 15 226 3.2 0 1
70 2198 2 1 1 0 0 0 1 1530.0 15 228 3.15 0 1
71 2198 2 1 1 0 1 0 0 935.0 17 259 2.5 0 1
72 2198 2 1 1 1 1 1 1 1157.0 18 287 2.19 0 1
73 2198 2 1 1 0 0 0 1 3169.0 1 8 1.95 0 1
74 2198 2 1 1 0 0 0 1 1270.0 27 420 7.61 1 1
75 2198 2 1 1 0 1 0 0 1916.0 10 155 1.73 0 1
76 2198 2 1 1 1 1 1 1 677.0 1 3 3.17 0 1
77 2198 2 1 1 1 1 1 1 1564.0 25 391 1.73 0 1
78 2198 2 1 1 1 1 1 1 729.0 15 227 2.67 0 1
79 2198 2 1 1 0 0 0 1 1616.0 7 112 7.03 1 1
80 2198 2 1 1 1 0 1 0 1914.0 10 152 1.38 0 1
81 2198 2 1 1 0 0 0 1 1386.0 25 396 1.85 0 1
82 2198 2 1 1 1 0 1 0 1716.0 30 467 1.95 0 1
83 2198 2 1 1 0 0 0 1 976.0 13 205 3.26 0 1
84 2198 2 1 1 0 1 0 0 1314.0 30 476 2.48 0 1
85 2198 2 1 1 1 1 1 1 979.0 4 60 2.6 0 1
86 2198 2 1 1 0 0 0 1 1265.0 28 433 7.18 1 1
87 2198 2 1 1 1 1 1 1 1233.0 3 33 2.97 0 1
88 2198 2 1 1 1 1 1 1 617.0 9 142 3.22 0 1
89 2198 2 1 1 0 0 0 1 1514.0 1 10 3.15 0 1
90 2198 2 1 1 0 0 0 1 1465.0 25 398 1.43 0 1
91 2198 2 1 1 0 0 0 1 1254.0 20 315 2.75 0 1
92 2198 2 1 1 0 0 0 1 837.0 29 463 2.0 0 1
93 2198 2 1 1 1 1 1 1 1570.0 2 29 2.68 0 1
94 2198 2 1 1 0 0 0 1 1562.0 30 465 2.7 0 1
95 2198 2 1 1 0 1 0 0 2293.0 25 397 1.77 0 1
96 2198 2 1 1 0 0 0 1 1206.0 6 85 7.32 1 1
