[{"width":1440,"height":778,"webaudio":true,"browser":"chrome","browser_version":"142.0.0","mobile":false,"os":"Mac OS","fullscreen":true,"vsync_rate":30.26,"webcam":true,"microphone":true,"trial_type":"browser-check","trial_index":0,"plugin_version":"2.1.0","time_elapsed":2005,"subject_id":"86965","group":"Group2","full_date":"2025-11-11T02:32:39.766Z","date":"2025-11-11","time":"02:32:39"},{"success":true,"timeout":false,"failed_images":[],"failed_audio":[],"failed_video":[],"trial_type":"preload","trial_index":1,"plugin_version":"2.1.0","time_elapsed":2119,"subject_id":"86965","group":"Group2","full_date":"2025-11-11T02:32:39.766Z","date":"2025-11-11","time":"02:32:39"},{"rt":78978,"url":"SONA_consent_memorability.html","trial_type":"external-html","trial_index":2,"plugin_version":"2.1.0","time_elapsed":81103,"subject_id":"86965","group":"Group2","full_date":"2025-11-11T02:32:39.766Z","date":"2025-11-11","time":"02:32:39"},{"success":true,"rt":947,"trial_type":"fullscreen","trial_index":3,"plugin_version":"2.1.0","time_elapsed":83054,"subject_id":"86965","group":"Group2","full_date":"2025-11-11T02:32:39.766Z","date":"2025-11-11","time":"02:32:39"},{"rt":12477,"stimulus":"<div style=\"max-width: 760px; margin: auto; font-size: 20px; line-height: 1.5;\">\n      <h1 style=\"text-align:center; font-size: 30px;\">Instructions</h1>\n      <p>\n        Welcome to the study on <b>visual memory</b>. This experiment consists of <b>two phases</b>: \n        a <b>study phase</b> and a <b>test phase</b>.\n      </p>\n      <p>\n        In the study phase, you will see a series of rock images along with their category labels.\n        The images will appear one at a time.\n        <b>Your task</b> is to learn the categories to which the rock images belong \n        and to remember each image as accurately as possible.\n      </p> \n      <p>\n        After the study phase, <b>your memory will be tested</b>. \n        Additional instructions for the test phase will be provided at that time.\n      </p>\n      <p>\n        If your computer has multiple <b>language settings</b> (e.g., English and another language),\n        please make sure it is set to English before starting.\n      </p>\n      <p>\n        You can track your progress using the <b>completion bar</b> at the top of the screen. \n        Please note that the bar will refresh when the test phase begins \n        to give you an accurate sense of your progress in both phases.\n      </p> \n      <p>\n        Press the button below when you are ready to begin.\n      </p>\n    </div>","response":0,"trial_type":"html-button-response","trial_index":4,"plugin_version":"2.1.0","time_elapsed":95534,"subject_id":"86965","group":"Group2","full_date":"2025-11-11T02:32:39.766Z","date":"2025-11-11","time":"02:32:39"},{"rt":null,"stimulus":"<p style=\"font-size: 50px; margin: 0; text-align: center;\">+</p>","response":null,"trial_type":"html-keyboard-response","trial_index":5,"plugin_version":"2.1.0","time_elapsed":96537,"subject_id":"86965","group":"Group2","full_date":"2025-11-11T02:32:39.766Z","date":"2025-11-11","time":"02:32:39"},{"task":"memory_phase","broad_category":"M","image_png":"M_Slate_10.png","image_id":314,"category_name":"Slate","category":20,"distinct_rating":1.94,"distinct_type":"Bottom","rt":null,"stimulus":"Stimuli_Rocks480/M_Slate_10.png","response":null,"trial_type":"image-keyboard-response","trial_index":6,"plugin_version":"2.1.0","time_elapsed":99043,"subject_id":"86965","group":"Group2","full_date":"2025-11-11T02:32:39.766Z","date":"2025-11-11","time":"02:32:39"},{"rt":null,"stimulus":"<p style=\"font-size: 50px; margin: 0; text-align: center;\">+</p>","response":null,"trial_type":"html-keyboard-response","trial_index":7,"plugin_version":"2.1.0","time_elapsed":100046,"subject_id":"86965","group":"Group2","full_date":"2025-11-11T02:32:39.766Z","date":"2025-11-11","time":"02:32:39"},{"task":"memory_phase","broad_category":"M","image_png":"M_Marble_03.png","image_id":227,"category_name":"Marble","category":15,"distinct_rating":2.67,"distinct_type":"Bottom","rt":null,"stimulus":"Stimuli_Rocks480/M_Marble_03.png","response":null,"trial_type":"image-keyboard-response","trial_index":8,"plugin_version":"2.1.0","time_elapsed":102550,"subject_id":"86965","group":"Group2","full_date":"2025-11-11T02:32:39.766Z","date":"2025-11-11","time":"02:32:39"},{"rt":null,"stimulus":"<p style=\"font-size: 50px; margin: 0; text-align: center;\">+</p>","response":null,"trial_type":"html-keyboard-response","trial_index":9,"plugin_version":"2.1.0","time_elapsed":103554,"subject_id":"86965","group":"Group2","full_date":"2025-11-11T02:32:39.766Z","date":"2025-11-11","time":"02:32:39"},{"task":"memory_phase","broad_category":"S","image_png":"S_Shale_03.png","image_id":467,"category_name":"Shale","category":30,"distinct_rating":1.95,"distinct_type":"Bottom","rt":null,"stimulus":"Stimuli_Rocks480/S_Shale_03.png","response":null,"trial_type":"image-keyboard-response","trial_index":10,"plugin_version":"2.1.0","time_elapsed":106057,"subject_id":"86965","group":"Group2","full_date":"2025-11-11T02:32:39.766Z","date":"2025-11-11","time":"02:32:39"},{"rt":null,"stimulus":"<p style=\"font-size: 50px; margin: 0; text-align: center;\">+</p>","response":null,"trial_type":"html-keyboard-response","trial_index":11,"plugin_version":"2.1.0","time_elapsed":107060,"subject_id":"86965","group":"Group2","full_date":"2025-11-11T02:32:39.766Z","date":"2025-11-11","time":"02:32:39"},{"task":"memory_phase","broad_category":"I","image_png":"I_Basalt_13.png","image_id":29,"category_name":"Basalt","category":2,"distinct_rating":2.68,"distinct_type":"Bottom","rt":null,"stimulus":"Stimuli_Rocks480/I_Basalt_13.png","response":null,"trial_type":"image-keyboard-response","trial_index":12,"plugin_version":"2.1.0","time_elapsed":109564,"subject_id":"86965","group":"Group2","full_date":"2025-11-11T02:32:39.766Z","date":"2025-11-11","time":"02:32:39"},{"rt":null,"stimulus":"<p style=\"font-size: 50px; margin: 0; text-align: center;\">+</p>","response":null,"trial_type":"html-keyboard-response","trial_index":13,"plugin_version":"2.1.0","time_elapsed":110567,"subject_id":"86965","group":"Group2","full_date":"2025-11-11T02:32:39.766Z","date":"2025-11-11","time":"02:32:39"},{"task":"memory_phase","broad_category":"I","image_png":"I_Rhyolite_10.png","image_id":154,"category_name":"Rhyolite","category":10,"distinct_rating":2.88,"distinct_type":"Bottom","rt":null,"stimulus":"Stimuli_Rocks480/I_Rhyolite_10.png","response":null,"trial_type":"image-keyboard-response","trial_index":14,"plugin_version":"2.1.0","time_elapsed":113071,"subject_id":"86965","group":"Group2","full_date":"2025-11-11T02:32:39.766Z","date":"2025-11-11","time":"02:32:39"},{"rt":null,"stimulus":"<p style=\"font-size: 50px; margin: 0; text-align: center;\">+</p>","response":null,"trial_type":"html-keyboard-response","trial_index":15,"plugin_version":"2.1.0","time_elapsed":114074,"subject_id":"86965","group":"Group2","full_date":"2025-11-11T02:32:39.766Z","date":"2025-11-11","time":"02:32:39"},{"task":"memory_phase","broad_category":"M","image_png":"M_Slate_14.png","image_id":318,"category_name":"Slate","category":20,"distinct_rating":2.58,"distinct_type":"Bottom","rt":null,"stimulus":"Stimuli_Rocks480/M_Slate_14.png","response":null,"trial_type":"image-keyboard-response","trial_index":16,"plugin_version":"2.1.0","time_elapsed":116577,"subject_id":"86965","group":"Group2","full_date":"2025-11-11T02:32:39.766Z","date":"2025-11-11","time":"02:32:39"},{"rt":null,"stimulus":"<p style=\"font-size: 50px; margin: 0; text-align: center;\">+</p>","response":null,"trial_type":"html-keyboard-response","trial_index":17,"plugin_version":"2.1.0","time_elapsed":117579,"subject_id":"86965","group":"Group2","full_date":"2025-11-11T02:32:39.766Z","date":"2025-11-11","time":"02:32:39"},{"task":"memory_phase","broad_category":"I","image_png":"I_Diorite_15.png","image_id":47,"category_name":"Diorite","category":3,"distinct_rating":3.05,"distinct_type":"Bottom","rt":null,"stimulus":"Stimuli_Rocks480/I_Diorite_15.png","response":null,"trial_type":"image-keyboard-response","trial_index":18,"plugin_version":"2.1.0","time_elapsed":120083,"subject_id":"86965","group":"Group2","full_date":"2025-11-11T02:32:39.766Z","date":"2025-11-11","time":"02:32:39"},{"rt":null,"stimulus":"<p style=\"font-size: 50px; margin: 0; text-align: center;\">+</p>","response":null,"trial_type":"html-keyboard-response","trial_index":19,"plugin_version":"2.1.0","time_elapsed":121086,"subject_id":"86965","group":"Group2","full_date":"2025-11-11T02:32:39.766Z","date":"2025-11-11","time":"02:32:39"},{"task":"memory_phase","broad_category":"I","image_png":"I_Andesite_04.png","image_id":4,"category_name":"Andesite","category":1,"distinct_rating":3.18,"distinct_type":"Bottom","rt":null,"stimulus":"Stimuli_Rocks480/I_Andesite_04.png","response":null,"trial_type":"image-keyboard-response","trial_index":20,"plugin_version":"2.1.0","time_elapsed":123589,"subject_id":"86965","group":"Group2","full_date":"2025-11-11T02:32:39.766Z","date":"2025-11-11","time":"02:32:39"},{"rt":null,"stimulus":"<p style=\"font-size: 50px; margin: 0; text-align: center;\">+</p>","response":null,"trial_type":"html-keyboard-response","trial_index":21,"plugin_version":"2.1.0","time_elapsed":124592,"subject_id":"86965","group":"Group2","full_date":"2025-11-11T02:32:39.766Z","date":"2025-11-11","time":"02:32:39"},{"task":"memory_phase","broad_category":"I","image_png":"I_Andesite_03.png","image_id":3,"category_name":"Andesite","category":1,"distinct_rating":3.17,"distinct_type":"Bottom","rt":null,"stimulus":"Stimuli_Rocks480/I_Andesite_03.png","response":null,"trial_type":"image-keyboard-response","trial_index":22,"plugin_version":"2.1.0","time_elapsed":127095,"subject_id":"86965","group":"Group2","full_date":"2025-11-11T02:32:39.766Z","date":"2025-11-11","time":"02:32:39"},{"rt":null,"stimulus":"<p style=\"font-size: 50px; margin: 0; text-align: center;\">+</p>","response":null,"trial_type":"html-keyboard-response","trial_index":23,"plugin_version":"2.1.0","time_elapsed":128098,"subject_id":"86965","group":"Group2","full_date":"2025-11-11T02:32:39.766Z","date":"2025-11-11","time":"02:32:39"},{"task":"memory_phase","broad_category":"M","image_png":"M_Gneiss_14.png","image_id":206,"category_name":"Gneiss","category":13,"distinct_rating":3.41,"distinct_type":"Bottom","rt":null,"stimulus":"Stimuli_Rocks480/M_Gneiss_14.png","response":null,"trial_type":"image-keyboard-response","trial_index":24,"plugin_version":"2.1.0","time_elapsed":130601,"subject_id":"86965","group":"Group2","full_date":"2025-11-11T02:32:39.766Z","date":"2025-11-11","time":"02:32:39"},{"rt":null,"stimulus":"<p style=\"font-size: 50px; margin: 0; text-align: center;\">+</p>","response":null,"trial_type":"html-keyboard-response","trial_index":25,"plugin_version":"2.1.0","time_elapsed":131604,"subject_id":"86965","group":"Group2","full_date":"2025-11-11T02:32:39.766Z","date":"2025-11-11","time":"02:32:39"},{"task":"memory_phase","broad_category":"S","image_png":"S_Sandstone_04.png","image_id":452,"category_name":"Sandstone","category":29,"distinct_rating":1.8,"distinct_type":"Bottom","rt":null,"stimulus":"Stimuli_Rocks480/S_Sandstone_04.png","response":null,"trial_type":"image-keyboard-response","trial_index":26,"plugin_version":"2.1.0","time_elapsed":134109,"subject_id":"86965","group":"Group2","full_date":"2025-11-11T02:32:39.766Z","date":"2025-11-11","time":"02:32:39"},{"rt":null,"stimulus":"<p style=\"font-size: 50px; margin: 0; text-align: center;\">+</p>","response":null,"trial_type":"html-keyboard-response","trial_index":27,"plugin_version":"2.1.0","time_elapsed":135111,"subject_id":"86965","group":"Group2","full_date":"2025-11-11T02:32:39.766Z","date":"2025-11-11","time":"02:32:39"},{"task":"memory_phase","broad_category":"I","image_png":"I_Peridotite_13.png","image_id":125,"category_name":"Peridotite","category":8,"distinct_rating":7.28,"distinct_type":"Top","rt":null,"stimulus":"Stimuli_Rocks480/I_Peridotite_13.png","response":null,"trial_type":"image-keyboard-response","trial_index":28,"plugin_version":"2.1.0","time_elapsed":137614,"subject_id":"86965","group":"Group2","full_date":"2025-11-11T02:32:39.766Z","date":"2025-11-11","time":"02:32:39"},{"rt":null,"stimulus":"<p style=\"font-size: 50px; margin: 0; text-align: center;\">+</p>","response":null,"trial_type":"html-keyboard-response","trial_index":29,"plugin_version":"2.1.0","time_elapsed":138617,"subject_id":"86965","group":"Group2","full_date":"2025-11-11T02:32:39.766Z","date":"2025-11-11","time":"02:32:39"},{"task":"memory_phase","broad_category":"M","image_png":"M_Quartzite_15.png","image_id":287,"category_name":"Quartzite","category":18,"distinct_rating":2.19,"distinct_type":"Bottom","rt":null,"stimulus":"Stimuli_Rocks480/M_Quartzite_15.png","response":null,"trial_type":"image-keyboard-response","trial_index":30,"plugin_version":"2.1.0","time_elapsed":141120,"subject_id":"86965","group":"Group2","full_date":"2025-11-11T02:32:39.766Z","date":"2025-11-11","time":"02:32:39"},{"rt":null,"stimulus":"<p style=\"font-size: 50px; margin: 0; text-align: center;\">+</p>","response":null,"trial_type":"html-keyboard-response","trial_index":31,"plugin_version":"2.1.0","time_elapsed":142123,"subject_id":"86965","group":"Group2","full_date":"2025-11-11T02:32:39.766Z","date":"2025-11-11","time":"02:32:39"},{"task":"memory_phase","broad_category":"M","image_png":"M_Gneiss_10.png","image_id":202,"category_name":"Gneiss","category":13,"distinct_rating":3.09,"distinct_type":"Bottom","rt":null,"stimulus":"Stimuli_Rocks480/M_Gneiss_10.png","response":null,"trial_type":"image-keyboard-response","trial_index":32,"plugin_version":"2.1.0","time_elapsed":144625,"subject_id":"86965","group":"Group2","full_date":"2025-11-11T02:32:39.766Z","date":"2025-11-11","time":"02:32:39"},{"rt":null,"stimulus":"<p style=\"font-size: 50px; margin: 0; text-align: center;\">+</p>","response":null,"trial_type":"html-keyboard-response","trial_index":33,"plugin_version":"2.1.0","time_elapsed":145628,"subject_id":"86965","group":"Group2","full_date":"2025-11-11T02:32:39.766Z","date":"2025-11-11","time":"02:32:39"},{"task":"memory_phase","broad_category":"M","image_png":"M_Quartzite_12.png","image_id":284,"category_name":"Quartzite","category":18,"distinct_rating":1.92,"distinct_type":"Bottom","rt":null,"stimulus":"Stimuli_Rocks480/M_Quartzite_12.png","response":null,"trial_type":"image-keyboard-response","trial_index":34,"plugin_version":"2.1.0","time_elapsed":148131,"subject_id":"86965","group":"Group2","full_date":"2025-11-11T02:32:39.766Z","date":"2025-11-11","time":"02:32:39"},{"rt":null,"stimulus":"<p style=\"font-size: 50px; margin: 0; text-align: center;\">+</p>","response":null,"trial_type":"html-keyboard-response","trial_index":35,"plugin_version":"2.1.0","time_elapsed":149133,"subject_id":"86965","group":"Group2","full_date":"2025-11-11T02:32:39.766Z","date":"2025-11-11","time":"02:32:39"},{"task":"memory_phase","broad_category":"S","image_png":"S_Sandstone_08.png","image_id":456,"category_name":"Sandstone","category":29,"distinct_rating":1.5,"distinct_type":"Bottom","rt":null,"stimulus":"Stimuli_Rocks480/S_Sandstone_08.png","response":null,"trial_type":"image-keyboard-response","trial_index":36,"plugin_version":"2.1.0","time_elapsed":151637,"subject_id":"86965","group":"Group2","full_date":"2025-11-11T02:32:39.766Z","date":"2025-11-11","time":"02:32:39"},{"rt":null,"stimulus":"<p style=\"font-size: 50px; margin: 0; text-align: center;\">+</p>","response":null,"trial_type":"html-keyboard-response","trial_index":37,"plugin_version":"2.1.0","time_elapsed":152640,"subject_id":"86965","group":"Group2","full_date":"2025-11-11T02:32:39.766Z","date":"2025-11-11","time":"02:32:39"},{"task":"memory_phase","broad_category":"I","image_png":"I_Pegmatite_03.png","image_id":99,"category_name":"Pegmatite","category":7,"distinct_rating":7.24,"distinct_type":"Top","rt":null,"stimulus":"Stimuli_Rocks480/I_Pegmatite_03.png","response":null,"trial_type":"image-keyboard-response","trial_index":38,"plugin_version":"2.1.0","time_elapsed":155143,"subject_id":"86965","group":"Group2","full_date":"2025-11-11T02:32:39.766Z","date":"2025-11-11","time":"02:32:39"},{"rt":null,"stimulus":"<p style=\"font-size: 50px; margin: 0; text-align: center;\">+</p>","response":null,"trial_type":"html-keyboard-response","trial_index":39,"plugin_version":"2.1.0","time_elapsed":156146,"subject_id":"86965","group":"Group2","full_date":"2025-11-11T02:32:39.766Z","date":"2025-11-11","time":"02:32:39"},{"task":"memory_phase","broad_category":"S","image_png":"S_Shale_02.png","image_id":466,"category_name":"Shale","category":30,"distinct_rating":2.9,"distinct_type":"Bottom","rt":null,"stimulus":"Stimuli_Rocks480/S_Shale_02.png","response":null,"trial_type":"image-keyboard-response","trial_index":40,"plugin_version":"2.1.0","time_elapsed":158649,"subject_id":"86965","group":"Group2","full_date":"2025-11-11T02:32:39.766Z","date":"2025-11-11","time":"02:32:39"},{"rt":null,"stimulus":"<p style=\"font-size: 50px; margin: 0; text-align: center;\">+</p>","response":null,"trial_type":"html-keyboard-response","trial_index":41,"plugin_version":"2.1.0","time_elapsed":159651,"subject_id":"86965","group":"Group2","full_date":"2025-11-11T02:32:39.766Z","date":"2025-11-11","time":"02:32:39"},{"task":"memory_phase","broad_category":"I","image_png":"I_Gabbro_12.png","image_id":60,"category_name":"Gabbro","category":4,"distinct_rating":2.6,"distinct_type":"Bottom","rt":null,"stimulus":"Stimuli_Rocks480/I_Gabbro_12.png","response":null,"trial_type":"image-keyboard-response","trial_index":42,"plugin_version":"2.1.0","time_elapsed":162154,"subject_id":"86965","group":"Group2","full_date":"2025-11-11T02:32:39.766Z","date":"2025-11-11","time":"02:32:39"},{"rt":null,"stimulus":"<p style=\"font-size: 50px; margin: 0; text-align: center;\">+</p>","response":null,"trial_type":"html-keyboard-response","trial_index":43,"plugin_version":"2.1.0","time_elapsed":163156,"subject_id":"86965","group":"Group2","full_date":"2025-11-11T02:32:39.766Z","date":"2025-11-11","time":"02:32:39"},{"task":"memory_phase","broad_category":"I","image_png":"I_Pumice_13.png","image_id":141,"category_name":"Pumice","category":9,"distinct_rating":3.12,"distinct_type":"Bottom","rt":null,"stimulus":"Stimuli_Rocks480/I_Pumice_13.png","response":null,"trial_type":"image-keyboard-response","trial_index":44,"plugin_version":"2.1.0","time_elapsed":165659,"subject_id":"86965","group":"Group2","full_date":"2025-11-11T02:32:39.766Z","date":"2025-11-11","time":"02:32:39"},{"rt":null,"stimulus":"<p style=\"font-size: 50px; margin: 0; text-align: center;\">+</p>","response":null,"trial_type":"html-keyboard-response","trial_index":45,"plugin_version":"2.1.0","time_elapsed":166661,"subject_id":"86965","group":"Group2","full_date":"2025-11-11T02:32:39.766Z","date":"2025-11-11","time":"02:32:39"},{"task":"memory_phase","broad_category":"I","image_png":"I_Diorite_10.png","image_id":42,"category_name":"Diorite","category":3,"distinct_rating":2.84,"distinct_type":"Bottom","rt":null,"stimulus":"Stimuli_Rocks480/I_Diorite_10.png","response":null,"trial_type":"image-keyboard-response","trial_index":46,"plugin_version":"2.1.0","time_elapsed":169164,"subject_id":"86965","group":"Group2","full_date":"2025-11-11T02:32:39.766Z","date":"2025-11-11","time":"02:32:39"},{"rt":null,"stimulus":"<p style=\"font-size: 50px; margin: 0; text-align: center;\">+</p>","response":null,"trial_type":"html-keyboard-response","trial_index":47,"plugin_version":"2.1.0","time_elapsed":170167,"subject_id":"86965","group":"Group2","full_date":"2025-11-11T02:32:39.766Z","date":"2025-11-11","time":"02:32:39"},{"task":"memory_phase","broad_category":"S","image_png":"S_Chert_13.png","image_id":365,"category_name":"Chert","category":23,"distinct_rating":6.57,"distinct_type":"Top","rt":null,"stimulus":"Stimuli_Rocks480/S_Chert_13.png","response":null,"trial_type":"image-keyboard-response","trial_index":48,"plugin_version":"2.1.0","time_elapsed":172669,"subject_id":"86965","group":"Group2","full_date":"2025-11-11T02:32:39.766Z","date":"2025-11-11","time":"02:32:39"},{"rt":null,"stimulus":"<p style=\"font-size: 50px; margin: 0; text-align: center;\">+</p>","response":null,"trial_type":"html-keyboard-response","trial_index":49,"plugin_version":"2.1.0","time_elapsed":173672,"subject_id":"86965","group":"Group2","full_date":"2025-11-11T02:32:39.766Z","date":"2025-11-11","time":"02:32:39"},{"task":"memory_phase","broad_category":"S","image_png":"S_Dolomite_07.png","image_id":391,"category_name":"Dolomite","category":25,"distinct_rating":1.73,"distinct_type":"Bottom","rt":null,"stimulus":"Stimuli_Rocks480/S_Dolomite_07.png","response":null,"trial_type":"image-keyboard-response","trial_index":50,"plugin_version":"2.1.0","time_elapsed":176176,"subject_id":"86965","group":"Group2","full_date":"2025-11-11T02:32:39.766Z","date":"2025-11-11","time":"02:32:39"},{"rt":null,"stimulus":"<p style=\"font-size: 50px; margin: 0; text-align: center;\">+</p>","response":null,"trial_type":"html-keyboard-response","trial_index":51,"plugin_version":"2.1.0","time_elapsed":177179,"subject_id":"86965","group":"Group2","full_date":"2025-11-11T02:32:39.766Z","date":"2025-11-11","time":"02:32:39"},{"task":"memory_phase","broad_category":"I","image_png":"I_Pumice_14.png","image_id":142,"category_name":"Pumice","category":9,"distinct_rating":3.22,"distinct_type":"Bottom","rt":null,"stimulus":"Stimuli_Rocks480/I_Pumice_14.png","response":null,"trial_type":"image-keyboard-response","trial_index":52,"plugin_version":"2.1.0","time_elapsed":179682,"subject_id":"86965","group":"Group2","full_date":"2025-11-11T02:32:39.766Z","date":"2025-11-11","time":"02:32:39"},{"rt":null,"stimulus":"<p style=\"font-size: 50px; margin: 0; text-align: center;\">+</p>","response":null,"trial_type":"html-keyboard-response","trial_index":53,"plugin_version":"2.1.0","time_elapsed":180685,"subject_id":"86965","group":"Group2","full_date":"2025-11-11T02:32:39.766Z","date":"2025-11-11","time":"02:32:39"},{"task":"memory_phase","broad_category":"I","image_png":"I_Rhyolite_08.png","image_id":152,"category_name":"Rhyolite","category":10,"distinct_rating":1.38,"distinct_type":"Bottom","rt":null,"stimulus":"Stimuli_Rocks480/I_Rhyolite_08.png","response":null,"trial_type":"image-keyboard-response","trial_index":54,"plugin_version":"2.1.0","time_elapsed":183187,"subject_id":"86965","group":"Group2","full_date":"2025-11-11T02:32:39.766Z","date":"2025-11-11","time":"02:32:39"},{"rt":2101,"stimulus":"<p style=\"font-size: 35px;\">Press SPACE to continue study phase</p>","response":" ","trial_type":"html-keyboard-response","trial_index":55,"plugin_version":"2.1.0","time_elapsed":185290,"subject_id":"86965","group":"Group2","full_date":"2025-11-11T02:32:39.766Z","date":"2025-11-11","time":"02:32:39"},{"rt":null,"stimulus":"<p style=\"font-size: 50px; margin: 0; text-align: center;\">+</p>","response":null,"trial_type":"html-keyboard-response","trial_index":56,"plugin_version":"2.1.0","time_elapsed":186292,"subject_id":"86965","group":"Group2","full_date":"2025-11-11T02:32:39.766Z","date":"2025-11-11","time":"02:32:39"},{"task":"memory_phase","broad_category":"M","image_png":"M_Marble_14.png","image_id":238,"category_name":"Marble","category":15,"distinct_rating":3.31,"distinct_type":"Bottom","rt":null,"stimulus":"Stimuli_Rocks480/M_Marble_14.png","response":null,"trial_type":"image-keyboard-response","trial_index":57,"plugin_version":"2.1.0","time_elapsed":188795,"subject_id":"86965","group":"Group2","full_date":"2025-11-11T02:32:39.766Z","date":"2025-11-11","time":"02:32:39"},{"rt":null,"stimulus":"<p style=\"font-size: 50px; margin: 0; text-align: center;\">+</p>","response":null,"trial_type":"html-keyboard-response","trial_index":58,"plugin_version":"2.1.0","time_elapsed":189798,"subject_id":"86965","group":"Group2","full_date":"2025-11-11T02:32:39.766Z","date":"2025-11-11","time":"02:32:39"},{"task":"memory_phase","broad_category":"M","image_png":"M_Slate_04.png","image_id":308,"category_name":"Slate","category":20,"distinct_rating":2.2,"distinct_type":"Bottom","rt":null,"stimulus":"Stimuli_Rocks480/M_Slate_04.png","response":null,"trial_type":"image-keyboard-response","trial_index":59,"plugin_version":"2.1.0","time_elapsed":192301,"subject_id":"86965","group":"Group2","full_date":"2025-11-11T02:32:39.766Z","date":"2025-11-11","time":"02:32:39"},{"rt":null,"stimulus":"<p style=\"font-size: 50px; margin: 0; text-align: center;\">+</p>","response":null,"trial_type":"html-keyboard-response","trial_index":60,"plugin_version":"2.1.0","time_elapsed":193303,"subject_id":"86965","group":"Group2","full_date":"2025-11-11T02:32:39.766Z","date":"2025-11-11","time":"02:32:39"},{"task":"memory_phase","broad_category":"S","image_png":"S_Sandstone_11.png","image_id":459,"category_name":"Sandstone","category":29,"distinct_rating":1.82,"distinct_type":"Bottom","rt":null,"stimulus":"Stimuli_Rocks480/S_Sandstone_11.png","response":null,"trial_type":"image-keyboard-response","trial_index":61,"plugin_version":"2.1.0","time_elapsed":195807,"subject_id":"86965","group":"Group2","full_date":"2025-11-11T02:32:39.766Z","date":"2025-11-11","time":"02:32:39"},{"rt":null,"stimulus":"<p style=\"font-size: 50px; margin: 0; text-align: center;\">+</p>","response":null,"trial_type":"html-keyboard-response","trial_index":62,"plugin_version":"2.1.0","time_elapsed":196809,"subject_id":"86965","group":"Group2","full_date":"2025-11-11T02:32:39.766Z","date":"2025-11-11","time":"02:32:39"},{"task":"memory_phase","broad_category":"S","image_png":"S_Conglomerate_14.png","image_id":382,"category_name":"Conglomerate","category":24,"distinct_rating":6.86,"distinct_type":"Top","rt":null,"stimulus":"Stimuli_Rocks480/S_Conglomerate_14.png","response":null,"trial_type":"image-keyboard-response","trial_index":63,"plugin_version":"2.1.0","time_elapsed":199312,"subject_id":"86965","group":"Group2","full_date":"2025-11-11T02:32:39.766Z","date":"2025-11-11","time":"02:32:39"},{"rt":null,"stimulus":"<p style=\"font-size: 50px; margin: 0; text-align: center;\">+</p>","response":null,"trial_type":"html-keyboard-response","trial_index":64,"plugin_version":"2.1.0","time_elapsed":200315,"subject_id":"86965","group":"Group2","full_date":"2025-11-11T02:32:39.766Z","date":"2025-11-11","time":"02:32:39"},{"task":"memory_phase","broad_category":"I","image_png":"I_Basalt_10.png","image_id":26,"category_name":"Basalt","category":2,"distinct_rating":2.76,"distinct_type":"Bottom","rt":null,"stimulus":"Stimuli_Rocks480/I_Basalt_10.png","response":null,"trial_type":"image-keyboard-response","trial_index":65,"plugin_version":"2.1.0","time_elapsed":202818,"subject_id":"86965","group":"Group2","full_date":"2025-11-11T02:32:39.766Z","date":"2025-11-11","time":"02:32:39"},{"rt":null,"stimulus":"<p style=\"font-size: 50px; margin: 0; text-align: center;\">+</p>","response":null,"trial_type":"html-keyboard-response","trial_index":66,"plugin_version":"2.1.0","time_elapsed":203821,"subject_id":"86965","group":"Group2","full_date":"2025-11-11T02:32:39.766Z","date":"2025-11-11","time":"02:32:39"},{"task":"memory_phase","broad_category":"I","image_png":"I_Obsidian_06.png","image_id":86,"category_name":"Obsidian","category":6,"distinct_rating":8.01,"distinct_type":"Top","rt":null,"stimulus":"Stimuli_Rocks480/I_Obsidian_06.png","response":null,"trial_type":"image-keyboard-response","trial_index":67,"plugin_version":"2.1.0","time_elapsed":206325,"subject_id":"86965","group":"Group2","full_date":"2025-11-11T02:32:39.766Z","date":"2025-11-11","time":"02:32:39"},{"rt":null,"stimulus":"<p style=\"font-size: 50px; margin: 0; text-align: center;\">+</p>","response":null,"trial_type":"html-keyboard-response","trial_index":68,"plugin_version":"2.1.0","time_elapsed":207328,"subject_id":"86965","group":"Group2","full_date":"2025-11-11T02:32:39.766Z","date":"2025-11-11","time":"02:32:39"},{"task":"memory_phase","broad_category":"S","image_png":"S_Dolomite_16.png","image_id":400,"category_name":"Dolomite","category":25,"distinct_rating":1.71,"distinct_type":"Bottom","rt":null,"stimulus":"Stimuli_Rocks480/S_Dolomite_16.png","response":null,"trial_type":"image-keyboard-response","trial_index":69,"plugin_version":"2.1.0","time_elapsed":209830,"subject_id":"86965","group":"Group2","full_date":"2025-11-11T02:32:39.766Z","date":"2025-11-11","time":"02:32:39"},{"rt":null,"stimulus":"<p style=\"font-size: 50px; margin: 0; text-align: center;\">+</p>","response":null,"trial_type":"html-keyboard-response","trial_index":70,"plugin_version":"2.1.0","time_elapsed":210832,"subject_id":"86965","group":"Group2","full_date":"2025-11-11T02:32:39.766Z","date":"2025-11-11","time":"02:32:39"},{"task":"memory_phase","broad_category":"M","image_png":"M_Phyllite_05.png","image_id":261,"category_name":"Phyllite","category":17,"distinct_rating":2.14,"distinct_type":"Bottom","rt":null,"stimulus":"Stimuli_Rocks480/M_Phyllite_05.png","response":null,"trial_type":"image-keyboard-response","trial_index":71,"plugin_version":"2.1.0","time_elapsed":213926,"subject_id":"86965","group":"Group2","full_date":"2025-11-11T02:32:39.766Z","date":"2025-11-11","time":"02:32:39"},{"rt":null,"stimulus":"<p style=\"font-size: 50px; margin: 0; text-align: center;\">+</p>","response":null,"trial_type":"html-keyboard-response","trial_index":72,"plugin_version":"2.1.0","time_elapsed":215925,"subject_id":"86965","group":"Group2","full_date":"2025-11-11T02:32:39.766Z","date":"2025-11-11","time":"02:32:39"},{"task":"memory_phase","broad_category":"M","image_png":"M_Phyllite_02.png","image_id":258,"category_name":"Phyllite","category":17,"distinct_rating":2.89,"distinct_type":"Bottom","rt":null,"stimulus":"Stimuli_Rocks480/M_Phyllite_02.png","response":null,"trial_type":"image-keyboard-response","trial_index":73,"plugin_version":"2.1.0","time_elapsed":218924,"subject_id":"86965","group":"Group2","full_date":"2025-11-11T02:32:39.766Z","date":"2025-11-11","time":"02:32:39"},{"rt":null,"stimulus":"<p style=\"font-size: 50px; margin: 0; text-align: center;\">+</p>","response":null,"trial_type":"html-keyboard-response","trial_index":74,"plugin_version":"2.1.0","time_elapsed":219926,"subject_id":"86965","group":"Group2","full_date":"2025-11-11T02:32:39.766Z","date":"2025-11-11","time":"02:32:39"},{"task":"memory_phase","broad_category":"S","image_png":"S_Dolomite_01.png","image_id":385,"category_name":"Dolomite","category":25,"distinct_rating":1.43,"distinct_type":"Bottom","rt":null,"stimulus":"Stimuli_Rocks480/S_Dolomite_01.png","response":null,"trial_type":"image-keyboard-response","trial_index":75,"plugin_version":"2.1.0","time_elapsed":222926,"subject_id":"86965","group":"Group2","full_date":"2025-11-11T02:32:39.766Z","date":"2025-11-11","time":"02:32:39"},{"rt":null,"stimulus":"<p style=\"font-size: 50px; margin: 0; text-align: center;\">+</p>","response":null,"trial_type":"html-keyboard-response","trial_index":76,"plugin_version":"2.1.0","time_elapsed":223928,"subject_id":"86965","group":"Group2","full_date":"2025-11-11T02:32:39.766Z","date":"2025-11-11","time":"02:32:39"},{"task":"memory_phase","broad_category":"M","image_png":"M_Marble_02.png","image_id":226,"category_name":"Marble","category":15,"distinct_rating":3.2,"distinct_type":"Bottom","rt":null,"stimulus":"Stimuli_Rocks480/M_Marble_02.png","response":null,"trial_type":"image-keyboard-response","trial_index":77,"plugin_version":"2.1.0","time_elapsed":226925,"subject_id":"86965","group":"Group2","full_date":"2025-11-11T02:32:39.766Z","date":"2025-11-11","time":"02:32:39"},{"rt":null,"stimulus":"<p style=\"font-size: 50px; margin: 0; text-align: center;\">+</p>","response":null,"trial_type":"html-keyboard-response","trial_index":78,"plugin_version":"2.1.0","time_elapsed":227927,"subject_id":"86965","group":"Group2","full_date":"2025-11-11T02:32:39.766Z","date":"2025-11-11","time":"02:32:39"},{"task":"memory_phase","broad_category":"I","image_png":"I_Gabbro_14.png","image_id":62,"category_name":"Gabbro","category":4,"distinct_rating":2.95,"distinct_type":"Bottom","rt":null,"stimulus":"Stimuli_Rocks480/I_Gabbro_14.png","response":null,"trial_type":"image-keyboard-response","trial_index":79,"plugin_version":"2.1.0","time_elapsed":230923,"subject_id":"86965","group":"Group2","full_date":"2025-11-11T02:32:39.766Z","date":"2025-11-11","time":"02:32:39"},{"rt":null,"stimulus":"<p style=\"font-size: 50px; margin: 0; text-align: center;\">+</p>","response":null,"trial_type":"html-keyboard-response","trial_index":80,"plugin_version":"2.1.0","time_elapsed":231925,"subject_id":"86965","group":"Group2","full_date":"2025-11-11T02:32:39.766Z","date":"2025-11-11","time":"02:32:39"},{"task":"memory_phase","broad_category":"M","image_png":"M_Gneiss_15.png","image_id":207,"category_name":"Gneiss","category":13,"distinct_rating":3.11,"distinct_type":"Bottom","rt":null,"stimulus":"Stimuli_Rocks480/M_Gneiss_15.png","response":null,"trial_type":"image-keyboard-response","trial_index":81,"plugin_version":"2.1.0","time_elapsed":234924,"subject_id":"86965","group":"Group2","full_date":"2025-11-11T02:32:39.766Z","date":"2025-11-11","time":"02:32:39"},{"rt":null,"stimulus":"<p style=\"font-size: 50px; margin: 0; text-align: center;\">+</p>","response":null,"trial_type":"html-keyboard-response","trial_index":82,"plugin_version":"2.1.0","time_elapsed":235926,"subject_id":"86965","group":"Group2","full_date":"2025-11-11T02:32:39.766Z","date":"2025-11-11","time":"02:32:39"},{"task":"memory_phase","broad_category":"I","image_png":"I_Basalt_08.png","image_id":24,"category_name":"Basalt","category":2,"distinct_rating":2.31,"distinct_type":"Bottom","rt":null,"stimulus":"Stimuli_Rocks480/I_Basalt_08.png","response":null,"trial_type":"image-keyboard-response","trial_index":83,"plugin_version":"2.1.0","time_elapsed":238838,"subject_id":"86965","group":"Group2","full_date":"2025-11-11T02:32:39.766Z","date":"2025-11-11","time":"02:32:39"},{"rt":null,"stimulus":"<p style=\"font-size: 50px; margin: 0; text-align: center;\">+</p>","response":null,"trial_type":"html-keyboard-response","trial_index":84,"plugin_version":"2.1.0","time_elapsed":239839,"subject_id":"86965","group":"Group2","full_date":"2025-11-11T02:32:39.766Z","date":"2025-11-11","time":"02:32:39"},{"task":"memory_phase","broad_category":"S","image_png":"S_Rock Salt_13.png","image_id":445,"category_name":"Rock Salt","category":28,"distinct_rating":7.58,"distinct_type":"Top","rt":null,"stimulus":"Stimuli_Rocks480/S_Rock Salt_13.png","response":null,"trial_type":"image-keyboard-response","trial_index":85,"plugin_version":"2.1.0","time_elapsed":242341,"subject_id":"86965","group":"Group2","full_date":"2025-11-11T02:32:39.766Z","date":"2025-11-11","time":"02:32:39"},{"rt":null,"stimulus":"<p style=\"font-size: 50px; margin: 0; text-align: center;\">+</p>","response":null,"trial_type":"html-keyboard-response","trial_index":86,"plugin_version":"2.1.0","time_elapsed":243344,"subject_id":"86965","group":"Group2","full_date":"2025-11-11T02:32:39.766Z","date":"2025-11-11","time":"02:32:39"},{"task":"memory_phase","broad_category":"I","image_png":"I_Andesite_09.png","image_id":9,"category_name":"Andesite","category":1,"distinct_rating":2.49,"distinct_type":"Bottom","rt":null,"stimulus":"Stimuli_Rocks480/I_Andesite_09.png","response":null,"trial_type":"image-keyboard-response","trial_index":87,"plugin_version":"2.1.0","time_elapsed":245847,"subject_id":"86965","group":"Group2","full_date":"2025-11-11T02:32:39.766Z","date":"2025-11-11","time":"02:32:39"},{"rt":null,"stimulus":"<p style=\"font-size: 50px; margin: 0; text-align: center;\">+</p>","response":null,"trial_type":"html-keyboard-response","trial_index":88,"plugin_version":"2.1.0","time_elapsed":246850,"subject_id":"86965","group":"Group2","full_date":"2025-11-11T02:32:39.766Z","date":"2025-11-11","time":"02:32:39"},{"task":"memory_phase","broad_category":"M","image_png":"M_Quartzite_07.png","image_id":279,"category_name":"Quartzite","category":18,"distinct_rating":1.97,"distinct_type":"Bottom","rt":null,"stimulus":"Stimuli_Rocks480/M_Quartzite_07.png","response":null,"trial_type":"image-keyboard-response","trial_index":89,"plugin_version":"2.1.0","time_elapsed":249352,"subject_id":"86965","group":"Group2","full_date":"2025-11-11T02:32:39.766Z","date":"2025-11-11","time":"02:32:39"},{"rt":null,"stimulus":"<p style=\"font-size: 50px; margin: 0; text-align: center;\">+</p>","response":null,"trial_type":"html-keyboard-response","trial_index":90,"plugin_version":"2.1.0","time_elapsed":250355,"subject_id":"86965","group":"Group2","full_date":"2025-11-11T02:32:39.766Z","date":"2025-11-11","time":"02:32:39"},{"task":"memory_phase","broad_category":"S","image_png":"S_Rock Salt_15.png","image_id":447,"category_name":"Rock Salt","category":28,"distinct_rating":7.79,"distinct_type":"Top","rt":null,"stimulus":"Stimuli_Rocks480/S_Rock Salt_15.png","response":null,"trial_type":"image-keyboard-response","trial_index":91,"plugin_version":"2.1.0","time_elapsed":252857,"subject_id":"86965","group":"Group2","full_date":"2025-11-11T02:32:39.766Z","date":"2025-11-11","time":"02:32:39"},{"rt":null,"stimulus":"<p style=\"font-size: 50px; margin: 0; text-align: center;\">+</p>","response":null,"trial_type":"html-keyboard-response","trial_index":92,"plugin_version":"2.1.0","time_elapsed":253860,"subject_id":"86965","group":"Group2","full_date":"2025-11-11T02:32:39.766Z","date":"2025-11-11","time":"02:32:39"},{"task":"memory_phase","broad_category":"I","image_png":"I_Rhyolite_05.png","image_id":149,"category_name":"Rhyolite","category":10,"distinct_rating":3.02,"distinct_type":"Bottom","rt":null,"stimulus":"Stimuli_Rocks480/I_Rhyolite_05.png","response":null,"trial_type":"image-keyboard-response","trial_index":93,"plugin_version":"2.1.0","time_elapsed":256363,"subject_id":"86965","group":"Group2","full_date":"2025-11-11T02:32:39.766Z","date":"2025-11-11","time":"02:32:39"},{"rt":null,"stimulus":"<p style=\"font-size: 50px; margin: 0; text-align: center;\">+</p>","response":null,"trial_type":"html-keyboard-response","trial_index":94,"plugin_version":"2.1.0","time_elapsed":257366,"subject_id":"86965","group":"Group2","full_date":"2025-11-11T02:32:39.766Z","date":"2025-11-11","time":"02:32:39"},{"task":"memory_phase","broad_category":"S","image_png":"S_Shale_07.png","image_id":471,"category_name":"Shale","category":30,"distinct_rating":2.73,"distinct_type":"Bottom","rt":null,"stimulus":"Stimuli_Rocks480/S_Shale_07.png","response":null,"trial_type":"image-keyboard-response","trial_index":95,"plugin_version":"2.1.0","time_elapsed":259868,"subject_id":"86965","group":"Group2","full_date":"2025-11-11T02:32:39.766Z","date":"2025-11-11","time":"02:32:39"},{"rt":null,"stimulus":"<p style=\"font-size: 50px; margin: 0; text-align: center;\">+</p>","response":null,"trial_type":"html-keyboard-response","trial_index":96,"plugin_version":"2.1.0","time_elapsed":260871,"subject_id":"86965","group":"Group2","full_date":"2025-11-11T02:32:39.766Z","date":"2025-11-11","time":"02:32:39"},{"task":"memory_phase","broad_category":"I","image_png":"I_Gabbro_02.png","image_id":50,"category_name":"Gabbro","category":4,"distinct_rating":2.73,"distinct_type":"Bottom","rt":null,"stimulus":"Stimuli_Rocks480/I_Gabbro_02.png","response":null,"trial_type":"image-keyboard-response","trial_index":97,"plugin_version":"2.1.0","time_elapsed":263374,"subject_id":"86965","group":"Group2","full_date":"2025-11-11T02:32:39.766Z","date":"2025-11-11","time":"02:32:39"},{"rt":null,"stimulus":"<p style=\"font-size: 50px; margin: 0; text-align: center;\">+</p>","response":null,"trial_type":"html-keyboard-response","trial_index":98,"plugin_version":"2.1.0","time_elapsed":264377,"subject_id":"86965","group":"Group2","full_date":"2025-11-11T02:32:39.766Z","date":"2025-11-11","time":"02:32:39"},{"task":"memory_phase","broad_category":"I","image_png":"I_Pegmatite_11.png","image_id":107,"category_name":"Pegmatite","category":7,"distinct_rating":7.11,"distinct_type":"Top","rt":null,"stimulus":"Stimuli_Rocks480/I_Pegmatite_11.png","response":null,"trial_type":"image-keyboard-response","trial_index":99,"plugin_version":"2.1.0","time_elapsed":266879,"subject_id":"86965","group":"Group2","full_date":"2025-11-11T02:32:39.766Z","date":"2025-11-11","time":"02:32:39"},{"rt":null,"stimulus":"<p style=\"font-size: 50px; margin: 0; text-align: center;\">+</p>","response":null,"trial_type":"html-keyboard-response","trial_index":100,"plugin_version":"2.1.0","time_elapsed":267882,"subject_id":"86965","group":"Group2","full_date":"2025-11-11T02:32:39.766Z","date":"2025-11-11","time":"02:32:39"},{"task":"memory_phase","broad_category":"I","image_png":"I_Diorite_01.png","image_id":33,"category_name":"Diorite","category":3,"distinct_rating":2.97,"distinct_type":"Bottom","rt":null,"stimulus":"Stimuli_Rocks480/I_Diorite_01.png","response":null,"trial_type":"image-keyboard-response","trial_index":101,"plugin_version":"2.1.0","time_elapsed":270384,"subject_id":"86965","group":"Group2","full_date":"2025-11-11T02:32:39.766Z","date":"2025-11-11","time":"02:32:39"},{"rt":null,"stimulus":"<p style=\"font-size: 50px; margin: 0; text-align: center;\">+</p>","response":null,"trial_type":"html-keyboard-response","trial_index":102,"plugin_version":"2.1.0","time_elapsed":271387,"subject_id":"86965","group":"Group2","full_date":"2025-11-11T02:32:39.766Z","date":"2025-11-11","time":"02:32:39"},{"task":"memory_phase","broad_category":"I","image_png":"I_Pumice_01.png","image_id":129,"category_name":"Pumice","category":9,"distinct_rating":3.25,"distinct_type":"Bottom","rt":null,"stimulus":"Stimuli_Rocks480/I_Pumice_01.png","response":null,"trial_type":"image-keyboard-response","trial_index":103,"plugin_version":"2.1.0","time_elapsed":273889,"subject_id":"86965","group":"Group2","full_date":"2025-11-11T02:32:39.766Z","date":"2025-11-11","time":"02:32:39"},{"rt":null,"stimulus":"<p style=\"font-size: 50px; margin: 0; text-align: center;\">+</p>","response":null,"trial_type":"html-keyboard-response","trial_index":104,"plugin_version":"2.1.0","time_elapsed":274923,"subject_id":"86965","group":"Group2","full_date":"2025-11-11T02:32:39.766Z","date":"2025-11-11","time":"02:32:39"},{"task":"memory_phase","broad_category":"M","image_png":"M_Phyllite_13.png","image_id":269,"category_name":"Phyllite","category":17,"distinct_rating":2.8,"distinct_type":"Bottom","rt":null,"stimulus":"Stimuli_Rocks480/M_Phyllite_13.png","response":null,"trial_type":"image-keyboard-response","trial_index":105,"plugin_version":"2.1.0","time_elapsed":277923,"subject_id":"86965","group":"Group2","full_date":"2025-11-11T02:32:39.766Z","date":"2025-11-11","time":"02:32:39"},{"rt":76195,"stimulus":"<div style=\"max-width: 760px; margin: auto; font-size: 20px; line-height: 1.5;\">\n      <h1 style=\"text-align:center; font-size: 30px;\">Instructions for the Test Phase</h1>\n      <p>\n        The study phase is now complete.\n      </p>\n      <p>\n        In the test phase, you will again see a series of rock images. \n        Some will be ones you saw before - during the study phase, while others will be new.  \n        <b>Your task</b> is to decide whether you have seen each image before by pressing the corresponding key on your keyboard:<br><br>\n          <b>A</b> - NO (you did not see this image before)<br>\n          <b>L</b> - YES (you saw this image before)<br><br>\n        The test will proceed at your own pace. You will receive feedback after each response.  \n        Please try to respond <b>as accurately as possible</b>.\n      </p>\n      <p>\n        <b>Reminder:</b> If your computer has multiple language settings (e.g., English and another language),\n        please ensure it is set to English during the test phase.\n      </p>\n      <p>\n        You can track your progress using the <b>completion bar</b> at the top of the screen.  \n        Note that it has been refreshed to reflect your progress during this final phase.\n      </p>\n      <p>\n        Press the button below when you are ready to continue.\n      </p>\n    </div>","response":0,"trial_type":"html-button-response","trial_index":106,"plugin_version":"2.1.0","time_elapsed":354120,"subject_id":"86965","group":"Group2","full_date":"2025-11-11T02:32:39.766Z","date":"2025-11-11","time":"02:32:39"},{"correct_response":"a","task":"test_phase","broad_category":"I","image_png":"I_Gabbro_11.png","image_id":59,"category_name":"Gabbro","category":4,"distinct_rating":1.99,"distinct_type":"Bottom","item_type":"Foil","rt":2879,"stimulus":"Stimuli_Rocks480/I_Gabbro_11.png","response":"l","trial_type":"image-keyboard-response","trial_index":107,"plugin_version":"2.1.0","time_elapsed":357003,"subject_id":"86965","group":"Group2","full_date":"2025-11-11T02:32:39.766Z","date":"2025-11-11","time":"02:32:39","cor_ans":false},{"trial_type":"html-keyboard-response","rt":null,"stimulus":"<p style=\"color: red; font-size: 50px; font-weight: bold;\">Incorrect</p>","response":null,"trial_index":108,"plugin_version":"2.1.0","time_elapsed":357505,"subject_id":"86965","group":"Group2","full_date":"2025-11-11T02:32:39.766Z","date":"2025-11-11","time":"02:32:39"},{"correct_response":"l","task":"test_phase","broad_category":"I","image_png":"I_Andesite_09.png","image_id":9,"category_name":"Andesite","category":1,"distinct_rating":2.49,"distinct_type":"Bottom","item_type":"Target","rt":1260,"stimulus":"Stimuli_Rocks480/I_Andesite_09.png","response":"l","trial_type":"image-keyboard-response","trial_index":109,"plugin_version":"2.1.0","time_elapsed":358767,"subject_id":"86965","group":"Group2","full_date":"2025-11-11T02:32:39.766Z","date":"2025-11-11","time":"02:32:39","cor_ans":true},{"trial_type":"html-keyboard-response","rt":null,"stimulus":"<p style=\"color: green; font-size: 50px; font-weight: bold;\">Correct</p>","response":null,"trial_index":110,"plugin_version":"2.1.0","time_elapsed":359268,"subject_id":"86965","group":"Group2","full_date":"2025-11-11T02:32:39.766Z","date":"2025-11-11","time":"02:32:39"},{"correct_response":"a","task":"test_phase","broad_category":"S","image_png":"S_Rock Gypsum_04.png","image_id":420,"category_name":"Rock Gypsum","category":27,"distinct_rating":7.61,"distinct_type":"Top","item_type":"Foil","rt":2227,"stimulus":"Stimuli_Rocks480/S_Rock Gypsum_04.png","response":"a","trial_type":"image-keyboard-response","trial_index":111,"plugin_version":"2.1.0","time_elapsed":361497,"subject_id":"86965","group":"Group2","full_date":"2025-11-11T02:32:39.766Z","date":"2025-11-11","time":"02:32:39","cor_ans":true},{"trial_type":"html-keyboard-response","rt":null,"stimulus":"<p style=\"color: green; font-size: 50px; font-weight: bold;\">Correct</p>","response":null,"trial_index":112,"plugin_version":"2.1.0","time_elapsed":361998,"subject_id":"86965","group":"Group2","full_date":"2025-11-11T02:32:39.766Z","date":"2025-11-11","time":"02:32:39"},{"correct_response":"a","task":"test_phase","broad_category":"S","image_png":"S_Dolomite_13.png","image_id":397,"category_name":"Dolomite","category":25,"distinct_rating":1.77,"distinct_type":"Bottom","item_type":"Foil","rt":1088,"stimulus":"Stimuli_Rocks480/S_Dolomite_13.png","response":"l","trial_type":"image-keyboard-response","trial_index":113,"plugin_version":"2.1.0","time_elapsed":363088,"subject_id":"86965","group":"Group2","full_date":"2025-11-11T02:32:39.766Z","date":"2025-11-11","time":"02:32:39","cor_ans":false},{"trial_type":"html-keyboard-response","rt":null,"stimulus":"<p style=\"color: red; font-size: 50px; font-weight: bold;\">Incorrect</p>","response":null,"trial_index":114,"plugin_version":"2.1.0","time_elapsed":363590,"subject_id":"86965","group":"Group2","full_date":"2025-11-11T02:32:39.766Z","date":"2025-11-11","time":"02:32:39"},{"correct_response":"l","task":"test_phase","broad_category":"I","image_png":"I_Basalt_10.png","image_id":26,"category_name":"Basalt","category":2,"distinct_rating":2.76,"distinct_type":"Bottom","item_type":"Target","rt":820,"stimulus":"Stimuli_Rocks480/I_Basalt_10.png","response":"l","trial_type":"image-keyboard-response","trial_index":115,"plugin_version":"2.1.0","time_elapsed":364412,"subject_id":"86965","group":"Group2","full_date":"2025-11-11T02:32:39.766Z","date":"2025-11-11","time":"02:32:39","cor_ans":true},{"trial_type":"html-keyboard-response","rt":null,"stimulus":"<p style=\"color: green; font-size: 50px; font-weight: bold;\">Correct</p>","response":null,"trial_index":116,"plugin_version":"2.1.0","time_elapsed":364913,"subject_id":"86965","group":"Group2","full_date":"2025-11-11T02:32:39.766Z","date":"2025-11-11","time":"02:32:39"},{"correct_response":"l","task":"test_phase","broad_category":"M","image_png":"M_Quartzite_12.png","image_id":284,"category_name":"Quartzite","category":18,"distinct_rating":1.92,"distinct_type":"Bottom","item_type":"Target","rt":1396,"stimulus":"Stimuli_Rocks480/M_Quartzite_12.png","response":"a","trial_type":"image-keyboard-response","trial_index":117,"plugin_version":"2.1.0","time_elapsed":366311,"subject_id":"86965","group":"Group2","full_date":"2025-11-11T02:32:39.766Z","date":"2025-11-11","time":"02:32:39","cor_ans":false},{"trial_type":"html-keyboard-response","rt":null,"stimulus":"<p style=\"color: red; font-size: 50px; font-weight: bold;\">Incorrect</p>","response":null,"trial_index":118,"plugin_version":"2.1.0","time_elapsed":366812,"subject_id":"86965","group":"Group2","full_date":"2025-11-11T02:32:39.766Z","date":"2025-11-11","time":"02:32:39"},{"correct_response":"a","task":"test_phase","broad_category":"M","image_png":"M_Slate_15.png","image_id":319,"category_name":"Slate","category":20,"distinct_rating":2.13,"distinct_type":"Bottom","item_type":"Foil","rt":1004,"stimulus":"Stimuli_Rocks480/M_Slate_15.png","response":"l","trial_type":"image-keyboard-response","trial_index":119,"plugin_version":"2.1.0","time_elapsed":367817,"subject_id":"86965","group":"Group2","full_date":"2025-11-11T02:32:39.766Z","date":"2025-11-11","time":"02:32:39","cor_ans":false},{"trial_type":"html-keyboard-response","rt":null,"stimulus":"<p style=\"color: red; font-size: 50px; font-weight: bold;\">Incorrect</p>","response":null,"trial_index":120,"plugin_version":"2.1.0","time_elapsed":368319,"subject_id":"86965","group":"Group2","full_date":"2025-11-11T02:32:39.766Z","date":"2025-11-11","time":"02:32:39"},{"correct_response":"l","task":"test_phase","broad_category":"M","image_png":"M_Gneiss_10.png","image_id":202,"category_name":"Gneiss","category":13,"distinct_rating":3.09,"distinct_type":"Bottom","item_type":"Target","rt":851,"stimulus":"Stimuli_Rocks480/M_Gneiss_10.png","response":"l","trial_type":"image-keyboard-response","trial_index":121,"plugin_version":"2.1.0","time_elapsed":369172,"subject_id":"86965","group":"Group2","full_date":"2025-11-11T02:32:39.766Z","date":"2025-11-11","time":"02:32:39","cor_ans":true},{"trial_type":"html-keyboard-response","rt":null,"stimulus":"<p style=\"color: green; font-size: 50px; font-weight: bold;\">Correct</p>","response":null,"trial_index":122,"plugin_version":"2.1.0","time_elapsed":369673,"subject_id":"86965","group":"Group2","full_date":"2025-11-11T02:32:39.766Z","date":"2025-11-11","time":"02:32:39"},{"correct_response":"l","task":"test_phase","broad_category":"I","image_png":"I_Andesite_04.png","image_id":4,"category_name":"Andesite","category":1,"distinct_rating":3.18,"distinct_type":"Bottom","item_type":"Target","rt":956,"stimulus":"Stimuli_Rocks480/I_Andesite_04.png","response":"l","trial_type":"image-keyboard-response","trial_index":123,"plugin_version":"2.1.0","time_elapsed":370630,"subject_id":"86965","group":"Group2","full_date":"2025-11-11T02:32:39.766Z","date":"2025-11-11","time":"02:32:39","cor_ans":true},{"trial_type":"html-keyboard-response","rt":null,"stimulus":"<p style=\"color: green; font-size: 50px; font-weight: bold;\">Correct</p>","response":null,"trial_index":124,"plugin_version":"2.1.0","time_elapsed":371132,"subject_id":"86965","group":"Group2","full_date":"2025-11-11T02:32:39.766Z","date":"2025-11-11","time":"02:32:39"},{"correct_response":"a","task":"test_phase","broad_category":"M","image_png":"M_Phyllite_07.png","image_id":263,"category_name":"Phyllite","category":17,"distinct_rating":2.59,"distinct_type":"Bottom","item_type":"Foil","rt":922,"stimulus":"Stimuli_Rocks480/M_Phyllite_07.png","response":"l","trial_type":"image-keyboard-response","trial_index":125,"plugin_version":"2.1.0","time_elapsed":372056,"subject_id":"86965","group":"Group2","full_date":"2025-11-11T02:32:39.766Z","date":"2025-11-11","time":"02:32:39","cor_ans":false},{"trial_type":"html-keyboard-response","rt":null,"stimulus":"<p style=\"color: red; font-size: 50px; font-weight: bold;\">Incorrect</p>","response":null,"trial_index":126,"plugin_version":"2.1.0","time_elapsed":372558,"subject_id":"86965","group":"Group2","full_date":"2025-11-11T02:32:39.766Z","date":"2025-11-11","time":"02:32:39"},{"correct_response":"a","task":"test_phase","broad_category":"M","image_png":"M_Phyllite_10.png","image_id":266,"category_name":"Phyllite","category":17,"distinct_rating":2.6,"distinct_type":"Bottom","item_type":"Foil","rt":1306,"stimulus":"Stimuli_Rocks480/M_Phyllite_10.png","response":"a","trial_type":"image-keyboard-response","trial_index":127,"plugin_version":"2.1.0","time_elapsed":373867,"subject_id":"86965","group":"Group2","full_date":"2025-11-11T02:32:39.766Z","date":"2025-11-11","time":"02:32:39","cor_ans":true},{"trial_type":"html-keyboard-response","rt":null,"stimulus":"<p style=\"color: green; font-size: 50px; font-weight: bold;\">Correct</p>","response":null,"trial_index":128,"plugin_version":"2.1.0","time_elapsed":374368,"subject_id":"86965","group":"Group2","full_date":"2025-11-11T02:32:39.766Z","date":"2025-11-11","time":"02:32:39"},{"correct_response":"l","task":"test_phase","broad_category":"I","image_png":"I_Pegmatite_11.png","image_id":107,"category_name":"Pegmatite","category":7,"distinct_rating":7.11,"distinct_type":"Top","item_type":"Target","rt":1129,"stimulus":"Stimuli_Rocks480/I_Pegmatite_11.png","response":"a","trial_type":"image-keyboard-response","trial_index":129,"plugin_version":"2.1.0","time_elapsed":375498,"subject_id":"86965","group":"Group2","full_date":"2025-11-11T02:32:39.766Z","date":"2025-11-11","time":"02:32:39","cor_ans":false},{"trial_type":"html-keyboard-response","rt":null,"stimulus":"<p style=\"color: red; font-size: 50px; font-weight: bold;\">Incorrect</p>","response":null,"trial_index":130,"plugin_version":"2.1.0","time_elapsed":376000,"subject_id":"86965","group":"Group2","full_date":"2025-11-11T02:32:39.766Z","date":"2025-11-11","time":"02:32:39"},{"correct_response":"a","task":"test_phase","broad_category":"I","image_png":"I_Pegmatite_10.png","image_id":106,"category_name":"Pegmatite","category":7,"distinct_rating":7.66,"distinct_type":"Top","item_type":"Foil","rt":1614,"stimulus":"Stimuli_Rocks480/I_Pegmatite_10.png","response":"a","trial_type":"image-keyboard-response","trial_index":131,"plugin_version":"2.1.0","time_elapsed":377615,"subject_id":"86965","group":"Group2","full_date":"2025-11-11T02:32:39.766Z","date":"2025-11-11","time":"02:32:39","cor_ans":true},{"trial_type":"html-keyboard-response","rt":null,"stimulus":"<p style=\"color: green; font-size: 50px; font-weight: bold;\">Correct</p>","response":null,"trial_index":132,"plugin_version":"2.1.0","time_elapsed":378116,"subject_id":"86965","group":"Group2","full_date":"2025-11-11T02:32:39.766Z","date":"2025-11-11","time":"02:32:39"},{"correct_response":"l","task":"test_phase","broad_category":"S","image_png":"S_Shale_07.png","image_id":471,"category_name":"Shale","category":30,"distinct_rating":2.73,"distinct_type":"Bottom","item_type":"Target","rt":1160,"stimulus":"Stimuli_Rocks480/S_Shale_07.png","response":"l","trial_type":"image-keyboard-response","trial_index":133,"plugin_version":"2.1.0","time_elapsed":379278,"subject_id":"86965","group":"Group2","full_date":"2025-11-11T02:32:39.766Z","date":"2025-11-11","time":"02:32:39","cor_ans":true},{"trial_type":"html-keyboard-response","rt":null,"stimulus":"<p style=\"color: green; font-size: 50px; font-weight: bold;\">Correct</p>","response":null,"trial_index":134,"plugin_version":"2.1.0","time_elapsed":379779,"subject_id":"86965","group":"Group2","full_date":"2025-11-11T02:32:39.766Z","date":"2025-11-11","time":"02:32:39"},{"correct_response":"l","task":"test_phase","broad_category":"I","image_png":"I_Pumice_13.png","image_id":141,"category_name":"Pumice","category":9,"distinct_rating":3.12,"distinct_type":"Bottom","item_type":"Target","rt":1463,"stimulus":"Stimuli_Rocks480/I_Pumice_13.png","response":"a","trial_type":"image-keyboard-response","trial_index":135,"plugin_version":"2.1.0","time_elapsed":381244,"subject_id":"86965","group":"Group2","full_date":"2025-11-11T02:32:39.766Z","date":"2025-11-11","time":"02:32:39","cor_ans":false},{"trial_type":"html-keyboard-response","rt":null,"stimulus":"<p style=\"color: red; font-size: 50px; font-weight: bold;\">Incorrect</p>","response":null,"trial_index":136,"plugin_version":"2.1.0","time_elapsed":381745,"subject_id":"86965","group":"Group2","full_date":"2025-11-11T02:32:39.766Z","date":"2025-11-11","time":"02:32:39"},{"correct_response":"l","task":"test_phase","broad_category":"M","image_png":"M_Phyllite_02.png","image_id":258,"category_name":"Phyllite","category":17,"distinct_rating":2.89,"distinct_type":"Bottom","item_type":"Target","rt":1505,"stimulus":"Stimuli_Rocks480/M_Phyllite_02.png","response":"l","trial_type":"image-keyboard-response","trial_index":137,"plugin_version":"2.1.0","time_elapsed":383252,"subject_id":"86965","group":"Group2","full_date":"2025-11-11T02:32:39.766Z","date":"2025-11-11","time":"02:32:39","cor_ans":true},{"trial_type":"html-keyboard-response","rt":null,"stimulus":"<p style=\"color: green; font-size: 50px; font-weight: bold;\">Correct</p>","response":null,"trial_index":138,"plugin_version":"2.1.0","time_elapsed":383754,"subject_id":"86965","group":"Group2","full_date":"2025-11-11T02:32:39.766Z","date":"2025-11-11","time":"02:32:39"},{"correct_response":"l","task":"test_phase","broad_category":"S","image_png":"S_Chert_13.png","image_id":365,"category_name":"Chert","category":23,"distinct_rating":6.57,"distinct_type":"Top","item_type":"Target","rt":1077,"stimulus":"Stimuli_Rocks480/S_Chert_13.png","response":"l","trial_type":"image-keyboard-response","trial_index":139,"plugin_version":"2.1.0","time_elapsed":384832,"subject_id":"86965","group":"Group2","full_date":"2025-11-11T02:32:39.766Z","date":"2025-11-11","time":"02:32:39","cor_ans":true},{"trial_type":"html-keyboard-response","rt":null,"stimulus":"<p style=\"color: green; font-size: 50px; font-weight: bold;\">Correct</p>","response":null,"trial_index":140,"plugin_version":"2.1.0","time_elapsed":385333,"subject_id":"86965","group":"Group2","full_date":"2025-11-11T02:32:39.766Z","date":"2025-11-11","time":"02:32:39"},{"correct_response":"l","task":"test_phase","broad_category":"M","image_png":"M_Quartzite_07.png","image_id":279,"category_name":"Quartzite","category":18,"distinct_rating":1.97,"distinct_type":"Bottom","item_type":"Target","rt":941,"stimulus":"Stimuli_Rocks480/M_Quartzite_07.png","response":"l","trial_type":"image-keyboard-response","trial_index":141,"plugin_version":"2.1.0","time_elapsed":386275,"subject_id":"86965","group":"Group2","full_date":"2025-11-11T02:32:39.766Z","date":"2025-11-11","time":"02:32:39","cor_ans":true},{"trial_type":"html-keyboard-response","rt":null,"stimulus":"<p style=\"color: green; font-size: 50px; font-weight: bold;\">Correct</p>","response":null,"trial_index":142,"plugin_version":"2.1.0","time_elapsed":386777,"subject_id":"86965","group":"Group2","full_date":"2025-11-11T02:32:39.766Z","date":"2025-11-11","time":"02:32:39"},{"correct_response":"l","task":"test_phase","broad_category":"M","image_png":"M_Marble_14.png","image_id":238,"category_name":"Marble","category":15,"distinct_rating":3.31,"distinct_type":"Bottom","item_type":"Target","rt":1511,"stimulus":"Stimuli_Rocks480/M_Marble_14.png","response":"a","trial_type":"image-keyboard-response","trial_index":143,"plugin_version":"2.1.0","time_elapsed":388289,"subject_id":"86965","group":"Group2","full_date":"2025-11-11T02:32:39.766Z","date":"2025-11-11","time":"02:32:39","cor_ans":false},{"trial_type":"html-keyboard-response","rt":null,"stimulus":"<p style=\"color: red; font-size: 50px; font-weight: bold;\">Incorrect</p>","response":null,"trial_index":144,"plugin_version":"2.1.0","time_elapsed":388790,"subject_id":"86965","group":"Group2","full_date":"2025-11-11T02:32:39.766Z","date":"2025-11-11","time":"02:32:39"},{"correct_response":"a","task":"test_phase","broad_category":"S","image_png":"S_Rock Salt_01.png","image_id":433,"category_name":"Rock Salt","category":28,"distinct_rating":7.18,"distinct_type":"Top","item_type":"Foil","rt":975,"stimulus":"Stimuli_Rocks480/S_Rock Salt_01.png","response":"l","trial_type":"image-keyboard-response","trial_index":145,"plugin_version":"2.1.0","time_elapsed":389766,"subject_id":"86965","group":"Group2","full_date":"2025-11-11T02:32:39.766Z","date":"2025-11-11","time":"02:32:39","cor_ans":false},{"trial_type":"html-keyboard-response","rt":null,"stimulus":"<p style=\"color: red; font-size: 50px; font-weight: bold;\">Incorrect</p>","response":null,"trial_index":146,"plugin_version":"2.1.0","time_elapsed":390268,"subject_id":"86965","group":"Group2","full_date":"2025-11-11T02:32:39.766Z","date":"2025-11-11","time":"02:32:39"},{"correct_response":"a","task":"test_phase","broad_category":"M","image_png":"M_Quartzite_13.png","image_id":285,"category_name":"Quartzite","category":18,"distinct_rating":2.27,"distinct_type":"Bottom","item_type":"Foil","rt":896,"stimulus":"Stimuli_Rocks480/M_Quartzite_13.png","response":"l","trial_type":"image-keyboard-response","trial_index":147,"plugin_version":"2.1.0","time_elapsed":391166,"subject_id":"86965","group":"Group2","full_date":"2025-11-11T02:32:39.766Z","date":"2025-11-11","time":"02:32:39","cor_ans":false},{"trial_type":"html-keyboard-response","rt":null,"stimulus":"<p style=\"color: red; font-size: 50px; font-weight: bold;\">Incorrect</p>","response":null,"trial_index":148,"plugin_version":"2.1.0","time_elapsed":391667,"subject_id":"86965","group":"Group2","full_date":"2025-11-11T02:32:39.766Z","date":"2025-11-11","time":"02:32:39"},{"correct_response":"a","task":"test_phase","broad_category":"M","image_png":"M_Quartzite_05.png","image_id":277,"category_name":"Quartzite","category":18,"distinct_rating":2.23,"distinct_type":"Bottom","item_type":"Foil","rt":45049,"stimulus":"Stimuli_Rocks480/M_Quartzite_05.png","response":"l","trial_type":"image-keyboard-response","trial_index":149,"plugin_version":"2.1.0","time_elapsed":436717,"subject_id":"86965","group":"Group2","full_date":"2025-11-11T02:32:39.766Z","date":"2025-11-11","time":"02:32:39","cor_ans":false},{"trial_type":"html-keyboard-response","rt":null,"stimulus":"<p style=\"color: red; font-size: 50px; font-weight: bold;\">Incorrect</p>","response":null,"trial_index":150,"plugin_version":"2.1.0","time_elapsed":437219,"subject_id":"86965","group":"Group2","full_date":"2025-11-11T02:32:39.766Z","date":"2025-11-11","time":"02:32:39"},{"correct_response":"l","task":"test_phase","broad_category":"I","image_png":"I_Gabbro_14.png","image_id":62,"category_name":"Gabbro","category":4,"distinct_rating":2.95,"distinct_type":"Bottom","item_type":"Target","rt":779,"stimulus":"Stimuli_Rocks480/I_Gabbro_14.png","response":"l","trial_type":"image-keyboard-response","trial_index":151,"plugin_version":"2.1.0","time_elapsed":438000,"subject_id":"86965","group":"Group2","full_date":"2025-11-11T02:32:39.766Z","date":"2025-11-11","time":"02:32:39","cor_ans":true},{"trial_type":"html-keyboard-response","rt":null,"stimulus":"<p style=\"color: green; font-size: 50px; font-weight: bold;\">Correct</p>","response":null,"trial_index":152,"plugin_version":"2.1.0","time_elapsed":438502,"subject_id":"86965","group":"Group2","full_date":"2025-11-11T02:32:39.766Z","date":"2025-11-11","time":"02:32:39"},{"correct_response":"a","task":"test_phase","broad_category":"I","image_png":"I_Andesite_08.png","image_id":8,"category_name":"Andesite","category":1,"distinct_rating":1.95,"distinct_type":"Bottom","item_type":"Foil","rt":983,"stimulus":"Stimuli_Rocks480/I_Andesite_08.png","response":"l","trial_type":"image-keyboard-response","trial_index":153,"plugin_version":"2.1.0","time_elapsed":439487,"subject_id":"86965","group":"Group2","full_date":"2025-11-11T02:32:39.766Z","date":"2025-11-11","time":"02:32:39","cor_ans":false},{"trial_type":"html-keyboard-response","rt":null,"stimulus":"<p style=\"color: red; font-size: 50px; font-weight: bold;\">Incorrect</p>","response":null,"trial_index":154,"plugin_version":"2.1.0","time_elapsed":439988,"subject_id":"86965","group":"Group2","full_date":"2025-11-11T02:32:39.766Z","date":"2025-11-11","time":"02:32:39"},{"correct_response":"l","task":"test_phase","broad_category":"I","image_png":"I_Peridotite_13.png","image_id":125,"category_name":"Peridotite","category":8,"distinct_rating":7.28,"distinct_type":"Top","item_type":"Target","rt":1129,"stimulus":"Stimuli_Rocks480/I_Peridotite_13.png","response":"l","trial_type":"image-keyboard-response","trial_index":155,"plugin_version":"2.1.0","time_elapsed":441118,"subject_id":"86965","group":"Group2","full_date":"2025-11-11T02:32:39.766Z","date":"2025-11-11","time":"02:32:39","cor_ans":true},{"trial_type":"html-keyboard-response","rt":null,"stimulus":"<p style=\"color: green; font-size: 50px; font-weight: bold;\">Correct</p>","response":null,"trial_index":156,"plugin_version":"2.1.0","time_elapsed":441620,"subject_id":"86965","group":"Group2","full_date":"2025-11-11T02:32:39.766Z","date":"2025-11-11","time":"02:32:39"},{"correct_response":"l","task":"test_phase","broad_category":"S","image_png":"S_Shale_03.png","image_id":467,"category_name":"Shale","category":30,"distinct_rating":1.95,"distinct_type":"Bottom","item_type":"Target","rt":800,"stimulus":"Stimuli_Rocks480/S_Shale_03.png","response":"l","trial_type":"image-keyboard-response","trial_index":157,"plugin_version":"2.1.0","time_elapsed":442422,"subject_id":"86965","group":"Group2","full_date":"2025-11-11T02:32:39.766Z","date":"2025-11-11","time":"02:32:39","cor_ans":true},{"trial_type":"html-keyboard-response","rt":null,"stimulus":"<p style=\"color: green; font-size: 50px; font-weight: bold;\">Correct</p>","response":null,"trial_index":158,"plugin_version":"2.1.0","time_elapsed":442924,"subject_id":"86965","group":"Group2","full_date":"2025-11-11T02:32:39.766Z","date":"2025-11-11","time":"02:32:39"},{"correct_response":"a","task":"test_phase","broad_category":"M","image_png":"M_Phyllite_03.png","image_id":259,"category_name":"Phyllite","category":17,"distinct_rating":2.5,"distinct_type":"Bottom","item_type":"Foil","rt":896,"stimulus":"Stimuli_Rocks480/M_Phyllite_03.png","response":"l","trial_type":"image-keyboard-response","trial_index":159,"plugin_version":"2.1.0","time_elapsed":443822,"subject_id":"86965","group":"Group2","full_date":"2025-11-11T02:32:39.766Z","date":"2025-11-11","time":"02:32:39","cor_ans":false},{"trial_type":"html-keyboard-response","rt":null,"stimulus":"<p style=\"color: red; font-size: 50px; font-weight: bold;\">Incorrect</p>","response":null,"trial_index":160,"plugin_version":"2.1.0","time_elapsed":444323,"subject_id":"86965","group":"Group2","full_date":"2025-11-11T02:32:39.766Z","date":"2025-11-11","time":"02:32:39"},{"correct_response":"l","task":"test_phase","broad_category":"I","image_png":"I_Diorite_15.png","image_id":47,"category_name":"Diorite","category":3,"distinct_rating":3.05,"distinct_type":"Bottom","item_type":"Target","rt":676,"stimulus":"Stimuli_Rocks480/I_Diorite_15.png","response":"l","trial_type":"image-keyboard-response","trial_index":161,"plugin_version":"2.1.0","time_elapsed":445001,"subject_id":"86965","group":"Group2","full_date":"2025-11-11T02:32:39.766Z","date":"2025-11-11","time":"02:32:39","cor_ans":true},{"trial_type":"html-keyboard-response","rt":null,"stimulus":"<p style=\"color: green; font-size: 50px; font-weight: bold;\">Correct</p>","response":null,"trial_index":162,"plugin_version":"2.1.0","time_elapsed":445502,"subject_id":"86965","group":"Group2","full_date":"2025-11-11T02:32:39.766Z","date":"2025-11-11","time":"02:32:39"},{"correct_response":"a","task":"test_phase","broad_category":"M","image_png":"M_Gneiss_06.png","image_id":198,"category_name":"Gneiss","category":13,"distinct_rating":2.65,"distinct_type":"Bottom","item_type":"Foil","rt":2026,"stimulus":"Stimuli_Rocks480/M_Gneiss_06.png","response":"a","trial_type":"image-keyboard-response","trial_index":163,"plugin_version":"2.1.0","time_elapsed":447530,"subject_id":"86965","group":"Group2","full_date":"2025-11-11T02:32:39.766Z","date":"2025-11-11","time":"02:32:39","cor_ans":true},{"trial_type":"html-keyboard-response","rt":null,"stimulus":"<p style=\"color: green; font-size: 50px; font-weight: bold;\">Correct</p>","response":null,"trial_index":164,"plugin_version":"2.1.0","time_elapsed":448031,"subject_id":"86965","group":"Group2","full_date":"2025-11-11T02:32:39.766Z","date":"2025-11-11","time":"02:32:39"},{"correct_response":"a","task":"test_phase","broad_category":"I","image_png":"I_Rhyolite_16.png","image_id":160,"category_name":"Rhyolite","category":10,"distinct_rating":2.19,"distinct_type":"Bottom","item_type":"Foil","rt":1037,"stimulus":"Stimuli_Rocks480/I_Rhyolite_16.png","response":"l","trial_type":"image-keyboard-response","trial_index":165,"plugin_version":"2.1.0","time_elapsed":449069,"subject_id":"86965","group":"Group2","full_date":"2025-11-11T02:32:39.766Z","date":"2025-11-11","time":"02:32:39","cor_ans":false},{"trial_type":"html-keyboard-response","rt":null,"stimulus":"<p style=\"color: red; font-size: 50px; font-weight: bold;\">Incorrect</p>","response":null,"trial_index":166,"plugin_version":"2.1.0","time_elapsed":449571,"subject_id":"86965","group":"Group2","full_date":"2025-11-11T02:32:39.766Z","date":"2025-11-11","time":"02:32:39"},{"correct_response":"a","task":"test_phase","broad_category":"I","image_png":"I_Pumice_12.png","image_id":140,"category_name":"Pumice","category":9,"distinct_rating":2.97,"distinct_type":"Bottom","item_type":"Foil","rt":98340,"stimulus":"Stimuli_Rocks480/I_Pumice_12.png","response":"l","trial_type":"image-keyboard-response","trial_index":167,"plugin_version":"2.1.0","time_elapsed":547913,"subject_id":"86965","group":"Group2","full_date":"2025-11-11T02:32:39.766Z","date":"2025-11-11","time":"02:32:39","cor_ans":false},{"trial_type":"html-keyboard-response","rt":null,"stimulus":"<p style=\"color: red; font-size: 50px; font-weight: bold;\">Incorrect</p>","response":null,"trial_index":168,"plugin_version":"2.1.0","time_elapsed":548415,"subject_id":"86965","group":"Group2","full_date":"2025-11-11T02:32:39.766Z","date":"2025-11-11","time":"02:32:39"},{"correct_response":"l","task":"test_phase","broad_category":"S","image_png":"S_Rock Salt_15.png","image_id":447,"category_name":"Rock Salt","category":28,"distinct_rating":7.79,"distinct_type":"Top","item_type":"Target","rt":1918,"stimulus":"Stimuli_Rocks480/S_Rock Salt_15.png","response":"l","trial_type":"image-keyboard-response","trial_index":169,"plugin_version":"2.1.0","time_elapsed":550335,"subject_id":"86965","group":"Group2","full_date":"2025-11-11T02:32:39.766Z","date":"2025-11-11","time":"02:32:39","cor_ans":true},{"trial_type":"html-keyboard-response","rt":null,"stimulus":"<p style=\"color: green; font-size: 50px; font-weight: bold;\">Correct</p>","response":null,"trial_index":170,"plugin_version":"2.1.0","time_elapsed":550837,"subject_id":"86965","group":"Group2","full_date":"2025-11-11T02:32:39.766Z","date":"2025-11-11","time":"02:32:39"},{"correct_response":"l","task":"test_phase","broad_category":"M","image_png":"M_Gneiss_15.png","image_id":207,"category_name":"Gneiss","category":13,"distinct_rating":3.11,"distinct_type":"Bottom","item_type":"Target","rt":5237,"stimulus":"Stimuli_Rocks480/M_Gneiss_15.png","response":"l","trial_type":"image-keyboard-response","trial_index":171,"plugin_version":"2.1.0","time_elapsed":556075,"subject_id":"86965","group":"Group2","full_date":"2025-11-11T02:32:39.766Z","date":"2025-11-11","time":"02:32:39","cor_ans":true},{"trial_type":"html-keyboard-response","rt":null,"stimulus":"<p style=\"color: green; font-size: 50px; font-weight: bold;\">Correct</p>","response":null,"trial_index":172,"plugin_version":"2.1.0","time_elapsed":556577,"subject_id":"86965","group":"Group2","full_date":"2025-11-11T02:32:39.766Z","date":"2025-11-11","time":"02:32:39"},{"correct_response":"a","task":"test_phase","broad_category":"S","image_png":"S_Shale_01.png","image_id":465,"category_name":"Shale","category":30,"distinct_rating":2.7,"distinct_type":"Bottom","item_type":"Foil","rt":1380,"stimulus":"Stimuli_Rocks480/S_Shale_01.png","response":"l","trial_type":"image-keyboard-response","trial_index":173,"plugin_version":"2.1.0","time_elapsed":557958,"subject_id":"86965","group":"Group2","full_date":"2025-11-11T02:32:39.766Z","date":"2025-11-11","time":"02:32:39","cor_ans":false},{"trial_type":"html-keyboard-response","rt":null,"stimulus":"<p style=\"color: red; font-size: 50px; font-weight: bold;\">Incorrect</p>","response":null,"trial_index":174,"plugin_version":"2.1.0","time_elapsed":558460,"subject_id":"86965","group":"Group2","full_date":"2025-11-11T02:32:39.766Z","date":"2025-11-11","time":"02:32:39"},{"correct_response":"a","task":"test_phase","broad_category":"I","image_png":"I_Obsidian_05.png","image_id":85,"category_name":"Obsidian","category":6,"distinct_rating":7.32,"distinct_type":"Top","item_type":"Foil","rt":1153,"stimulus":"Stimuli_Rocks480/I_Obsidian_05.png","response":"l","trial_type":"image-keyboard-response","trial_index":175,"plugin_version":"2.1.0","time_elapsed":559614,"subject_id":"86965","group":"Group2","full_date":"2025-11-11T02:32:39.766Z","date":"2025-11-11","time":"02:32:39","cor_ans":false},{"trial_type":"html-keyboard-response","rt":null,"stimulus":"<p style=\"color: red; font-size: 50px; font-weight: bold;\">Incorrect</p>","response":null,"trial_index":176,"plugin_version":"2.1.0","time_elapsed":560115,"subject_id":"86965","group":"Group2","full_date":"2025-11-11T02:32:39.766Z","date":"2025-11-11","time":"02:32:39"},{"correct_response":"l","task":"test_phase","broad_category":"S","image_png":"S_Sandstone_11.png","image_id":459,"category_name":"Sandstone","category":29,"distinct_rating":1.82,"distinct_type":"Bottom","item_type":"Target","rt":869,"stimulus":"Stimuli_Rocks480/S_Sandstone_11.png","response":"l","trial_type":"image-keyboard-response","trial_index":177,"plugin_version":"2.1.0","time_elapsed":560986,"subject_id":"86965","group":"Group2","full_date":"2025-11-11T02:32:39.766Z","date":"2025-11-11","time":"02:32:39","cor_ans":true},{"trial_type":"html-keyboard-response","rt":null,"stimulus":"<p style=\"color: green; font-size: 50px; font-weight: bold;\">Correct</p>","response":null,"trial_index":178,"plugin_version":"2.1.0","time_elapsed":561487,"subject_id":"86965","group":"Group2","full_date":"2025-11-11T02:32:39.766Z","date":"2025-11-11","time":"02:32:39"},{"correct_response":"a","task":"test_phase","broad_category":"I","image_png":"I_Rhyolite_11.png","image_id":155,"category_name":"Rhyolite","category":10,"distinct_rating":1.73,"distinct_type":"Bottom","item_type":"Foil","rt":886,"stimulus":"Stimuli_Rocks480/I_Rhyolite_11.png","response":"l","trial_type":"image-keyboard-response","trial_index":179,"plugin_version":"2.1.0","time_elapsed":562375,"subject_id":"86965","group":"Group2","full_date":"2025-11-11T02:32:39.766Z","date":"2025-11-11","time":"02:32:39","cor_ans":false},{"trial_type":"html-keyboard-response","rt":null,"stimulus":"<p style=\"color: red; font-size: 50px; font-weight: bold;\">Incorrect</p>","response":null,"trial_index":180,"plugin_version":"2.1.0","time_elapsed":562876,"subject_id":"86965","group":"Group2","full_date":"2025-11-11T02:32:39.766Z","date":"2025-11-11","time":"02:32:39"},{"correct_response":"a","task":"test_phase","broad_category":"S","image_png":"S_Sandstone_15.png","image_id":463,"category_name":"Sandstone","category":29,"distinct_rating":2,"distinct_type":"Bottom","item_type":"Foil","rt":1172,"stimulus":"Stimuli_Rocks480/S_Sandstone_15.png","response":"a","trial_type":"image-keyboard-response","trial_index":181,"plugin_version":"2.1.0","time_elapsed":564050,"subject_id":"86965","group":"Group2","full_date":"2025-11-11T02:32:39.766Z","date":"2025-11-11","time":"02:32:39","cor_ans":true},{"trial_type":"html-keyboard-response","rt":null,"stimulus":"<p style=\"color: green; font-size: 50px; font-weight: bold;\">Correct</p>","response":null,"trial_index":182,"plugin_version":"2.1.0","time_elapsed":564553,"subject_id":"86965","group":"Group2","full_date":"2025-11-11T02:32:39.766Z","date":"2025-11-11","time":"02:32:39"},{"correct_response":"l","task":"test_phase","broad_category":"M","image_png":"M_Slate_10.png","image_id":314,"category_name":"Slate","category":20,"distinct_rating":1.94,"distinct_type":"Bottom","item_type":"Target","rt":968,"stimulus":"Stimuli_Rocks480/M_Slate_10.png","response":"l","trial_type":"image-keyboard-response","trial_index":183,"plugin_version":"2.1.0","time_elapsed":565522,"subject_id":"86965","group":"Group2","full_date":"2025-11-11T02:32:39.766Z","date":"2025-11-11","time":"02:32:39","cor_ans":true},{"trial_type":"html-keyboard-response","rt":null,"stimulus":"<p style=\"color: green; font-size: 50px; font-weight: bold;\">Correct</p>","response":null,"trial_index":184,"plugin_version":"2.1.0","time_elapsed":566024,"subject_id":"86965","group":"Group2","full_date":"2025-11-11T02:32:39.766Z","date":"2025-11-11","time":"02:32:39"},{"correct_response":"a","task":"test_phase","broad_category":"M","image_png":"M_Slate_03.png","image_id":307,"category_name":"Slate","category":20,"distinct_rating":1.87,"distinct_type":"Bottom","item_type":"Foil","rt":1790,"stimulus":"Stimuli_Rocks480/M_Slate_03.png","response":"a","trial_type":"image-keyboard-response","trial_index":185,"plugin_version":"2.1.0","time_elapsed":567815,"subject_id":"86965","group":"Group2","full_date":"2025-11-11T02:32:39.766Z","date":"2025-11-11","time":"02:32:39","cor_ans":true},{"trial_type":"html-keyboard-response","rt":null,"stimulus":"<p style=\"color: green; font-size: 50px; font-weight: bold;\">Correct</p>","response":null,"trial_index":186,"plugin_version":"2.1.0","time_elapsed":568316,"subject_id":"86965","group":"Group2","full_date":"2025-11-11T02:32:39.766Z","date":"2025-11-11","time":"02:32:39"},{"correct_response":"l","task":"test_phase","broad_category":"I","image_png":"I_Diorite_01.png","image_id":33,"category_name":"Diorite","category":3,"distinct_rating":2.97,"distinct_type":"Bottom","item_type":"Target","rt":1331,"stimulus":"Stimuli_Rocks480/I_Diorite_01.png","response":"l","trial_type":"image-keyboard-response","trial_index":187,"plugin_version":"2.1.0","time_elapsed":569649,"subject_id":"86965","group":"Group2","full_date":"2025-11-11T02:32:39.766Z","date":"2025-11-11","time":"02:32:39","cor_ans":true},{"trial_type":"html-keyboard-response","rt":null,"stimulus":"<p style=\"color: green; font-size: 50px; font-weight: bold;\">Correct</p>","response":null,"trial_index":188,"plugin_version":"2.1.0","time_elapsed":570150,"subject_id":"86965","group":"Group2","full_date":"2025-11-11T02:32:39.766Z","date":"2025-11-11","time":"02:32:39"},{"correct_response":"l","task":"test_phase","broad_category":"M","image_png":"M_Marble_03.png","image_id":227,"category_name":"Marble","category":15,"distinct_rating":2.67,"distinct_type":"Bottom","item_type":"Target","rt":1008,"stimulus":"Stimuli_Rocks480/M_Marble_03.png","response":"a","trial_type":"image-keyboard-response","trial_index":189,"plugin_version":"2.1.0","time_elapsed":571160,"subject_id":"86965","group":"Group2","full_date":"2025-11-11T02:32:39.766Z","date":"2025-11-11","time":"02:32:39","cor_ans":false},{"trial_type":"html-keyboard-response","rt":null,"stimulus":"<p style=\"color: red; font-size: 50px; font-weight: bold;\">Incorrect</p>","response":null,"trial_index":190,"plugin_version":"2.1.0","time_elapsed":571661,"subject_id":"86965","group":"Group2","full_date":"2025-11-11T02:32:39.766Z","date":"2025-11-11","time":"02:32:39"},{"correct_response":"a","task":"test_phase","broad_category":"I","image_png":"I_Diorite_05.png","image_id":37,"category_name":"Diorite","category":3,"distinct_rating":3.08,"distinct_type":"Bottom","item_type":"Foil","rt":851,"stimulus":"Stimuli_Rocks480/I_Diorite_05.png","response":"l","trial_type":"image-keyboard-response","trial_index":191,"plugin_version":"2.1.0","time_elapsed":572514,"subject_id":"86965","group":"Group2","full_date":"2025-11-11T02:32:39.766Z","date":"2025-11-11","time":"02:32:39","cor_ans":false},{"trial_type":"html-keyboard-response","rt":null,"stimulus":"<p style=\"color: red; font-size: 50px; font-weight: bold;\">Incorrect</p>","response":null,"trial_index":192,"plugin_version":"2.1.0","time_elapsed":573016,"subject_id":"86965","group":"Group2","full_date":"2025-11-11T02:32:39.766Z","date":"2025-11-11","time":"02:32:39"},{"correct_response":"a","task":"test_phase","broad_category":"S","image_png":"S_Breccia_11.png","image_id":347,"category_name":"Breccia","category":22,"distinct_rating":6.7,"distinct_type":"Top","item_type":"Foil","rt":950,"stimulus":"Stimuli_Rocks480/S_Breccia_11.png","response":"a","trial_type":"image-keyboard-response","trial_index":193,"plugin_version":"2.1.0","time_elapsed":573967,"subject_id":"86965","group":"Group2","full_date":"2025-11-11T02:32:39.766Z","date":"2025-11-11","time":"02:32:39","cor_ans":true},{"trial_type":"html-keyboard-response","rt":null,"stimulus":"<p style=\"color: green; font-size: 50px; font-weight: bold;\">Correct</p>","response":null,"trial_index":194,"plugin_version":"2.1.0","time_elapsed":574469,"subject_id":"86965","group":"Group2","full_date":"2025-11-11T02:32:39.766Z","date":"2025-11-11","time":"02:32:39"},{"correct_response":"a","task":"test_phase","broad_category":"S","image_png":"S_Chert_10.png","image_id":362,"category_name":"Chert","category":23,"distinct_rating":7.17,"distinct_type":"Top","item_type":"Foil","rt":1065,"stimulus":"Stimuli_Rocks480/S_Chert_10.png","response":"a","trial_type":"image-keyboard-response","trial_index":195,"plugin_version":"2.1.0","time_elapsed":575535,"subject_id":"86965","group":"Group2","full_date":"2025-11-11T02:32:39.766Z","date":"2025-11-11","time":"02:32:39","cor_ans":true},{"trial_type":"html-keyboard-response","rt":null,"stimulus":"<p style=\"color: green; font-size: 50px; font-weight: bold;\">Correct</p>","response":null,"trial_index":196,"plugin_version":"2.1.0","time_elapsed":576036,"subject_id":"86965","group":"Group2","full_date":"2025-11-11T02:32:39.766Z","date":"2025-11-11","time":"02:32:39"},{"correct_response":"l","task":"test_phase","broad_category":"I","image_png":"I_Rhyolite_08.png","image_id":152,"category_name":"Rhyolite","category":10,"distinct_rating":1.38,"distinct_type":"Bottom","item_type":"Target","rt":706,"stimulus":"Stimuli_Rocks480/I_Rhyolite_08.png","response":"a","trial_type":"image-keyboard-response","trial_index":197,"plugin_version":"2.1.0","time_elapsed":576743,"subject_id":"86965","group":"Group2","full_date":"2025-11-11T02:32:39.766Z","date":"2025-11-11","time":"02:32:39","cor_ans":false},{"trial_type":"html-keyboard-response","rt":null,"stimulus":"<p style=\"color: red; font-size: 50px; font-weight: bold;\">Incorrect</p>","response":null,"trial_index":198,"plugin_version":"2.1.0","time_elapsed":577245,"subject_id":"86965","group":"Group2","full_date":"2025-11-11T02:32:39.766Z","date":"2025-11-11","time":"02:32:39"},{"correct_response":"l","task":"test_phase","broad_category":"M","image_png":"M_Marble_02.png","image_id":226,"category_name":"Marble","category":15,"distinct_rating":3.2,"distinct_type":"Bottom","item_type":"Target","rt":567,"stimulus":"Stimuli_Rocks480/M_Marble_02.png","response":"l","trial_type":"image-keyboard-response","trial_index":199,"plugin_version":"2.1.0","time_elapsed":577813,"subject_id":"86965","group":"Group2","full_date":"2025-11-11T02:32:39.766Z","date":"2025-11-11","time":"02:32:39","cor_ans":true},{"trial_type":"html-keyboard-response","rt":null,"stimulus":"<p style=\"color: green; font-size: 50px; font-weight: bold;\">Correct</p>","response":null,"trial_index":200,"plugin_version":"2.1.0","time_elapsed":578315,"subject_id":"86965","group":"Group2","full_date":"2025-11-11T02:32:39.766Z","date":"2025-11-11","time":"02:32:39"},{"correct_response":"l","task":"test_phase","broad_category":"S","image_png":"S_Dolomite_07.png","image_id":391,"category_name":"Dolomite","category":25,"distinct_rating":1.73,"distinct_type":"Bottom","item_type":"Target","rt":708,"stimulus":"Stimuli_Rocks480/S_Dolomite_07.png","response":"l","trial_type":"image-keyboard-response","trial_index":201,"plugin_version":"2.1.0","time_elapsed":579024,"subject_id":"86965","group":"Group2","full_date":"2025-11-11T02:32:39.766Z","date":"2025-11-11","time":"02:32:39","cor_ans":true},{"trial_type":"html-keyboard-response","rt":null,"stimulus":"<p style=\"color: green; font-size: 50px; font-weight: bold;\">Correct</p>","response":null,"trial_index":202,"plugin_version":"2.1.0","time_elapsed":579526,"subject_id":"86965","group":"Group2","full_date":"2025-11-11T02:32:39.766Z","date":"2025-11-11","time":"02:32:39"},{"correct_response":"a","task":"test_phase","broad_category":"M","image_png":"M_Gneiss_05.png","image_id":197,"category_name":"Gneiss","category":13,"distinct_rating":2.97,"distinct_type":"Bottom","item_type":"Foil","rt":666,"stimulus":"Stimuli_Rocks480/M_Gneiss_05.png","response":"l","trial_type":"image-keyboard-response","trial_index":203,"plugin_version":"2.1.0","time_elapsed":580194,"subject_id":"86965","group":"Group2","full_date":"2025-11-11T02:32:39.766Z","date":"2025-11-11","time":"02:32:39","cor_ans":false},{"trial_type":"html-keyboard-response","rt":null,"stimulus":"<p style=\"color: red; font-size: 50px; font-weight: bold;\">Incorrect</p>","response":null,"trial_index":204,"plugin_version":"2.1.0","time_elapsed":580695,"subject_id":"86965","group":"Group2","full_date":"2025-11-11T02:32:39.766Z","date":"2025-11-11","time":"02:32:39"},{"correct_response":"a","task":"test_phase","broad_category":"I","image_png":"I_Diorite_04.png","image_id":36,"category_name":"Diorite","category":3,"distinct_rating":2.98,"distinct_type":"Bottom","item_type":"Foil","rt":697,"stimulus":"Stimuli_Rocks480/I_Diorite_04.png","response":"l","trial_type":"image-keyboard-response","trial_index":205,"plugin_version":"2.1.0","time_elapsed":581393,"subject_id":"86965","group":"Group2","full_date":"2025-11-11T02:32:39.766Z","date":"2025-11-11","time":"02:32:39","cor_ans":false},{"trial_type":"html-keyboard-response","rt":null,"stimulus":"<p style=\"color: red; font-size: 50px; font-weight: bold;\">Incorrect</p>","response":null,"trial_index":206,"plugin_version":"2.1.0","time_elapsed":581895,"subject_id":"86965","group":"Group2","full_date":"2025-11-11T02:32:39.766Z","date":"2025-11-11","time":"02:32:39"},{"correct_response":"a","task":"test_phase","broad_category":"S","image_png":"S_Sandstone_16.png","image_id":464,"category_name":"Sandstone","category":29,"distinct_rating":1.93,"distinct_type":"Bottom","item_type":"Foil","rt":891,"stimulus":"Stimuli_Rocks480/S_Sandstone_16.png","response":"a","trial_type":"image-keyboard-response","trial_index":207,"plugin_version":"2.1.0","time_elapsed":582787,"subject_id":"86965","group":"Group2","full_date":"2025-11-11T02:32:39.766Z","date":"2025-11-11","time":"02:32:39","cor_ans":true},{"trial_type":"html-keyboard-response","rt":null,"stimulus":"<p style=\"color: green; font-size: 50px; font-weight: bold;\">Correct</p>","response":null,"trial_index":208,"plugin_version":"2.1.0","time_elapsed":583288,"subject_id":"86965","group":"Group2","full_date":"2025-11-11T02:32:39.766Z","date":"2025-11-11","time":"02:32:39"},{"correct_response":"l","task":"test_phase","broad_category":"I","image_png":"I_Obsidian_06.png","image_id":86,"category_name":"Obsidian","category":6,"distinct_rating":8.01,"distinct_type":"Top","item_type":"Target","rt":889,"stimulus":"Stimuli_Rocks480/I_Obsidian_06.png","response":"l","trial_type":"image-keyboard-response","trial_index":209,"plugin_version":"2.1.0","time_elapsed":584178,"subject_id":"86965","group":"Group2","full_date":"2025-11-11T02:32:39.766Z","date":"2025-11-11","time":"02:32:39","cor_ans":true},{"trial_type":"html-keyboard-response","rt":null,"stimulus":"<p style=\"color: green; font-size: 50px; font-weight: bold;\">Correct</p>","response":null,"trial_index":210,"plugin_version":"2.1.0","time_elapsed":584680,"subject_id":"86965","group":"Group2","full_date":"2025-11-11T02:32:39.766Z","date":"2025-11-11","time":"02:32:39"},{"correct_response":"l","task":"test_phase","broad_category":"M","image_png":"M_Slate_14.png","image_id":318,"category_name":"Slate","category":20,"distinct_rating":2.58,"distinct_type":"Bottom","item_type":"Target","rt":835,"stimulus":"Stimuli_Rocks480/M_Slate_14.png","response":"l","trial_type":"image-keyboard-response","trial_index":211,"plugin_version":"2.1.0","time_elapsed":585516,"subject_id":"86965","group":"Group2","full_date":"2025-11-11T02:32:39.766Z","date":"2025-11-11","time":"02:32:39","cor_ans":true},{"trial_type":"html-keyboard-response","rt":null,"stimulus":"<p style=\"color: green; font-size: 50px; font-weight: bold;\">Correct</p>","response":null,"trial_index":212,"plugin_version":"2.1.0","time_elapsed":586018,"subject_id":"86965","group":"Group2","full_date":"2025-11-11T02:32:39.766Z","date":"2025-11-11","time":"02:32:39"},{"correct_response":"a","task":"test_phase","broad_category":"S","image_png":"S_Sandstone_03.png","image_id":451,"category_name":"Sandstone","category":29,"distinct_rating":1.86,"distinct_type":"Bottom","item_type":"Foil","rt":774,"stimulus":"Stimuli_Rocks480/S_Sandstone_03.png","response":"l","trial_type":"image-keyboard-response","trial_index":213,"plugin_version":"2.1.0","time_elapsed":586794,"subject_id":"86965","group":"Group2","full_date":"2025-11-11T02:32:39.766Z","date":"2025-11-11","time":"02:32:39","cor_ans":false},{"trial_type":"html-keyboard-response","rt":null,"stimulus":"<p style=\"color: red; font-size: 50px; font-weight: bold;\">Incorrect</p>","response":null,"trial_index":214,"plugin_version":"2.1.0","time_elapsed":587296,"subject_id":"86965","group":"Group2","full_date":"2025-11-11T02:32:39.766Z","date":"2025-11-11","time":"02:32:39"},{"correct_response":"a","task":"test_phase","broad_category":"M","image_png":"M_Quartzite_08.png","image_id":280,"category_name":"Quartzite","category":18,"distinct_rating":2.15,"distinct_type":"Bottom","item_type":"Foil","rt":1005,"stimulus":"Stimuli_Rocks480/M_Quartzite_08.png","response":"a","trial_type":"image-keyboard-response","trial_index":215,"plugin_version":"2.1.0","time_elapsed":588302,"subject_id":"86965","group":"Group2","full_date":"2025-11-11T02:32:39.766Z","date":"2025-11-11","time":"02:32:39","cor_ans":true},{"trial_type":"html-keyboard-response","rt":null,"stimulus":"<p style=\"color: green; font-size: 50px; font-weight: bold;\">Correct</p>","response":null,"trial_index":216,"plugin_version":"2.1.0","time_elapsed":588803,"subject_id":"86965","group":"Group2","full_date":"2025-11-11T02:32:39.766Z","date":"2025-11-11","time":"02:32:39"},{"correct_response":"a","task":"test_phase","broad_category":"M","image_png":"M_Marble_16.png","image_id":240,"category_name":"Marble","category":15,"distinct_rating":2.57,"distinct_type":"Bottom","item_type":"Foil","rt":805,"stimulus":"Stimuli_Rocks480/M_Marble_16.png","response":"l","trial_type":"image-keyboard-response","trial_index":217,"plugin_version":"2.1.0","time_elapsed":589610,"subject_id":"86965","group":"Group2","full_date":"2025-11-11T02:32:39.766Z","date":"2025-11-11","time":"02:32:39","cor_ans":false},{"trial_type":"html-keyboard-response","rt":null,"stimulus":"<p style=\"color: red; font-size: 50px; font-weight: bold;\">Incorrect</p>","response":null,"trial_index":218,"plugin_version":"2.1.0","time_elapsed":590112,"subject_id":"86965","group":"Group2","full_date":"2025-11-11T02:32:39.766Z","date":"2025-11-11","time":"02:32:39"},{"correct_response":"a","task":"test_phase","broad_category":"M","image_png":"M_Marble_06.png","image_id":230,"category_name":"Marble","category":15,"distinct_rating":3.4,"distinct_type":"Bottom","item_type":"Foil","rt":839,"stimulus":"Stimuli_Rocks480/M_Marble_06.png","response":"a","trial_type":"image-keyboard-response","trial_index":219,"plugin_version":"2.1.0","time_elapsed":590953,"subject_id":"86965","group":"Group2","full_date":"2025-11-11T02:32:39.766Z","date":"2025-11-11","time":"02:32:39","cor_ans":true},{"trial_type":"html-keyboard-response","rt":null,"stimulus":"<p style=\"color: green; font-size: 50px; font-weight: bold;\">Correct</p>","response":null,"trial_index":220,"plugin_version":"2.1.0","time_elapsed":591454,"subject_id":"86965","group":"Group2","full_date":"2025-11-11T02:32:39.766Z","date":"2025-11-11","time":"02:32:39"},{"correct_response":"l","task":"test_phase","broad_category":"M","image_png":"M_Gneiss_14.png","image_id":206,"category_name":"Gneiss","category":13,"distinct_rating":3.41,"distinct_type":"Bottom","item_type":"Target","rt":967,"stimulus":"Stimuli_Rocks480/M_Gneiss_14.png","response":"l","trial_type":"image-keyboard-response","trial_index":221,"plugin_version":"2.1.0","time_elapsed":592423,"subject_id":"86965","group":"Group2","full_date":"2025-11-11T02:32:39.766Z","date":"2025-11-11","time":"02:32:39","cor_ans":true},{"trial_type":"html-keyboard-response","rt":null,"stimulus":"<p style=\"color: green; font-size: 50px; font-weight: bold;\">Correct</p>","response":null,"trial_index":222,"plugin_version":"2.1.0","time_elapsed":592925,"subject_id":"86965","group":"Group2","full_date":"2025-11-11T02:32:39.766Z","date":"2025-11-11","time":"02:32:39"},{"correct_response":"l","task":"test_phase","broad_category":"I","image_png":"I_Pumice_14.png","image_id":142,"category_name":"Pumice","category":9,"distinct_rating":3.22,"distinct_type":"Bottom","item_type":"Target","rt":1133,"stimulus":"Stimuli_Rocks480/I_Pumice_14.png","response":"l","trial_type":"image-keyboard-response","trial_index":223,"plugin_version":"2.1.0","time_elapsed":594059,"subject_id":"86965","group":"Group2","full_date":"2025-11-11T02:32:39.766Z","date":"2025-11-11","time":"02:32:39","cor_ans":true},{"trial_type":"html-keyboard-response","rt":null,"stimulus":"<p style=\"color: green; font-size: 50px; font-weight: bold;\">Correct</p>","response":null,"trial_index":224,"plugin_version":"2.1.0","time_elapsed":594561,"subject_id":"86965","group":"Group2","full_date":"2025-11-11T02:32:39.766Z","date":"2025-11-11","time":"02:32:39"},{"correct_response":"l","task":"test_phase","broad_category":"I","image_png":"I_Basalt_13.png","image_id":29,"category_name":"Basalt","category":2,"distinct_rating":2.68,"distinct_type":"Bottom","item_type":"Target","rt":829,"stimulus":"Stimuli_Rocks480/I_Basalt_13.png","response":"l","trial_type":"image-keyboard-response","trial_index":225,"plugin_version":"2.1.0","time_elapsed":595391,"subject_id":"86965","group":"Group2","full_date":"2025-11-11T02:32:39.766Z","date":"2025-11-11","time":"02:32:39","cor_ans":true},{"trial_type":"html-keyboard-response","rt":null,"stimulus":"<p style=\"color: green; font-size: 50px; font-weight: bold;\">Correct</p>","response":null,"trial_index":226,"plugin_version":"2.1.0","time_elapsed":595893,"subject_id":"86965","group":"Group2","full_date":"2025-11-11T02:32:39.766Z","date":"2025-11-11","time":"02:32:39"},{"correct_response":"a","task":"test_phase","broad_category":"I","image_png":"I_Pumice_11.png","image_id":139,"category_name":"Pumice","category":9,"distinct_rating":1.74,"distinct_type":"Bottom","item_type":"Foil","rt":816,"stimulus":"Stimuli_Rocks480/I_Pumice_11.png","response":"l","trial_type":"image-keyboard-response","trial_index":227,"plugin_version":"2.1.0","time_elapsed":596710,"subject_id":"86965","group":"Group2","full_date":"2025-11-11T02:32:39.766Z","date":"2025-11-11","time":"02:32:39","cor_ans":false},{"trial_type":"html-keyboard-response","rt":null,"stimulus":"<p style=\"color: red; font-size: 50px; font-weight: bold;\">Incorrect</p>","response":null,"trial_index":228,"plugin_version":"2.1.0","time_elapsed":597212,"subject_id":"86965","group":"Group2","full_date":"2025-11-11T02:32:39.766Z","date":"2025-11-11","time":"02:32:39"},{"correct_response":"l","task":"test_phase","broad_category":"I","image_png":"I_Pumice_01.png","image_id":129,"category_name":"Pumice","category":9,"distinct_rating":3.25,"distinct_type":"Bottom","item_type":"Target","rt":758,"stimulus":"Stimuli_Rocks480/I_Pumice_01.png","response":"l","trial_type":"image-keyboard-response","trial_index":229,"plugin_version":"2.1.0","time_elapsed":597972,"subject_id":"86965","group":"Group2","full_date":"2025-11-11T02:32:39.766Z","date":"2025-11-11","time":"02:32:39","cor_ans":true},{"trial_type":"html-keyboard-response","rt":null,"stimulus":"<p style=\"color: green; font-size: 50px; font-weight: bold;\">Correct</p>","response":null,"trial_index":230,"plugin_version":"2.1.0","time_elapsed":598473,"subject_id":"86965","group":"Group2","full_date":"2025-11-11T02:32:39.766Z","date":"2025-11-11","time":"02:32:39"},{"correct_response":"a","task":"test_phase","broad_category":"S","image_png":"S_Dolomite_12.png","image_id":396,"category_name":"Dolomite","category":25,"distinct_rating":1.85,"distinct_type":"Bottom","item_type":"Foil","rt":887,"stimulus":"Stimuli_Rocks480/S_Dolomite_12.png","response":"l","trial_type":"image-keyboard-response","trial_index":231,"plugin_version":"2.1.0","time_elapsed":599361,"subject_id":"86965","group":"Group2","full_date":"2025-11-11T02:32:39.766Z","date":"2025-11-11","time":"02:32:39","cor_ans":false},{"trial_type":"html-keyboard-response","rt":null,"stimulus":"<p style=\"color: red; font-size: 50px; font-weight: bold;\">Incorrect</p>","response":null,"trial_index":232,"plugin_version":"2.1.0","time_elapsed":599863,"subject_id":"86965","group":"Group2","full_date":"2025-11-11T02:32:39.766Z","date":"2025-11-11","time":"02:32:39"},{"correct_response":"l","task":"test_phase","broad_category":"I","image_png":"I_Rhyolite_05.png","image_id":149,"category_name":"Rhyolite","category":10,"distinct_rating":3.02,"distinct_type":"Bottom","item_type":"Target","rt":888,"stimulus":"Stimuli_Rocks480/I_Rhyolite_05.png","response":"l","trial_type":"image-keyboard-response","trial_index":233,"plugin_version":"2.1.0","time_elapsed":600752,"subject_id":"86965","group":"Group2","full_date":"2025-11-11T02:32:39.766Z","date":"2025-11-11","time":"02:32:39","cor_ans":true},{"trial_type":"html-keyboard-response","rt":null,"stimulus":"<p style=\"color: green; font-size: 50px; font-weight: bold;\">Correct</p>","response":null,"trial_index":234,"plugin_version":"2.1.0","time_elapsed":601253,"subject_id":"86965","group":"Group2","full_date":"2025-11-11T02:32:39.766Z","date":"2025-11-11","time":"02:32:39"},{"correct_response":"a","task":"test_phase","broad_category":"I","image_png":"I_Basalt_09.png","image_id":25,"category_name":"Basalt","category":2,"distinct_rating":1.89,"distinct_type":"Bottom","item_type":"Foil","rt":963,"stimulus":"Stimuli_Rocks480/I_Basalt_09.png","response":"l","trial_type":"image-keyboard-response","trial_index":235,"plugin_version":"2.1.0","time_elapsed":602218,"subject_id":"86965","group":"Group2","full_date":"2025-11-11T02:32:39.766Z","date":"2025-11-11","time":"02:32:39","cor_ans":false},{"trial