[{"width":1470,"height":797,"webaudio":true,"browser":"chrome","browser_version":"134.0.0","mobile":false,"os":"Mac OS","fullscreen":true,"vsync_rate":30.31,"webcam":true,"microphone":true,"trial_type":"browser-check","trial_index":0,"plugin_version":"2.1.0","time_elapsed":1989,"subject_id":"90134","group":"Group2","full_date":"2025-11-09T03:49:16.739Z","date":"2025-11-09","time":"03:49:16"},{"success":true,"timeout":false,"failed_images":[],"failed_audio":[],"failed_video":[],"trial_type":"preload","trial_index":1,"plugin_version":"2.1.0","time_elapsed":3969,"subject_id":"90134","group":"Group2","full_date":"2025-11-09T03:49:16.739Z","date":"2025-11-09","time":"03:49:16"},{"rt":21614,"url":"SONA_consent_memorability.html","trial_type":"external-html","trial_index":2,"plugin_version":"2.1.0","time_elapsed":25663,"subject_id":"90134","group":"Group2","full_date":"2025-11-09T03:49:16.739Z","date":"2025-11-09","time":"03:49:16"},{"success":true,"rt":2777,"trial_type":"fullscreen","trial_index":3,"plugin_version":"2.1.0","time_elapsed":29446,"subject_id":"90134","group":"Group2","full_date":"2025-11-09T03:49:16.739Z","date":"2025-11-09","time":"03:49:16"},{"rt":13963,"stimulus":"<div style=\"max-width: 760px; margin: auto; font-size: 20px; line-height: 1.5;\">\n      <h1 style=\"text-align:center; font-size: 30px;\">Instructions</h1>\n      <p>\n        Welcome to the study on <b>visual memory</b>. This experiment consists of <b>two phases</b>: \n        a <b>study phase</b> and a <b>test phase</b>.\n      </p>\n      <p>\n        In the study phase, you will see a series of rock images along with their category labels.\n        The images will appear one at a time.\n        <b>Your task</b> is to learn the categories to which the rock images belong \n        and to remember each image as accurately as possible.\n      </p> \n      <p>\n        After the study phase, <b>your memory will be tested</b>. \n        Additional instructions for the test phase will be provided at that time.\n      </p>\n      <p>\n        If your computer has multiple <b>language settings</b> (e.g., English and another language),\n        please make sure it is set to English before starting.\n      </p>\n      <p>\n        You can track your progress using the <b>completion bar</b> at the top of the screen. \n        Please note that the bar will refresh when the test phase begins \n        to give you an accurate sense of your progress in both phases.\n      </p> \n      <p>\n        Press the button below when you are ready to begin.\n      </p>\n    </div>","response":0,"trial_type":"html-button-response","trial_index":4,"plugin_version":"2.1.0","time_elapsed":43412,"subject_id":"90134","group":"Group2","full_date":"2025-11-09T03:49:16.739Z","date":"2025-11-09","time":"03:49:16"},{"rt":null,"stimulus":"<p style=\"font-size: 50px; margin: 0; text-align: center;\">+</p>","response":null,"trial_type":"html-keyboard-response","trial_index":5,"plugin_version":"2.1.0","time_elapsed":44416,"subject_id":"90134","group":"Group2","full_date":"2025-11-09T03:49:16.739Z","date":"2025-11-09","time":"03:49:16"},{"task":"memory_phase","broad_category":"M","image_png":"M_Quartzite_07.png","image_id":279,"category_name":"Quartzite","category":18,"distinct_rating":1.97,"distinct_type":"Bottom","rt":null,"stimulus":"Stimuli_Rocks480/M_Quartzite_07.png","response":null,"trial_type":"image-keyboard-response","trial_index":6,"plugin_version":"2.1.0","time_elapsed":46922,"subject_id":"90134","group":"Group2","full_date":"2025-11-09T03:49:16.739Z","date":"2025-11-09","time":"03:49:16"},{"rt":null,"stimulus":"<p style=\"font-size: 50px; margin: 0; text-align: center;\">+</p>","response":null,"trial_type":"html-keyboard-response","trial_index":7,"plugin_version":"2.1.0","time_elapsed":47924,"subject_id":"90134","group":"Group2","full_date":"2025-11-09T03:49:16.739Z","date":"2025-11-09","time":"03:49:16"},{"task":"memory_phase","broad_category":"I","image_png":"I_Diorite_15.png","image_id":47,"category_name":"Diorite","category":3,"distinct_rating":3.05,"distinct_type":"Bottom","rt":null,"stimulus":"Stimuli_Rocks480/I_Diorite_15.png","response":null,"trial_type":"image-keyboard-response","trial_index":8,"plugin_version":"2.1.0","time_elapsed":50428,"subject_id":"90134","group":"Group2","full_date":"2025-11-09T03:49:16.739Z","date":"2025-11-09","time":"03:49:16"},{"rt":null,"stimulus":"<p style=\"font-size: 50px; margin: 0; text-align: center;\">+</p>","response":null,"trial_type":"html-keyboard-response","trial_index":9,"plugin_version":"2.1.0","time_elapsed":51431,"subject_id":"90134","group":"Group2","full_date":"2025-11-09T03:49:16.739Z","date":"2025-11-09","time":"03:49:16"},{"task":"memory_phase","broad_category":"S","image_png":"S_Rock Salt_15.png","image_id":447,"category_name":"Rock Salt","category":28,"distinct_rating":7.79,"distinct_type":"Top","rt":null,"stimulus":"Stimuli_Rocks480/S_Rock Salt_15.png","response":null,"trial_type":"image-keyboard-response","trial_index":10,"plugin_version":"2.1.0","time_elapsed":53939,"subject_id":"90134","group":"Group2","full_date":"2025-11-09T03:49:16.739Z","date":"2025-11-09","time":"03:49:16"},{"rt":null,"stimulus":"<p style=\"font-size: 50px; margin: 0; text-align: center;\">+</p>","response":null,"trial_type":"html-keyboard-response","trial_index":11,"plugin_version":"2.1.0","time_elapsed":54942,"subject_id":"90134","group":"Group2","full_date":"2025-11-09T03:49:16.739Z","date":"2025-11-09","time":"03:49:16"},{"task":"memory_phase","broad_category":"S","image_png":"S_Shale_03.png","image_id":467,"category_name":"Shale","category":30,"distinct_rating":1.95,"distinct_type":"Bottom","rt":null,"stimulus":"Stimuli_Rocks480/S_Shale_03.png","response":null,"trial_type":"image-keyboard-response","trial_index":12,"plugin_version":"2.1.0","time_elapsed":57446,"subject_id":"90134","group":"Group2","full_date":"2025-11-09T03:49:16.739Z","date":"2025-11-09","time":"03:49:16"},{"rt":null,"stimulus":"<p style=\"font-size: 50px; margin: 0; text-align: center;\">+</p>","response":null,"trial_type":"html-keyboard-response","trial_index":13,"plugin_version":"2.1.0","time_elapsed":58449,"subject_id":"90134","group":"Group2","full_date":"2025-11-09T03:49:16.739Z","date":"2025-11-09","time":"03:49:16"},{"task":"memory_phase","broad_category":"I","image_png":"I_Andesite_09.png","image_id":9,"category_name":"Andesite","category":1,"distinct_rating":2.49,"distinct_type":"Bottom","rt":null,"stimulus":"Stimuli_Rocks480/I_Andesite_09.png","response":null,"trial_type":"image-keyboard-response","trial_index":14,"plugin_version":"2.1.0","time_elapsed":60952,"subject_id":"90134","group":"Group2","full_date":"2025-11-09T03:49:16.739Z","date":"2025-11-09","time":"03:49:16"},{"rt":null,"stimulus":"<p style=\"font-size: 50px; margin: 0; text-align: center;\">+</p>","response":null,"trial_type":"html-keyboard-response","trial_index":15,"plugin_version":"2.1.0","time_elapsed":61956,"subject_id":"90134","group":"Group2","full_date":"2025-11-09T03:49:16.739Z","date":"2025-11-09","time":"03:49:16"},{"task":"memory_phase","broad_category":"M","image_png":"M_Marble_03.png","image_id":227,"category_name":"Marble","category":15,"distinct_rating":2.67,"distinct_type":"Bottom","rt":null,"stimulus":"Stimuli_Rocks480/M_Marble_03.png","response":null,"trial_type":"image-keyboard-response","trial_index":16,"plugin_version":"2.1.0","time_elapsed":64713,"subject_id":"90134","group":"Group2","full_date":"2025-11-09T03:49:16.739Z","date":"2025-11-09","time":"03:49:16"},{"rt":null,"stimulus":"<p style=\"font-size: 50px; margin: 0; text-align: center;\">+</p>","response":null,"trial_type":"html-keyboard-response","trial_index":17,"plugin_version":"2.1.0","time_elapsed":65716,"subject_id":"90134","group":"Group2","full_date":"2025-11-09T03:49:16.739Z","date":"2025-11-09","time":"03:49:16"},{"task":"memory_phase","broad_category":"I","image_png":"I_Pumice_01.png","image_id":129,"category_name":"Pumice","category":9,"distinct_rating":3.25,"distinct_type":"Bottom","rt":null,"stimulus":"Stimuli_Rocks480/I_Pumice_01.png","response":null,"trial_type":"image-keyboard-response","trial_index":18,"plugin_version":"2.1.0","time_elapsed":68222,"subject_id":"90134","group":"Group2","full_date":"2025-11-09T03:49:16.739Z","date":"2025-11-09","time":"03:49:16"},{"rt":null,"stimulus":"<p style=\"font-size: 50px; margin: 0; text-align: center;\">+</p>","response":null,"trial_type":"html-keyboard-response","trial_index":19,"plugin_version":"2.1.0","time_elapsed":69225,"subject_id":"90134","group":"Group2","full_date":"2025-11-09T03:49:16.739Z","date":"2025-11-09","time":"03:49:16"},{"task":"memory_phase","broad_category":"S","image_png":"S_Dolomite_16.png","image_id":400,"category_name":"Dolomite","category":25,"distinct_rating":1.71,"distinct_type":"Bottom","rt":null,"stimulus":"Stimuli_Rocks480/S_Dolomite_16.png","response":null,"trial_type":"image-keyboard-response","trial_index":20,"plugin_version":"2.1.0","time_elapsed":71730,"subject_id":"90134","group":"Group2","full_date":"2025-11-09T03:49:16.739Z","date":"2025-11-09","time":"03:49:16"},{"rt":null,"stimulus":"<p style=\"font-size: 50px; margin: 0; text-align: center;\">+</p>","response":null,"trial_type":"html-keyboard-response","trial_index":21,"plugin_version":"2.1.0","time_elapsed":72733,"subject_id":"90134","group":"Group2","full_date":"2025-11-09T03:49:16.739Z","date":"2025-11-09","time":"03:49:16"},{"task":"memory_phase","broad_category":"S","image_png":"S_Chert_13.png","image_id":365,"category_name":"Chert","category":23,"distinct_rating":6.57,"distinct_type":"Top","rt":null,"stimulus":"Stimuli_Rocks480/S_Chert_13.png","response":null,"trial_type":"image-keyboard-response","trial_index":22,"plugin_version":"2.1.0","time_elapsed":75237,"subject_id":"90134","group":"Group2","full_date":"2025-11-09T03:49:16.739Z","date":"2025-11-09","time":"03:49:16"},{"rt":null,"stimulus":"<p style=\"font-size: 50px; margin: 0; text-align: center;\">+</p>","response":null,"trial_type":"html-keyboard-response","trial_index":23,"plugin_version":"2.1.0","time_elapsed":76240,"subject_id":"90134","group":"Group2","full_date":"2025-11-09T03:49:16.739Z","date":"2025-11-09","time":"03:49:16"},{"task":"memory_phase","broad_category":"I","image_png":"I_Rhyolite_08.png","image_id":152,"category_name":"Rhyolite","category":10,"distinct_rating":1.38,"distinct_type":"Bottom","rt":null,"stimulus":"Stimuli_Rocks480/I_Rhyolite_08.png","response":null,"trial_type":"image-keyboard-response","trial_index":24,"plugin_version":"2.1.0","time_elapsed":78743,"subject_id":"90134","group":"Group2","full_date":"2025-11-09T03:49:16.739Z","date":"2025-11-09","time":"03:49:16"},{"rt":null,"stimulus":"<p style=\"font-size: 50px; margin: 0; text-align: center;\">+</p>","response":null,"trial_type":"html-keyboard-response","trial_index":25,"plugin_version":"2.1.0","time_elapsed":79745,"subject_id":"90134","group":"Group2","full_date":"2025-11-09T03:49:16.739Z","date":"2025-11-09","time":"03:49:16"},{"task":"memory_phase","broad_category":"M","image_png":"M_Phyllite_05.png","image_id":261,"category_name":"Phyllite","category":17,"distinct_rating":2.14,"distinct_type":"Bottom","rt":null,"stimulus":"Stimuli_Rocks480/M_Phyllite_05.png","response":null,"trial_type":"image-keyboard-response","trial_index":26,"plugin_version":"2.1.0","time_elapsed":82249,"subject_id":"90134","group":"Group2","full_date":"2025-11-09T03:49:16.739Z","date":"2025-11-09","time":"03:49:16"},{"rt":null,"stimulus":"<p style=\"font-size: 50px; margin: 0; text-align: center;\">+</p>","response":null,"trial_type":"html-keyboard-response","trial_index":27,"plugin_version":"2.1.0","time_elapsed":83251,"subject_id":"90134","group":"Group2","full_date":"2025-11-09T03:49:16.739Z","date":"2025-11-09","time":"03:49:16"},{"task":"memory_phase","broad_category":"S","image_png":"S_Sandstone_11.png","image_id":459,"category_name":"Sandstone","category":29,"distinct_rating":1.82,"distinct_type":"Bottom","rt":null,"stimulus":"Stimuli_Rocks480/S_Sandstone_11.png","response":null,"trial_type":"image-keyboard-response","trial_index":28,"plugin_version":"2.1.0","time_elapsed":85755,"subject_id":"90134","group":"Group2","full_date":"2025-11-09T03:49:16.739Z","date":"2025-11-09","time":"03:49:16"},{"rt":null,"stimulus":"<p style=\"font-size: 50px; margin: 0; text-align: center;\">+</p>","response":null,"trial_type":"html-keyboard-response","trial_index":29,"plugin_version":"2.1.0","time_elapsed":86758,"subject_id":"90134","group":"Group2","full_date":"2025-11-09T03:49:16.739Z","date":"2025-11-09","time":"03:49:16"},{"task":"memory_phase","broad_category":"M","image_png":"M_Quartzite_12.png","image_id":284,"category_name":"Quartzite","category":18,"distinct_rating":1.92,"distinct_type":"Bottom","rt":null,"stimulus":"Stimuli_Rocks480/M_Quartzite_12.png","response":null,"trial_type":"image-keyboard-response","trial_index":30,"plugin_version":"2.1.0","time_elapsed":89261,"subject_id":"90134","group":"Group2","full_date":"2025-11-09T03:49:16.739Z","date":"2025-11-09","time":"03:49:16"},{"rt":null,"stimulus":"<p style=\"font-size: 50px; margin: 0; text-align: center;\">+</p>","response":null,"trial_type":"html-keyboard-response","trial_index":31,"plugin_version":"2.1.0","time_elapsed":90264,"subject_id":"90134","group":"Group2","full_date":"2025-11-09T03:49:16.739Z","date":"2025-11-09","time":"03:49:16"},{"task":"memory_phase","broad_category":"M","image_png":"M_Phyllite_02.png","image_id":258,"category_name":"Phyllite","category":17,"distinct_rating":2.89,"distinct_type":"Bottom","rt":null,"stimulus":"Stimuli_Rocks480/M_Phyllite_02.png","response":null,"trial_type":"image-keyboard-response","trial_index":32,"plugin_version":"2.1.0","time_elapsed":92767,"subject_id":"90134","group":"Group2","full_date":"2025-11-09T03:49:16.739Z","date":"2025-11-09","time":"03:49:16"},{"rt":null,"stimulus":"<p style=\"font-size: 50px; margin: 0; text-align: center;\">+</p>","response":null,"trial_type":"html-keyboard-response","trial_index":33,"plugin_version":"2.1.0","time_elapsed":93770,"subject_id":"90134","group":"Group2","full_date":"2025-11-09T03:49:16.739Z","date":"2025-11-09","time":"03:49:16"},{"task":"memory_phase","broad_category":"M","image_png":"M_Slate_14.png","image_id":318,"category_name":"Slate","category":20,"distinct_rating":2.58,"distinct_type":"Bottom","rt":null,"stimulus":"Stimuli_Rocks480/M_Slate_14.png","response":null,"trial_type":"image-keyboard-response","trial_index":34,"plugin_version":"2.1.0","time_elapsed":96274,"subject_id":"90134","group":"Group2","full_date":"2025-11-09T03:49:16.739Z","date":"2025-11-09","time":"03:49:16"},{"rt":null,"stimulus":"<p style=\"font-size: 50px; margin: 0; text-align: center;\">+</p>","response":null,"trial_type":"html-keyboard-response","trial_index":35,"plugin_version":"2.1.0","time_elapsed":97276,"subject_id":"90134","group":"Group2","full_date":"2025-11-09T03:49:16.739Z","date":"2025-11-09","time":"03:49:16"},{"task":"memory_phase","broad_category":"S","image_png":"S_Sandstone_08.png","image_id":456,"category_name":"Sandstone","category":29,"distinct_rating":1.5,"distinct_type":"Bottom","rt":null,"stimulus":"Stimuli_Rocks480/S_Sandstone_08.png","response":null,"trial_type":"image-keyboard-response","trial_index":36,"plugin_version":"2.1.0","time_elapsed":99779,"subject_id":"90134","group":"Group2","full_date":"2025-11-09T03:49:16.739Z","date":"2025-11-09","time":"03:49:16"},{"rt":null,"stimulus":"<p style=\"font-size: 50px; margin: 0; text-align: center;\">+</p>","response":null,"trial_type":"html-keyboard-response","trial_index":37,"plugin_version":"2.1.0","time_elapsed":100781,"subject_id":"90134","group":"Group2","full_date":"2025-11-09T03:49:16.739Z","date":"2025-11-09","time":"03:49:16"},{"task":"memory_phase","broad_category":"I","image_png":"I_Pegmatite_03.png","image_id":99,"category_name":"Pegmatite","category":7,"distinct_rating":7.24,"distinct_type":"Top","rt":null,"stimulus":"Stimuli_Rocks480/I_Pegmatite_03.png","response":null,"trial_type":"image-keyboard-response","trial_index":38,"plugin_version":"2.1.0","time_elapsed":103284,"subject_id":"90134","group":"Group2","full_date":"2025-11-09T03:49:16.739Z","date":"2025-11-09","time":"03:49:16"},{"rt":null,"stimulus":"<p style=\"font-size: 50px; margin: 0; text-align: center;\">+</p>","response":null,"trial_type":"html-keyboard-response","trial_index":39,"plugin_version":"2.1.0","time_elapsed":104287,"subject_id":"90134","group":"Group2","full_date":"2025-11-09T03:49:16.739Z","date":"2025-11-09","time":"03:49:16"},{"task":"memory_phase","broad_category":"M","image_png":"M_Gneiss_14.png","image_id":206,"category_name":"Gneiss","category":13,"distinct_rating":3.41,"distinct_type":"Bottom","rt":null,"stimulus":"Stimuli_Rocks480/M_Gneiss_14.png","response":null,"trial_type":"image-keyboard-response","trial_index":40,"plugin_version":"2.1.0","time_elapsed":106791,"subject_id":"90134","group":"Group2","full_date":"2025-11-09T03:49:16.739Z","date":"2025-11-09","time":"03:49:16"},{"rt":null,"stimulus":"<p style=\"font-size: 50px; margin: 0; text-align: center;\">+</p>","response":null,"trial_type":"html-keyboard-response","trial_index":41,"plugin_version":"2.1.0","time_elapsed":107795,"subject_id":"90134","group":"Group2","full_date":"2025-11-09T03:49:16.739Z","date":"2025-11-09","time":"03:49:16"},{"task":"memory_phase","broad_category":"I","image_png":"I_Gabbro_02.png","image_id":50,"category_name":"Gabbro","category":4,"distinct_rating":2.73,"distinct_type":"Bottom","rt":null,"stimulus":"Stimuli_Rocks480/I_Gabbro_02.png","response":null,"trial_type":"image-keyboard-response","trial_index":42,"plugin_version":"2.1.0","time_elapsed":110299,"subject_id":"90134","group":"Group2","full_date":"2025-11-09T03:49:16.739Z","date":"2025-11-09","time":"03:49:16"},{"rt":null,"stimulus":"<p style=\"font-size: 50px; margin: 0; text-align: center;\">+</p>","response":null,"trial_type":"html-keyboard-response","trial_index":43,"plugin_version":"2.1.0","time_elapsed":111301,"subject_id":"90134","group":"Group2","full_date":"2025-11-09T03:49:16.739Z","date":"2025-11-09","time":"03:49:16"},{"task":"memory_phase","broad_category":"M","image_png":"M_Phyllite_13.png","image_id":269,"category_name":"Phyllite","category":17,"distinct_rating":2.8,"distinct_type":"Bottom","rt":null,"stimulus":"Stimuli_Rocks480/M_Phyllite_13.png","response":null,"trial_type":"image-keyboard-response","trial_index":44,"plugin_version":"2.1.0","time_elapsed":113805,"subject_id":"90134","group":"Group2","full_date":"2025-11-09T03:49:16.739Z","date":"2025-11-09","time":"03:49:16"},{"rt":null,"stimulus":"<p style=\"font-size: 50px; margin: 0; text-align: center;\">+</p>","response":null,"trial_type":"html-keyboard-response","trial_index":45,"plugin_version":"2.1.0","time_elapsed":114808,"subject_id":"90134","group":"Group2","full_date":"2025-11-09T03:49:16.739Z","date":"2025-11-09","time":"03:49:16"},{"task":"memory_phase","broad_category":"S","image_png":"S_Sandstone_04.png","image_id":452,"category_name":"Sandstone","category":29,"distinct_rating":1.8,"distinct_type":"Bottom","rt":null,"stimulus":"Stimuli_Rocks480/S_Sandstone_04.png","response":null,"trial_type":"image-keyboard-response","trial_index":46,"plugin_version":"2.1.0","time_elapsed":117311,"subject_id":"90134","group":"Group2","full_date":"2025-11-09T03:49:16.739Z","date":"2025-11-09","time":"03:49:16"},{"rt":null,"stimulus":"<p style=\"font-size: 50px; margin: 0; text-align: center;\">+</p>","response":null,"trial_type":"html-keyboard-response","trial_index":47,"plugin_version":"2.1.0","time_elapsed":118314,"subject_id":"90134","group":"Group2","full_date":"2025-11-09T03:49:16.739Z","date":"2025-11-09","time":"03:49:16"},{"task":"memory_phase","broad_category":"I","image_png":"I_Basalt_13.png","image_id":29,"category_name":"Basalt","category":2,"distinct_rating":2.68,"distinct_type":"Bottom","rt":null,"stimulus":"Stimuli_Rocks480/I_Basalt_13.png","response":null,"trial_type":"image-keyboard-response","trial_index":48,"plugin_version":"2.1.0","time_elapsed":120818,"subject_id":"90134","group":"Group2","full_date":"2025-11-09T03:49:16.739Z","date":"2025-11-09","time":"03:49:16"},{"rt":null,"stimulus":"<p style=\"font-size: 50px; margin: 0; text-align: center;\">+</p>","response":null,"trial_type":"html-keyboard-response","trial_index":49,"plugin_version":"2.1.0","time_elapsed":121820,"subject_id":"90134","group":"Group2","full_date":"2025-11-09T03:49:16.739Z","date":"2025-11-09","time":"03:49:16"},{"task":"memory_phase","broad_category":"I","image_png":"I_Rhyolite_05.png","image_id":149,"category_name":"Rhyolite","category":10,"distinct_rating":3.02,"distinct_type":"Bottom","rt":null,"stimulus":"Stimuli_Rocks480/I_Rhyolite_05.png","response":null,"trial_type":"image-keyboard-response","trial_index":50,"plugin_version":"2.1.0","time_elapsed":124324,"subject_id":"90134","group":"Group2","full_date":"2025-11-09T03:49:16.739Z","date":"2025-11-09","time":"03:49:16"},{"rt":null,"stimulus":"<p style=\"font-size: 50px; margin: 0; text-align: center;\">+</p>","response":null,"trial_type":"html-keyboard-response","trial_index":51,"plugin_version":"2.1.0","time_elapsed":125326,"subject_id":"90134","group":"Group2","full_date":"2025-11-09T03:49:16.739Z","date":"2025-11-09","time":"03:49:16"},{"task":"memory_phase","broad_category":"S","image_png":"S_Shale_07.png","image_id":471,"category_name":"Shale","category":30,"distinct_rating":2.73,"distinct_type":"Bottom","rt":null,"stimulus":"Stimuli_Rocks480/S_Shale_07.png","response":null,"trial_type":"image-keyboard-response","trial_index":52,"plugin_version":"2.1.0","time_elapsed":127830,"subject_id":"90134","group":"Group2","full_date":"2025-11-09T03:49:16.739Z","date":"2025-11-09","time":"03:49:16"},{"rt":null,"stimulus":"<p style=\"font-size: 50px; margin: 0; text-align: center;\">+</p>","response":null,"trial_type":"html-keyboard-response","trial_index":53,"plugin_version":"2.1.0","time_elapsed":128833,"subject_id":"90134","group":"Group2","full_date":"2025-11-09T03:49:16.739Z","date":"2025-11-09","time":"03:49:16"},{"task":"memory_phase","broad_category":"I","image_png":"I_Basalt_10.png","image_id":26,"category_name":"Basalt","category":2,"distinct_rating":2.76,"distinct_type":"Bottom","rt":null,"stimulus":"Stimuli_Rocks480/I_Basalt_10.png","response":null,"trial_type":"image-keyboard-response","trial_index":54,"plugin_version":"2.1.0","time_elapsed":131337,"subject_id":"90134","group":"Group2","full_date":"2025-11-09T03:49:16.739Z","date":"2025-11-09","time":"03:49:16"},{"rt":2577,"stimulus":"<p style=\"font-size: 35px;\">Press SPACE to continue study phase</p>","response":" ","trial_type":"html-keyboard-response","trial_index":55,"plugin_version":"2.1.0","time_elapsed":133917,"subject_id":"90134","group":"Group2","full_date":"2025-11-09T03:49:16.739Z","date":"2025-11-09","time":"03:49:16"},{"rt":null,"stimulus":"<p style=\"font-size: 50px; margin: 0; text-align: center;\">+</p>","response":null,"trial_type":"html-keyboard-response","trial_index":56,"plugin_version":"2.1.0","time_elapsed":134920,"subject_id":"90134","group":"Group2","full_date":"2025-11-09T03:49:16.739Z","date":"2025-11-09","time":"03:49:16"},{"task":"memory_phase","broad_category":"S","image_png":"S_Rock Salt_13.png","image_id":445,"category_name":"Rock Salt","category":28,"distinct_rating":7.58,"distinct_type":"Top","rt":null,"stimulus":"Stimuli_Rocks480/S_Rock Salt_13.png","response":null,"trial_type":"image-keyboard-response","trial_index":57,"plugin_version":"2.1.0","time_elapsed":137424,"subject_id":"90134","group":"Group2","full_date":"2025-11-09T03:49:16.739Z","date":"2025-11-09","time":"03:49:16"},{"rt":null,"stimulus":"<p style=\"font-size: 50px; margin: 0; text-align: center;\">+</p>","response":null,"trial_type":"html-keyboard-response","trial_index":58,"plugin_version":"2.1.0","time_elapsed":138426,"subject_id":"90134","group":"Group2","full_date":"2025-11-09T03:49:16.739Z","date":"2025-11-09","time":"03:49:16"},{"task":"memory_phase","broad_category":"M","image_png":"M_Marble_02.png","image_id":226,"category_name":"Marble","category":15,"distinct_rating":3.2,"distinct_type":"Bottom","rt":null,"stimulus":"Stimuli_Rocks480/M_Marble_02.png","response":null,"trial_type":"image-keyboard-response","trial_index":59,"plugin_version":"2.1.0","time_elapsed":140930,"subject_id":"90134","group":"Group2","full_date":"2025-11-09T03:49:16.739Z","date":"2025-11-09","time":"03:49:16"},{"rt":null,"stimulus":"<p style=\"font-size: 50px; margin: 0; text-align: center;\">+</p>","response":null,"trial_type":"html-keyboard-response","trial_index":60,"plugin_version":"2.1.0","time_elapsed":141933,"subject_id":"90134","group":"Group2","full_date":"2025-11-09T03:49:16.739Z","date":"2025-11-09","time":"03:49:16"},{"task":"memory_phase","broad_category":"I","image_png":"I_Pumice_14.png","image_id":142,"category_name":"Pumice","category":9,"distinct_rating":3.22,"distinct_type":"Bottom","rt":null,"stimulus":"Stimuli_Rocks480/I_Pumice_14.png","response":null,"trial_type":"image-keyboard-response","trial_index":61,"plugin_version":"2.1.0","time_elapsed":144436,"subject_id":"90134","group":"Group2","full_date":"2025-11-09T03:49:16.739Z","date":"2025-11-09","time":"03:49:16"},{"rt":null,"stimulus":"<p style=\"font-size: 50px; margin: 0; text-align: center;\">+</p>","response":null,"trial_type":"html-keyboard-response","trial_index":62,"plugin_version":"2.1.0","time_elapsed":145440,"subject_id":"90134","group":"Group2","full_date":"2025-11-09T03:49:16.739Z","date":"2025-11-09","time":"03:49:16"},{"task":"memory_phase","broad_category":"I","image_png":"I_Diorite_01.png","image_id":33,"category_name":"Diorite","category":3,"distinct_rating":2.97,"distinct_type":"Bottom","rt":null,"stimulus":"Stimuli_Rocks480/I_Diorite_01.png","response":null,"trial_type":"image-keyboard-response","trial_index":63,"plugin_version":"2.1.0","time_elapsed":147944,"subject_id":"90134","group":"Group2","full_date":"2025-11-09T03:49:16.739Z","date":"2025-11-09","time":"03:49:16"},{"rt":null,"stimulus":"<p style=\"font-size: 50px; margin: 0; text-align: center;\">+</p>","response":null,"trial_type":"html-keyboard-response","trial_index":64,"plugin_version":"2.1.0","time_elapsed":148947,"subject_id":"90134","group":"Group2","full_date":"2025-11-09T03:49:16.739Z","date":"2025-11-09","time":"03:49:16"},{"task":"memory_phase","broad_category":"I","image_png":"I_Pumice_13.png","image_id":141,"category_name":"Pumice","category":9,"distinct_rating":3.12,"distinct_type":"Bottom","rt":null,"stimulus":"Stimuli_Rocks480/I_Pumice_13.png","response":null,"trial_type":"image-keyboard-response","trial_index":65,"plugin_version":"2.1.0","time_elapsed":151451,"subject_id":"90134","group":"Group2","full_date":"2025-11-09T03:49:16.739Z","date":"2025-11-09","time":"03:49:16"},{"rt":null,"stimulus":"<p style=\"font-size: 50px; margin: 0; text-align: center;\">+</p>","response":null,"trial_type":"html-keyboard-response","trial_index":66,"plugin_version":"2.1.0","time_elapsed":152453,"subject_id":"90134","group":"Group2","full_date":"2025-11-09T03:49:16.739Z","date":"2025-11-09","time":"03:49:16"},{"task":"memory_phase","broad_category":"S","image_png":"S_Dolomite_07.png","image_id":391,"category_name":"Dolomite","category":25,"distinct_rating":1.73,"distinct_type":"Bottom","rt":null,"stimulus":"Stimuli_Rocks480/S_Dolomite_07.png","response":null,"trial_type":"image-keyboard-response","trial_index":67,"plugin_version":"2.1.0","time_elapsed":154956,"subject_id":"90134","group":"Group2","full_date":"2025-11-09T03:49:16.739Z","date":"2025-11-09","time":"03:49:16"},{"rt":null,"stimulus":"<p style=\"font-size: 50px; margin: 0; text-align: center;\">+</p>","response":null,"trial_type":"html-keyboard-response","trial_index":68,"plugin_version":"2.1.0","time_elapsed":155959,"subject_id":"90134","group":"Group2","full_date":"2025-11-09T03:49:16.739Z","date":"2025-11-09","time":"03:49:16"},{"task":"memory_phase","broad_category":"I","image_png":"I_Pegmatite_11.png","image_id":107,"category_name":"Pegmatite","category":7,"distinct_rating":7.11,"distinct_type":"Top","rt":null,"stimulus":"Stimuli_Rocks480/I_Pegmatite_11.png","response":null,"trial_type":"image-keyboard-response","trial_index":69,"plugin_version":"2.1.0","time_elapsed":158463,"subject_id":"90134","group":"Group2","full_date":"2025-11-09T03:49:16.739Z","date":"2025-11-09","time":"03:49:16"},{"rt":null,"stimulus":"<p style=\"font-size: 50px; margin: 0; text-align: center;\">+</p>","response":null,"trial_type":"html-keyboard-response","trial_index":70,"plugin_version":"2.1.0","time_elapsed":159465,"subject_id":"90134","group":"Group2","full_date":"2025-11-09T03:49:16.739Z","date":"2025-11-09","time":"03:49:16"},{"task":"memory_phase","broad_category":"S","image_png":"S_Conglomerate_14.png","image_id":382,"category_name":"Conglomerate","category":24,"distinct_rating":6.86,"distinct_type":"Top","rt":null,"stimulus":"Stimuli_Rocks480/S_Conglomerate_14.png","response":null,"trial_type":"image-keyboard-response","trial_index":71,"plugin_version":"2.1.0","time_elapsed":161969,"subject_id":"90134","group":"Group2","full_date":"2025-11-09T03:49:16.739Z","date":"2025-11-09","time":"03:49:16"},{"rt":null,"stimulus":"<p style=\"font-size: 50px; margin: 0; text-align: center;\">+</p>","response":null,"trial_type":"html-keyboard-response","trial_index":72,"plugin_version":"2.1.0","time_elapsed":162972,"subject_id":"90134","group":"Group2","full_date":"2025-11-09T03:49:16.739Z","date":"2025-11-09","time":"03:49:16"},{"task":"memory_phase","broad_category":"S","image_png":"S_Shale_02.png","image_id":466,"category_name":"Shale","category":30,"distinct_rating":2.9,"distinct_type":"Bottom","rt":null,"stimulus":"Stimuli_Rocks480/S_Shale_02.png","response":null,"trial_type":"image-keyboard-response","trial_index":73,"plugin_version":"2.1.0","time_elapsed":165476,"subject_id":"90134","group":"Group2","full_date":"2025-11-09T03:49:16.739Z","date":"2025-11-09","time":"03:49:16"},{"rt":null,"stimulus":"<p style=\"font-size: 50px; margin: 0; text-align: center;\">+</p>","response":null,"trial_type":"html-keyboard-response","trial_index":74,"plugin_version":"2.1.0","time_elapsed":166478,"subject_id":"90134","group":"Group2","full_date":"2025-11-09T03:49:16.739Z","date":"2025-11-09","time":"03:49:16"},{"task":"memory_phase","broad_category":"S","image_png":"S_Dolomite_01.png","image_id":385,"category_name":"Dolomite","category":25,"distinct_rating":1.43,"distinct_type":"Bottom","rt":null,"stimulus":"Stimuli_Rocks480/S_Dolomite_01.png","response":null,"trial_type":"image-keyboard-response","trial_index":75,"plugin_version":"2.1.0","time_elapsed":168982,"subject_id":"90134","group":"Group2","full_date":"2025-11-09T03:49:16.739Z","date":"2025-11-09","time":"03:49:16"},{"rt":null,"stimulus":"<p style=\"font-size: 50px; margin: 0; text-align: center;\">+</p>","response":null,"trial_type":"html-keyboard-response","trial_index":76,"plugin_version":"2.1.0","time_elapsed":169985,"subject_id":"90134","group":"Group2","full_date":"2025-11-09T03:49:16.739Z","date":"2025-11-09","time":"03:49:16"},{"task":"memory_phase","broad_category":"M","image_png":"M_Quartzite_15.png","image_id":287,"category_name":"Quartzite","category":18,"distinct_rating":2.19,"distinct_type":"Bottom","rt":null,"stimulus":"Stimuli_Rocks480/M_Quartzite_15.png","response":null,"trial_type":"image-keyboard-response","trial_index":77,"plugin_version":"2.1.0","time_elapsed":172488,"subject_id":"90134","group":"Group2","full_date":"2025-11-09T03:49:16.739Z","date":"2025-11-09","time":"03:49:16"},{"rt":null,"stimulus":"<p style=\"font-size: 50px; margin: 0; text-align: center;\">+</p>","response":null,"trial_type":"html-keyboard-response","trial_index":78,"plugin_version":"2.1.0","time_elapsed":173490,"subject_id":"90134","group":"Group2","full_date":"2025-11-09T03:49:16.739Z","date":"2025-11-09","time":"03:49:16"},{"task":"memory_phase","broad_category":"I","image_png":"I_Diorite_10.png","image_id":42,"category_name":"Diorite","category":3,"distinct_rating":2.84,"distinct_type":"Bottom","rt":null,"stimulus":"Stimuli_Rocks480/I_Diorite_10.png","response":null,"trial_type":"image-keyboard-response","trial_index":79,"plugin_version":"2.1.0","time_elapsed":175994,"subject_id":"90134","group":"Group2","full_date":"2025-11-09T03:49:16.739Z","date":"2025-11-09","time":"03:49:16"},{"rt":null,"stimulus":"<p style=\"font-size: 50px; margin: 0; text-align: center;\">+</p>","response":null,"trial_type":"html-keyboard-response","trial_index":80,"plugin_version":"2.1.0","time_elapsed":176997,"subject_id":"90134","group":"Group2","full_date":"2025-11-09T03:49:16.739Z","date":"2025-11-09","time":"03:49:16"},{"task":"memory_phase","broad_category":"M","image_png":"M_Marble_14.png","image_id":238,"category_name":"Marble","category":15,"distinct_rating":3.31,"distinct_type":"Bottom","rt":null,"stimulus":"Stimuli_Rocks480/M_Marble_14.png","response":null,"trial_type":"image-keyboard-response","trial_index":81,"plugin_version":"2.1.0","time_elapsed":179501,"subject_id":"90134","group":"Group2","full_date":"2025-11-09T03:49:16.739Z","date":"2025-11-09","time":"03:49:16"},{"rt":null,"stimulus":"<p style=\"font-size: 50px; margin: 0; text-align: center;\">+</p>","response":null,"trial_type":"html-keyboard-response","trial_index":82,"plugin_version":"2.1.0","time_elapsed":180503,"subject_id":"90134","group":"Group2","full_date":"2025-11-09T03:49:16.739Z","date":"2025-11-09","time":"03:49:16"},{"task":"memory_phase","broad_category":"M","image_png":"M_Slate_04.png","image_id":308,"category_name":"Slate","category":20,"distinct_rating":2.2,"distinct_type":"Bottom","rt":null,"stimulus":"Stimuli_Rocks480/M_Slate_04.png","response":null,"trial_type":"image-keyboard-response","trial_index":83,"plugin_version":"2.1.0","time_elapsed":183007,"subject_id":"90134","group":"Group2","full_date":"2025-11-09T03:49:16.739Z","date":"2025-11-09","time":"03:49:16"},{"rt":null,"stimulus":"<p style=\"font-size: 50px; margin: 0; text-align: center;\">+</p>","response":null,"trial_type":"html-keyboard-response","trial_index":84,"plugin_version":"2.1.0","time_elapsed":184009,"subject_id":"90134","group":"Group2","full_date":"2025-11-09T03:49:16.739Z","date":"2025-11-09","time":"03:49:16"},{"task":"memory_phase","broad_category":"I","image_png":"I_Andesite_03.png","image_id":3,"category_name":"Andesite","category":1,"distinct_rating":3.17,"distinct_type":"Bottom","rt":null,"stimulus":"Stimuli_Rocks480/I_Andesite_03.png","response":null,"trial_type":"image-keyboard-response","trial_index":85,"plugin_version":"2.1.0","time_elapsed":186513,"subject_id":"90134","group":"Group2","full_date":"2025-11-09T03:49:16.739Z","date":"2025-11-09","time":"03:49:16"},{"rt":null,"stimulus":"<p style=\"font-size: 50px; margin: 0; text-align: center;\">+</p>","response":null,"trial_type":"html-keyboard-response","trial_index":86,"plugin_version":"2.1.0","time_elapsed":187516,"subject_id":"90134","group":"Group2","full_date":"2025-11-09T03:49:16.739Z","date":"2025-11-09","time":"03:49:16"},{"task":"memory_phase","broad_category":"I","image_png":"I_Andesite_04.png","image_id":4,"category_name":"Andesite","category":1,"distinct_rating":3.18,"distinct_type":"Bottom","rt":null,"stimulus":"Stimuli_Rocks480/I_Andesite_04.png","response":null,"trial_type":"image-keyboard-response","trial_index":87,"plugin_version":"2.1.0","time_elapsed":190019,"subject_id":"90134","group":"Group2","full_date":"2025-11-09T03:49:16.739Z","date":"2025-11-09","time":"03:49:16"},{"rt":null,"stimulus":"<p style=\"font-size: 50px; margin: 0; text-align: center;\">+</p>","response":null,"trial_type":"html-keyboard-response","trial_index":88,"plugin_version":"2.1.0","time_elapsed":191022,"subject_id":"90134","group":"Group2","full_date":"2025-11-09T03:49:16.739Z","date":"2025-11-09","time":"03:49:16"},{"task":"memory_phase","broad_category":"M","image_png":"M_Gneiss_10.png","image_id":202,"category_name":"Gneiss","category":13,"distinct_rating":3.09,"distinct_type":"Bottom","rt":null,"stimulus":"Stimuli_Rocks480/M_Gneiss_10.png","response":null,"trial_type":"image-keyboard-response","trial_index":89,"plugin_version":"2.1.0","time_elapsed":193526,"subject_id":"90134","group":"Group2","full_date":"2025-11-09T03:49:16.739Z","date":"2025-11-09","time":"03:49:16"},{"rt":null,"stimulus":"<p style=\"font-size: 50px; margin: 0; text-align: center;\">+</p>","response":null,"trial_type":"html-keyboard-response","trial_index":90,"plugin_version":"2.1.0","time_elapsed":194528,"subject_id":"90134","group":"Group2","full_date":"2025-11-09T03:49:16.739Z","date":"2025-11-09","time":"03:49:16"},{"task":"memory_phase","broad_category":"M","image_png":"M_Slate_10.png","image_id":314,"category_name":"Slate","category":20,"distinct_rating":1.94,"distinct_type":"Bottom","rt":null,"stimulus":"Stimuli_Rocks480/M_Slate_10.png","response":null,"trial_type":"image-keyboard-response","trial_index":91,"plugin_version":"2.1.0","time_elapsed":197031,"subject_id":"90134","group":"Group2","full_date":"2025-11-09T03:49:16.739Z","date":"2025-11-09","time":"03:49:16"},{"rt":null,"stimulus":"<p style=\"font-size: 50px; margin: 0; text-align: center;\">+</p>","response":null,"trial_type":"html-keyboard-response","trial_index":92,"plugin_version":"2.1.0","time_elapsed":198034,"subject_id":"90134","group":"Group2","full_date":"2025-11-09T03:49:16.739Z","date":"2025-11-09","time":"03:49:16"},{"task":"memory_phase","broad_category":"I","image_png":"I_Peridotite_13.png","image_id":125,"category_name":"Peridotite","category":8,"distinct_rating":7.28,"distinct_type":"Top","rt":null,"stimulus":"Stimuli_Rocks480/I_Peridotite_13.png","response":null,"trial_type":"image-keyboard-response","trial_index":93,"plugin_version":"2.1.0","time_elapsed":200538,"subject_id":"90134","group":"Group2","full_date":"2025-11-09T03:49:16.739Z","date":"2025-11-09","time":"03:49:16"},{"rt":null,"stimulus":"<p style=\"font-size: 50px; margin: 0; text-align: center;\">+</p>","response":null,"trial_type":"html-keyboard-response","trial_index":94,"plugin_version":"2.1.0","time_elapsed":201541,"subject_id":"90134","group":"Group2","full_date":"2025-11-09T03:49:16.739Z","date":"2025-11-09","time":"03:49:16"},{"task":"memory_phase","broad_category":"M","image_png":"M_Gneiss_15.png","image_id":207,"category_name":"Gneiss","category":13,"distinct_rating":3.11,"distinct_type":"Bottom","rt":null,"stimulus":"Stimuli_Rocks480/M_Gneiss_15.png","response":null,"trial_type":"image-keyboard-response","trial_index":95,"plugin_version":"2.1.0","time_elapsed":204045,"subject_id":"90134","group":"Group2","full_date":"2025-11-09T03:49:16.739Z","date":"2025-11-09","time":"03:49:16"},{"rt":null,"stimulus":"<p style=\"font-size: 50px; margin: 0; text-align: center;\">+</p>","response":null,"trial_type":"html-keyboard-response","trial_index":96,"plugin_version":"2.1.0","time_elapsed":205047,"subject_id":"90134","group":"Group2","full_date":"2025-11-09T03:49:16.739Z","date":"2025-11-09","time":"03:49:16"},{"task":"memory_phase","broad_category":"I","image_png":"I_Gabbro_12.png","image_id":60,"category_name":"Gabbro","category":4,"distinct_rating":2.6,"distinct_type":"Bottom","rt":null,"stimulus":"Stimuli_Rocks480/I_Gabbro_12.png","response":null,"trial_type":"image-keyboard-response","trial_index":97,"plugin_version":"2.1.0","time_elapsed":207552,"subject_id":"90134","group":"Group2","full_date":"2025-11-09T03:49:16.739Z","date":"2025-11-09","time":"03:49:16"},{"rt":null,"stimulus":"<p style=\"font-size: 50px; margin: 0; text-align: center;\">+</p>","response":null,"trial_type":"html-keyboard-response","trial_index":98,"plugin_version":"2.1.0","time_elapsed":208554,"subject_id":"90134","group":"Group2","full_date":"2025-11-09T03:49:16.739Z","date":"2025-11-09","time":"03:49:16"},{"task":"memory_phase","broad_category":"I","image_png":"I_Rhyolite_10.png","image_id":154,"category_name":"Rhyolite","category":10,"distinct_rating":2.88,"distinct_type":"Bottom","rt":null,"stimulus":"Stimuli_Rocks480/I_Rhyolite_10.png","response":null,"trial_type":"image-keyboard-response","trial_index":99,"plugin_version":"2.1.0","time_elapsed":211058,"subject_id":"90134","group":"Group2","full_date":"2025-11-09T03:49:16.739Z","date":"2025-11-09","time":"03:49:16"},{"rt":null,"stimulus":"<p style=\"font-size: 50px; margin: 0; text-align: center;\">+</p>","response":null,"trial_type":"html-keyboard-response","trial_index":100,"plugin_version":"2.1.0","time_elapsed":212061,"subject_id":"90134","group":"Group2","full_date":"2025-11-09T03:49:16.739Z","date":"2025-11-09","time":"03:49:16"},{"task":"memory_phase","broad_category":"I","image_png":"I_Obsidian_06.png","image_id":86,"category_name":"Obsidian","category":6,"distinct_rating":8.01,"distinct_type":"Top","rt":null,"stimulus":"Stimuli_Rocks480/I_Obsidian_06.png","response":null,"trial_type":"image-keyboard-response","trial_index":101,"plugin_version":"2.1.0","time_elapsed":214565,"subject_id":"90134","group":"Group2","full_date":"2025-11-09T03:49:16.739Z","date":"2025-11-09","time":"03:49:16"},{"rt":null,"stimulus":"<p style=\"font-size: 50px; margin: 0; text-align: center;\">+</p>","response":null,"trial_type":"html-keyboard-response","trial_index":102,"plugin_version":"2.1.0","time_elapsed":215568,"subject_id":"90134","group":"Group2","full_date":"2025-11-09T03:49:16.739Z","date":"2025-11-09","time":"03:49:16"},{"task":"memory_phase","broad_category":"I","image_png":"I_Basalt_08.png","image_id":24,"category_name":"Basalt","category":2,"distinct_rating":2.31,"distinct_type":"Bottom","rt":null,"stimulus":"Stimuli_Rocks480/I_Basalt_08.png","response":null,"trial_type":"image-keyboard-response","trial_index":103,"plugin_version":"2.1.0","time_elapsed":218071,"subject_id":"90134","group":"Group2","full_date":"2025-11-09T03:49:16.739Z","date":"2025-11-09","time":"03:49:16"},{"rt":null,"stimulus":"<p style=\"font-size: 50px; margin: 0; text-align: center;\">+</p>","response":null,"trial_type":"html-keyboard-response","trial_index":104,"plugin_version":"2.1.0","time_elapsed":219074,"subject_id":"90134","group":"Group2","full_date":"2025-11-09T03:49:16.739Z","date":"2025-11-09","time":"03:49:16"},{"task":"memory_phase","broad_category":"I","image_png":"I_Gabbro_14.png","image_id":62,"category_name":"Gabbro","category":4,"distinct_rating":2.95,"distinct_type":"Bottom","rt":null,"stimulus":"Stimuli_Rocks480/I_Gabbro_14.png","response":null,"trial_type":"image-keyboard-response","trial_index":105,"plugin_version":"2.1.0","time_elapsed":221577,"subject_id":"90134","group":"Group2","full_date":"2025-11-09T03:49:16.739Z","date":"2025-11-09","time":"03:49:16"},{"rt":18073,"stimulus":"<div style=\"max-width: 760px; margin: auto; font-size: 20px; line-height: 1.5;\">\n      <h1 style=\"text-align:center; font-size: 30px;\">Instructions for the Test Phase</h1>\n      <p>\n        The study phase is now complete.\n      </p>\n      <p>\n        In the test phase, you will again see a series of rock images. \n        Some will be ones you saw before - during the study phase, while others will be new.  \n        <b>Your task</b> is to decide whether you have seen each image before by pressing the corresponding key on your keyboard:<br><br>\n          <b>A</b> - NO (you did not see this image before)<br>\n          <b>L</b> - YES (you saw this image before)<br><br>\n        The test will proceed at your own pace. You will receive feedback after each response.  \n        Please try to respond <b>as accurately as possible</b>.\n      </p>\n      <p>\n        <b>Reminder:</b> If your computer has multiple language settings (e.g., English and another language),\n        please ensure it is set to English during the test phase.\n      </p>\n      <p>\n        You can track your progress using the <b>completion bar</b> at the top of the screen.  \n        Note that it has been refreshed to reflect your progress during this final phase.\n      </p>\n      <p>\n        Press the button below when you are ready to continue.\n      </p>\n    </div>","response":0,"trial_type":"html-button-response","trial_index":106,"plugin_version":"2.1.0","time_elapsed":239660,"subject_id":"90134","group":"Group2","full_date":"2025-11-09T03:49:16.739Z","date":"2025-11-09","time":"03:49:16"},{"correct_response":"a","task":"test_phase","broad_category":"I","image_png":"I_Gabbro_16.png","image_id":64,"category_name":"Gabbro","category":4,"distinct_rating":2.52,"distinct_type":"Bottom","item_type":"Foil","rt":1579,"stimulus":"Stimuli_Rocks480/I_Gabbro_16.png","response":"l","trial_type":"image-keyboard-response","trial_index":107,"plugin_version":"2.1.0","time_elapsed":241241,"subject_id":"90134","group":"Group2","full_date":"2025-11-09T03:49:16.739Z","date":"2025-11-09","time":"03:49:16","cor_ans":false},{"trial_type":"html-keyboard-response","rt":null,"stimulus":"<p style=\"color: red; font-size: 50px; font-weight: bold;\">Incorrect</p>","response":null,"trial_index":108,"plugin_version":"2.1.0","time_elapsed":241743,"subject_id":"90134","group":"Group2","full_date":"2025-11-09T03:49:16.739Z","date":"2025-11-09","time":"03:49:16"},{"correct_response":"a","task":"test_phase","broad_category":"M","image_png":"M_Marble_06.png","image_id":230,"category_name":"Marble","category":15,"distinct_rating":3.4,"distinct_type":"Bottom","item_type":"Foil","rt":1700,"stimulus":"Stimuli_Rocks480/M_Marble_06.png","response":"l","trial_type":"image-keyboard-response","trial_index":109,"plugin_version":"2.1.0","time_elapsed":243445,"subject_id":"90134","group":"Group2","full_date":"2025-11-09T03:49:16.739Z","date":"2025-11-09","time":"03:49:16","cor_ans":false},{"trial_type":"html-keyboard-response","rt":null,"stimulus":"<p style=\"color: red; font-size: 50px; font-weight: bold;\">Incorrect</p>","response":null,"trial_index":110,"plugin_version":"2.1.0","time_elapsed":243946,"subject_id":"90134","group":"Group2","full_date":"2025-11-09T03:49:16.739Z","date":"2025-11-09","time":"03:49:16"},{"correct_response":"l","task":"test_phase","broad_category":"I","image_png":"I_Gabbro_02.png","image_id":50,"category_name":"Gabbro","category":4,"distinct_rating":2.73,"distinct_type":"Bottom","item_type":"Target","rt":935,"stimulus":"Stimuli_Rocks480/I_Gabbro_02.png","response":"l","trial_type":"image-keyboard-response","trial_index":111,"plugin_version":"2.1.0","time_elapsed":244884,"subject_id":"90134","group":"Group2","full_date":"2025-11-09T03:49:16.739Z","date":"2025-11-09","time":"03:49:16","cor_ans":true},{"trial_type":"html-keyboard-response","rt":null,"stimulus":"<p style=\"color: green; font-size: 50px; font-weight: bold;\">Correct</p>","response":null,"trial_index":112,"plugin_version":"2.1.0","time_elapsed":245386,"subject_id":"90134","group":"Group2","full_date":"2025-11-09T03:49:16.739Z","date":"2025-11-09","time":"03:49:16"},{"correct_response":"l","task":"test_phase","broad_category":"I","image_png":"I_Pumice_14.png","image_id":142,"category_name":"Pumice","category":9,"distinct_rating":3.22,"distinct_type":"Bottom","item_type":"Target","rt":777,"stimulus":"Stimuli_Rocks480/I_Pumice_14.png","response":"l","trial_type":"image-keyboard-response","trial_index":113,"plugin_version":"2.1.0","time_elapsed":246165,"subject_id":"90134","group":"Group2","full_date":"2025-11-09T03:49:16.739Z","date":"2025-11-09","time":"03:49:16","cor_ans":true},{"trial_type":"html-keyboard-response","rt":null,"stimulus":"<p style=\"color: green; font-size: 50px; font-weight: bold;\">Correct</p>","response":null,"trial_index":114,"plugin_version":"2.1.0","time_elapsed":246667,"subject_id":"90134","group":"Group2","full_date":"2025-11-09T03:49:16.739Z","date":"2025-11-09","time":"03:49:16"},{"correct_response":"l","task":"test_phase","broad_category":"M","image_png":"M_Gneiss_15.png","image_id":207,"category_name":"Gneiss","category":13,"distinct_rating":3.11,"distinct_type":"Bottom","item_type":"Target","rt":1194,"stimulus":"Stimuli_Rocks480/M_Gneiss_15.png","response":"l","trial_type":"image-keyboard-response","trial_index":115,"plugin_version":"2.1.0","time_elapsed":247863,"subject_id":"90134","group":"Group2","full_date":"2025-11-09T03:49:16.739Z","date":"2025-11-09","time":"03:49:16","cor_ans":true},{"trial_type":"html-keyboard-response","rt":null,"stimulus":"<p style=\"color: green; font-size: 50px; font-weight: bold;\">Correct</p>","response":null,"trial_index":116,"plugin_version":"2.1.0","time_elapsed":248365,"subject_id":"90134","group":"Group2","full_date":"2025-11-09T03:49:16.739Z","date":"2025-11-09","time":"03:49:16"},{"correct_response":"l","task":"test_phase","broad_category":"I","image_png":"I_Rhyolite_05.png","image_id":149,"category_name":"Rhyolite","category":10,"distinct_rating":3.02,"distinct_type":"Bottom","item_type":"Target","rt":811,"stimulus":"Stimuli_Rocks480/I_Rhyolite_05.png","response":"a","trial_type":"image-keyboard-response","trial_index":117,"plugin_version":"2.1.0","time_elapsed":249178,"subject_id":"90134","group":"Group2","full_date":"2025-11-09T03:49:16.739Z","date":"2025-11-09","time":"03:49:16","cor_ans":false},{"trial_type":"html-keyboard-response","rt":null,"stimulus":"<p style=\"color: red; font-size: 50px; font-weight: bold;\">Incorrect</p>","response":null,"trial_index":118,"plugin_version":"2.1.0","time_elapsed":249680,"subject_id":"90134","group":"Group2","full_date":"2025-11-09T03:49:16.739Z","date":"2025-11-09","time":"03:49:16"},{"correct_response":"a","task":"test_phase","broad_category":"S","image_png":"S_Sandstone_15.png","image_id":463,"category_name":"Sandstone","category":29,"distinct_rating":2,"distinct_type":"Bottom","item_type":"Foil","rt":1352,"stimulus":"Stimuli_Rocks480/S_Sandstone_15.png","response":"l","trial_type":"image-keyboard-response","trial_index":119,"plugin_version":"2.1.0","time_elapsed":251035,"subject_id":"90134","group":"Group2","full_date":"2025-11-09T03:49:16.739Z","date":"2025-11-09","time":"03:49:16","cor_ans":false},{"trial_type":"html-keyboard-response","rt":null,"stimulus":"<p style=\"color: red; font-size: 50px; font-weight: bold;\">Incorrect</p>","response":null,"trial_index":120,"plugin_version":"2.1.0","time_elapsed":251536,"subject_id":"90134","group":"Group2","full_date":"2025-11-09T03:49:16.739Z","date":"2025-11-09","time":"03:49:16"},{"correct_response":"a","task":"test_phase","broad_category":"M","image_png":"M_Phyllite_03.png","image_id":259,"category_name":"Phyllite","category":17,"distinct_rating":2.5,"distinct_type":"Bottom","item_type":"Foil","rt":1020,"stimulus":"Stimuli_Rocks480/M_Phyllite_03.png","response":"l","trial_type":"image-keyboard-response","trial_index":121,"plugin_version":"2.1.0","time_elapsed":252559,"subject_id":"90134","group":"Group2","full_date":"2025-11-09T03:49:16.739Z","date":"2025-11-09","time":"03:49:16","cor_ans":false},{"trial_type":"html-keyboard-response","rt":null,"stimulus":"<p style=\"color: red; font-size: 50px; font-weight: bold;\">Incorrect</p>","response":null,"trial_index":122,"plugin_version":"2.1.0","time_elapsed":253061,"subject_id":"90134","group":"Group2","full_date":"2025-11-09T03:49:16.739Z","date":"2025-11-09","time":"03:49:16"},{"correct_response":"a","task":"test_phase","broad_category":"I","image_png":"I_Pumice_08.png","image_id":136,"category_name":"Pumice","category":9,"distinct_rating":3.1,"distinct_type":"Bottom","item_type":"Foil","rt":977,"stimulus":"Stimuli_Rocks480/I_Pumice_08.png","response":"a","trial_type":"image-keyboard-response","trial_index":123,"plugin_version":"2.1.0","time_elapsed":254040,"subject_id":"90134","group":"Group2","full_date":"2025-11-09T03:49:16.739Z","date":"2025-11-09","time":"03:49:16","cor_ans":true},{"trial_type":"html-keyboard-response","rt":null,"stimulus":"<p style=\"color: green; font-size: 50px; font-weight: bold;\">Correct</p>","response":null,"trial_index":124,"plugin_version":"2.1.0","time_elapsed":254542,"subject_id":"90134","group":"Group2","full_date":"2025-11-09T03:49:16.739Z","date":"2025-11-09","time":"03:49:16"},{"correct_response":"a","task":"test_phase","broad_category":"S","image_png":"S_Sandstone_03.png","image_id":451,"category_name":"Sandstone","category":29,"distinct_rating":1.86,"distinct_type":"Bottom","item_type":"Foil","rt":890,"stimulus":"Stimuli_Rocks480/S_Sandstone_03.png","response":"a","trial_type":"image-keyboard-response","trial_index":125,"plugin_version":"2.1.0","time_elapsed":255434,"subject_id":"90134","group":"Group2","full_date":"2025-11-09T03:49:16.739Z","date":"2025-11-09","time":"03:49:16","cor_ans":true},{"trial_type":"html-keyboard-response","rt":null,"stimulus":"<p style=\"color: green; font-size: 50px; font-weight: bold;\">Correct</p>","response":null,"trial_index":126,"plugin_version":"2.1.0","time_elapsed":255935,"subject_id":"90134","group":"Group2","full_date":"2025-11-09T03:49:16.739Z","date":"2025-11-09","time":"03:49:16"},{"correct_response":"a","task":"test_phase","broad_category":"I","image_png":"I_Pumice_12.png","image_id":140,"category_name":"Pumice","category":9,"distinct_rating":2.97,"distinct_type":"Bottom","item_type":"Foil","rt":788,"stimulus":"Stimuli_Rocks480/I_Pumice_12.png","response":"a","trial_type":"image-keyboard-response","trial_index":127,"plugin_version":"2.1.0","time_elapsed":256726,"subject_id":"90134","group":"Group2","full_date":"2025-11-09T03:49:16.739Z","date":"2025-11-09","time":"03:49:16","cor_ans":true},{"trial_type":"html-keyboard-response","rt":null,"stimulus":"<p style=\"color: green; font-size: 50px; font-weight: bold;\">Correct</p>","response":null,"trial_index":128,"plugin_version":"2.1.0","time_elapsed":257227,"subject_id":"90134","group":"Group2","full_date":"2025-11-09T03:49:16.739Z","date":"2025-11-09","time":"03:49:16"},{"correct_response":"a","task":"test_phase","broad_category":"I","image_png":"I_Basalt_09.png","image_id":25,"category_name":"Basalt","category":2,"distinct_rating":1.89,"distinct_type":"Bottom","item_type":"Foil","rt":692,"stimulus":"Stimuli_Rocks480/I_Basalt_09.png","response":"l","trial_type":"image-keyboard-response","trial_index":129,"plugin_version":"2.1.0","time_elapsed":257921,"subject_id":"90134","group":"Group2","full_date":"2025-11-09T03:49:16.739Z","date":"2025-11-09","time":"03:49:16","cor_ans":false},{"trial_type":"html-keyboard-response","rt":null,"stimulus":"<p style=\"color: red; font-size: 50px; font-weight: bold;\">Incorrect</p>","response":null,"trial_index":130,"plugin_version":"2.1.0","time_elapsed":258423,"subject_id":"90134","group":"Group2","full_date":"2025-11-09T03:49:16.739Z","date":"2025-11-09","time":"03:49:16"},{"correct_response":"l","task":"test_phase","broad_category":"S","image_png":"S_Shale_07.png","image_id":471,"category_name":"Shale","category":30,"distinct_rating":2.73,"distinct_type":"Bottom","item_type":"Target","rt":732,"stimulus":"Stimuli_Rocks480/S_Shale_07.png","response":"l","trial_type":"image-keyboard-response","trial_index":131,"plugin_version":"2.1.0","time_elapsed":259158,"subject_id":"90134","group":"Group2","full_date":"2025-11-09T03:49:16.739Z","date":"2025-11-09","time":"03:49:16","cor_ans":true},{"trial_type":"html-keyboard-response","rt":null,"stimulus":"<p style=\"color: green; font-size: 50px; font-weight: bold;\">Correct</p>","response":null,"trial_index":132,"plugin_version":"2.1.0","time_elapsed":259659,"subject_id":"90134","group":"Group2","full_date":"2025-11-09T03:49:16.739Z","date":"2025-11-09","time":"03:49:16"},{"correct_response":"a","task":"test_phase","broad_category":"S","image_png":"S_Shale_08.png","image_id":472,"category_name":"Shale","category":30,"distinct_rating":2.55,"distinct_type":"Bottom","item_type":"Foil","rt":1156,"stimulus":"Stimuli_Rocks480/S_Shale_08.png","response":"a","trial_type":"image-keyboard-response","trial_index":133,"plugin_version":"2.1.0","time_elapsed":260818,"subject_id":"90134","group":"Group2","full_date":"2025-11-09T03:49:16.739Z","date":"2025-11-09","time":"03:49:16","cor_ans":true},{"trial_type":"html-keyboard-response","rt":null,"stimulus":"<p style=\"color: green; font-size: 50px; font-weight: bold;\">Correct</p>","response":null,"trial_index":134,"plugin_version":"2.1.0","time_elapsed":261319,"subject_id":"90134","group":"Group2","full_date":"2025-11-09T03:49:16.739Z","date":"2025-11-09","time":"03:49:16"},{"correct_response":"l","task":"test_phase","broad_category":"I","image_png":"I_Pumice_01.png","image_id":129,"category_name":"Pumice","category":9,"distinct_rating":3.25,"distinct_type":"Bottom","item_type":"Target","rt":884,"stimulus":"Stimuli_Rocks480/I_Pumice_01.png","response":"l","trial_type":"image-keyboard-response","trial_index":135,"plugin_version":"2.1.0","time_elapsed":262205,"subject_id":"90134","group":"Group2","full_date":"2025-11-09T03:49:16.739Z","date":"2025-11-09","time":"03:49:16","cor_ans":true},{"trial_type":"html-keyboard-response","rt":null,"stimulus":"<p style=\"color: green; font-size: 50px; font-weight: bold;\">Correct</p>","response":null,"trial_index":136,"plugin_version":"2.1.0","time_elapsed":262706,"subject_id":"90134","group":"Group2","full_date":"2025-11-09T03:49:16.739Z","date":"2025-11-09","time":"03:49:16"},{"correct_response":"l","task":"test_phase","broad_category":"S","image_png":"S_Rock Salt_13.png","image_id":445,"category_name":"Rock Salt","category":28,"distinct_rating":7.58,"distinct_type":"Top","item_type":"Target","rt":964,"stimulus":"Stimuli_Rocks480/S_Rock Salt_13.png","response":"l","trial_type":"image-keyboard-response","trial_index":137,"plugin_version":"2.1.0","time_elapsed":263673,"subject_id":"90134","group":"Group2","full_date":"2025-11-09T03:49:16.739Z","date":"2025-11-09","time":"03:49:16","cor_ans":true},{"trial_type":"html-keyboard-response","rt":null,"stimulus":"<p style=\"color: green; font-size: 50px; font-weight: bold;\">Correct</p>","response":null,"trial_index":138,"plugin_version":"2.1.0","time_elapsed":264174,"subject_id":"90134","group":"Group2","full_date":"2025-11-09T03:49:16.739Z","date":"2025-11-09","time":"03:49:16"},{"correct_response":"l","task":"test_phase","broad_category":"I","image_png":"I_Pegmatite_03.png","image_id":99,"category_name":"Pegmatite","category":7,"distinct_rating":7.24,"distinct_type":"Top","item_type":"Target","rt":895,"stimulus":"Stimuli_Rocks480/I_Pegmatite_03.png","response":"l","trial_type":"image-keyboard-response","trial_index":139,"plugin_version":"2.1.0","time_elapsed":265072,"subject_id":"90134","group":"Group2","full_date":"2025-11-09T03:49:16.739Z","date":"2025-11-09","time":"03:49:16","cor_ans":true},{"trial_type":"html-keyboard-response","rt":null,"stimulus":"<p style=\"color: green; font-size: 50px; font-weight: bold;\">Correct</p>","response":null,"trial_index":140,"plugin_version":"2.1.0","time_elapsed":265573,"subject_id":"90134","group":"Group2","full_date":"2025-11-09T03:49:16.739Z","date":"2025-11-09","time":"03:49:16"},{"correct_response":"l","task":"test_phase","broad_category":"S","image_png":"S_Sandstone_04.png","image_id":452,"category_name":"Sandstone","category":29,"distinct_rating":1.8,"distinct_type":"Bottom","item_type":"Target","rt":792,"stimulus":"Stimuli_Rocks480/S_Sandstone_04.png","response":"a","trial_type":"image-keyboard-response","trial_index":141,"plugin_version":"2.1.0","time_elapsed":266368,"subject_id":"90134","group":"Group2","full_date":"2025-11-09T03:49:16.739Z","date":"2025-11-09","time":"03:49:16","cor_ans":false},{"trial_type":"html-keyboard-response","rt":null,"stimulus":"<p style=\"color: red; font-size: 50px; font-weight: bold;\">Incorrect</p>","response":null,"trial_index":142,"plugin_version":"2.1.0","time_elapsed":266870,"subject_id":"90134","group":"Group2","full_date":"2025-11-09T03:49:16.739Z","date":"2025-11-09","time":"03:49:16"},{"correct_response":"a","task":"test_phase","broad_category":"M","image_png":"M_Quartzite_13.png","image_id":285,"category_name":"Quartzite","category":18,"distinct_rating":2.27,"distinct_type":"Bottom","item_type":"Foil","rt":1103,"stimulus":"Stimuli_Rocks480/M_Quartzite_13.png","response":"l","trial_type":"image-keyboard-response","trial_index":143,"plugin_version":"2.1.0","time_elapsed":267975,"subject_id":"90134","group":"Group2","full_date":"2025-11-09T03:49:16.739Z","date":"2025-11-09","time":"03:49:16","cor_ans":false},{"trial_type":"html-keyboard-response","rt":null,"stimulus":"<p style=\"color: red; font-size: 50px; font-weight: bold;\">Incorrect</p>","response":null,"trial_index":144,"plugin_version":"2.1.0","time_elapsed":268477,"subject_id":"90134","group":"Group2","full_date":"2025-11-09T03:49:16.739Z","date":"2025-11-09","time":"03:49:16"},{"correct_response":"l","task":"test_phase","broad_category":"S","image_png":"S_Chert_13.png","image_id":365,"category_name":"Chert","category":23,"distinct_rating":6.57,"distinct_type":"Top","item_type":"Target","rt":1697,"stimulus":"Stimuli_Rocks480/S_Chert_13.png","response":"a","trial_type":"image-keyboard-response","trial_index":145,"plugin_version":"2.1.0","time_elapsed":270177,"subject_id":"90134","group":"Group2","full_date":"2025-11-09T03:49:16.739Z","date":"2025-11-09","time":"03:49:16","cor_ans":false},{"trial_type":"html-keyboard-response","rt":null,"stimulus":"<p style=\"color: red; font-size: 50px; font-weight: bold;\">Incorrect</p>","response":null,"trial_index":146,"plugin_version":"2.1.0","time_elapsed":270679,"subject_id":"90134","group":"Group2","full_date":"2025-11-09T03:49:16.739Z","date":"2025-11-09","time":"03:49:16"},{"correct_response":"l","task":"test_phase","broad_category":"I","image_png":"I_Pegmatite_11.png","image_id":107,"category_name":"Pegmatite","category":7,"distinct_rating":7.11,"distinct_type":"Top","item_type":"Target","rt":875,"stimulus":"Stimuli_Rocks480/I_Pegmatite_11.png","response":"l","trial_type":"image-keyboard-response","trial_index":147,"plugin_version":"2.1.0","time_elapsed":271555,"subject_id":"90134","group":"Group2","full_date":"2025-11-09T03:49:16.739Z","date":"2025-11-09","time":"03:49:16","cor_ans":true},{"trial_type":"html-keyboard-response","rt":null,"stimulus":"<p style=\"color: green; font-size: 50px; font-weight: bold;\">Correct</p>","response":null,"trial_index":148,"plugin_version":"2.1.0","time_elapsed":272057,"subject_id":"90134","group":"Group2","full_date":"2025-11-09T03:49:16.739Z","date":"2025-11-09","time":"03:49:16"},{"correct_response":"l","task":"test_phase","broad_category":"S","image_png":"S_Rock Salt_15.png","image_id":447,"category_name":"Rock Salt","category":28,"distinct_rating":7.79,"distinct_type":"Top","item_type":"Target","rt":743,"stimulus":"Stimuli_Rocks480/S_Rock Salt_15.png","response":"l","trial_type":"image-keyboard-response","trial_index":149,"plugin_version":"2.1.0","time_elapsed":272802,"subject_id":"90134","group":"Group2","full_date":"2025-11-09T03:49:16.739Z","date":"2025-11-09","time":"03:49:16","cor_ans":true},{"trial_type":"html-keyboard-response","rt":null,"stimulus":"<p style=\"color: green; font-size: 50px; font-weight: bold;\">Correct</p>","response":null,"trial_index":150,"plugin_version":"2.1.0","time_elapsed":273303,"subject_id":"90134","group":"Group2","full_date":"2025-11-09T03:49:16.739Z","date":"2025-11-09","time":"03:49:16"},{"correct_response":"l","task":"test_phase","broad_category":"I","image_png":"I_Gabbro_12.png","image_id":60,"category_name":"Gabbro","category":4,"distinct_rating":2.6,"distinct_type":"Bottom","item_type":"Target","rt":654,"stimulus":"Stimuli_Rocks480/I_Gabbro_12.png","response":"l","trial_type":"image-keyboard-response","trial_index":151,"plugin_version":"2.1.0","time_elapsed":273959,"subject_id":"90134","group":"Group2","full_date":"2025-11-09T03:49:16.739Z","date":"2025-11-09","time":"03:49:16","cor_ans":true},{"trial_type":"html-keyboard-response","rt":null,"stimulus":"<p style=\"color: green; font-size: 50px; font-weight: bold;\">Correct</p>","response":null,"trial_index":152,"plugin_version":"2.1.0","time_elapsed":274461,"subject_id":"90134","group":"Group2","full_date":"2025-11-09T03:49:16.739Z","date":"2025-11-09","time":"03:49:16"},{"correct_response":"a","task":"test_phase","broad_category":"S","image_png":"S_Dolomite_13.png","image_id":397,"category_name":"Dolomite","category":25,"distinct_rating":1.77,"distinct_type":"Bottom","item_type":"Foil","rt":1019,"stimulus":"Stimuli_Rocks480/S_Dolomite_13.png","response":"l","trial_type":"image-keyboard-response","trial_index":153,"plugin_version":"2.1.0","time_elapsed":275482,"subject_id":"90134","group":"Group2","full_date":"2025-11-09T03:49:16.739Z","date":"2025-11-09","time":"03:49:16","cor_ans":false},{"trial_type":"html-keyboard-response","rt":null,"stimulus":"<p style=\"color: red; font-size: 50px; font-weight: bold;\">Incorrect</p>","response":null,"trial_index":154,"plugin_version":"2.1.0","time_elapsed":275984,"subject_id":"90134","group":"Group2","full_date":"2025-11-09T03:49:16.739Z","date":"2025-11-09","time":"03:49:16"},{"correct_response":"a","task":"test_phase","broad_category":"M","image_png":"M_Quartzite_05.png","image_id":277,"category_name":"Quartzite","category":18,"distinct_rating":2.23,"distinct_type":"Bottom","item_type":"Foil","rt":1427,"stimulus":"Stimuli_Rocks480/M_Quartzite_05.png","response":"a","trial_type":"image-keyboard-response","trial_index":155,"plugin_version":"2.1.0","time_elapsed":277413,"subject_id":"90134","group":"Group2","full_date":"2025-11-09T03:49:16.739Z","date":"2025-11-09","time":"03:49:16","cor_ans":true},{"trial_type":"html-keyboard-response","rt":null,"stimulus":"<p style=\"color: green; font-size: 50px; font-weight: bold;\">Correct</p>","response":null,"trial_index":156,"plugin_version":"2.1.0","time_elapsed":277915,"subject_id":"90134","group":"Group2","full_date":"2025-11-09T03:49:16.739Z","date":"2025-11-09","time":"03:49:16"},{"correct_response":"a","task":"test_phase","broad_category":"I","image_png":"I_Gabbro_08.png","image_id":56,"category_name":"Gabbro","category":4,"distinct_rating":3.02,"distinct_type":"Bottom","item_type":"Foil","rt":790,"stimulus":"Stimuli_Rocks480/I_Gabbro_08.png","response":"l","trial_type":"image-keyboard-response","trial_index":157,"plugin_version":"2.1.0","time_elapsed":278707,"subject_id":"90134","group":"Group2","full_date":"2025-11-09T03:49:16.739Z","date":"2025-11-09","time":"03:49:16","cor_ans":false},{"trial_type":"html-keyboard-response","rt":null,"stimulus":"<p style=\"color: red; font-size: 50px; font-weight: bold;\">Incorrect</p>","response":null,"trial_index":158,"plugin_version":"2.1.0","time_elapsed":279208,"subject_id":"90134","group":"Group2","full_date":"2025-11-09T03:49:16.739Z","date":"2025-11-09","time":"03:49:16"},{"correct_response":"a","task":"test_phase","broad_category":"S","image_png":"S_Conglomerate_05.png","image_id":373,"category_name":"Conglomerate","category":24,"distinct_rating":7.32,"distinct_type":"Top","item_type":"Foil","rt":673,"stimulus":"Stimuli_Rocks480/S_Conglomerate_05.png","response":"l","trial_type":"image-keyboard-response","trial_index":159,"plugin_version":"2.1.0","time_elapsed":279885,"subject_id":"90134","group":"Group2","full_date":"2025-11-09T03:49:16.739Z","date":"2025-11-09","time":"03:49:16","cor_ans":false},{"trial_type":"html-keyboard-response","rt":null,"stimulus":"<p style=\"color: red; font-size: 50px; font-weight: bold;\">Incorrect</p>","response":null,"trial_index":160,"plugin_version":"2.1.0","time_elapsed":280386,"subject_id":"90134","group":"Group2","full_date":"2025-11-09T03:49:16.739Z","date":"2025-11-09","time":"03:49:16"},{"correct_response":"l","task":"test_phase","broad_category":"I","image_png":"I_Basalt_13.png","image_id":29,"category_name":"Basalt","category":2,"distinct_rating":2.68,"distinct_type":"Bottom","item_type":"Target","rt":984,"stimulus":"Stimuli_Rocks480/I_Basalt_13.png","response":"l","trial_type":"image-keyboard-response","trial_index":161,"plugin_version":"2.1.0","time_elapsed":281372,"subject_id":"90134","group":"Group2","full_date":"2025-11-09T03:49:16.739Z","date":"2025-11-09","time":"03:49:16","cor_ans":true},{"trial_type":"html-keyboard-response","rt":null,"stimulus":"<p style=\"color: green; font-size: 50px; font-weight: bold;\">Correct</p>","response":null,"trial_index":162,"plugin_version":"2.1.0","time_elapsed":281873,"subject_id":"90134","group":"Group2","full_date":"2025-11-09T03:49:16.739Z","date":"2025-11-09","time":"03:49:16"},{"correct_response":"a","task":"test_phase","broad_category":"M","image_png":"M_Slate_03.png","image_id":307,"category_name":"Slate","category":20,"distinct_rating":1.87,"distinct_type":"Bottom","item_type":"Foil","rt":817,"stimulus":"Stimuli_Rocks480/M_Slate_03.png","response":"a","trial_type":"image-keyboard-response","trial_index":163,"plugin_version":"2.1.0","time_elapsed":282692,"subject_id":"90134","group":"Group2","full_date":"2025-11-09T03:49:16.739Z","date":"2025-11-09","time":"03:49:16","cor_ans":true},{"trial_type":"html-keyboard-response","rt":null,"stimulus":"<p style=\"color: green; font-size: 50px; font-weight: bold;\">Correct</p>","response":null,"trial_index":164,"plugin_version":"2.1.0","time_elapsed":283194,"subject_id":"90134","group":"Group2","full_date":"2025-11-09T03:49:16.739Z","date":"2025-11-09","time":"03:49:16"},{"correct_response":"l","task":"test_phase","broad_category":"I","image_png":"I_Diorite_15.png","image_id":47,"category_name":"Diorite","category":3,"distinct_rating":3.05,"distinct_type":"Bottom","item_type":"Target","rt":685,"stimulus":"Stimuli_Rocks480/I_Diorite_15.png","response":"l","trial_type":"image-keyboard-response","trial_index":165,"plugin_version":"2.1.0","time_elapsed":283881,"subject_id":"90134","group":"Group2","full_date":"2025-11-09T03:49:16.739Z","date":"2025-11-09","time":"03:49:16","cor_ans":true},{"trial_type":"html-keyboard-response","rt":null,"stimulus":"<p style=\"color: green; font-size: 50px; font-weight: bold;\">Correct</p>","response":null,"trial_index":166,"plugin_version":"2.1.0","time_elapsed":284383,"subject_id":"90134","group":"Group2","full_date":"2025-11-09T03:49:16.739Z","date":"2025-11-09","time":"03:49:16"},{"correct_response":"a","task":"test_phase","broad_category":"I","image_png":"I_Diorite_05.png","image_id":37,"category_name":"Diorite","category":3,"distinct_rating":3.08,"distinct_type":"Bottom","item_type":"Foil","rt":1125,"stimulus":"Stimuli_Rocks480/I_Diorite_05.png","response":"l","trial_type":"image-keyboard-response","trial_index":167,"plugin_version":"2.1.0","time_elapsed":285510,"subject_id":"90134","group":"Group2","full_date":"2025-11-09T03:49:16.739Z","date":"2025-11-09","time":"03:49:16","cor_ans":false},{"trial_type":"html-keyboard-response","rt":null,"stimulus":"<p style=\"color: red; font-size: 50px; font-weight: bold;\">Incorrect</p>","response":null,"trial_index":168,"plugin_version":"2.1.0","time_elapsed":286011,"subject_id":"90134","group":"Group2","full_date":"2025-11-09T03:49:16.739Z","date":"2025-11-09","time":"03:49:16"},{"correct_response":"l","task":"test_phase","broad_category":"S","image_png":"S_Dolomite_16.png","image_id":400,"category_name":"Dolomite","category":25,"distinct_rating":1.71,"distinct_type":"Bottom","item_type":"Target","rt":904,"stimulus":"Stimuli_Rocks480/S_Dolomite_16.png","response":"a","trial_type":"image-keyboard-response","trial_index":169,"plugin_version":"2.1.0","time_elapsed":286917,"subject_id":"90134","group":"Group2","full_date":"2025-11-09T03:49:16.739Z","date":"2025-11-09","time":"03:49:16","cor_ans":false},{"trial_type":"html-keyboard-response","rt":null,"stimulus":"<p style=\"color: red; font-size: 50px; font-weight: bold;\">Incorrect</p>","response":null,"trial_index":170,"plugin_version":"2.1.0","time_elapsed":287419,"subject_id":"90134","group":"Group2","full_date":"2025-11-09T03:49:16.739Z","date":"2025-11-09","time":"03:49:16"},{"correct_response":"l","task":"test_phase","broad_category":"M","image_png":"M_Quartzite_15.png","image_id":287,"category_name":"Quartzite","category":18,"distinct_rating":2.19,"distinct_type":"Bottom","item_type":"Target","rt":679,"stimulus":"Stimuli_Rocks480/M_Quartzite_15.png","response":"a","trial_type":"image-keyboard-response","trial_index":171,"plugin_version":"2.1.0","time_elapsed":288100,"subject_id":"90134","group":"Group2","full_date":"2025-11-09T03:49:16.739Z","date":"2025-11-09","time":"03:49:16","cor_ans":false},{"trial_type":"html-keyboard-response","rt":null,"stimulus":"<p style=\"color: red; font-size: 50px; font-weight: bold;\">Incorrect</p>","response":null,"trial_index":172,"plugin_version":"2.1.0","time_elapsed":288602,"subject_id":"90134","group":"Group2","full_date":"2025-11-09T03:49:16.739Z","date":"2025-11-09","time":"03:49:16"},{"correct_response":"a","task":"test_phase","broad_category":"S","image_png":"S_Rock Salt_01.png","image_id":433,"category_name":"Rock Salt","category":28,"distinct_rating":7.18,"distinct_type":"Top","item_type":"Foil","rt":1159,"stimulus":"Stimuli_Rocks480/S_Rock Salt_01.png","response":"a","trial_type":"image-keyboard-response","trial_index":173,"plugin_version":"2.1.0","time_elapsed":289763,"subject_id":"90134","group":"Group2","full_date":"2025-11-09T03:49:16.739Z","date":"2025-11-09","time":"03:49:16","cor_ans":true},{"trial_type":"html-keyboard-response","rt":null,"stimulus":"<p style=\"color: green; font-size: 50px; font-weight: bold;\">Correct</p>","response":null,"trial_index":174,"plugin_version":"2.1.0","time_elapsed":290265,"subject_id":"90134","group":"Group2","full_date":"2025-11-09T03:49:16.739Z","date":"2025-11-09","time":"03:49:16"},{"correct_response":"l","task":"test_phase","broad_category":"M","image_png":"M_Gneiss_14.png","image_id":206,"category_name":"Gneiss","category":13,"distinct_rating":3.41,"distinct_type":"Bottom","item_type":"Target","rt":863,"stimulus":"Stimuli_Rocks480/M_Gneiss_14.png","response":"l","trial_type":"image-keyboard-response","trial_index":175,"plugin_version":"2.1.0","time_elapsed":291130,"subject_id":"90134","group":"Group2","full_date":"2025-11-09T03:49:16.739Z","date":"2025-11-09","time":"03:49:16","cor_ans":true},{"trial_type":"html-keyboard-response","rt":null,"stimulus":"<p style=\"color: green; font-size: 50px; font-weight: bold;\">Correct</p>","response":null,"trial_index":176,"plugin_version":"2.1.0","time_elapsed":291631,"subject_id":"90134","group":"Group2","full_date":"2025-11-09T03:49:16.739Z","date":"2025-11-09","time":"03:49:16"},{"correct_response":"a","task":"test_phase","broad_category":"S","image_png":"S_Shale_12.png","image_id":476,"category_name":"Shale","category":30,"distinct_rating":2.48,"distinct_type":"Bottom","item_type":"Foil","rt":1019,"stimulus":"Stimuli_Rocks480/S_Shale_12.png","response":"a","trial_type":"image-keyboard-response","trial_index":177,"plugin_version":"2.1.0","time_elapsed":292652,"subject_id":"90134","group":"Group2","full_date":"2025-11-09T03:49:16.739Z","date":"2025-11-09","time":"03:49:16","cor_ans":true},{"trial_type":"html-keyboard-response","rt":null,"stimulus":"<p style=\"color: green; font-size: 50px; font-weight: bold;\">Correct</p>","response":null,"trial_index":178,"plugin_version":"2.1.0","time_elapsed":293154,"subject_id":"90134","group":"Group2","full_date":"2025-11-09T03:49:16.739Z","date":"2025-11-09","time":"03:49:16"},{"correct_response":"a","task":"test_phase","broad_category":"S","image_png":"S_Rock Gypsum_04.png","image_id":420,"category_name":"Rock Gypsum","category":27,"distinct_rating":7.61,"distinct_type":"Top","item_type":"Foil","rt":937,"stimulus":"Stimuli_Rocks480/S_Rock Gypsum_04.png","response":"a","trial_type":"image-keyboard-response","trial_index":179,"plugin_version":"2.1.0","time_elapsed":294093,"subject_id":"90134","group":"Group2","full_date":"2025-11-09T03:49:16.739Z","date":"2025-11-09","time":"03:49:16","cor_ans":true},{"trial_type":"html-keyboard-response","rt":null,"stimulus":"<p style=\"color: green; font-size: 50px; font-weight: bold;\">Correct</p>","response":null,"trial_index":180,"plugin_version":"2.1.0","time_elapsed":294594,"subject_id":"90134","group":"Group2","full_date":"2025-11-09T03:49:16.739Z","date":"2025-11-09","time":"03:49:16"},{"correct_response":"a","task":"test_phase","broad_category":"I","image_png":"I_Rhyolite_14.png","image_id":158,"category_name":"Rhyolite","category":10,"distinct_rating":2.59,"distinct_type":"Bottom","item_type":"Foil","rt":870,"stimulus":"Stimuli_Rocks480/I_Rhyolite_14.png","response":"a","trial_type":"image-keyboard-response","trial_index":181,"plugin_version":"2.1.0","time_elapsed":295467,"subject_id":"90134","group":"Group2","full_date":"2025-11-09T03:49:16.739Z","date":"2025-11-09","time":"03:49:16","cor_ans":true},{"trial_type":"html-keyboard-response","rt":null,"stimulus":"<p style=\"color: green; font-size: 50px; font-weight: bold;\">Correct</p>","response":null,"trial_index":182,"plugin_version":"2.1.0","time_elapsed":295969,"subject_id":"90134","group":"Group2","full_date":"2025-11-09T03:49:16.739Z","date":"2025-11-09","time":"03:49:16"},{"correct_response":"a","task":"test_phase","broad_category":"S","image_png":"S_Dolomite_12.png","image_id":396,"category_name":"Dolomite","category":25,"distinct_rating":1.85,"distinct_type":"Bottom","item_type":"Foil","rt":756,"stimulus":"Stimuli_Rocks480/S_Dolomite_12.png","response":"a","trial_type":"image-keyboard-response","trial_index":183,"plugin_version":"2.1.0","time_elapsed":296726,"subject_id":"90134","group":"Group2","full_date":"2025-11-09T03:49:16.739Z","date":"2025-11-09","time":"03:49:16","cor_ans":true},{"trial_type":"html-keyboard-response","rt":null,"stimulus":"<p style=\"color: green; font-size: 50px; font-weight: bold;\">Correct</p>","response":null,"trial_index":184,"plugin_version":"2.1.0","time_elapsed":297227,"subject_id":"90134","group":"Group2","full_date":"2025-11-09T03:49:16.739Z","date":"2025-11-09","time":"03:49:16"},{"correct_response":"l","task":"test_phase","broad_category":"I","image_png":"I_Pumice_13.png","image_id":141,"category_name":"Pumice","category":9,"distinct_rating":3.12,"distinct_type":"Bottom","item_type":"Target","rt":833,"stimulus":"Stimuli_Rocks480/I_Pumice_13.png","response":"l","trial_type":"image-keyboard-response","trial_index":185,"plugin_version":"2.1.0","time_elapsed":298062,"subject_id":"90134","group":"Group2","full_date":"2025-11-09T03:49:16.739Z","date":"2025-11-09","time":"03:49:16","cor_ans":true},{"trial_type":"html-keyboard-response","rt":null,"stimulus":"<p style=\"color: green; font-size: 50px; font-weight: bold;\">Correct</p>","response":null,"trial_index":186,"plugin_version":"2.1.0","time_elapsed":298564,"subject_id":"90134","group":"Group2","full_date":"2025-11-09T03:49:16.739Z","date":"2025-11-09","time":"03:49:16"},{"correct_response":"l","task":"test_phase","broad_category":"I","image_png":"I_Rhyolite_08.png","image_id":152,"category_name":"Rhyolite","category":10,"distinct_rating":1.38,"distinct_type":"Bottom","item_type":"Target","rt":1383,"stimulus":"Stimuli_Rocks480/I_Rhyolite_08.png","response":"l","trial_type":"image-keyboard-response","trial_index":187,"plugin_version":"2.1.0","time_elapsed":299950,"subject_id":"90134","group":"Group2","full_date":"2025-11-09T03:49:16.739Z","date":"2025-11-09","time":"03:49:16","cor_ans":true},{"trial_type":"html-keyboard-response","rt":null,"stimulus":"<p style=\"color: green; font-size: 50px; font-weight: bold;\">Correct</p>","response":null,"trial_index":188,"plugin_version":"2.1.0","time_elapsed":300451,"subject_id":"90134","group":"Group2","full_date":"2025-11-09T03:49:16.739Z","date":"2025-11-09","time":"03:49:16"},{"correct_response":"l","task":"test_phase","broad_category":"I","image_png":"I_Diorite_10.png","image_id":42,"category_name":"Diorite","category":3,"distinct_rating":2.84,"distinct_type":"Bottom","item_type":"Target","rt":708,"stimulus":"Stimuli_Rocks480/I_Diorite_10.png","response":"l","trial_type":"image-keyboard-response","trial_index":189,"plugin_version":"2.1.0","time_elapsed":301161,"subject_id":"90134","group":"Group2","full_date":"2025-11-09T03:49:16.739Z","date":"2025-11-09","time":"03:49:16","cor_ans":true},{"trial_type":"html-keyboard-response","rt":null,"stimulus":"<p style=\"color: green; font-size: 50px; font-weight: bold;\">Correct</p>","response":null,"trial_index":190,"plugin_version":"2.1.0","time_elapsed":301663,"subject_id":"90134","group":"Group2","full_date":"2025-11-09T03:49:16.739Z","date":"2025-11-09","time":"03:49:16"},{"correct_response":"l","task":"test_phase","broad_category":"M","image_png":"M_Slate_14.png","image_id":318,"category_name":"Slate","category":20,"distinct_rating":2.58,"distinct_type":"Bottom","item_type":"Target","rt":1124,"stimulus":"Stimuli_Rocks480/M_Slate_14.png","response":"l","trial_type":"image-keyboard-response","trial_index":191,"plugin_version":"2.1.0","time_elapsed":302789,"subject_id":"90134","group":"Group2","full_date":"2025-11-09T03:49:16.739Z","date":"2025-11-09","time":"03:49:16","cor_ans":true},{"trial_type":"html-keyboard-response","rt":null,"stimulus":"<p style=\"color: green; font-size: 50px; font-weight: bold;\">Correct</p>","response":null,"trial_index":192,"plugin_version":"2.1.0","time_elapsed":303290,"subject_id":"90134","group":"Group2","full_date":"2025-11-09T03:49:16.739Z","date":"2025-11-09","time":"03:49:16"},{"correct_response":"l","task":"test_phase","broad_category":"I","image_png":"I_Diorite_01.png","image_id":33,"category_name":"Diorite","category":3,"distinct_rating":2.97,"distinct_type":"Bottom","item_type":"Target","rt":752,"stimulus":"Stimuli_Rocks480/I_Diorite_01.png","response":"l","trial_type":"image-keyboard-response","trial_index":193,"plugin_version":"2.1.0","time_elapsed":304044,"subject_id":"90134","group":"Group2","full_date":"2025-11-09T03:49:16.739Z","date":"2025-11-09","time":"03:49:16","cor_ans":true},{"trial_type":"html-keyboard-response","rt":null,"stimulus":"<p style=\"color: green; font-size: 50px; font-weight: bold;\">Correct</p>","response":null,"trial_index":194,"plugin_version":"2.1.0","time_elapsed":304546,"subject_id":"90134","group":"Group2","full_date":"2025-11-09T03:49:16.739Z","date":"2025-11-09","time":"03:49:16"},{"correct_response":"a","task":"test_phase","broad_category":"M","image_png":"M_Phyllite_07.png","image_id":263,"category_name":"Phyllite","category":17,"distinct_rating":2.59,"distinct_type":"Bottom","item_type":"Foil","rt":757,"stimulus":"Stimuli_Rocks480/M_Phyllite_07.png","response":"l","trial_type":"image-keyboard-response","trial_index":195,"plugin_version":"2.1.0","time_elapsed":305305,"subject_id":"90134","group":"Group2","full_date":"2025-11-09T03:49:16.739Z","date":"2025-11-09","time":"03:49:16","cor_ans":false},{"trial_type":"html-keyboard-response","rt":null,"stimulus":"<p style=\"color: red; font-size: 50px; font-weight: bold;\">Incorrect</p>","response":null,"trial_index":196,"plugin_version":"2.1.0","time_elapsed":305806,"subject_id":"90134","group":"Group2","full_date":"2025-11-09T03:49:16.739Z","date":"2025-11-09","time":"03:49:16"},{"correct_response":"a","task":"test_phase","broad_category":"I","image_png":"I_Pumice_11.png","image_id":139,"category_name":"Pumice","category":9,"distinct_rating":1.74,"distinct_type":"Bottom","item_type":"Foil","rt":743,"stimulus":"Stimuli_Rocks480/I_Pumice_11.png","response":"l","trial_type":"image-keyboard-response","trial_index":197,"plugin_version":"2.1.0","time_elapsed":306551,"subject_id":"90134","group":"Group2","full_date":"2025-11-09T03:49:16.739Z","date":"2025-11-09","time":"03:49:16","cor_ans":false},{"trial_type":"html-keyboard-response","rt":null,"stimulus":"<p style=\"color: red; font-size: 50px; font-weight: bold;\">Incorrect</p>","response":null,"trial_index":198,"plugin_version":"2.1.0","time_elapsed":307052,"subject_id":"90134","group":"Group2","full_date":"2025-11-09T03:49:16.739Z","date":"2025-11-09","time":"03:49:16"},{"correct_response":"l","task":"test_phase","broad_category":"M","image_png":"M_Marble_02.png","image_id":226,"category_name":"Marble","category":15,"distinct_rating":3.2,"distinct_type":"Bottom","item_type":"Target","rt":918,"stimulus":"Stimuli_Rocks480/M_Marble_02.png","response":"l","trial_type":"image-keyboard-response","trial_index":199,"plugin_version":"2.1.0","time_elapsed":307972,"subject_id":"90134","group":"Group2","full_date":"2025-11-09T03:49:16.739Z","date":"2025-11-09","time":"03:49:16","cor_ans":true},{"trial_type":"html-keyboard-response","rt":null,"stimulus":"<p style=\"color: green; font-size: 50px; font-weight: bold;\">Correct</p>","response":null,"trial_index":200,"plugin_version":"2.1.0","time_elapsed":308473,"subject_id":"90134","group":"Group2","full_date":"2025-11-09T03:49:16.739Z","date":"2025-11-09","time":"03:49:16"},{"correct_response":"l","task":"test_phase","broad_category":"S","image_png":"S_Sandstone_08.png","image_id":456,"category_name":"Sandstone","category":29,"distinct_rating":1.5,"distinct_type":"Bottom","item_type":"Target","rt":876,"stimulus":"Stimuli_Rocks480/S_Sandstone_08.png","response":"a","trial_type":"image-keyboard-response","trial_index":201,"plugin_version":"2.1.0","time_elapsed":309351,"subject_id":"90134","group":"Group2","full_date":"2025-11-09T03:49:16.739Z","date":"2025-11-09","time":"03:49:16","cor_ans":false},{"trial_type":"html-keyboard-response","rt":null,"stimulus":"<p style=\"color: red; font-size: 50px; font-weight: bold;\">Incorrect</p>","response":null,"trial_index":202,"plugin_version":"2.1.0","time_elapsed":309853,"subject_id":"90134","group":"Group2","full_date":"2025-11-09T03:49:16.739Z","date":"2025-11-09","time":"03:49:16"},{"correct_response":"l","task":"test_phase","broad_category":"M","image_png":"M_Phyllite_02.png","image_id":258,"category_name":"Phyllite","category":17,"distinct_rating":2.89,"distinct_type":"Bottom","item_type":"Target","rt":1355,"stimulus":"Stimuli_Rocks480/M_Phyllite_02.png","response":"a","trial_type":"image-keyboard-response","trial_index":203,"plugin_version":"2.1.0","time_elapsed":311210,"subject_id":"90134","group":"Group2","full_date":"2025-11-09T03:49:16.739Z","date":"2025-11-09","time":"03:49:16","cor_ans":false},{"trial_type":"html-keyboard-response","rt":null,"stimulus":"<p style=\"color: red; font-size: 50px; font-weight: bold;\">Incorrect</p>","response":null,"trial_index":204,"plugin_version":"2.1.0","time_elapsed":311711,"subject_id":"90134","group":"Group2","full_date":"2025-11-09T03:49:16.739Z","date":"2025-11-09","time":"03:49:16"},{"correct_response":"a","task":"test_phase","broad_category":"I","image_png":"I_Basalt_02.png","image_id":18,"category_name":"Basalt","category":2,"distinct_rating":1.84,"distinct_type":"Bottom","item_type":"Foil","rt":670,"stimulus":"Stimuli_Rocks480/I_Basalt_02.png","response":"a","trial_type":"image-keyboard-response","trial_index":205,"plugin_version":"2.1.0","time_elapsed":312383,"subject_id":"90134","group":"Group2","full_date":"2025-11-09T03:49:16.739Z","date":"2025-11-09","time":"03:49:16","cor_ans":true},{"trial_type":"html-keyboard-response","rt":null,"stimulus":"<p style=\"color: green; font-size: 50px; font-weight: bold;\">Correct</p>","response":null,"trial_index":206,"plugin_version":"2.1.0","time_elapsed":312885,"subject_id":"90134","group":"Group2","full_date":"2025-11-09T03:49:16.739Z","date":"2025-11-09","time":"03:49:16"},{"correct_response":"a","task":"test_phase","broad_category":"M","image_png":"M_Gneiss_13.png","image_id":205,"category_name":"Gneiss","category":13,"distinct_rating":3.26,"distinct_type":"Bottom","item_type":"Foil","rt":789,"stimulus":"Stimuli_Rocks480/M_Gneiss_13.png","response":"l","trial_type":"image-keyboard-response","trial_index":207,"plugin_version":"2.1.0","time_elapsed":313675,"subject_id":"90134","group":"Group2","full_date":"2025-11-09T03:49:16.739Z","date":"2025-11-09","time":"03:49:16","cor_ans":false},{"trial_type":"html-keyboard-response","rt":null,"stimulus":"<p style=\"color: red; font-size: 50px; font-weight: bold;\">Incorrect</p>","response":null,"trial_index":208,"plugin_version":"2.1.0","time_elapsed":314176,"subject_id":"90134","group":"Group2","full_date":"2025-11-09T03:49:16.739Z","date":"2025-11-09","time":"03:49:16"},{"correct_response":"a","task":"test_phase","broad_category":"I","image_png":"I_Basalt_01.png","image_id":17,"category_name":"Basalt","category":2,"distinct_rating":1.92,"distinct_type":"Bottom","item_type":"Foil","rt":724,"stimulus":"Stimuli_Rocks480/I_Basalt_01.png","response":"l","trial_type":"image-keyboard-response","trial_index":209,"plugin_version":"2.1.0","time_elapsed":314903,"subject_id":"90134","group":"Group2","full_date":"2025-11-09T03:49:16.739Z","date":"2025-11-09","time":"03:49:16","cor_ans":false},{"trial_type":"html-keyboard-response","rt":null,"stimulus":"<p style=\"color: red; font-size: 50px; font-weight: bold;\">Incorrect</p>","response":null,"trial_index":210,"plugin_version":"2.1.0","time_elapsed":315404,"subject_id":"90134","group":"Group2","full_date":"2025-11-09T03:49:16.739Z","date":"2025-11-09","time":"03:49:16"},{"correct_response":"l","task":"test_phase","broad_category":"I","image_png":"I_Gabbro_14.png","image_id":62,"category_name":"Gabbro","category":4,"distinct_rating":2.95,"distinct_type":"Bottom","item_type":"Target","rt":632,"stimulus":"Stimuli_Rocks480/I_Gabbro_14.png","response":"l","trial_type":"image-keyboard-response","trial_index":211,"plugin_version":"2.1.0","time_elapsed":316038,"subject_id":"90134","group":"Group2","full_date":"2025-11-09T03:49:16.739Z","date":"2025-11-09","time":"03:49:16","cor_ans":true},{"trial_type":"html-keyboard-response","rt":null,"stimulus":"<p style=\"color: green; font-size: 50px; font-weight: bold;\">Correct</p>","response":null,"trial_index":212,"plugin_version":"2.1.0","time_elapsed":316540,"subject_id":"90134","group":"Group2","full_date":"2025-11-09T03:49:16.739Z","date":"2025-11-09","time":"03:49:16"},{"correct_response":"l","task":"test_phase","broad_category":"S","image_png":"S_Dolomite_01.png","image_id":385,"category_name":"Dolomite","category":25,"distinct_rating":1.43,"distinct_type":"Bottom","item_type":"Target","rt":814,"stimulus":"Stimuli_Rocks480/S_Dolomite_01.png","response":"a","trial_type":"image-keyboard-response","trial_index":213,"plugin_version":"2.1.0","time_elapsed":317356,"subject_id":"90134","group":"Group2","full_date":"2025-11-09T03:49:16.739Z","date":"2025-11-09","time":"03:49:16","cor_ans":false},{"trial_type":"html-keyboard-response","rt":null,"stimulus":"<p style=\"color: red; font-size: 50px; font-weight: bold;\">Incorrect</p>","response":null,"trial_index":214,"plugin_version":"2.1.0","time_elapsed":317857,"subject_id":"90134","group":"Group2","full_date":"2025-11-09T03:49:16.739Z","date":"2025-11-09","time":"03:49:16"},{"correct_response":"a","task":"test_phase","broad_category":"M","image_png":"M_Marble_04.png","image_id":228,"category_name":"Marble","category":15,"distinct_rating":3.15,"distinct_type":"Bottom","item_type":"Foil","rt":847,"stimulus":"Stimuli_Rocks480/M_Marble_04.png","response":"l","trial_type":"image-keyboard-response","trial_index":215,"plugin_version":"2.1.0","time_elapsed":318706,"subject_id":"90134","group":"Group2","full_date":"2025-11-09T03:49:16.739Z","date":"2025-11-09","time":"03:49:16","cor_ans":false},{"trial_type":"html-keyboard-response","rt":null,"stimulus":"<p style=\"color: red; font-size: 50px; font-weight: bold;\">Incorrect</p>","response":null,"trial_index":216,"plugin_version":"2.1.0","time_elapsed":319207,"subject_id":"90134","group":"Group2","full_date":"2025-11-09T03:49:16.739Z","date":"2025-11-09","time":"03:49:16"},{"correct_response":"l","task":"test_phase","broad_category":"I","image_png":"I_Basalt_10.png","image_id":26,"category_name":"Basalt","category":2,"distinct_rating":2.76,"distinct_type":"Bottom","item_type":"Target","rt":895,"stimulus":"Stimuli_Rocks480/I_Basalt_10.png","response":"l","trial_type":"image-keyboard-response","trial_index":217,"plugin_version":"2.1.0","time_elapsed":320104,"subject_id":"90134","group":"Group2","full_date":"2025-11-09T03:49:16.739Z","date":"2025-11-09","time":"03:49:16","cor_ans":true},{"trial_type":"html-keyboard-response","rt":null,"stimulus":"<p style=\"color: green; font-size: 50px; font-weight: bold;\">Correct</p>","response":null,"trial_index":218,"plugin_version":"2.1.0","time_elapsed":320606,"subject_id":"90134","group":"Group2","full_date":"2025-11-09T03:49:16.739Z","date":"2025-11-09","time":"03:49:16"},{"correct_response":"a","task":"test_phase","broad_category":"I","image_png":"I_Obsidian_05.png","image_id":85,"category_name":"Obsidian","category":6,"distinct_rating":7.32,"distinct_type":"Top","item_type":"Foil","rt":805,"stimulus":"Stimuli_Rocks480/I_Obsidian_05.png","response":"a","trial_type":"image-keyboard-response","trial_index":219,"plugin_version":"2.1.0","time_elapsed":321412,"subject_id":"90134","group":"Group2","full_date":"2025-11-09T03:49:16.739Z","date":"2025-11-09","time":"03:49:16","cor_ans":true},{"trial_type":"html-keyboard-response","rt":null,"stimulus":"<p style=\"color: green; font-size: 50px; font-weight: bold;\">Correct</p>","response":null,"trial_index":220,"plugin_version":"2.1.0","time_elapsed":321914,"subject_id":"90134","group":"Group2","full_date":"2025-11-09T03:49:16.739Z","date":"2025-11-09","time":"03:49:16"},{"correct_response":"l","task":"test_phase","broad_category":"M","image_png":"M_Slate_10.png","image_id":314,"category_name":"Slate","category":20,"distinct_rating":1.94,"distinct_type":"Bottom","item_type":"Target","rt":711,"stimulus":"Stimuli_Rocks480/M_Slate_10.png","response":"a","trial_type":"image-keyboard-response","trial_index":221,"plugin_version":"2.1.0","time_elapsed":322627,"subject_id":"90134","group":"Group2","full_date":"2025-11-09T03:49:16.739Z","date":"2025-11-09","time":"03:49:16","cor_ans":false},{"trial_type":"html-keyboard-response","rt":null,"stimulus":"<p style=\"color: red; font-size: 50px; font-weight: bold;\">Incorrect</p>","response":null,"trial_index":222,"plugin_version":"2.1.0","time_elapsed":323128,"subject_id":"90134","group":"Group2","full_date":"2025-11-09T03:49:16.739Z","date":"2025-11-09","time":"03:49:16"},{"correct_response":"l","task":"test_phase","broad_category":"I","image_png":"I_Andesite_04.png","image_id":4,"category_name":"Andesite","category":1,"distinct_rating":3.18,"distinct_type":"Bottom","item_type":"Target","rt":716,"stimulus":"Stimuli_Rocks480/I_Andesite_04.png","response":"l","trial_type":"image-keyboard-response","trial_index":223,"plugin_version":"2.1.0","time_elapsed":323846,"subject_id":"90134","group":"Group2","full_date":"2025-11-09T03:49:16.739Z","date":"2025-11-09","time":"03:49:16","cor_ans":true},{"trial_type":"html-keyboard-response","rt":null,"stimulus":"<p style=\"color: green; font-size: 50px; font-weight: bold;\">Correct</p>","response":null,"trial_index":224,"plugin_version":"2.1.0","time_elapsed":324348,"subject_id":"90134","group":"Group2","full_date":"2025-11-09T03:49:16.739Z","date":"2025-11-09","time":"03:49:16"},{"correct_response":"l","task":"test_phase","broad_category":"S","image_png":"S_Dolomite_07.png","image_id":391,"category_name":"Dolomite","category":25,"distinct_rating":1.73,"distinct_type":"Bottom","item_type":"Target","rt":913,"stimulus":"Stimuli_Rocks480/S_Dolomite_07.png","response":"a","trial_type":"image-keyboard-response","trial_index":225,"plugin_version":"2.1.0","time_elapsed":325264,"subject_id":"90134","group":"Group2","full_date":"2025-11-09T03:49:16.739Z","date":"2025-11-09","time":"03:49:16","cor_ans":false},{"trial_type":"html-keyboard-response","rt":null,"stimulus":"<p style=\"color: red; font-size: 50px; font-weight: bold;\">Incorrect</p>","response":null,"trial_index":226,"plugin_version":"2.1.0","time_elapsed":325766,"subject_id":"90134","group":"Group2","full_date":"2025-11-09T03:49:16.739Z","date":"2025-11-09","time":"03:49:16"},{"correct_response":"a","task":"test_phase","broad_category":"S","image_png":"S_Shale_01.png","image_id":465,"category_name":"Shale","category":30,"distinct_rating":2.7,"distinct_type":"Bottom","item_type":"Foil","rt":659,"stimulus":"Stimuli_Rocks480/S_Shale_01.png","response":"l","trial_type":"image-keyboard-response","trial_index":227,"plugin_version":"2.1.0","time_elapsed":326427,"subject_id":"90134","group":"Group2","full_date":"2025-11-09T03:49:16.739Z","date":"2025-11-09","time":"03:49:16","cor_ans":false},{"trial_type":"html-keyboard-response","rt":null,"stimulus":"<p style=\"color: red; font-size: 50px; font-weight: bold;\">Incorrect</p>","response":null,"trial_index":228,"plugin_version":"2.1.0","time_elapsed":326929,"subject_id":"90134","group":"Group2","full_date":"2025-11-09T03:49:16.739Z","date":"2025-11-09","time":"03:49:16"},{"correct_response":"a","task":"test_phase","broad_category":"M","image_png":"M_Phyllite_10.png","image_id":266,"category_name":"Phyllite","category":17,"distinct_rating":2.6,"distinct_type":"Bottom","item_type":"Foil","rt":1208,"stimulus":"Stimuli_Rocks480/M_Phyllite_10.png","response":"l","trial_type":"image-keyboard-response","trial_index":229,"plugin_version":"2.1.0","time_elapsed":328139,"subject_id":"90134","group":"Group2","full_date":"2025-11-09T03:49:16.739Z","date":"2025-11-09","time":"03:49:16","cor_ans":false},{"trial_type":"html-keyboard-response","rt":null,"stimulus":"<p style=\"color: red; font-size: 50px; font-weight: bold;\">Incorrect</p>","response":null,"trial_index":230,"plugin_version":"2.1.0","time_elapsed":328640,"subject_id":"90134","group":"Group2","full_date":"2025-11-09T03:49:16.739Z","date":"2025-11-09","time":"03:49:16"},{"correct_response":"a","task":"test_phase","broad_category":"I","image_png":"I_Rhyolite_11.png","image_id":155,"category_name":"Rhyolite","category":10,"distinct_rating":1.73,"distinct_type":"Bottom","item_type":"Foil","rt":1783,"stimulus":"Stimuli_Rocks480/I_Rhyolite_11.png","response":"a","trial_type":"image-keyboard-response","trial_index":231,"plugin_version":"2.1.0","time_elapsed":330425,"subject_id":"90134","group":"Group2","full_date":"2025-11-09T03:49:16.739Z","date":"2025-11-09","time":"03:49:16","cor_ans":true},{"trial_type":"html-keyboard-response","rt":null,"stimulus":"<p style=\"color: green; font-size: 50px; font-weight: bold;\">Correct</p>","response":null,"trial_index":232,"plugin_version":"2.1.0","time_elapsed":330926,"subject_id":"90134","group":"Group2","full_date":"2025-11-09T03:49:16.739Z","date":"2025-11-09","time":"03:49:16"},{"correct_response":"l","task":"test_phase","broad_category":"S","image_png":"S_Sandstone_11.png","image_id":459,"category_name":"Sandstone","category":29,"distinct_rating":1.82,"distinct_type":"Bottom","item_type":"Target","rt":1589,"stimulus":"Stimuli_Rocks480/S_Sandstone_11.png","response":"a","trial_type":"image-keyboard-response","trial_index":233,"plugin_version":"2.1.0","time_elapsed":332518,"subject_id":"90134","group":"Group2","full_date":"2025-11-09T03:49:16.739Z","date":"2025-11-09","time":"03:49:16","cor_ans":false},{"trial_type":"html-keyboard-response","rt":null,"stimulus":"<p style=\"color: red; font-size: 50px; font-weight: bold;\">Incorrect</p>","response":null,"trial_index":234,"plugin_version":"2.1.0","time_elapsed":333020,"subject_id":"90134","group":"Group2","full_date":"2025-11-09T03:49:16.739Z","date":"2025-11-09","time":"03:49:16"},{"correct_response":"a","task":"test_phase","broad_category":"I","image_png":"I_Andesite_10.png","image_id":10,"category_name":"Andesite","category":1,"distinct_rating":3.15,"distinct_type":"Bottom","item_type":"Foil","rt":793,"stimulus":"Stimuli_Rocks480/I_Andesite_10.png","response":"l","trial_type":"image-keyboard-response","trial_index":235,"plugin_version":"2.1.0","time_elapsed":333815,"subject_id":"90134","group":"Group2","full_date":"2025-11-09T03:49:16.739Z","date":"2025-11-09","time":"03:49:16","cor_ans":false},{"trial_type":"html-keyboard-response","rt