[{"width":1286,"height":713,"webaudio":true,"browser":"chrome","browser_version":"127.0.0","mobile":false,"os":"Mac OS","fullscreen":true,"vsync_rate":57.24,"webcam":true,"microphone":true,"trial_type":"browser-check","trial_index":0,"plugin_version":"2.1.0","time_elapsed":1056,"subject_id":"89118","group":"Group2","full_date":"2025-11-10T17:17:05.763Z","date":"2025-11-10","time":"17:17:05"},{"success":true,"timeout":false,"failed_images":[],"failed_audio":[],"failed_video":[],"trial_type":"preload","trial_index":1,"plugin_version":"2.1.0","time_elapsed":11808,"subject_id":"89118","group":"Group2","full_date":"2025-11-10T17:17:05.763Z","date":"2025-11-10","time":"17:17:05"},{"rt":112010,"url":"SONA_consent_memorability.html","trial_type":"external-html","trial_index":2,"plugin_version":"2.1.0","time_elapsed":124003,"subject_id":"89118","group":"Group2","full_date":"2025-11-10T17:17:05.763Z","date":"2025-11-10","time":"17:17:05"},{"success":true,"rt":1946,"trial_type":"fullscreen","trial_index":3,"plugin_version":"2.1.0","time_elapsed":126955,"subject_id":"89118","group":"Group2","full_date":"2025-11-10T17:17:05.763Z","date":"2025-11-10","time":"17:17:05"},{"rt":2112,"stimulus":"<div style=\"max-width: 760px; margin: auto; font-size: 20px; line-height: 1.5;\">\n      <h1 style=\"text-align:center; font-size: 30px;\">Instructions</h1>\n      <p>\n        Welcome to the study on <b>visual memory</b>. This experiment consists of <b>two phases</b>: \n        a <b>study phase</b> and a <b>test phase</b>.\n      </p>\n      <p>\n        In the study phase, you will see a series of rock images along with their category labels.\n        The images will appear one at a time.\n        <b>Your task</b> is to learn the categories to which the rock images belong \n        and to remember each image as accurately as possible.\n      </p> \n      <p>\n        After the study phase, <b>your memory will be tested</b>. \n        Additional instructions for the test phase will be provided at that time.\n      </p>\n      <p>\n        If your computer has multiple <b>language settings</b> (e.g., English and another language),\n        please make sure it is set to English before starting.\n      </p>\n      <p>\n        You can track your progress using the <b>completion bar</b> at the top of the screen. \n        Please note that the bar will refresh when the test phase begins \n        to give you an accurate sense of your progress in both phases.\n      </p> \n      <p>\n        Press the button below when you are ready to begin.\n      </p>\n    </div>","response":0,"trial_type":"html-button-response","trial_index":4,"plugin_version":"2.1.0","time_elapsed":129068,"subject_id":"89118","group":"Group2","full_date":"2025-11-10T17:17:05.763Z","date":"2025-11-10","time":"17:17:05"},{"rt":null,"stimulus":"<p style=\"font-size: 50px; margin: 0; text-align: center;\">+</p>","response":null,"trial_type":"html-keyboard-response","trial_index":5,"plugin_version":"2.1.0","time_elapsed":130070,"subject_id":"89118","group":"Group2","full_date":"2025-11-10T17:17:05.763Z","date":"2025-11-10","time":"17:17:05"},{"task":"memory_phase","broad_category":"I","image_png":"I_Andesite_09.png","image_id":9,"category_name":"Andesite","category":1,"distinct_rating":2.49,"distinct_type":"Bottom","rt":null,"stimulus":"Stimuli_Rocks480/I_Andesite_09.png","response":null,"trial_type":"image-keyboard-response","trial_index":6,"plugin_version":"2.1.0","time_elapsed":132573,"subject_id":"89118","group":"Group2","full_date":"2025-11-10T17:17:05.763Z","date":"2025-11-10","time":"17:17:05"},{"rt":null,"stimulus":"<p style=\"font-size: 50px; margin: 0; text-align: center;\">+</p>","response":null,"trial_type":"html-keyboard-response","trial_index":7,"plugin_version":"2.1.0","time_elapsed":133575,"subject_id":"89118","group":"Group2","full_date":"2025-11-10T17:17:05.763Z","date":"2025-11-10","time":"17:17:05"},{"task":"memory_phase","broad_category":"S","image_png":"S_Dolomite_07.png","image_id":391,"category_name":"Dolomite","category":25,"distinct_rating":1.73,"distinct_type":"Bottom","rt":null,"stimulus":"Stimuli_Rocks480/S_Dolomite_07.png","response":null,"trial_type":"image-keyboard-response","trial_index":8,"plugin_version":"2.1.0","time_elapsed":136085,"subject_id":"89118","group":"Group2","full_date":"2025-11-10T17:17:05.763Z","date":"2025-11-10","time":"17:17:05"},{"rt":null,"stimulus":"<p style=\"font-size: 50px; margin: 0; text-align: center;\">+</p>","response":null,"trial_type":"html-keyboard-response","trial_index":9,"plugin_version":"2.1.0","time_elapsed":137088,"subject_id":"89118","group":"Group2","full_date":"2025-11-10T17:17:05.763Z","date":"2025-11-10","time":"17:17:05"},{"task":"memory_phase","broad_category":"I","image_png":"I_Diorite_10.png","image_id":42,"category_name":"Diorite","category":3,"distinct_rating":2.84,"distinct_type":"Bottom","rt":null,"stimulus":"Stimuli_Rocks480/I_Diorite_10.png","response":null,"trial_type":"image-keyboard-response","trial_index":10,"plugin_version":"2.1.0","time_elapsed":139592,"subject_id":"89118","group":"Group2","full_date":"2025-11-10T17:17:05.763Z","date":"2025-11-10","time":"17:17:05"},{"rt":null,"stimulus":"<p style=\"font-size: 50px; margin: 0; text-align: center;\">+</p>","response":null,"trial_type":"html-keyboard-response","trial_index":11,"plugin_version":"2.1.0","time_elapsed":140595,"subject_id":"89118","group":"Group2","full_date":"2025-11-10T17:17:05.763Z","date":"2025-11-10","time":"17:17:05"},{"task":"memory_phase","broad_category":"I","image_png":"I_Diorite_15.png","image_id":47,"category_name":"Diorite","category":3,"distinct_rating":3.05,"distinct_type":"Bottom","rt":null,"stimulus":"Stimuli_Rocks480/I_Diorite_15.png","response":null,"trial_type":"image-keyboard-response","trial_index":12,"plugin_version":"2.1.0","time_elapsed":143098,"subject_id":"89118","group":"Group2","full_date":"2025-11-10T17:17:05.763Z","date":"2025-11-10","time":"17:17:05"},{"rt":null,"stimulus":"<p style=\"font-size: 50px; margin: 0; text-align: center;\">+</p>","response":null,"trial_type":"html-keyboard-response","trial_index":13,"plugin_version":"2.1.0","time_elapsed":144100,"subject_id":"89118","group":"Group2","full_date":"2025-11-10T17:17:05.763Z","date":"2025-11-10","time":"17:17:05"},{"task":"memory_phase","broad_category":"I","image_png":"I_Andesite_03.png","image_id":3,"category_name":"Andesite","category":1,"distinct_rating":3.17,"distinct_type":"Bottom","rt":null,"stimulus":"Stimuli_Rocks480/I_Andesite_03.png","response":null,"trial_type":"image-keyboard-response","trial_index":14,"plugin_version":"2.1.0","time_elapsed":146604,"subject_id":"89118","group":"Group2","full_date":"2025-11-10T17:17:05.763Z","date":"2025-11-10","time":"17:17:05"},{"rt":null,"stimulus":"<p style=\"font-size: 50px; margin: 0; text-align: center;\">+</p>","response":null,"trial_type":"html-keyboard-response","trial_index":15,"plugin_version":"2.1.0","time_elapsed":147607,"subject_id":"89118","group":"Group2","full_date":"2025-11-10T17:17:05.763Z","date":"2025-11-10","time":"17:17:05"},{"task":"memory_phase","broad_category":"S","image_png":"S_Rock Salt_13.png","image_id":445,"category_name":"Rock Salt","category":28,"distinct_rating":7.58,"distinct_type":"Top","rt":null,"stimulus":"Stimuli_Rocks480/S_Rock Salt_13.png","response":null,"trial_type":"image-keyboard-response","trial_index":16,"plugin_version":"2.1.0","time_elapsed":150111,"subject_id":"89118","group":"Group2","full_date":"2025-11-10T17:17:05.763Z","date":"2025-11-10","time":"17:17:05"},{"rt":null,"stimulus":"<p style=\"font-size: 50px; margin: 0; text-align: center;\">+</p>","response":null,"trial_type":"html-keyboard-response","trial_index":17,"plugin_version":"2.1.0","time_elapsed":151114,"subject_id":"89118","group":"Group2","full_date":"2025-11-10T17:17:05.763Z","date":"2025-11-10","time":"17:17:05"},{"task":"memory_phase","broad_category":"S","image_png":"S_Shale_07.png","image_id":471,"category_name":"Shale","category":30,"distinct_rating":2.73,"distinct_type":"Bottom","rt":null,"stimulus":"Stimuli_Rocks480/S_Shale_07.png","response":null,"trial_type":"image-keyboard-response","trial_index":18,"plugin_version":"2.1.0","time_elapsed":153618,"subject_id":"89118","group":"Group2","full_date":"2025-11-10T17:17:05.763Z","date":"2025-11-10","time":"17:17:05"},{"rt":null,"stimulus":"<p style=\"font-size: 50px; margin: 0; text-align: center;\">+</p>","response":null,"trial_type":"html-keyboard-response","trial_index":19,"plugin_version":"2.1.0","time_elapsed":154620,"subject_id":"89118","group":"Group2","full_date":"2025-11-10T17:17:05.763Z","date":"2025-11-10","time":"17:17:05"},{"task":"memory_phase","broad_category":"I","image_png":"I_Rhyolite_08.png","image_id":152,"category_name":"Rhyolite","category":10,"distinct_rating":1.38,"distinct_type":"Bottom","rt":null,"stimulus":"Stimuli_Rocks480/I_Rhyolite_08.png","response":null,"trial_type":"image-keyboard-response","trial_index":20,"plugin_version":"2.1.0","time_elapsed":157124,"subject_id":"89118","group":"Group2","full_date":"2025-11-10T17:17:05.763Z","date":"2025-11-10","time":"17:17:05"},{"rt":null,"stimulus":"<p style=\"font-size: 50px; margin: 0; text-align: center;\">+</p>","response":null,"trial_type":"html-keyboard-response","trial_index":21,"plugin_version":"2.1.0","time_elapsed":158127,"subject_id":"89118","group":"Group2","full_date":"2025-11-10T17:17:05.763Z","date":"2025-11-10","time":"17:17:05"},{"task":"memory_phase","broad_category":"I","image_png":"I_Pegmatite_03.png","image_id":99,"category_name":"Pegmatite","category":7,"distinct_rating":7.24,"distinct_type":"Top","rt":null,"stimulus":"Stimuli_Rocks480/I_Pegmatite_03.png","response":null,"trial_type":"image-keyboard-response","trial_index":22,"plugin_version":"2.1.0","time_elapsed":160631,"subject_id":"89118","group":"Group2","full_date":"2025-11-10T17:17:05.763Z","date":"2025-11-10","time":"17:17:05"},{"rt":null,"stimulus":"<p style=\"font-size: 50px; margin: 0; text-align: center;\">+</p>","response":null,"trial_type":"html-keyboard-response","trial_index":23,"plugin_version":"2.1.0","time_elapsed":161634,"subject_id":"89118","group":"Group2","full_date":"2025-11-10T17:17:05.763Z","date":"2025-11-10","time":"17:17:05"},{"task":"memory_phase","broad_category":"S","image_png":"S_Sandstone_04.png","image_id":452,"category_name":"Sandstone","category":29,"distinct_rating":1.8,"distinct_type":"Bottom","rt":null,"stimulus":"Stimuli_Rocks480/S_Sandstone_04.png","response":null,"trial_type":"image-keyboard-response","trial_index":24,"plugin_version":"2.1.0","time_elapsed":164138,"subject_id":"89118","group":"Group2","full_date":"2025-11-10T17:17:05.763Z","date":"2025-11-10","time":"17:17:05"},{"rt":null,"stimulus":"<p style=\"font-size: 50px; margin: 0; text-align: center;\">+</p>","response":null,"trial_type":"html-keyboard-response","trial_index":25,"plugin_version":"2.1.0","time_elapsed":165140,"subject_id":"89118","group":"Group2","full_date":"2025-11-10T17:17:05.763Z","date":"2025-11-10","time":"17:17:05"},{"task":"memory_phase","broad_category":"I","image_png":"I_Diorite_01.png","image_id":33,"category_name":"Diorite","category":3,"distinct_rating":2.97,"distinct_type":"Bottom","rt":null,"stimulus":"Stimuli_Rocks480/I_Diorite_01.png","response":null,"trial_type":"image-keyboard-response","trial_index":26,"plugin_version":"2.1.0","time_elapsed":167644,"subject_id":"89118","group":"Group2","full_date":"2025-11-10T17:17:05.763Z","date":"2025-11-10","time":"17:17:05"},{"rt":null,"stimulus":"<p style=\"font-size: 50px; margin: 0; text-align: center;\">+</p>","response":null,"trial_type":"html-keyboard-response","trial_index":27,"plugin_version":"2.1.0","time_elapsed":168646,"subject_id":"89118","group":"Group2","full_date":"2025-11-10T17:17:05.763Z","date":"2025-11-10","time":"17:17:05"},{"task":"memory_phase","broad_category":"M","image_png":"M_Gneiss_10.png","image_id":202,"category_name":"Gneiss","category":13,"distinct_rating":3.09,"distinct_type":"Bottom","rt":null,"stimulus":"Stimuli_Rocks480/M_Gneiss_10.png","response":null,"trial_type":"image-keyboard-response","trial_index":28,"plugin_version":"2.1.0","time_elapsed":171150,"subject_id":"89118","group":"Group2","full_date":"2025-11-10T17:17:05.763Z","date":"2025-11-10","time":"17:17:05"},{"rt":null,"stimulus":"<p style=\"font-size: 50px; margin: 0; text-align: center;\">+</p>","response":null,"trial_type":"html-keyboard-response","trial_index":29,"plugin_version":"2.1.0","time_elapsed":172152,"subject_id":"89118","group":"Group2","full_date":"2025-11-10T17:17:05.763Z","date":"2025-11-10","time":"17:17:05"},{"task":"memory_phase","broad_category":"I","image_png":"I_Obsidian_06.png","image_id":86,"category_name":"Obsidian","category":6,"distinct_rating":8.01,"distinct_type":"Top","rt":null,"stimulus":"Stimuli_Rocks480/I_Obsidian_06.png","response":null,"trial_type":"image-keyboard-response","trial_index":30,"plugin_version":"2.1.0","time_elapsed":174656,"subject_id":"89118","group":"Group2","full_date":"2025-11-10T17:17:05.763Z","date":"2025-11-10","time":"17:17:05"},{"rt":null,"stimulus":"<p style=\"font-size: 50px; margin: 0; text-align: center;\">+</p>","response":null,"trial_type":"html-keyboard-response","trial_index":31,"plugin_version":"2.1.0","time_elapsed":175659,"subject_id":"89118","group":"Group2","full_date":"2025-11-10T17:17:05.763Z","date":"2025-11-10","time":"17:17:05"},{"task":"memory_phase","broad_category":"I","image_png":"I_Basalt_13.png","image_id":29,"category_name":"Basalt","category":2,"distinct_rating":2.68,"distinct_type":"Bottom","rt":null,"stimulus":"Stimuli_Rocks480/I_Basalt_13.png","response":null,"trial_type":"image-keyboard-response","trial_index":32,"plugin_version":"2.1.0","time_elapsed":178162,"subject_id":"89118","group":"Group2","full_date":"2025-11-10T17:17:05.763Z","date":"2025-11-10","time":"17:17:05"},{"rt":null,"stimulus":"<p style=\"font-size: 50px; margin: 0; text-align: center;\">+</p>","response":null,"trial_type":"html-keyboard-response","trial_index":33,"plugin_version":"2.1.0","time_elapsed":179165,"subject_id":"89118","group":"Group2","full_date":"2025-11-10T17:17:05.763Z","date":"2025-11-10","time":"17:17:05"},{"task":"memory_phase","broad_category":"M","image_png":"M_Phyllite_13.png","image_id":269,"category_name":"Phyllite","category":17,"distinct_rating":2.8,"distinct_type":"Bottom","rt":null,"stimulus":"Stimuli_Rocks480/M_Phyllite_13.png","response":null,"trial_type":"image-keyboard-response","trial_index":34,"plugin_version":"2.1.0","time_elapsed":181668,"subject_id":"89118","group":"Group2","full_date":"2025-11-10T17:17:05.763Z","date":"2025-11-10","time":"17:17:05"},{"rt":null,"stimulus":"<p style=\"font-size: 50px; margin: 0; text-align: center;\">+</p>","response":null,"trial_type":"html-keyboard-response","trial_index":35,"plugin_version":"2.1.0","time_elapsed":182671,"subject_id":"89118","group":"Group2","full_date":"2025-11-10T17:17:05.763Z","date":"2025-11-10","time":"17:17:05"},{"task":"memory_phase","broad_category":"S","image_png":"S_Rock Salt_15.png","image_id":447,"category_name":"Rock Salt","category":28,"distinct_rating":7.79,"distinct_type":"Top","rt":null,"stimulus":"Stimuli_Rocks480/S_Rock Salt_15.png","response":null,"trial_type":"image-keyboard-response","trial_index":36,"plugin_version":"2.1.0","time_elapsed":185174,"subject_id":"89118","group":"Group2","full_date":"2025-11-10T17:17:05.763Z","date":"2025-11-10","time":"17:17:05"},{"rt":null,"stimulus":"<p style=\"font-size: 50px; margin: 0; text-align: center;\">+</p>","response":null,"trial_type":"html-keyboard-response","trial_index":37,"plugin_version":"2.1.0","time_elapsed":186177,"subject_id":"89118","group":"Group2","full_date":"2025-11-10T17:17:05.763Z","date":"2025-11-10","time":"17:17:05"},{"task":"memory_phase","broad_category":"S","image_png":"S_Chert_13.png","image_id":365,"category_name":"Chert","category":23,"distinct_rating":6.57,"distinct_type":"Top","rt":null,"stimulus":"Stimuli_Rocks480/S_Chert_13.png","response":null,"trial_type":"image-keyboard-response","trial_index":38,"plugin_version":"2.1.0","time_elapsed":188681,"subject_id":"89118","group":"Group2","full_date":"2025-11-10T17:17:05.763Z","date":"2025-11-10","time":"17:17:05"},{"rt":null,"stimulus":"<p style=\"font-size: 50px; margin: 0; text-align: center;\">+</p>","response":null,"trial_type":"html-keyboard-response","trial_index":39,"plugin_version":"2.1.0","time_elapsed":189683,"subject_id":"89118","group":"Group2","full_date":"2025-11-10T17:17:05.763Z","date":"2025-11-10","time":"17:17:05"},{"task":"memory_phase","broad_category":"I","image_png":"I_Pumice_13.png","image_id":141,"category_name":"Pumice","category":9,"distinct_rating":3.12,"distinct_type":"Bottom","rt":null,"stimulus":"Stimuli_Rocks480/I_Pumice_13.png","response":null,"trial_type":"image-keyboard-response","trial_index":40,"plugin_version":"2.1.0","time_elapsed":192187,"subject_id":"89118","group":"Group2","full_date":"2025-11-10T17:17:05.763Z","date":"2025-11-10","time":"17:17:05"},{"rt":null,"stimulus":"<p style=\"font-size: 50px; margin: 0; text-align: center;\">+</p>","response":null,"trial_type":"html-keyboard-response","trial_index":41,"plugin_version":"2.1.0","time_elapsed":193189,"subject_id":"89118","group":"Group2","full_date":"2025-11-10T17:17:05.763Z","date":"2025-11-10","time":"17:17:05"},{"task":"memory_phase","broad_category":"M","image_png":"M_Gneiss_14.png","image_id":206,"category_name":"Gneiss","category":13,"distinct_rating":3.41,"distinct_type":"Bottom","rt":null,"stimulus":"Stimuli_Rocks480/M_Gneiss_14.png","response":null,"trial_type":"image-keyboard-response","trial_index":42,"plugin_version":"2.1.0","time_elapsed":195693,"subject_id":"89118","group":"Group2","full_date":"2025-11-10T17:17:05.763Z","date":"2025-11-10","time":"17:17:05"},{"rt":null,"stimulus":"<p style=\"font-size: 50px; margin: 0; text-align: center;\">+</p>","response":null,"trial_type":"html-keyboard-response","trial_index":43,"plugin_version":"2.1.0","time_elapsed":196696,"subject_id":"89118","group":"Group2","full_date":"2025-11-10T17:17:05.763Z","date":"2025-11-10","time":"17:17:05"},{"task":"memory_phase","broad_category":"M","image_png":"M_Phyllite_02.png","image_id":258,"category_name":"Phyllite","category":17,"distinct_rating":2.89,"distinct_type":"Bottom","rt":null,"stimulus":"Stimuli_Rocks480/M_Phyllite_02.png","response":null,"trial_type":"image-keyboard-response","trial_index":44,"plugin_version":"2.1.0","time_elapsed":199200,"subject_id":"89118","group":"Group2","full_date":"2025-11-10T17:17:05.763Z","date":"2025-11-10","time":"17:17:05"},{"rt":null,"stimulus":"<p style=\"font-size: 50px; margin: 0; text-align: center;\">+</p>","response":null,"trial_type":"html-keyboard-response","trial_index":45,"plugin_version":"2.1.0","time_elapsed":200202,"subject_id":"89118","group":"Group2","full_date":"2025-11-10T17:17:05.763Z","date":"2025-11-10","time":"17:17:05"},{"task":"memory_phase","broad_category":"S","image_png":"S_Dolomite_01.png","image_id":385,"category_name":"Dolomite","category":25,"distinct_rating":1.43,"distinct_type":"Bottom","rt":null,"stimulus":"Stimuli_Rocks480/S_Dolomite_01.png","response":null,"trial_type":"image-keyboard-response","trial_index":46,"plugin_version":"2.1.0","time_elapsed":202705,"subject_id":"89118","group":"Group2","full_date":"2025-11-10T17:17:05.763Z","date":"2025-11-10","time":"17:17:05"},{"rt":null,"stimulus":"<p style=\"font-size: 50px; margin: 0; text-align: center;\">+</p>","response":null,"trial_type":"html-keyboard-response","trial_index":47,"plugin_version":"2.1.0","time_elapsed":203709,"subject_id":"89118","group":"Group2","full_date":"2025-11-10T17:17:05.763Z","date":"2025-11-10","time":"17:17:05"},{"task":"memory_phase","broad_category":"M","image_png":"M_Quartzite_12.png","image_id":284,"category_name":"Quartzite","category":18,"distinct_rating":1.92,"distinct_type":"Bottom","rt":null,"stimulus":"Stimuli_Rocks480/M_Quartzite_12.png","response":null,"trial_type":"image-keyboard-response","trial_index":48,"plugin_version":"2.1.0","time_elapsed":206212,"subject_id":"89118","group":"Group2","full_date":"2025-11-10T17:17:05.763Z","date":"2025-11-10","time":"17:17:05"},{"rt":null,"stimulus":"<p style=\"font-size: 50px; margin: 0; text-align: center;\">+</p>","response":null,"trial_type":"html-keyboard-response","trial_index":49,"plugin_version":"2.1.0","time_elapsed":207215,"subject_id":"89118","group":"Group2","full_date":"2025-11-10T17:17:05.763Z","date":"2025-11-10","time":"17:17:05"},{"task":"memory_phase","broad_category":"S","image_png":"S_Conglomerate_14.png","image_id":382,"category_name":"Conglomerate","category":24,"distinct_rating":6.86,"distinct_type":"Top","rt":null,"stimulus":"Stimuli_Rocks480/S_Conglomerate_14.png","response":null,"trial_type":"image-keyboard-response","trial_index":50,"plugin_version":"2.1.0","time_elapsed":209718,"subject_id":"89118","group":"Group2","full_date":"2025-11-10T17:17:05.763Z","date":"2025-11-10","time":"17:17:05"},{"rt":null,"stimulus":"<p style=\"font-size: 50px; margin: 0; text-align: center;\">+</p>","response":null,"trial_type":"html-keyboard-response","trial_index":51,"plugin_version":"2.1.0","time_elapsed":210721,"subject_id":"89118","group":"Group2","full_date":"2025-11-10T17:17:05.763Z","date":"2025-11-10","time":"17:17:05"},{"task":"memory_phase","broad_category":"S","image_png":"S_Sandstone_11.png","image_id":459,"category_name":"Sandstone","category":29,"distinct_rating":1.82,"distinct_type":"Bottom","rt":null,"stimulus":"Stimuli_Rocks480/S_Sandstone_11.png","response":null,"trial_type":"image-keyboard-response","trial_index":52,"plugin_version":"2.1.0","time_elapsed":213224,"subject_id":"89118","group":"Group2","full_date":"2025-11-10T17:17:05.763Z","date":"2025-11-10","time":"17:17:05"},{"rt":null,"stimulus":"<p style=\"font-size: 50px; margin: 0; text-align: center;\">+</p>","response":null,"trial_type":"html-keyboard-response","trial_index":53,"plugin_version":"2.1.0","time_elapsed":214227,"subject_id":"89118","group":"Group2","full_date":"2025-11-10T17:17:05.763Z","date":"2025-11-10","time":"17:17:05"},{"task":"memory_phase","broad_category":"M","image_png":"M_Slate_14.png","image_id":318,"category_name":"Slate","category":20,"distinct_rating":2.58,"distinct_type":"Bottom","rt":null,"stimulus":"Stimuli_Rocks480/M_Slate_14.png","response":null,"trial_type":"image-keyboard-response","trial_index":54,"plugin_version":"2.1.0","time_elapsed":216731,"subject_id":"89118","group":"Group2","full_date":"2025-11-10T17:17:05.763Z","date":"2025-11-10","time":"17:17:05"},{"rt":2433,"stimulus":"<p style=\"font-size: 35px;\">Press SPACE to continue study phase</p>","response":" ","trial_type":"html-keyboard-response","trial_index":55,"plugin_version":"2.1.0","time_elapsed":219165,"subject_id":"89118","group":"Group2","full_date":"2025-11-10T17:17:05.763Z","date":"2025-11-10","time":"17:17:05"},{"rt":null,"stimulus":"<p style=\"font-size: 50px; margin: 0; text-align: center;\">+</p>","response":null,"trial_type":"html-keyboard-response","trial_index":56,"plugin_version":"2.1.0","time_elapsed":220167,"subject_id":"89118","group":"Group2","full_date":"2025-11-10T17:17:05.763Z","date":"2025-11-10","time":"17:17:05"},{"task":"memory_phase","broad_category":"S","image_png":"S_Sandstone_08.png","image_id":456,"category_name":"Sandstone","category":29,"distinct_rating":1.5,"distinct_type":"Bottom","rt":null,"stimulus":"Stimuli_Rocks480/S_Sandstone_08.png","response":null,"trial_type":"image-keyboard-response","trial_index":57,"plugin_version":"2.1.0","time_elapsed":222706,"subject_id":"89118","group":"Group2","full_date":"2025-11-10T17:17:05.763Z","date":"2025-11-10","time":"17:17:05"},{"rt":null,"stimulus":"<p style=\"font-size: 50px; margin: 0; text-align: center;\">+</p>","response":null,"trial_type":"html-keyboard-response","trial_index":58,"plugin_version":"2.1.0","time_elapsed":223709,"subject_id":"89118","group":"Group2","full_date":"2025-11-10T17:17:05.763Z","date":"2025-11-10","time":"17:17:05"},{"task":"memory_phase","broad_category":"I","image_png":"I_Andesite_04.png","image_id":4,"category_name":"Andesite","category":1,"distinct_rating":3.18,"distinct_type":"Bottom","rt":null,"stimulus":"Stimuli_Rocks480/I_Andesite_04.png","response":null,"trial_type":"image-keyboard-response","trial_index":59,"plugin_version":"2.1.0","time_elapsed":226212,"subject_id":"89118","group":"Group2","full_date":"2025-11-10T17:17:05.763Z","date":"2025-11-10","time":"17:17:05"},{"rt":null,"stimulus":"<p style=\"font-size: 50px; margin: 0; text-align: center;\">+</p>","response":null,"trial_type":"html-keyboard-response","trial_index":60,"plugin_version":"2.1.0","time_elapsed":227214,"subject_id":"89118","group":"Group2","full_date":"2025-11-10T17:17:05.763Z","date":"2025-11-10","time":"17:17:05"},{"task":"memory_phase","broad_category":"I","image_png":"I_Gabbro_02.png","image_id":50,"category_name":"Gabbro","category":4,"distinct_rating":2.73,"distinct_type":"Bottom","rt":null,"stimulus":"Stimuli_Rocks480/I_Gabbro_02.png","response":null,"trial_type":"image-keyboard-response","trial_index":61,"plugin_version":"2.1.0","time_elapsed":229718,"subject_id":"89118","group":"Group2","full_date":"2025-11-10T17:17:05.763Z","date":"2025-11-10","time":"17:17:05"},{"rt":null,"stimulus":"<p style=\"font-size: 50px; margin: 0; text-align: center;\">+</p>","response":null,"trial_type":"html-keyboard-response","trial_index":62,"plugin_version":"2.1.0","time_elapsed":230720,"subject_id":"89118","group":"Group2","full_date":"2025-11-10T17:17:05.763Z","date":"2025-11-10","time":"17:17:05"},{"task":"memory_phase","broad_category":"M","image_png":"M_Quartzite_07.png","image_id":279,"category_name":"Quartzite","category":18,"distinct_rating":1.97,"distinct_type":"Bottom","rt":null,"stimulus":"Stimuli_Rocks480/M_Quartzite_07.png","response":null,"trial_type":"image-keyboard-response","trial_index":63,"plugin_version":"2.1.0","time_elapsed":233223,"subject_id":"89118","group":"Group2","full_date":"2025-11-10T17:17:05.763Z","date":"2025-11-10","time":"17:17:05"},{"rt":null,"stimulus":"<p style=\"font-size: 50px; margin: 0; text-align: center;\">+</p>","response":null,"trial_type":"html-keyboard-response","trial_index":64,"plugin_version":"2.1.0","time_elapsed":234226,"subject_id":"89118","group":"Group2","full_date":"2025-11-10T17:17:05.763Z","date":"2025-11-10","time":"17:17:05"},{"task":"memory_phase","broad_category":"S","image_png":"S_Shale_02.png","image_id":466,"category_name":"Shale","category":30,"distinct_rating":2.9,"distinct_type":"Bottom","rt":null,"stimulus":"Stimuli_Rocks480/S_Shale_02.png","response":null,"trial_type":"image-keyboard-response","trial_index":65,"plugin_version":"2.1.0","time_elapsed":236730,"subject_id":"89118","group":"Group2","full_date":"2025-11-10T17:17:05.763Z","date":"2025-11-10","time":"17:17:05"},{"rt":null,"stimulus":"<p style=\"font-size: 50px; margin: 0; text-align: center;\">+</p>","response":null,"trial_type":"html-keyboard-response","trial_index":66,"plugin_version":"2.1.0","time_elapsed":237732,"subject_id":"89118","group":"Group2","full_date":"2025-11-10T17:17:05.763Z","date":"2025-11-10","time":"17:17:05"},{"task":"memory_phase","broad_category":"M","image_png":"M_Gneiss_15.png","image_id":207,"category_name":"Gneiss","category":13,"distinct_rating":3.11,"distinct_type":"Bottom","rt":null,"stimulus":"Stimuli_Rocks480/M_Gneiss_15.png","response":null,"trial_type":"image-keyboard-response","trial_index":67,"plugin_version":"2.1.0","time_elapsed":240235,"subject_id":"89118","group":"Group2","full_date":"2025-11-10T17:17:05.763Z","date":"2025-11-10","time":"17:17:05"},{"rt":null,"stimulus":"<p style=\"font-size: 50px; margin: 0; text-align: center;\">+</p>","response":null,"trial_type":"html-keyboard-response","trial_index":68,"plugin_version":"2.1.0","time_elapsed":241239,"subject_id":"89118","group":"Group2","full_date":"2025-11-10T17:17:05.763Z","date":"2025-11-10","time":"17:17:05"},{"task":"memory_phase","broad_category":"M","image_png":"M_Marble_14.png","image_id":238,"category_name":"Marble","category":15,"distinct_rating":3.31,"distinct_type":"Bottom","rt":null,"stimulus":"Stimuli_Rocks480/M_Marble_14.png","response":null,"trial_type":"image-keyboard-response","trial_index":69,"plugin_version":"2.1.0","time_elapsed":243743,"subject_id":"89118","group":"Group2","full_date":"2025-11-10T17:17:05.763Z","date":"2025-11-10","time":"17:17:05"},{"rt":null,"stimulus":"<p style=\"font-size: 50px; margin: 0; text-align: center;\">+</p>","response":null,"trial_type":"html-keyboard-response","trial_index":70,"plugin_version":"2.1.0","time_elapsed":244746,"subject_id":"89118","group":"Group2","full_date":"2025-11-10T17:17:05.763Z","date":"2025-11-10","time":"17:17:05"},{"task":"memory_phase","broad_category":"I","image_png":"I_Gabbro_14.png","image_id":62,"category_name":"Gabbro","category":4,"distinct_rating":2.95,"distinct_type":"Bottom","rt":null,"stimulus":"Stimuli_Rocks480/I_Gabbro_14.png","response":null,"trial_type":"image-keyboard-response","trial_index":71,"plugin_version":"2.1.0","time_elapsed":247249,"subject_id":"89118","group":"Group2","full_date":"2025-11-10T17:17:05.763Z","date":"2025-11-10","time":"17:17:05"},{"rt":null,"stimulus":"<p style=\"font-size: 50px; margin: 0; text-align: center;\">+</p>","response":null,"trial_type":"html-keyboard-response","trial_index":72,"plugin_version":"2.1.0","time_elapsed":248252,"subject_id":"89118","group":"Group2","full_date":"2025-11-10T17:17:05.763Z","date":"2025-11-10","time":"17:17:05"},{"task":"memory_phase","broad_category":"I","image_png":"I_Rhyolite_05.png","image_id":149,"category_name":"Rhyolite","category":10,"distinct_rating":3.02,"distinct_type":"Bottom","rt":null,"stimulus":"Stimuli_Rocks480/I_Rhyolite_05.png","response":null,"trial_type":"image-keyboard-response","trial_index":73,"plugin_version":"2.1.0","time_elapsed":250756,"subject_id":"89118","group":"Group2","full_date":"2025-11-10T17:17:05.763Z","date":"2025-11-10","time":"17:17:05"},{"rt":null,"stimulus":"<p style=\"font-size: 50px; margin: 0; text-align: center;\">+</p>","response":null,"trial_type":"html-keyboard-response","trial_index":74,"plugin_version":"2.1.0","time_elapsed":251758,"subject_id":"89118","group":"Group2","full_date":"2025-11-10T17:17:05.763Z","date":"2025-11-10","time":"17:17:05"},{"task":"memory_phase","broad_category":"M","image_png":"M_Marble_02.png","image_id":226,"category_name":"Marble","category":15,"distinct_rating":3.2,"distinct_type":"Bottom","rt":null,"stimulus":"Stimuli_Rocks480/M_Marble_02.png","response":null,"trial_type":"image-keyboard-response","trial_index":75,"plugin_version":"2.1.0","time_elapsed":254262,"subject_id":"89118","group":"Group2","full_date":"2025-11-10T17:17:05.763Z","date":"2025-11-10","time":"17:17:05"},{"rt":null,"stimulus":"<p style=\"font-size: 50px; margin: 0; text-align: center;\">+</p>","response":null,"trial_type":"html-keyboard-response","trial_index":76,"plugin_version":"2.1.0","time_elapsed":255264,"subject_id":"89118","group":"Group2","full_date":"2025-11-10T17:17:05.763Z","date":"2025-11-10","time":"17:17:05"},{"task":"memory_phase","broad_category":"I","image_png":"I_Peridotite_13.png","image_id":125,"category_name":"Peridotite","category":8,"distinct_rating":7.28,"distinct_type":"Top","rt":null,"stimulus":"Stimuli_Rocks480/I_Peridotite_13.png","response":null,"trial_type":"image-keyboard-response","trial_index":77,"plugin_version":"2.1.0","time_elapsed":257768,"subject_id":"89118","group":"Group2","full_date":"2025-11-10T17:17:05.763Z","date":"2025-11-10","time":"17:17:05"},{"rt":null,"stimulus":"<p style=\"font-size: 50px; margin: 0; text-align: center;\">+</p>","response":null,"trial_type":"html-keyboard-response","trial_index":78,"plugin_version":"2.1.0","time_elapsed":258770,"subject_id":"89118","group":"Group2","full_date":"2025-11-10T17:17:05.763Z","date":"2025-11-10","time":"17:17:05"},{"task":"memory_phase","broad_category":"M","image_png":"M_Marble_03.png","image_id":227,"category_name":"Marble","category":15,"distinct_rating":2.67,"distinct_type":"Bottom","rt":null,"stimulus":"Stimuli_Rocks480/M_Marble_03.png","response":null,"trial_type":"image-keyboard-response","trial_index":79,"plugin_version":"2.1.0","time_elapsed":261274,"subject_id":"89118","group":"Group2","full_date":"2025-11-10T17:17:05.763Z","date":"2025-11-10","time":"17:17:05"},{"rt":null,"stimulus":"<p style=\"font-size: 50px; margin: 0; text-align: center;\">+</p>","response":null,"trial_type":"html-keyboard-response","trial_index":80,"plugin_version":"2.1.0","time_elapsed":262276,"subject_id":"89118","group":"Group2","full_date":"2025-11-10T17:17:05.763Z","date":"2025-11-10","time":"17:17:05"},{"task":"memory_phase","broad_category":"S","image_png":"S_Shale_03.png","image_id":467,"category_name":"Shale","category":30,"distinct_rating":1.95,"distinct_type":"Bottom","rt":null,"stimulus":"Stimuli_Rocks480/S_Shale_03.png","response":null,"trial_type":"image-keyboard-response","trial_index":81,"plugin_version":"2.1.0","time_elapsed":264779,"subject_id":"89118","group":"Group2","full_date":"2025-11-10T17:17:05.763Z","date":"2025-11-10","time":"17:17:05"},{"rt":null,"stimulus":"<p style=\"font-size: 50px; margin: 0; text-align: center;\">+</p>","response":null,"trial_type":"html-keyboard-response","trial_index":82,"plugin_version":"2.1.0","time_elapsed":265782,"subject_id":"89118","group":"Group2","full_date":"2025-11-10T17:17:05.763Z","date":"2025-11-10","time":"17:17:05"},{"task":"memory_phase","broad_category":"I","image_png":"I_Basalt_08.png","image_id":24,"category_name":"Basalt","category":2,"distinct_rating":2.31,"distinct_type":"Bottom","rt":null,"stimulus":"Stimuli_Rocks480/I_Basalt_08.png","response":null,"trial_type":"image-keyboard-response","trial_index":83,"plugin_version":"2.1.0","time_elapsed":268286,"subject_id":"89118","group":"Group2","full_date":"2025-11-10T17:17:05.763Z","date":"2025-11-10","time":"17:17:05"},{"rt":null,"stimulus":"<p style=\"font-size: 50px; margin: 0; text-align: center;\">+</p>","response":null,"trial_type":"html-keyboard-response","trial_index":84,"plugin_version":"2.1.0","time_elapsed":269288,"subject_id":"89118","group":"Group2","full_date":"2025-11-10T17:17:05.763Z","date":"2025-11-10","time":"17:17:05"},{"task":"memory_phase","broad_category":"M","image_png":"M_Slate_10.png","image_id":314,"category_name":"Slate","category":20,"distinct_rating":1.94,"distinct_type":"Bottom","rt":null,"stimulus":"Stimuli_Rocks480/M_Slate_10.png","response":null,"trial_type":"image-keyboard-response","trial_index":85,"plugin_version":"2.1.0","time_elapsed":271792,"subject_id":"89118","group":"Group2","full_date":"2025-11-10T17:17:05.763Z","date":"2025-11-10","time":"17:17:05"},{"rt":null,"stimulus":"<p style=\"font-size: 50px; margin: 0; text-align: center;\">+</p>","response":null,"trial_type":"html-keyboard-response","trial_index":86,"plugin_version":"2.1.0","time_elapsed":272794,"subject_id":"89118","group":"Group2","full_date":"2025-11-10T17:17:05.763Z","date":"2025-11-10","time":"17:17:05"},{"task":"memory_phase","broad_category":"I","image_png":"I_Rhyolite_10.png","image_id":154,"category_name":"Rhyolite","category":10,"distinct_rating":2.88,"distinct_type":"Bottom","rt":null,"stimulus":"Stimuli_Rocks480/I_Rhyolite_10.png","response":null,"trial_type":"image-keyboard-response","trial_index":87,"plugin_version":"2.1.0","time_elapsed":275298,"subject_id":"89118","group":"Group2","full_date":"2025-11-10T17:17:05.763Z","date":"2025-11-10","time":"17:17:05"},{"rt":null,"stimulus":"<p style=\"font-size: 50px; margin: 0; text-align: center;\">+</p>","response":null,"trial_type":"html-keyboard-response","trial_index":88,"plugin_version":"2.1.0","time_elapsed":276301,"subject_id":"89118","group":"Group2","full_date":"2025-11-10T17:17:05.763Z","date":"2025-11-10","time":"17:17:05"},{"task":"memory_phase","broad_category":"M","image_png":"M_Quartzite_15.png","image_id":287,"category_name":"Quartzite","category":18,"distinct_rating":2.19,"distinct_type":"Bottom","rt":null,"stimulus":"Stimuli_Rocks480/M_Quartzite_15.png","response":null,"trial_type":"image-keyboard-response","trial_index":89,"plugin_version":"2.1.0","time_elapsed":278804,"subject_id":"89118","group":"Group2","full_date":"2025-11-10T17:17:05.763Z","date":"2025-11-10","time":"17:17:05"},{"rt":null,"stimulus":"<p style=\"font-size: 50px; margin: 0; text-align: center;\">+</p>","response":null,"trial_type":"html-keyboard-response","trial_index":90,"plugin_version":"2.1.0","time_elapsed":279808,"subject_id":"89118","group":"Group2","full_date":"2025-11-10T17:17:05.763Z","date":"2025-11-10","time":"17:17:05"},{"task":"memory_phase","broad_category":"S","image_png":"S_Dolomite_16.png","image_id":400,"category_name":"Dolomite","category":25,"distinct_rating":1.71,"distinct_type":"Bottom","rt":null,"stimulus":"Stimuli_Rocks480/S_Dolomite_16.png","response":null,"trial_type":"image-keyboard-response","trial_index":91,"plugin_version":"2.1.0","time_elapsed":282312,"subject_id":"89118","group":"Group2","full_date":"2025-11-10T17:17:05.763Z","date":"2025-11-10","time":"17:17:05"},{"rt":null,"stimulus":"<p style=\"font-size: 50px; margin: 0; text-align: center;\">+</p>","response":null,"trial_type":"html-keyboard-response","trial_index":92,"plugin_version":"2.1.0","time_elapsed":283314,"subject_id":"89118","group":"Group2","full_date":"2025-11-10T17:17:05.763Z","date":"2025-11-10","time":"17:17:05"},{"task":"memory_phase","broad_category":"M","image_png":"M_Slate_04.png","image_id":308,"category_name":"Slate","category":20,"distinct_rating":2.2,"distinct_type":"Bottom","rt":null,"stimulus":"Stimuli_Rocks480/M_Slate_04.png","response":null,"trial_type":"image-keyboard-response","trial_index":93,"plugin_version":"2.1.0","time_elapsed":285818,"subject_id":"89118","group":"Group2","full_date":"2025-11-10T17:17:05.763Z","date":"2025-11-10","time":"17:17:05"},{"rt":null,"stimulus":"<p style=\"font-size: 50px; margin: 0; text-align: center;\">+</p>","response":null,"trial_type":"html-keyboard-response","trial_index":94,"plugin_version":"2.1.0","time_elapsed":286820,"subject_id":"89118","group":"Group2","full_date":"2025-11-10T17:17:05.763Z","date":"2025-11-10","time":"17:17:05"},{"task":"memory_phase","broad_category":"I","image_png":"I_Pegmatite_11.png","image_id":107,"category_name":"Pegmatite","category":7,"distinct_rating":7.11,"distinct_type":"Top","rt":null,"stimulus":"Stimuli_Rocks480/I_Pegmatite_11.png","response":null,"trial_type":"image-keyboard-response","trial_index":95,"plugin_version":"2.1.0","time_elapsed":289324,"subject_id":"89118","group":"Group2","full_date":"2025-11-10T17:17:05.763Z","date":"2025-11-10","time":"17:17:05"},{"rt":null,"stimulus":"<p style=\"font-size: 50px; margin: 0; text-align: center;\">+</p>","response":null,"trial_type":"html-keyboard-response","trial_index":96,"plugin_version":"2.1.0","time_elapsed":290326,"subject_id":"89118","group":"Group2","full_date":"2025-11-10T17:17:05.763Z","date":"2025-11-10","time":"17:17:05"},{"task":"memory_phase","broad_category":"I","image_png":"I_Gabbro_12.png","image_id":60,"category_name":"Gabbro","category":4,"distinct_rating":2.6,"distinct_type":"Bottom","rt":null,"stimulus":"Stimuli_Rocks480/I_Gabbro_12.png","response":null,"trial_type":"image-keyboard-response","trial_index":97,"plugin_version":"2.1.0","time_elapsed":292830,"subject_id":"89118","group":"Group2","full_date":"2025-11-10T17:17:05.763Z","date":"2025-11-10","time":"17:17:05"},{"rt":null,"stimulus":"<p style=\"font-size: 50px; margin: 0; text-align: center;\">+</p>","response":null,"trial_type":"html-keyboard-response","trial_index":98,"plugin_version":"2.1.0","time_elapsed":293833,"subject_id":"89118","group":"Group2","full_date":"2025-11-10T17:17:05.763Z","date":"2025-11-10","time":"17:17:05"},{"task":"memory_phase","broad_category":"I","image_png":"I_Pumice_01.png","image_id":129,"category_name":"Pumice","category":9,"distinct_rating":3.25,"distinct_type":"Bottom","rt":null,"stimulus":"Stimuli_Rocks480/I_Pumice_01.png","response":null,"trial_type":"image-keyboard-response","trial_index":99,"plugin_version":"2.1.0","time_elapsed":296337,"subject_id":"89118","group":"Group2","full_date":"2025-11-10T17:17:05.763Z","date":"2025-11-10","time":"17:17:05"},{"rt":null,"stimulus":"<p style=\"font-size: 50px; margin: 0; text-align: center;\">+</p>","response":null,"trial_type":"html-keyboard-response","trial_index":100,"plugin_version":"2.1.0","time_elapsed":297339,"subject_id":"89118","group":"Group2","full_date":"2025-11-10T17:17:05.763Z","date":"2025-11-10","time":"17:17:05"},{"task":"memory_phase","broad_category":"I","image_png":"I_Basalt_10.png","image_id":26,"category_name":"Basalt","category":2,"distinct_rating":2.76,"distinct_type":"Bottom","rt":null,"stimulus":"Stimuli_Rocks480/I_Basalt_10.png","response":null,"trial_type":"image-keyboard-response","trial_index":101,"plugin_version":"2.1.0","time_elapsed":299843,"subject_id":"89118","group":"Group2","full_date":"2025-11-10T17:17:05.763Z","date":"2025-11-10","time":"17:17:05"},{"rt":null,"stimulus":"<p style=\"font-size: 50px; margin: 0; text-align: center;\">+</p>","response":null,"trial_type":"html-keyboard-response","trial_index":102,"plugin_version":"2.1.0","time_elapsed":300846,"subject_id":"89118","group":"Group2","full_date":"2025-11-10T17:17:05.763Z","date":"2025-11-10","time":"17:17:05"},{"task":"memory_phase","broad_category":"M","image_png":"M_Phyllite_05.png","image_id":261,"category_name":"Phyllite","category":17,"distinct_rating":2.14,"distinct_type":"Bottom","rt":null,"stimulus":"Stimuli_Rocks480/M_Phyllite_05.png","response":null,"trial_type":"image-keyboard-response","trial_index":103,"plugin_version":"2.1.0","time_elapsed":303350,"subject_id":"89118","group":"Group2","full_date":"2025-11-10T17:17:05.763Z","date":"2025-11-10","time":"17:17:05"},{"rt":null,"stimulus":"<p style=\"font-size: 50px; margin: 0; text-align: center;\">+</p>","response":null,"trial_type":"html-keyboard-response","trial_index":104,"plugin_version":"2.1.0","time_elapsed":304353,"subject_id":"89118","group":"Group2","full_date":"2025-11-10T17:17:05.763Z","date":"2025-11-10","time":"17:17:05"},{"task":"memory_phase","broad_category":"I","image_png":"I_Pumice_14.png","image_id":142,"category_name":"Pumice","category":9,"distinct_rating":3.22,"distinct_type":"Bottom","rt":null,"stimulus":"Stimuli_Rocks480/I_Pumice_14.png","response":null,"trial_type":"image-keyboard-response","trial_index":105,"plugin_version":"2.1.0","time_elapsed":306856,"subject_id":"89118","group":"Group2","full_date":"2025-11-10T17:17:05.763Z","date":"2025-11-10","time":"17:17:05"},{"rt":20095,"stimulus":"<div style=\"max-width: 760px; margin: auto; font-size: 20px; line-height: 1.5;\">\n      <h1 style=\"text-align:center; font-size: 30px;\">Instructions for the Test Phase</h1>\n      <p>\n        The study phase is now complete.\n      </p>\n      <p>\n        In the test phase, you will again see a series of rock images. \n        Some will be ones you saw before - during the study phase, while others will be new.  \n        <b>Your task</b> is to decide whether you have seen each image before by pressing the corresponding key on your keyboard:<br><br>\n          <b>A</b> - NO (you did not see this image before)<br>\n          <b>L</b> - YES (you saw this image before)<br><br>\n        The test will proceed at your own pace. You will receive feedback after each response.  \n        Please try to respond <b>as accurately as possible</b>.\n      </p>\n      <p>\n        <b>Reminder:</b> If your computer has multiple language settings (e.g., English and another language),\n        please ensure it is set to English during the test phase.\n      </p>\n      <p>\n        You can track your progress using the <b>completion bar</b> at the top of the screen.  \n        Note that it has been refreshed to reflect your progress during this final phase.\n      </p>\n      <p>\n        Press the button below when you are ready to continue.\n      </p>\n    </div>","response":0,"trial_type":"html-button-response","trial_index":106,"plugin_version":"2.1.0","time_elapsed":326953,"subject_id":"89118","group":"Group2","full_date":"2025-11-10T17:17:05.763Z","date":"2025-11-10","time":"17:17:05"},{"correct_response":"a","task":"test_phase","broad_category":"M","image_png":"M_Gneiss_06.png","image_id":198,"category_name":"Gneiss","category":13,"distinct_rating":2.65,"distinct_type":"Bottom","item_type":"Foil","rt":1293,"stimulus":"Stimuli_Rocks480/M_Gneiss_06.png","response":"l","trial_type":"image-keyboard-response","trial_index":107,"plugin_version":"2.1.0","time_elapsed":328249,"subject_id":"89118","group":"Group2","full_date":"2025-11-10T17:17:05.763Z","date":"2025-11-10","time":"17:17:05","cor_ans":false},{"trial_type":"html-keyboard-response","rt":null,"stimulus":"<p style=\"color: red; font-size: 50px; font-weight: bold;\">Incorrect</p>","response":null,"trial_index":108,"plugin_version":"2.1.0","time_elapsed":328750,"subject_id":"89118","group":"Group2","full_date":"2025-11-10T17:17:05.763Z","date":"2025-11-10","time":"17:17:05"},{"correct_response":"a","task":"test_phase","broad_category":"M","image_png":"M_Slate_03.png","image_id":307,"category_name":"Slate","category":20,"distinct_rating":1.87,"distinct_type":"Bottom","item_type":"Foil","rt":869,"stimulus":"Stimuli_Rocks480/M_Slate_03.png","response":"l","trial_type":"image-keyboard-response","trial_index":109,"plugin_version":"2.1.0","time_elapsed":329622,"subject_id":"89118","group":"Group2","full_date":"2025-11-10T17:17:05.763Z","date":"2025-11-10","time":"17:17:05","cor_ans":false},{"trial_type":"html-keyboard-response","rt":null,"stimulus":"<p style=\"color: red; font-size: 50px; font-weight: bold;\">Incorrect</p>","response":null,"trial_index":110,"plugin_version":"2.1.0","time_elapsed":330123,"subject_id":"89118","group":"Group2","full_date":"2025-11-10T17:17:05.763Z","date":"2025-11-10","time":"17:17:05"},{"correct_response":"l","task":"test_phase","broad_category":"I","image_png":"I_Pegmatite_03.png","image_id":99,"category_name":"Pegmatite","category":7,"distinct_rating":7.24,"distinct_type":"Top","item_type":"Target","rt":1930,"stimulus":"Stimuli_Rocks480/I_Pegmatite_03.png","response":"l","trial_type":"image-keyboard-response","trial_index":111,"plugin_version":"2.1.0","time_elapsed":332055,"subject_id":"89118","group":"Group2","full_date":"2025-11-10T17:17:05.763Z","date":"2025-11-10","time":"17:17:05","cor_ans":true},{"trial_type":"html-keyboard-response","rt":null,"stimulus":"<p style=\"color: green; font-size: 50px; font-weight: bold;\">Correct</p>","response":null,"trial_index":112,"plugin_version":"2.1.0","time_elapsed":332557,"subject_id":"89118","group":"Group2","full_date":"2025-11-10T17:17:05.763Z","date":"2025-11-10","time":"17:17:05"},{"correct_response":"a","task":"test_phase","broad_category":"I","image_png":"I_Gabbro_11.png","image_id":59,"category_name":"Gabbro","category":4,"distinct_rating":1.99,"distinct_type":"Bottom","item_type":"Foil","rt":708,"stimulus":"Stimuli_Rocks480/I_Gabbro_11.png","response":"a","trial_type":"image-keyboard-response","trial_index":113,"plugin_version":"2.1.0","time_elapsed":333266,"subject_id":"89118","group":"Group2","full_date":"2025-11-10T17:17:05.763Z","date":"2025-11-10","time":"17:17:05","cor_ans":true},{"trial_type":"html-keyboard-response","rt":null,"stimulus":"<p style=\"color: green; font-size: 50px; font-weight: bold;\">Correct</p>","response":null,"trial_index":114,"plugin_version":"2.1.0","time_elapsed":333769,"subject_id":"89118","group":"Group2","full_date":"2025-11-10T17:17:05.763Z","date":"2025-11-10","time":"17:17:05"},{"correct_response":"l","task":"test_phase","broad_category":"S","image_png":"S_Sandstone_08.png","image_id":456,"category_name":"Sandstone","category":29,"distinct_rating":1.5,"distinct_type":"Bottom","item_type":"Target","rt":852,"stimulus":"Stimuli_Rocks480/S_Sandstone_08.png","response":"l","trial_type":"image-keyboard-response","trial_index":115,"plugin_version":"2.1.0","time_elapsed":334622,"subject_id":"89118","group":"Group2","full_date":"2025-11-10T17:17:05.763Z","date":"2025-11-10","time":"17:17:05","cor_ans":true},{"trial_type":"html-keyboard-response","rt":null,"stimulus":"<p style=\"color: green; font-size: 50px; font-weight: bold;\">Correct</p>","response":null,"trial_index":116,"plugin_version":"2.1.0","time_elapsed":335123,"subject_id":"89118","group":"Group2","full_date":"2025-11-10T17:17:05.763Z","date":"2025-11-10","time":"17:17:05"},{"correct_response":"a","task":"test_phase","broad_category":"M","image_png":"M_Gneiss_13.png","image_id":205,"category_name":"Gneiss","category":13,"distinct_rating":3.26,"distinct_type":"Bottom","item_type":"Foil","rt":888,"stimulus":"Stimuli_Rocks480/M_Gneiss_13.png","response":"l","trial_type":"image-keyboard-response","trial_index":117,"plugin_version":"2.1.0","time_elapsed":336013,"subject_id":"89118","group":"Group2","full_date":"2025-11-10T17:17:05.763Z","date":"2025-11-10","time":"17:17:05","cor_ans":false},{"trial_type":"html-keyboard-response","rt":null,"stimulus":"<p style=\"color: red; font-size: 50px; font-weight: bold;\">Incorrect</p>","response":null,"trial_index":118,"plugin_version":"2.1.0","time_elapsed":336515,"subject_id":"89118","group":"Group2","full_date":"2025-11-10T17:17:05.763Z","date":"2025-11-10","time":"17:17:05"},{"correct_response":"l","task":"test_phase","broad_category":"I","image_png":"I_Andesite_09.png","image_id":9,"category_name":"Andesite","category":1,"distinct_rating":2.49,"distinct_type":"Bottom","item_type":"Target","rt":913,"stimulus":"Stimuli_Rocks480/I_Andesite_09.png","response":"l","trial_type":"image-keyboard-response","trial_index":119,"plugin_version":"2.1.0","time_elapsed":337431,"subject_id":"89118","group":"Group2","full_date":"2025-11-10T17:17:05.763Z","date":"2025-11-10","time":"17:17:05","cor_ans":true},{"trial_type":"html-keyboard-response","rt":null,"stimulus":"<p style=\"color: green; font-size: 50px; font-weight: bold;\">Correct</p>","response":null,"trial_index":120,"plugin_version":"2.1.0","time_elapsed":337933,"subject_id":"89118","group":"Group2","full_date":"2025-11-10T17:17:05.763Z","date":"2025-11-10","time":"17:17:05"},{"correct_response":"a","task":"test_phase","broad_category":"S","image_png":"S_Shale_12.png","image_id":476,"category_name":"Shale","category":30,"distinct_rating":2.48,"distinct_type":"Bottom","item_type":"Foil","rt":962,"stimulus":"Stimuli_Rocks480/S_Shale_12.png","response":"a","trial_type":"image-keyboard-response","trial_index":121,"plugin_version":"2.1.0","time_elapsed":338897,"subject_id":"89118","group":"Group2","full_date":"2025-11-10T17:17:05.763Z","date":"2025-11-10","time":"17:17:05","cor_ans":true},{"trial_type":"html-keyboard-response","rt":null,"stimulus":"<p style=\"color: green; font-size: 50px; font-weight: bold;\">Correct</p>","response":null,"trial_index":122,"plugin_version":"2.1.0","time_elapsed":339399,"subject_id":"89118","group":"Group2","full_date":"2025-11-10T17:17:05.763Z","date":"2025-11-10","time":"17:17:05"},{"correct_response":"a","task":"test_phase","broad_category":"S","image_png":"S_Dolomite_14.png","image_id":398,"category_name":"Dolomite","category":25,"distinct_rating":1.43,"distinct_type":"Bottom","item_type":"Foil","rt":768,"stimulus":"Stimuli_Rocks480/S_Dolomite_14.png","response":"a","trial_type":"image-keyboard-response","trial_index":123,"plugin_version":"2.1.0","time_elapsed":340169,"subject_id":"89118","group":"Group2","full_date":"2025-11-10T17:17:05.763Z","date":"2025-11-10","time":"17:17:05","cor_ans":true},{"trial_type":"html-keyboard-response","rt":null,"stimulus":"<p style=\"color: green; font-size: 50px; font-weight: bold;\">Correct</p>","response":null,"trial_index":124,"plugin_version":"2.1.0","time_elapsed":340671,"subject_id":"89118","group":"Group2","full_date":"2025-11-10T17:17:05.763Z","date":"2025-11-10","time":"17:17:05"},{"correct_response":"l","task":"test_phase","broad_category":"S","image_png":"S_Conglomerate_14.png","image_id":382,"category_name":"Conglomerate","category":24,"distinct_rating":6.86,"distinct_type":"Top","item_type":"Target","rt":751,"stimulus":"Stimuli_Rocks480/S_Conglomerate_14.png","response":"l","trial_type":"image-keyboard-response","trial_index":125,"plugin_version":"2.1.0","time_elapsed":341424,"subject_id":"89118","group":"Group2","full_date":"2025-11-10T17:17:05.763Z","date":"2025-11-10","time":"17:17:05","cor_ans":true},{"trial_type":"html-keyboard-response","rt":null,"stimulus":"<p style=\"color: green; font-size: 50px; font-weight: bold;\">Correct</p>","response":null,"trial_index":126,"plugin_version":"2.1.0","time_elapsed":341926,"subject_id":"89118","group":"Group2","full_date":"2025-11-10T17:17:05.763Z","date":"2025-11-10","time":"17:17:05"},{"correct_response":"l","task":"test_phase","broad_category":"S","image_png":"S_Chert_13.png","image_id":365,"category_name":"Chert","category":23,"distinct_rating":6.57,"distinct_type":"Top","item_type":"Target","rt":686,"stimulus":"Stimuli_Rocks480/S_Chert_13.png","response":"l","trial_type":"image-keyboard-response","trial_index":127,"plugin_version":"2.1.0","time_elapsed":342614,"subject_id":"89118","group":"Group2","full_date":"2025-11-10T17:17:05.763Z","date":"2025-11-10","time":"17:17:05","cor_ans":true},{"trial_type":"html-keyboard-response","rt":null,"stimulus":"<p style=\"color: green; font-size: 50px; font-weight: bold;\">Correct</p>","response":null,"trial_index":128,"plugin_version":"2.1.0","time_elapsed":343116,"subject_id":"89118","group":"Group2","full_date":"2025-11-10T17:17:05.763Z","date":"2025-11-10","time":"17:17:05"},{"correct_response":"l","task":"test_phase","broad_category":"I","image_png":"I_Andesite_04.png","image_id":4,"category_name":"Andesite","category":1,"distinct_rating":3.18,"distinct_type":"Bottom","item_type":"Target","rt":1066,"stimulus":"Stimuli_Rocks480/I_Andesite_04.png","response":"a","trial_type":"image-keyboard-response","trial_index":129,"plugin_version":"2.1.0","time_elapsed":344183,"subject_id":"89118","group":"Group2","full_date":"2025-11-10T17:17:05.763Z","date":"2025-11-10","time":"17:17:05","cor_ans":false},{"trial_type":"html-keyboard-response","rt":null,"stimulus":"<p style=\"color: red; font-size: 50px; font-weight: bold;\">Incorrect</p>","response":null,"trial_index":130,"plugin_version":"2.1.0","time_elapsed":344685,"subject_id":"89118","group":"Group2","full_date":"2025-11-10T17:17:05.763Z","date":"2025-11-10","time":"17:17:05"},{"correct_response":"a","task":"test_phase","broad_category":"S","image_png":"S_Dolomite_12.png","image_id":396,"category_name":"Dolomite","category":25,"distinct_rating":1.85,"distinct_type":"Bottom","item_type":"Foil","rt":973,"stimulus":"Stimuli_Rocks480/S_Dolomite_12.png","response":"a","trial_type":"image-keyboard-response","trial_index":131,"plugin_version":"2.1.0","time_elapsed":345660,"subject_id":"89118","group":"Group2","full_date":"2025-11-10T17:17:05.763Z","date":"2025-11-10","time":"17:17:05","cor_ans":true},{"trial_type":"html-keyboard-response","rt":null,"stimulus":"<p style=\"color: green; font-size: 50px; font-weight: bold;\">Correct</p>","response":null,"trial_index":132,"plugin_version":"2.1.0","time_elapsed":346162,"subject_id":"89118","group":"Group2","full_date":"2025-11-10T17:17:05.763Z","date":"2025-11-10","time":"17:17:05"},{"correct_response":"a","task":"test_phase","broad_category":"I","image_png":"I_Diorite_05.png","image_id":37,"category_name":"Diorite","category":3,"distinct_rating":3.08,"distinct_type":"Bottom","item_type":"Foil","rt":939,"stimulus":"Stimuli_Rocks480/I_Diorite_05.png","response":"l","trial_type":"image-keyboard-response","trial_index":133,"plugin_version":"2.1.0","time_elapsed":347103,"subject_id":"89118","group":"Group2","full_date":"2025-11-10T17:17:05.763Z","date":"2025-11-10","time":"17:17:05","cor_ans":false},{"trial_type":"html-keyboard-response","rt":null,"stimulus":"<p style=\"color: red; font-size: 50px; font-weight: bold;\">Incorrect</p>","response":null,"trial_index":134,"plugin_version":"2.1.0","time_elapsed":347604,"subject_id":"89118","group":"Group2","full_date":"2025-11-10T17:17:05.763Z","date":"2025-11-10","time":"17:17:05"},{"correct_response":"a","task":"test_phase","broad_category":"M","image_png":"M_Phyllite_03.png","image_id":259,"category_name":"Phyllite","category":17,"distinct_rating":2.5,"distinct_type":"Bottom","item_type":"Foil","rt":589,"stimulus":"Stimuli_Rocks480/M_Phyllite_03.png","response":"l","trial_type":"image-keyboard-response","trial_index":135,"plugin_version":"2.1.0","time_elapsed":348195,"subject_id":"89118","group":"Group2","full_date":"2025-11-10T17:17:05.763Z","date":"2025-11-10","time":"17:17:05","cor_ans":false},{"trial_type":"html-keyboard-response","rt":null,"stimulus":"<p style=\"color: red; font-size: 50px; font-weight: bold;\">Incorrect</p>","response":null,"trial_index":136,"plugin_version":"2.1.0","time_elapsed":348696,"subject_id":"89118","group":"Group2","full_date":"2025-11-10T17:17:05.763Z","date":"2025-11-10","time":"17:17:05"},{"correct_response":"l","task":"test_phase","broad_category":"S","image_png":"S_Sandstone_11.png","image_id":459,"category_name":"Sandstone","category":29,"distinct_rating":1.82,"distinct_type":"Bottom","item_type":"Target","rt":1082,"stimulus":"Stimuli_Rocks480/S_Sandstone_11.png","response":"l","trial_type":"image-keyboard-response","trial_index":137,"plugin_version":"2.1.0","time_elapsed":349781,"subject_id":"89118","group":"Group2","full_date":"2025-11-10T17:17:05.763Z","date":"2025-11-10","time":"17:17:05","cor_ans":true},{"trial_type":"html-keyboard-response","rt":null,"stimulus":"<p style=\"color: green; font-size: 50px; font-weight: bold;\">Correct</p>","response":null,"trial_index":138,"plugin_version":"2.1.0","time_elapsed":350282,"subject_id":"89118","group":"Group2","full_date":"2025-11-10T17:17:05.763Z","date":"2025-11-10","time":"17:17:05"},{"correct_response":"a","task":"test_phase","broad_category":"S","image_png":"S_Rock Gypsum_04.png","image_id":420,"category_name":"Rock Gypsum","category":27,"distinct_rating":7.61,"distinct_type":"Top","item_type":"Foil","rt":2287,"stimulus":"Stimuli_Rocks480/S_Rock Gypsum_04.png","response":"a","trial_type":"image-keyboard-response","trial_index":139,"plugin_version":"2.1.0","time_elapsed":352572,"subject_id":"89118","group":"Group2","full_date":"2025-11-10T17:17:05.763Z","date":"2025-11-10","time":"17:17:05","cor_ans":true},{"trial_type":"html-keyboard-response","rt":null,"stimulus":"<p style=\"color: green; font-size: 50px; font-weight: bold;\">Correct</p>","response":null,"trial_index":140,"plugin_version":"2.1.0","time_elapsed":353073,"subject_id":"89118","group":"Group2","full_date":"2025-11-10T17:17:05.763Z","date":"2025-11-10","time":"17:17:05"},{"correct_response":"a","task":"test_phase","broad_category":"I","image_png":"I_Pegmatite_16.png","image_id":112,"category_name":"Pegmatite","category":7,"distinct_rating":7.03,"distinct_type":"Top","item_type":"Foil","rt":1263,"stimulus":"Stimuli_Rocks480/I_Pegmatite_16.png","response":"a","trial_type":"image-keyboard-response","trial_index":141,"plugin_version":"2.1.0","time_elapsed":354338,"subject_id":"89118","group":"Group2","full_date":"2025-11-10T17:17:05.763Z","date":"2025-11-10","time":"17:17:05","cor_ans":true},{"trial_type":"html-keyboard-response","rt":null,"stimulus":"<p style=\"color: green; font-size: 50px; font-weight: bold;\">Correct</p>","response":null,"trial_index":142,"plugin_version":"2.1.0","time_elapsed":354839,"subject_id":"89118","group":"Group2","full_date":"2025-11-10T17:17:05.763Z","date":"2025-11-10","time":"17:17:05"},{"correct_response":"l","task":"test_phase","broad_category":"I","image_png":"I_Pegmatite_11.png","image_id":107,"category_name":"Pegmatite","category":7,"distinct_rating":7.11,"distinct_type":"Top","item_type":"Target","rt":681,"stimulus":"Stimuli_Rocks480/I_Pegmatite_11.png","response":"l","trial_type":"image-keyboard-response","trial_index":143,"plugin_version":"2.1.0","time_elapsed":355522,"subject_id":"89118","group":"Group2","full_date":"2025-11-10T17:17:05.763Z","date":"2025-11-10","time":"17:17:05","cor_ans":true},{"trial_type":"html-keyboard-response","rt":null,"stimulus":"<p style=\"color: green; font-size: 50px; font-weight: bold;\">Correct</p>","response":null,"trial_index":144,"plugin_version":"2.1.0","time_elapsed":356023,"subject_id":"89118","group":"Group2","full_date":"2025-11-10T17:17:05.763Z","date":"2025-11-10","time":"17:17:05"},{"correct_response":"l","task":"test_phase","broad_category":"M","image_png":"M_Marble_14.png","image_id":238,"category_name":"Marble","category":15,"distinct_rating":3.31,"distinct_type":"Bottom","item_type":"Target","rt":1041,"stimulus":"Stimuli_Rocks480/M_Marble_14.png","response":"l","trial_type":"image-keyboard-response","trial_index":145,"plugin_version":"2.1.0","time_elapsed":357066,"subject_id":"89118","group":"Group2","full_date":"2025-11-10T17:17:05.763Z","date":"2025-11-10","time":"17:17:05","cor_ans":true},{"trial_type":"html-keyboard-response","rt":null,"stimulus":"<p style=\"color: green; font-size: 50px; font-weight: bold;\">Correct</p>","response":null,"trial_index":146,"plugin_version":"2.1.0","time_elapsed":357568,"subject_id":"89118","group":"Group2","full_date":"2025-11-10T17:17:05.763Z","date":"2025-11-10","time":"17:17:05"},{"correct_response":"l","task":"test_phase","broad_category":"I","image_png":"I_Obsidian_06.png","image_id":86,"category_name":"Obsidian","category":6,"distinct_rating":8.01,"distinct_type":"Top","item_type":"Target","rt":916,"stimulus":"Stimuli_Rocks480/I_Obsidian_06.png","response":"l","trial_type":"image-keyboard-response","trial_index":147,"plugin_version":"2.1.0","time_elapsed":358485,"subject_id":"89118","group":"Group2","full_date":"2025-11-10T17:17:05.763Z","date":"2025-11-10","time":"17:17:05","cor_ans":true},{"trial_type":"html-keyboard-response","rt":null,"stimulus":"<p style=\"color: green; font-size: 50px; font-weight: bold;\">Correct</p>","response":null,"trial_index":148,"plugin_version":"2.1.0","time_elapsed":358987,"subject_id":"89118","group":"Group2","full_date":"2025-11-10T17:17:05.763Z","date":"2025-11-10","time":"17:17:05"},{"correct_response":"l","task":"test_phase","broad_category":"I","image_png":"I_Pumice_01.png","image_id":129,"category_name":"Pumice","category":9,"distinct_rating":3.25,"distinct_type":"Bottom","item_type":"Target","rt":780,"stimulus":"Stimuli_Rocks480/I_Pumice_01.png","response":"a","trial_type":"image-keyboard-response","trial_index":149,"plugin_version":"2.1.0","time_elapsed":359769,"subject_id":"89118","group":"Group2","full_date":"2025-11-10T17:17:05.763Z","date":"2025-11-10","time":"17:17:05","cor_ans":false},{"trial_type":"html-keyboard-response","rt":null,"stimulus":"<p style=\"color: red; font-size: 50px; font-weight: bold;\">Incorrect</p>","response":null,"trial_index":150,"plugin_version":"2.1.0","time_elapsed":360270,"subject_id":"89118","group":"Group2","full_date":"2025-11-10T17:17:05.763Z","date":"2025-11-10","time":"17:17:05"},{"correct_response":"l","task":"test_phase","broad_category":"S","image_png":"S_Dolomite_07.png","image_id":391,"category_name":"Dolomite","category":25,"distinct_rating":1.73,"distinct_type":"Bottom","item_type":"Target","rt":1324,"stimulus":"Stimuli_Rocks480/S_Dolomite_07.png","response":"a","trial_type":"image-keyboard-response","trial_index":151,"plugin_version":"2.1.0","time_elapsed":361596,"subject_id":"89118","group":"Group2","full_date":"2025-11-10T17:17:05.763Z","date":"2025-11-10","time":"17:17:05","cor_ans":false},{"trial_type":"html-keyboard-response","rt":null,"stimulus":"<p style=\"color: red; font-size: 50px; font-weight: bold;\">Incorrect</p>","response":null,"trial_index":152,"plugin_version":"2.1.0","time_elapsed":362098,"subject_id":"89118","group":"Group2","full_date":"2025-11-10T17:17:05.763Z","date":"2025-11-10","time":"17:17:05"},{"correct_response":"l","task":"test_phase","broad_category":"S","image_png":"S_Rock Salt_15.png","image_id":447,"category_name":"Rock Salt","category":28,"distinct_rating":7.79,"distinct_type":"Top","item_type":"Target","rt":644,"stimulus":"Stimuli_Rocks480/S_Rock Salt_15.png","response":"l","trial_type":"image-keyboard-response","trial_index":153,"plugin_version":"2.1.0","time_elapsed":362743,"subject_id":"89118","group":"Group2","full_date":"2025-11-10T17:17:05.763Z","date":"2025-11-10","time":"17:17:05","cor_ans":true},{"trial_type":"html-keyboard-response","rt":null,"stimulus":"<p style=\"color: green; font-size: 50px; font-weight: bold;\">Correct</p>","response":null,"trial_index":154,"plugin_version":"2.1.0","time_elapsed":363245,"subject_id":"89118","group":"Group2","full_date":"2025-11-10T17:17:05.763Z","date":"2025-11-10","time":"17:17:05"},{"correct_response":"a","task":"test_phase","broad_category":"I","image_png":"I_Rhyolite_11.png","image_id":155,"category_name":"Rhyolite","category":10,"distinct_rating":1.73,"distinct_type":"Bottom","item_type":"Foil","rt":825,"stimulus":"Stimuli_Rocks480/I_Rhyolite_11.png","response":"l","trial_type":"image-keyboard-response","trial_index":155,"plugin_version":"2.1.0","time_elapsed":364072,"subject_id":"89118","group":"Group2","full_date":"2025-11-10T17:17:05.763Z","date":"2025-11-10","time":"17:17:05","cor_ans":false},{"trial_type":"html-keyboard-response","rt":null,"stimulus":"<p style=\"color: red; font-size: 50px; font-weight: bold;\">Incorrect</p>","response":null,"trial_index":156,"plugin_version":"2.1.0","time_elapsed":364574,"subject_id":"89118","group":"Group2","full_date":"2025-11-10T17:17:05.763Z","date":"2025-11-10","time":"17:17:05"},{"correct_response":"a","task":"test_phase","broad_category":"S","image_png":"S_Breccia_11.png","image_id":347,"category_name":"Breccia","category":22,"distinct_rating":6.7,"distinct_type":"Top","item_type":"Foil","rt":917,"stimulus":"Stimuli_Rocks480/S_Breccia_11.png","response":"a","trial_type":"image-keyboard-response","trial_index":157,"plugin_version":"2.1.0","time_elapsed":365492,"subject_id":"89118","group":"Group2","full_date":"2025-11-10T17:17:05.763Z","date":"2025-11-10","time":"17:17:05","cor_ans":true},{"trial_type":"html-keyboard-response","rt":null,"stimulus":"<p style=\"color: green; font-size: 50px; font-weight: bold;\">Correct</p>","response":null,"trial_index":158,"plugin_version":"2.1.0","time_elapsed":365994,"subject_id":"89118","group":"Group2","full_date":"2025-11-10T17:17:05.763Z","date":"2025-11-10","time":"17:17:05"},{"correct_response":"a","task":"test_phase","broad_category":"M","image_png":"M_Marble_04.png","image_id":228,"category_name":"Marble","category":15,"distinct_rating":3.15,"distinct_type":"Bottom","item_type":"Foil","rt":1466,"stimulus":"Stimuli_Rocks480/M_Marble_04.png","response":"l","trial_type":"image-keyboard-response","trial_index":159,"plugin_version":"2.1.0","time_elapsed":367462,"subject_id":"89118","group":"Group2","full_date":"2025-11-10T17:17:05.763Z","date":"2025-11-10","time":"17:17:05","cor_ans":false},{"trial_type":"html-keyboard-response","rt":null,"stimulus":"<p style=\"color: red; font-size: 50px; font-weight: bold;\">Incorrect</p>","response":null,"trial_index":160,"plugin_version":"2.1.0","time_elapsed":367963,"subject_id":"89118","group":"Group2","full_date":"2025-11-10T17:17:05.763Z","date":"2025-11-10","time":"17:17:05"},{"correct_response":"a","task":"test_phase","broad_category":"M","image_png":"M_Marble_06.png","image_id":230,"category_name":"Marble","category":15,"distinct_rating":3.4,"distinct_type":"Bottom","item_type":"Foil","rt":1006,"stimulus":"Stimuli_Rocks480/M_Marble_06.png","response":"a","trial_type":"image-keyboard-response","trial_index":161,"plugin_version":"2.1.0","time_elapsed":368970,"subject_id":"89118","group":"Group2","full_date":"2025-11-10T17:17:05.763Z","date":"2025-11-10","time":"17:17:05","cor_ans":true},{"trial_type":"html-keyboard-response","rt":null,"stimulus":"<p style=\"color: green; font-size: 50px; font-weight: bold;\">Correct</p>","response":null,"trial_index":162,"plugin_version":"2.1.0","time_elapsed":369471,"subject_id":"89118","group":"Group2","full_date":"2025-11-10T17:17:05.763Z","date":"2025-11-10","time":"17:17:05"},{"correct_response":"l","task":"test_phase","broad_category":"M","image_png":"M_Phyllite_13.png","image_id":269,"category_name":"Phyllite","category":17,"distinct_rating":2.8,"distinct_type":"Bottom","item_type":"Target","rt":1144,"stimulus":"Stimuli_Rocks480/M_Phyllite_13.png","response":"l","trial_type":"image-keyboard-response","trial_index":163,"plugin_version":"2.1.0","time_elapsed":370618,"subject_id":"89118","group":"Group2","full_date":"2025-11-10T17:17:05.763Z","date":"2025-11-10","time":"17:17:05","cor_ans":true},{"trial_type":"html-keyboard-response","rt":null,"stimulus":"<p style=\"color: green; font-size: 50px; font-weight: bold;\">Correct</p>","response":null,"trial_index":164,"plugin_version":"2.1.0","time_elapsed":371119,"subject_id":"89118","group":"Group2","full_date":"2025-11-10T17:17:05.763Z","date":"2025-11-10","time":"17:17:05"},{"correct_response":"l","task":"test_phase","broad_category":"I","image_png":"I_Diorite_01.png","image_id":33,"category_name":"Diorite","category":3,"distinct_rating":2.97,"distinct_type":"Bottom","item_type":"Target","rt":968,"stimulus":"Stimuli_Rocks480/I_Diorite_01.png","response":"a","trial_type":"image-keyboard-response","trial_index":165,"plugin_version":"2.1.0","time_elapsed":372089,"subject_id":"89118","group":"Group2","full_date":"2025-11-10T17:17:05.763Z","date":"2025-11-10","time":"17:17:05","cor_ans":false},{"trial_type":"html-keyboard-response","rt":null,"stimulus":"<p style=\"color: red; font-size: 50px; font-weight: bold;\">Incorrect</p>","response":null,"trial_index":166,"plugin_version":"2.1.0","time_elapsed":372591,"subject_id":"89118","group":"Group2","full_date":"2025-11-10T17:17:05.763Z","date":"2025-11-10","time":"17:17:05"},{"correct_response":"a","task":"test_phase","broad_category":"M","image_png":"M_Quartzite_13.png","image_id":285,"category_name":"Quartzite","category":18,"distinct_rating":2.27,"distinct_type":"Bottom","item_type":"Foil","rt":680,"stimulus":"Stimuli_Rocks480/M_Quartzite_13.png","response":"l","trial_type":"image-keyboard-response","trial_index":167,"plugin_version":"2.1.0","time_elapsed":373278,"subject_id":"89118","group":"Group2","full_date":"2025-11-10T17:17:05.763Z","date":"2025-11-10","time":"17:17:05","cor_ans":false},{"trial_type":"html-keyboard-response","rt":null,"stimulus":"<p style=\"color: red; font-size: 50px; font-weight: bold;\">Incorrect</p>","response":null,"trial_index":168,"plugin_version":"2.1.0","time_elapsed":373780,"subject_id":"89118","group":"Group2","full_date":"2025-11-10T17:17:05.763Z","date":"2025-11-10","time":"17:17:05"},{"correct_response":"l","task":"test_phase","broad_category":"I","image_png":"I_Basalt_08.png","image_id":24,"category_name":"Basalt","category":2,"distinct_rating":2.31,"distinct_type":"Bottom","item_type":"Target","rt":828,"stimulus":"Stimuli_Rocks480/I_Basalt_08.png","response":"a","trial_type":"image-keyboard-response","trial_index":169,"plugin_version":"2.1.0","time_elapsed":374609,"subject_id":"89118","group":"Group2","full_date":"2025-11-10T17:17:05.763Z","date":"2025-11-10","time":"17:17:05","cor_ans":false},{"trial_type":"html-keyboard-response","rt":null,"stimulus":"<p style=\"color: red; font-size: 50px; font-weight: bold;\">Incorrect</p>","response":null,"trial_index":170,"plugin_version":"2.1.0","time_elapsed":375110,"subject_id":"89118","group":"Group2","full_date":"2025-11-10T17:17:05.763Z","date":"2025-11-10","time":"17:17:05"},{"correct_response":"l","task":"test_phase","broad_category":"I","image_png":"I_Peridotite_13.png","image_id":125,"category_name":"Peridotite","category":8,"distinct_rating":7.28,"distinct_type":"Top","item_type":"Target","rt":964,"stimulus":"Stimuli_Rocks480/I_Peridotite_13.png","response":"a","trial_type":"image-keyboard-response","trial_index":171,"plugin_version":"2.1.0","time_elapsed":376076,"subject_id":"89118","group":"Group2","full_date":"2025-11-10T17:17:05.763Z","date":"2025-11-10","time":"17:17:05","cor_ans":false},{"trial_type":"html-keyboard-response","rt":null,"stimulus":"<p style=\"color: red; font-size: 50px; font-weight: bold;\">Incorrect</p>","response":null,"trial_index":172,"plugin_version":"2.1.0","time_elapsed":376577,"subject_id":"89118","group":"Group2","full_date":"2025-11-10T17:17:05.763Z","date":"2025-11-10","time":"17:17:05"},{"correct_response":"l","task":"test_phase","broad_category":"I","image_png":"I_Pumice_14.png","image_id":142,"category_name":"Pumice","category":9,"distinct_rating":3.22,"distinct_type":"Bottom","item_type":"Target","rt":1038,"stimulus":"Stimuli_Rocks480/I_Pumice_14.png","response":"l","trial_type":"image-keyboard-response","trial_index":173,"plugin_version":"2.1.0","time_elapsed":377617,"subject_id":"89118","group":"Group2","full_date":"2025-11-10T17:17:05.763Z","date":"2025-11-10","time":"17:17:05","cor_ans":true},{"trial_type":"html-keyboard-response","rt":null,"stimulus":"<p style=\"color: green; font-size: 50px; font-weight: bold;\">Correct</p>","response":null,"trial_index":174,"plugin_version":"2.1.0","time_elapsed":378118,"subject_id":"89118","group":"Group2","full_date":"2025-11-10T17:17:05.763Z","date":"2025-11-10","time":"17:17:05"},{"correct_response":"l","task":"test_phase","broad_category":"M","image_png":"M_Phyllite_02.png","image_id":258,"category_name":"Phyllite","category":17,"distinct_rating":2.89,"distinct_type":"Bottom","item_type":"Target","rt":1240,"stimulus":"Stimuli_Rocks480/M_Phyllite_02.png","response":"l","trial_type":"image-keyboard-response","trial_index":175,"plugin_version":"2.1.0","time_elapsed":379360,"subject_id":"89118","group":"Group2","full_date":"2025-11-10T17:17:05.763Z","date":"2025-11-10","time":"17:17:05","cor_ans":true},{"trial_type":"html-keyboard-response","rt":null,"stimulus":"<p style=\"color: green; font-size: 50px; font-weight: bold;\">Correct</p>","response":null,"trial_index":176,"plugin_version":"2.1.0","time_elapsed":379861,"subject_id":"89118","group":"Group2","full_date":"2025-11-10T17:17:05.763Z","date":"2025-11-10","time":"17:17:05"},{"correct_response":"l","task":"test_phase","broad_category":"I","image_png":"I_Diorite_10.png","image_id":42,"category_name":"Diorite","category":3,"distinct_rating":2.84,"distinct_type":"Bottom","item_type":"Target","rt":1722,"stimulus":"Stimuli_Rocks480/I_Diorite_10.png","response":"l","trial_type":"image-keyboard-response","trial_index":177,"plugin_version":"2.1.0","time_elapsed":381585,"subject_id":"89118","group":"Group2","full_date":"2025-11-10T17:17:05.763Z","date":"2025-11-10","time":"17:17:05","cor_ans":true},{"trial_type":"html-keyboard-response","rt":null,"stimulus":"<p style=\"color: green; font-size: 50px; font-weight: bold;\">Correct</p>","response":null,"trial_index":178,"plugin_version":"2.1.0","time_elapsed":382087,"subject_id":"89118","group":"Group2","full_date":"2025-11-10T17:17:05.763Z","date":"2025-11-10","time":"17:17:05"},{"correct_response":"l","task":"test_phase","broad_category":"I","image_png":"I_Basalt_10.png","image_id":26,"category_name":"Basalt","category":2,"distinct_rating":2.76,"distinct_type":"Bottom","item_type":"Target","rt":2230,"stimulus":"Stimuli_Rocks480/I_Basalt_10.png","response":"l","trial_type":"image-keyboard-response","trial_index":179,"plugin_version":"2.1.0","time_elapsed":384319,"subject_id":"89118","group":"Group2","full_date":"2025-11-10T17:17:05.763Z","date":"2025-11-10","time":"17:17:05","cor_ans":true},{"trial_type":"html-keyboard-response","rt":null,"stimulus":"<p style=\"color: green; font-size: 50px; font-weight: bold;\">Correct</p>","response":null,"trial_index":180,"plugin_version":"2.1.0","time_elapsed":384820,"subject_id":"89118","group":"Group2","full_date":"2025-11-10T17:17:05.763Z","date":"2025-11-10","time":"17:17:05"},{"correct_response":"l","task":"test_phase","broad_category":"M","image_png":"M_Gneiss_15.png","image_id":207,"category_name":"Gneiss","category":13,"distinct_rating":3.11,"distinct_type":"Bottom","item_type":"Target","rt":882,"stimulus":"Stimuli_Rocks480/M_Gneiss_15.png","response":"l","trial_type":"image-keyboard-response","trial_index":181,"plugin_version":"2.1.0","time_elapsed":385704,"subject_id":"89118","group":"Group2","full_date":"2025-11-10T17:17:05.763Z","date":"2025-11-10","time":"17:17:05","cor_ans":true},{"trial_type":"html-keyboard-response","rt":null,"stimulus":"<p style=\"color: green; font-size: 50px; font-weight: bold;\">Correct</p>","response":null,"trial_index":182,"plugin_version":"2.1.0","time_elapsed":386205,"subject_id":"89118","group":"Group2","full_date":"2025-11-10T17:17:05.763Z","date":"2025-11-10","time":"17:17:05"},{"correct_response":"a","task":"test_phase","broad_category":"M","image_png":"M_Quartzite_05.png","image_id":277,"category_name":"Quartzite","category":18,"distinct_rating":2.23,"distinct_type":"Bottom","item_type":"Foil","rt":986,"stimulus":"Stimuli_Rocks480/M_Quartzite_05.png","response":"l","trial_type":"image-keyboard-response","trial_index":183,"plugin_version":"2.1.0","time_elapsed":387193,"subject_id":"89118","group":"Group2","full_date":"2025-11-10T17:17:05.763Z","date":"2025-11-10","time":"17:17:05","cor_ans":false},{"trial_type":"html-keyboard-response","rt":null,"stimulus":"<p style=\"color: red; font-size: 50px; font-weight: bold;\">Incorrect</p>","response":null,"trial_index":184,"plugin_version":"2.1.0","time_elapsed":387695,"subject_id":"89118","group":"Group2","full_date":"2025-11-10T17:17:05.763Z","date":"2025-11-10","time":"17:17:05"},{"correct_response":"a","task":"test_phase","broad_category":"M","image_png":"M_Phyllite_07.png","image_id":263,"category_name":"Phyllite","category":17,"distinct_rating":2.59,"distinct_type":"Bottom","item_type":"Foil","rt":645,"stimulus":"Stimuli_Rocks480/M_Phyllite_07.png","response":"l","trial_type":"image-keyboard-response","trial_index":185,"plugin_version":"2.1.0","time_elapsed":388341,"subject_id":"89118","group":"Group2","full_date":"2025-11-10T17:17:05.763Z","date":"2025-11-10","time":"17:17:05","cor_ans":false},{"trial_type":"html-keyboard-response","rt":null,"stimulus":"<p style=\"color: red; font-size: 50px; font-weight: bold;\">Incorrect</p>","response":null,"trial_index":186,"plugin_version":"2.1.0","time_elapsed":388842,"subject_id":"89118","group":"Group2","full_date":"2025-11-10T17:17:05.763Z","date":"2025-11-10","time":"17:17:05"},{"correct_response":"l","task":"test_phase","broad_category":"M","image_png":"M_Gneiss_14.png","image_id":206,"category_name":"Gneiss","category":13,"distinct_rating":3.41,"distinct_type":"Bottom","item_type":"Target","rt":640,"stimulus":"Stimuli_Rocks480/M_Gneiss_14.png","response":"l","trial_type":"image-keyboard-response","trial_index":187,"plugin_version":"2.1.0","time_elapsed":389485,"subject_id":"89118","group":"Group2","full_date":"2025-11-10T17:17:05.763Z","date":"2025-11-10","time":"17:17:05","cor_ans":true},{"trial_type":"html-keyboard-response","rt":null,"stimulus":"<p style=\"color: green; font-size: 50px; font-weight: bold;\">Correct</p>","response":null,"trial_index":188,"plugin_version":"2.1.0","time_elapsed":389987,"subject_id":"89118","group":"Group2","full_date":"2025-11-10T17:17:05.763Z","date":"2025-11-10","time":"17:17:05"},{"correct_response":"a","task":"test_phase","broad_category":"M","image_png":"M_Slate_15.png","image_id":319,"category_name":"Slate","category":20,"distinct_rating":2.13,"distinct_type":"Bottom","item_type":"Foil","rt":1014,"stimulus":"Stimuli_Rocks480/M_Slate_15.png","response":"l","trial_type":"image-keyboard-response","trial_index":189,"plugin_version":"2.1.0","time_elapsed":391002,"subject_id":"89118","group":"Group2","full_date":"2025-11-10T17:17:05.763Z","date":"2025-11-10","time":"17:17:05","cor_ans":false},{"trial_type":"html-keyboard-response","rt":null,"stimulus":"<p style=\"color: red; font-size: 50px; font-weight: bold;\">Incorrect</p>","response":null,"trial_index":190,"plugin_version":"2.1.0","time_elapsed":391503,"subject_id":"89118","group":"Group2","full_date":"2025-11-10T17:17:05.763Z","date":"2025-11-10","time":"17:17:05"},{"correct_response":"a","task":"test_phase","broad_category":"I","image_png":"I_Pumice_08.png","image_id":136,"category_name":"Pumice","category":9,"distinct_rating":3.1,"distinct_type":"Bottom","item_type":"Foil","rt":889,"stimulus":"Stimuli_Rocks480/I_Pumice_08.png","response":"a","trial_type":"image-keyboard-response","trial_index":191,"plugin_version":"2.1.0","time_elapsed":392395,"subject_id":"89118","group":"Group2","full_date":"2025-11-10T17:17:05.763Z","date":"2025-11-10","time":"17:17:05","cor_ans":true},{"trial_type":"html-keyboard-response","rt":null,"stimulus":"<p style=\"color: green; font-size: 50px; font-weight: bold;\">Correct</p>","response":null,"trial_index":192,"plugin_version":"2.1.0","time_elapsed":392896,"subject_id":"89118","group":"Group2","full_date":"2025-11-10T17:17:05.763Z","date":"2025-11-10","time":"17:17:05"},{"correct_response":"l","task":"test_phase","broad_category":"I","image_png":"I_Gabbro_02.png","image_id":50,"category_name":"Gabbro","category":4,"distinct_rating":2.73,"distinct_type":"Bottom","item_type":"Target","rt":1665,"stimulus":"Stimuli_Rocks480/I_Gabbro_02.png","response":"a","trial_type":"image-keyboard-response","trial_index":193,"plugin_version":"2.1.0","time_elapsed":394563,"subject_id":"89118","group":"Group2","full_date":"2025-11-10T17:17:05.763Z","date":"2025-11-10","time":"17:17:05","cor_ans":false},{"trial_type":"html-keyboard-response","rt":null,"stimulus":"<p style=\"color: red; font-size: 50px; font-weight: bold;\">Incorrect</p>","response":null,"trial_index":194,"plugin_version":"2.1.0","time_elapsed":395064,"subject_id":"89118","group":"Group2","full_date":"2025-11-10T17:17:05.763Z","date":"2025-11-10","time":"17:17:05"},{"correct_response":"a","task":"test_phase","broad_category":"M","image_png":"M_Slate_11.png","image_id":315,"category_name":"Slate","category":20,"distinct_rating":2.75,"distinct_type":"Bottom","item_type":"Foil","rt":1727,"stimulus":"Stimuli_Rocks480/M_Slate_11.png","response":"a","trial_type":"image-keyboard-response","trial_index":195,"plugin_version":"2.1.0","time_elapsed":396792,"subject_id":"89118","group":"Group2","full_date":"2025-11-10T17:17:05.763Z","date":"2025-11-10","time":"17:17:05","cor_ans":true},{"trial_type":"html-keyboard-response","rt":null,"stimulus":"<p style=\"color: green; font-size: 50px; font-weight: bold;\">Correct</p>","response":null,"trial_index":196,"plugin_version":"2.1.0","time_elapsed":397295,"subject_id":"89118","group":"Group2","full_date":"2025-11-10T17:17:05.763Z","date":"2025-11-10","time":"17:17:05"},{"correct_response":"l","task":"test_phase","broad_category":"M","image_png":"M_Slate_04.png","image_id":308,"category_name":"Slate","category":20,"distinct_rating":2.2,"distinct_type":"Bottom","item_type":"Target","rt":13307,"stimulus":"Stimuli_Rocks480/M_Slate_04.png","response":"l","trial_type":"image-keyboard-response","trial_index":197,"plugin_version":"2.1.0","time_elapsed":410603,"subject_id":"89118","group":"Group2","full_date":"2025-11-10T17:17:05.763Z","date":"2025-11-10","time":"17:17:05","cor_ans":true},{"trial_type":"html-keyboard-response","rt":null,"stimulus":"<p style=\"color: green; font-size: 50px; font-weight: bold;\">Correct</p>","response":null,"trial_index":198,"plugin_version":"2.1.0","time_elapsed":411105,"subject_id":"89118","group":"Group2","full_date":"2025-11-10T17:17:05.763Z","date":"2025-11-10","time":"17:17:05"},{"correct_response":"l","task":"test_phase","broad_category":"M","image_png":"M_Phyllite_05.png","image_id":261,"category_name":"Phyllite","category":17,"distinct_rating":2.14,"distinct_type":"Bottom","item_type":"Target","rt":1125,"stimulus":"Stimuli_Rocks480/M_Phyllite_05.png","response":"a","trial_type":"image-keyboard-response","trial_index":199,"plugin_version":"2.1.0","time_elapsed":412232,"subject_id":"89118","group":"Group2","full_date":"2025-11-10T17:17:05.763Z","date":"2025-11-10","time":"17:17:05","cor_ans":false},{"trial_type":"html-keyboard-response","rt":null,"stimulus":"<p style=\"color: red; font-size: 50px; font-weight: bold;\">Incorrect</p>","response":null,"trial_index":200,"plugin_version":"2.1.0","time_elapsed":412733,"subject_id":"89118","group":"Group2","full_date":"2025-11-10T17:17:05.763Z","date":"2025-11-10","time":"17:17:05"},{"correct_response":"a","task":"test_phase","broad_category":"I","image_png":"I_Andesite_08.png","image_id":8,"category_name":"Andesite","category":1,"distinct_rating":1.95,"distinct_type":"Bottom","item_type":"Foil","rt":883,"stimulus":"Stimuli_Rocks480/I_Andesite_08.png","response":"l","trial_type":"image-keyboard-response","trial_index":201,"plugin_version":"2.1.0","time_elapsed":413618,"subject_id":"89118","group":"Group2","full_date":"2025-11-10T17:17:05.763Z","date":"2025-11-10","time":"17:17:05","cor_ans":false},{"trial_type":"html-keyboard-response","rt":null,"stimulus":"<p style=\"color: red; font-size: 50px; font-weight: bold;\">Incorrect</p>","response":null,"trial_index":202,"plugin_version":"2.1.0","time_elapsed":414120,"subject_id":"89118","group":"Group2","full_date":"2025-11-10T17:17:05.763Z","date":"2025-11-10","time":"17:17:05"},{"correct_response":"l","task":"test_phase","broad_category":"I","image_png":"I_Rhyolite_10.png","image_id":154,"category_name":"Rhyolite","category":10,"distinct_rating":2.88,"distinct_type":"Bottom","item_type":"Target","rt":1385,"stimulus":"Stimuli_Rocks480/I_Rhyolite_10.png","response":"a","trial_type":"image-keyboard-response","trial_index":203,"plugin_version":"2.1.0","time_elapsed":415507,"subject_id":"89118","group":"Group2","full_date":"2025-11-10T17:17:05.763Z","date":"2025-11-10","time":"17:17:05","cor_ans":false},{"trial_type":"html-keyboard-response","rt":null,"stimulus":"<p style=\"color: red; font-size: 50px; font-weight: bold;\">Incorrect</p>","response":null,"trial_index":204,"plugin_version":"2.1.0","time_elapsed":416008,"subject_id":"89118","group":"Group2","full_date":"2025-11-10T17:17:05.763Z","date":"2025-11-10","time":"17:17:05"},{"correct_response":"a","task":"test_phase","broad_category":"S","image_png":"S_Dolomite_13.png","image_id":397,"category_name":"Dolomite","category":25,"distinct_rating":1.77,"distinct_type":"Bottom","item_type":"Foil","rt":881,"stimulus":"Stimuli_Rocks480/S_Dolomite_13.png","response":"l","trial_type":"image-keyboard-response","trial_index":205,"plugin_version":"2.1.0","time_elapsed":416891,"subject_id":"89118","group":"Group2","full_date":"2025-11-10T17:17:05.763Z","date":"2025-11-10","time":"17:17:05","cor_ans":false},{"trial_type":"html-keyboard-response","rt":null,"stimulus":"<p style=\"color: red; font-size: 50px; font-weight: bold;\">Incorrect</p>","response":null,"trial_index":206,"plugin_version":"2.1.0","time_elapsed":417392,"subject_id":"89118","group":"Group2","full_date":"2025-11-10T17:17:05.763Z","date":"2025-11-10","time":"17:17:05"},{"correct_response":"l","task":"test_phase","broad_category":"S","image_png":"S_Sandstone_04.png","image_id":452,"category_name":"Sandstone","category":29,"distinct_rating":1.8,"distinct_type":"Bottom","item_type":"Target","rt":2630,"stimulus":"Stimuli_Rocks480/S_Sandstone_04.png","response":"a","trial_type":"image-keyboard-response","trial_index":207,"plugin_version":"2.1.0","time_elapsed":420023,"subject_id":"89118","group":"Group2","full_date":"2025-11-10T17:17:05.763Z","date":"2025-11-10","time":"17:17:05","cor_ans":false},{"trial_type":"html-keyboard-response","rt":null,"stimulus":"<p style=\"color: red; font-size: 50px; font-weight: bold;\">Incorrect</p>","response":null,"trial_index":208,"plugin_version":"2.1.0","time_elapsed":420525,"subject_id":"89118","group":"Group2","full_date":"2025-11-10T17:17:05.763Z","date":"2025-11-10","time":"17:17:05"},{"correct_response":"l","task":"test_phase","broad_category":"I","image_png":"I_Gabbro_14.png","image_id":62,"category_name":"Gabbro","category":4,"distinct_rating":2.95,"distinct_type":"Bottom","item_type":"Target","rt":594,"stimulus":"Stimuli_Rocks480/I_Gabbro_14.png","response":"a","trial_type":"image-keyboard-response","trial_index":209,"plugin_version":"2.1.0","time_elapsed":421120,"subject_id":"89118","group":"Group2","full_date":"2025-11-10T17:17:05.763Z","date":"2025-11-10","time":"17:17:05","cor_ans":false},{"trial_type":"html-keyboard-response","rt":null,"stimulus":"<p style=\"color: red; font-size: 50px; font-weight: bold;\">Incorrect</p>","response":null,"trial_index":210,"plugin_version":"2.1.0","time_elapsed":421622,"subject_id":"89118","group":"Group2","full_date":"2025-11-10T17:17:05.763Z","date":"2025-11-10","time":"17:17:05"},{"correct_response":"l","task":"test_phase","broad_category":"I","image_png":"I_Gabbro_12.png","image_id":60,"category_name":"Gabbro","category":4,"distinct_rating":2.6,"distinct_type":"Bottom","item_type":"Target","rt":867,"stimulus":"Stimuli_Rocks480/I_Gabbro_12.png","response":"a","trial_type":"image-keyboard-response","trial_index":211,"plugin_version":"2.1.0","time_elapsed":422490,"subject_id":"89118","group":"Group2","full_date":"2025-11-10T17:17:05.763Z","date":"2025-11-10","time":"17:17:05","cor_ans":false},{"trial_type":"html-keyboard-response","rt":null,"stimulus":"<p style=\"color: red; font-size: 50px; font-weight: bold;\">Incorrect</p>","response":null,"trial_index":212,"plugin_version":"2.1.0","time_elapsed":422991,"subject_id":"89118","group":"Group2","full_date":"2025-11-10T17:17:05.763Z","date":"2025-11-10","time":"17:17:05"},{"correct_response":"l","task":"test_phase","broad_category":"M","image_png":"M_Marble_02.png","image_id":226,"category_name":"Marble","category":15,"distinct_rating":3.2,"distinct_type":"Bottom","item_type":"Target","rt":822,"stimulus":"Stimuli_Rocks480/M_Marble_02.png","response":"l","trial_type":"image-keyboard-response","trial_index":213,"plugin_version":"2.1.0","time_elapsed":423815,"subject_id":"89118","group":"Group2","full_date":"2025-11-10T17:17:05.763Z","date":"2025-11-10","time":"17:17:05","cor_ans":true},{"trial_type":"html-keyboard-response","rt":null,"stimulus":"<p style=\"color: green; font-size: 50px; font-weight: bold;\">Correct</p>","response":null,"trial_index":214,"plugin_version":"2.1.0","time_elapsed":424317,"subject_id":"89118","group":"Group2","full_date":"2025-11-10T17:17:05.763Z","date":"2025-11-10","time":"17:17:05"},{"correct_response":"l","task":"test_phase","broad_category":"I","image_png":"I_Rhyolite_05.png","image_id":149,"category_name":"Rhyolite","category":10,"distinct_rating":3.02,"distinct_type":"Bottom","item_type":"Target","rt":569,"stimulus":"Stimuli_Rocks480/I_Rhyolite_05.png","response":"l","trial_type":"image-keyboard-response","trial_index":215,"plugin_version":"2.1.0","time_elapsed":424888,"subject_id":"89118","group":"Group2","full_date":"2025-11-10T17:17:05.763Z","date":"2025-11-10","time":"17:17:05","cor_ans":true},{"trial_type":"html-keyboard-response","rt":null,"stimulus":"<p style=\"color: green; font-size: 50px; font-weight: bold;\">Correct</p>","response":null,"trial_index":216,"plugin_version":"2.1.0","time_elapsed":425390,"subject_id":"89118","group":"Group2","full_date":"2025-11-10T17:17:05.763Z","date":"2025-11-10","time":"17:17:05"},{"correct_response":"a","task":"test_phase","broad_category":"M","image_png":"M_Marble_16.png","image_id":240,"category_name":"Marble","category":15,"distinct_rating":2.57,"distinct_type":"Bottom","item_type":"Foil","rt":1003,"stimulus":"Stimuli_Rocks480/M_Marble_16.png","response":"l","trial_type":"image-keyboard-response","trial_index":217,"plugin_version":"2.1.0","time_elapsed":426396,"subject_id":"89118","group":"Group2","full_date":"2025-11-10T17:17:05.763Z","date":"2025-11-10","time":"17:17:05","cor_ans":false},{"trial_type":"html-keyboard-response","rt":null,"stimulus":"<p style=\"color: red; font-size: 50px; font-weight: bold;\">Incorrect</p>","response":null,"trial_index":218,"plugin_version":"2.1.0","time_elapsed":426897,"subject_id":"89118","group":"Group2","full_date":"2025-11-10T17:17:05.763Z","date":"2025-11-10","time":"17:17:05"},{"correct_response":"l","task":"test_phase","broad_category":"M","image_png":"M_Quartzite_12.png","image_id":284,"category_name":"Quartzite","category":18,"distinct_rating":1.92,"distinct_type":"Bottom","item_type":"Target","rt":596,"stimulus":"Stimuli_Rocks480/M_Quartzite_12.png","response":"l","trial_type":"image-keyboard-response","trial_index":219,"plugin_version":"2.1.0","time_elapsed":427495,"subject_id":"89118","group":"Group2","full_date":"2025-11-10T17:17:05.763Z","date":"2025-11-10","time":"17:17:05","cor_ans":true},{"trial_type":"html-keyboard-response","rt":null,"stimulus":"<p style=\"color: green; font-size: 50px; font-weight: bold;\">Correct</p>","response":null,"trial_index":220,"plugin_version":"2.1.0","time_elapsed":427996,"subject_id":"89118","group":"Group2","full_date":"2025-11-10T17:17:05.763Z","date":"2025-11-10","time":"17:17:05"},{"correct_response":"l","task":"test_phase","broad_category":"I","image_png":"I_Pumice_13.png","image_id":141,"category_name":"Pumice","category":9,"distinct_rating":3.12,"distinct_type":"Bottom","item_type":"Target","rt":917,"stimulus":"Stimuli_Rocks480/I_Pumice_13.png","response":"a","trial_type":"image-keyboard-response","trial_index":221,"plugin_version":"2.1.0","time_elapsed":428915,"subject_id":"89118","group":"Group2","full_date":"2025-11-10T17:17:05.763Z","date":"2025-11-10","time":"17:17:05","cor_ans":false},{"trial_type":"html-keyboard-response","rt":null,"stimulus":"<p style=\"color: red; font-size: 50px; font-weight: bold;\">Incorrect</p>","response":null,"trial_index":222,"plugin_version":"2.1.0","time_elapsed":429417,"subject_id":"89118","group":"Group2","full_date":"2025-11-10T17:17:05.763Z","date":"2025-11-10","time":"17:17:05"},{"correct_response":"l","task":"test_phase","broad_category":"M","image_png":"M_Slate_14.png","image_id":318,"category_name":"Slate","category":20,"distinct_rating":2.58,"distinct_type":"Bottom","item_type":"Target","rt":1150,"stimulus":"Stimuli_Rocks480/M_Slate_14.png","response":"a","trial_type":"image-keyboard-response","trial_index":223,"plugin_version":"2.1.0","time_elapsed":430569,"subject_id":"89118","group":"Group2","full_date":"2025-11-10T17:17:05.763Z","date":"2025-11-10","time":"17:17:05","cor_ans":false},{"trial_type":"html-keyboard-response","rt":null,"stimulus":"<p style=\"color: red; font-size: 50px; font-weight: bold;\">Incorrect</p>","response":null,"trial_index":224,"plugin_version":"2.1.0","time_elapsed":431071,"subject_id":"89118","group":"Group2","full_date":"2025-11-10T17:17:05.763Z","date":"2025-11-10","time":"17:17:05"},{"correct_response":"a","task":"test_phase","broad_category":"I","image_png":"I_Rhyolite_14.png","image_id":158,"category_name":"Rhyolite","category":10,"distinct_rating":2.59,"distinct_type":"Bottom","item_type":"Foil","rt":1272,"stimulus":"Stimuli_Rocks480/I_Rhyolite_14.png","response":"l","trial_type":"image-keyboard-response","trial_index":225,"plugin_version":"2.1.0","time_elapsed":432344,"subject_id":"89118","group":"Group2","full_date":"2025-11-10T17:17:05.763Z","date":"2025-11-10","time":"17:17:05","cor_ans":false},{"trial_type":"html-keyboard-response","rt":null,"stimulus":"<p style=\"color: red; font-size: 50px; font-weight: bold;\">Incorrect</p>","response":null,"trial_index":226,"plugin_version":"2.1.0","time_elapsed":432846,"subject_id":"89118","group":"Group2","full_date":"2025-11-10T17:17:05.763Z","date":"2025-11-10","time":"17:17:05"},{"correct_response":"a","task":"test_phase","broad_category":"I","image_png":"I_Basalt_01.png","image_id":17,"category_name":"Basalt","category":2,"distinct_rating":1.92,"distinct_type":"Bottom","item_type":"Foil","rt":570,"stimulus":"Stimuli_Rocks480/I_Basalt_01.png","response":"a","trial_type":"image-keyboard-response","trial_index":227,"plugin_version":"2.1.0","time_elapsed":433418,"subject_id":"89118","group":"Group2","full_date":"2025-11-10T17:17:05.763Z","date":"2025-11-10","time":"17:17:05","cor_ans":true},{"trial_type":"html-keyboard-response","rt":null,"stimulus":"<p style=\"color: green; font-size: 50px; font-weight: bold;\">Correct</p>","response":null,"trial_index":228,"plugin_version":"2.1.0","time_elapsed":433919,"subject_id":"89118","group":"Group2","full_date":"2025-11-10T17:17:05.763Z","date":"2025-11-10","time":"17:17:05"},{"correct_response":"a","task":"test_phase","broad_category":"I","image_png":"I_Obsidian_05.png","image_id":85,"category_name":"Obsidian","category":6,"distinct_rating":7.32,"distinct_type":"Top","item_type":"Foil","rt":67,"stimulus":"Stimuli_Rocks480/I_Obsidian_05.png","response":"a","trial_type":"image-keyboard-response","trial_index":229,"plugin_version":"2.1.0","time_elapsed":433988,"subject_id":"89118","group":"Group2","full_date":"2025-11-10T17:17:05.763Z","date":"2025-11-10","time":"17:17:05","cor_ans":true},{"trial_type":"html-keyboard-response","rt":null,"stimulus":"<p style=\"color: green; font-size: 50px; font-weight: bold;\">Correct</p>","response":null,"trial_index":230,"plugin_version":"2.1.0","time_elapsed":434490,"subject_id":"89118","group":"Group2","full_date":"2025-11-10T17:17:05.763Z","date":"2025-11-10","time":"17:17:05"},{"correct_response":"a","task":"test_phase","broad_category":"I","image_png":"I_Pumice_12.png","image_id":140,"category_name":"Pumice","category":9,"distinct_rating":2.97,"distinct_type":"Bottom","item_type":"Foil","rt":1875,"stimulus":"Stimuli_Rocks480/I_Pumice_12.png","response":"a","trial_type":"image-keyboard-response","trial_index":231,"plugin_version":"2.1.0","time_elapsed":436366,"subject_id":"89118","group":"Group2","full_date":"2025-11-10T17:17:05.763Z","date":"2025-11-10","time":"17:17:05","cor_ans":true},{"trial_type":"html-keyboard-response","rt":null,"stimulus":"<p style=\"color: green; font-size: 50px; font-weight: bold;\">Correct</p>","response":null,"trial_index":232,"plugin_version":"2.1.0","time_elapsed":436867,"subject_id":"89118","group":"Group2","full_date":"2025-11-10T17:17:05.763Z","date":"2025-11-10","time":"17:17:05"},{"correct_response":"a","task":"test_phase","broad_category":"I","image_png":"I_Pumice_11.png","image_id":139,"category_name":"Pumice","category":9,"distinct_rating":1.74,"distinct_type":"Bottom","item_type":"Foil","rt":1069,"stimulus":"Stimuli_Rocks480/I_Pumice_11.png","response":"a","trial_type":"image-keyboard-response","trial_index":233,"plugin_version":"2.1.0","time_elapsed":437939,"subject_id":"89118","group":"Group2","full_date":"2025-11-10T17:17:05.763Z","date":"2025-11-10","time":"17:17:05","cor_ans":true},{"trial_type":"html-keyboard-response","rt":null,"stimulus":"<p style=\"color: green; font-size: 50px; font-weight: bold;\">Correct</p>","response":null,"trial_index":234,"plugin_version":"2.1.0","time_elapsed":438441,"subject_id":"89118","group":"Group2","full_date":"2025-11-10T17:17:05.763Z","date":"2025-11-10","time":"17:17:05"},{"correct_response":"a","task":"test_phase","broad_category":"S","image_png":"S_Sandstone_16.png","image_id":464,"category_name":"Sandstone","category":29,"distinct_rating":1.93,"distinct_type":"Bottom","item_type":"Foil","rt":3478,"stimulus":"Stimuli_Rocks480/S_Sandstone_16.png","response":"a","trial_type":"image-keyboard-response","trial_index":235,"plugin_version":"2.1.0","time_elapsed":441921,"subject_id":"89118","group":"Group2","full_date":"2025-11-10T17:17:05.763Z","date":"2025-11-10","time":"17:17:05","cor