[{"width":1440,"height":812,"webaudio":true,"browser":"chrome","browser_version":"141.0.0","mobile":false,"os":"Mac OS","fullscreen":true,"vsync_rate":60.12,"webcam":true,"microphone":true,"trial_type":"browser-check","trial_index":0,"plugin_version":"2.1.0","time_elapsed":1015,"subject_id":"86400","group":"Group1","full_date":"2025-11-10T22:42:39.509Z","date":"2025-11-10","time":"22:42:39"},{"success":true,"timeout":false,"failed_images":[],"failed_audio":[],"failed_video":[],"trial_type":"preload","trial_index":1,"plugin_version":"2.1.0","time_elapsed":3315,"subject_id":"86400","group":"Group1","full_date":"2025-11-10T22:42:39.509Z","date":"2025-11-10","time":"22:42:39"},{"rt":4491,"url":"SONA_consent_memorability.html","trial_type":"external-html","trial_index":2,"plugin_version":"2.1.0","time_elapsed":7863,"subject_id":"86400","group":"Group1","full_date":"2025-11-10T22:42:39.509Z","date":"2025-11-10","time":"22:42:39"},{"success":true,"rt":1847,"trial_type":"fullscreen","trial_index":3,"plugin_version":"2.1.0","time_elapsed":10715,"subject_id":"86400","group":"Group1","full_date":"2025-11-10T22:42:39.509Z","date":"2025-11-10","time":"22:42:39"},{"rt":993,"stimulus":"<div style=\"max-width: 760px; margin: auto; font-size: 20px; line-height: 1.5;\">\n      <h1 style=\"text-align:center; font-size: 30px;\">Instructions</h1>\n      <p>\n        Welcome to the study on <b>visual memory</b>. This experiment consists of <b>two phases</b>: \n        a <b>study phase</b> and a <b>test phase</b>.\n      </p>\n      <p>\n        In the study phase, you will see a series of rock images along with their category labels.\n        The images will appear one at a time.\n        <b>Your task</b> is to learn the categories to which the rock images belong \n        and to remember each image as accurately as possible.\n      </p> \n      <p>\n        After the study phase, <b>your memory will be tested</b>. \n        Additional instructions for the test phase will be provided at that time.\n      </p>\n      <p>\n        If your computer has multiple <b>language settings</b> (e.g., English and another language),\n        please make sure it is set to English before starting.\n      </p>\n      <p>\n        You can track your progress using the <b>completion bar</b> at the top of the screen. \n        Please note that the bar will refresh when the test phase begins \n        to give you an accurate sense of your progress in both phases.\n      </p> \n      <p>\n        Press the button below when you are ready to begin.\n      </p>\n    </div>","response":0,"trial_type":"html-button-response","trial_index":4,"plugin_version":"2.1.0","time_elapsed":11711,"subject_id":"86400","group":"Group1","full_date":"2025-11-10T22:42:39.509Z","date":"2025-11-10","time":"22:42:39"},{"rt":null,"stimulus":"<p style=\"font-size: 50px; margin: 0; text-align: center;\">+</p>","response":null,"trial_type":"html-keyboard-response","trial_index":5,"plugin_version":"2.1.0","time_elapsed":12715,"subject_id":"86400","group":"Group1","full_date":"2025-11-10T22:42:39.509Z","date":"2025-11-10","time":"22:42:39"},{"task":"memory_phase","broad_category":"I","image_png":"I_Pegmatite_16.png","image_id":112,"category_name":"Pegmatite","category":7,"distinct_rating":7.03,"distinct_type":"Top","rt":null,"stimulus":"Stimuli_Rocks480/I_Pegmatite_16.png","response":null,"trial_type":"image-keyboard-response","trial_index":6,"plugin_version":"2.1.0","time_elapsed":15221,"subject_id":"86400","group":"Group1","full_date":"2025-11-10T22:42:39.509Z","date":"2025-11-10","time":"22:42:39"},{"rt":null,"stimulus":"<p style=\"font-size: 50px; margin: 0; text-align: center;\">+</p>","response":null,"trial_type":"html-keyboard-response","trial_index":7,"plugin_version":"2.1.0","time_elapsed":16224,"subject_id":"86400","group":"Group1","full_date":"2025-11-10T22:42:39.509Z","date":"2025-11-10","time":"22:42:39"},{"task":"memory_phase","broad_category":"I","image_png":"I_Pumice_12.png","image_id":140,"category_name":"Pumice","category":9,"distinct_rating":2.97,"distinct_type":"Bottom","rt":null,"stimulus":"Stimuli_Rocks480/I_Pumice_12.png","response":null,"trial_type":"image-keyboard-response","trial_index":8,"plugin_version":"2.1.0","time_elapsed":18728,"subject_id":"86400","group":"Group1","full_date":"2025-11-10T22:42:39.509Z","date":"2025-11-10","time":"22:42:39"},{"rt":null,"stimulus":"<p style=\"font-size: 50px; margin: 0; text-align: center;\">+</p>","response":null,"trial_type":"html-keyboard-response","trial_index":9,"plugin_version":"2.1.0","time_elapsed":19731,"subject_id":"86400","group":"Group1","full_date":"2025-11-10T22:42:39.509Z","date":"2025-11-10","time":"22:42:39"},{"task":"memory_phase","broad_category":"M","image_png":"M_Marble_16.png","image_id":240,"category_name":"Marble","category":15,"distinct_rating":2.57,"distinct_type":"Bottom","rt":null,"stimulus":"Stimuli_Rocks480/M_Marble_16.png","response":null,"trial_type":"image-keyboard-response","trial_index":10,"plugin_version":"2.1.0","time_elapsed":22235,"subject_id":"86400","group":"Group1","full_date":"2025-11-10T22:42:39.509Z","date":"2025-11-10","time":"22:42:39"},{"rt":null,"stimulus":"<p style=\"font-size: 50px; margin: 0; text-align: center;\">+</p>","response":null,"trial_type":"html-keyboard-response","trial_index":11,"plugin_version":"2.1.0","time_elapsed":23238,"subject_id":"86400","group":"Group1","full_date":"2025-11-10T22:42:39.509Z","date":"2025-11-10","time":"22:42:39"},{"task":"memory_phase","broad_category":"S","image_png":"S_Shale_08.png","image_id":472,"category_name":"Shale","category":30,"distinct_rating":2.55,"distinct_type":"Bottom","rt":null,"stimulus":"Stimuli_Rocks480/S_Shale_08.png","response":null,"trial_type":"image-keyboard-response","trial_index":12,"plugin_version":"2.1.0","time_elapsed":25742,"subject_id":"86400","group":"Group1","full_date":"2025-11-10T22:42:39.509Z","date":"2025-11-10","time":"22:42:39"},{"rt":null,"stimulus":"<p style=\"font-size: 50px; margin: 0; text-align: center;\">+</p>","response":null,"trial_type":"html-keyboard-response","trial_index":13,"plugin_version":"2.1.0","time_elapsed":26745,"subject_id":"86400","group":"Group1","full_date":"2025-11-10T22:42:39.509Z","date":"2025-11-10","time":"22:42:39"},{"task":"memory_phase","broad_category":"M","image_png":"M_Marble_04.png","image_id":228,"category_name":"Marble","category":15,"distinct_rating":3.15,"distinct_type":"Bottom","rt":null,"stimulus":"Stimuli_Rocks480/M_Marble_04.png","response":null,"trial_type":"image-keyboard-response","trial_index":14,"plugin_version":"2.1.0","time_elapsed":29249,"subject_id":"86400","group":"Group1","full_date":"2025-11-10T22:42:39.509Z","date":"2025-11-10","time":"22:42:39"},{"rt":null,"stimulus":"<p style=\"font-size: 50px; margin: 0; text-align: center;\">+</p>","response":null,"trial_type":"html-keyboard-response","trial_index":15,"plugin_version":"2.1.0","time_elapsed":30252,"subject_id":"86400","group":"Group1","full_date":"2025-11-10T22:42:39.509Z","date":"2025-11-10","time":"22:42:39"},{"task":"memory_phase","broad_category":"I","image_png":"I_Gabbro_08.png","image_id":56,"category_name":"Gabbro","category":4,"distinct_rating":3.02,"distinct_type":"Bottom","rt":null,"stimulus":"Stimuli_Rocks480/I_Gabbro_08.png","response":null,"trial_type":"image-keyboard-response","trial_index":16,"plugin_version":"2.1.0","time_elapsed":32755,"subject_id":"86400","group":"Group1","full_date":"2025-11-10T22:42:39.509Z","date":"2025-11-10","time":"22:42:39"},{"rt":null,"stimulus":"<p style=\"font-size: 50px; margin: 0; text-align: center;\">+</p>","response":null,"trial_type":"html-keyboard-response","trial_index":17,"plugin_version":"2.1.0","time_elapsed":33758,"subject_id":"86400","group":"Group1","full_date":"2025-11-10T22:42:39.509Z","date":"2025-11-10","time":"22:42:39"},{"task":"memory_phase","broad_category":"S","image_png":"S_Shale_01.png","image_id":465,"category_name":"Shale","category":30,"distinct_rating":2.7,"distinct_type":"Bottom","rt":null,"stimulus":"Stimuli_Rocks480/S_Shale_01.png","response":null,"trial_type":"image-keyboard-response","trial_index":18,"plugin_version":"2.1.0","time_elapsed":36261,"subject_id":"86400","group":"Group1","full_date":"2025-11-10T22:42:39.509Z","date":"2025-11-10","time":"22:42:39"},{"rt":null,"stimulus":"<p style=\"font-size: 50px; margin: 0; text-align: center;\">+</p>","response":null,"trial_type":"html-keyboard-response","trial_index":19,"plugin_version":"2.1.0","time_elapsed":37264,"subject_id":"86400","group":"Group1","full_date":"2025-11-10T22:42:39.509Z","date":"2025-11-10","time":"22:42:39"},{"task":"memory_phase","broad_category":"I","image_png":"I_Andesite_08.png","image_id":8,"category_name":"Andesite","category":1,"distinct_rating":1.95,"distinct_type":"Bottom","rt":null,"stimulus":"Stimuli_Rocks480/I_Andesite_08.png","response":null,"trial_type":"image-keyboard-response","trial_index":20,"plugin_version":"2.1.0","time_elapsed":39767,"subject_id":"86400","group":"Group1","full_date":"2025-11-10T22:42:39.509Z","date":"2025-11-10","time":"22:42:39"},{"rt":null,"stimulus":"<p style=\"font-size: 50px; margin: 0; text-align: center;\">+</p>","response":null,"trial_type":"html-keyboard-response","trial_index":21,"plugin_version":"2.1.0","time_elapsed":40770,"subject_id":"86400","group":"Group1","full_date":"2025-11-10T22:42:39.509Z","date":"2025-11-10","time":"22:42:39"},{"task":"memory_phase","broad_category":"S","image_png":"S_Sandstone_03.png","image_id":451,"category_name":"Sandstone","category":29,"distinct_rating":1.86,"distinct_type":"Bottom","rt":null,"stimulus":"Stimuli_Rocks480/S_Sandstone_03.png","response":null,"trial_type":"image-keyboard-response","trial_index":22,"plugin_version":"2.1.0","time_elapsed":43273,"subject_id":"86400","group":"Group1","full_date":"2025-11-10T22:42:39.509Z","date":"2025-11-10","time":"22:42:39"},{"rt":null,"stimulus":"<p style=\"font-size: 50px; margin: 0; text-align: center;\">+</p>","response":null,"trial_type":"html-keyboard-response","trial_index":23,"plugin_version":"2.1.0","time_elapsed":44275,"subject_id":"86400","group":"Group1","full_date":"2025-11-10T22:42:39.509Z","date":"2025-11-10","time":"22:42:39"},{"task":"memory_phase","broad_category":"I","image_png":"I_Gabbro_11.png","image_id":59,"category_name":"Gabbro","category":4,"distinct_rating":1.99,"distinct_type":"Bottom","rt":null,"stimulus":"Stimuli_Rocks480/I_Gabbro_11.png","response":null,"trial_type":"image-keyboard-response","trial_index":24,"plugin_version":"2.1.0","time_elapsed":46779,"subject_id":"86400","group":"Group1","full_date":"2025-11-10T22:42:39.509Z","date":"2025-11-10","time":"22:42:39"},{"rt":null,"stimulus":"<p style=\"font-size: 50px; margin: 0; text-align: center;\">+</p>","response":null,"trial_type":"html-keyboard-response","trial_index":25,"plugin_version":"2.1.0","time_elapsed":47781,"subject_id":"86400","group":"Group1","full_date":"2025-11-10T22:42:39.509Z","date":"2025-11-10","time":"22:42:39"},{"task":"memory_phase","broad_category":"I","image_png":"I_Pegmatite_10.png","image_id":106,"category_name":"Pegmatite","category":7,"distinct_rating":7.66,"distinct_type":"Top","rt":null,"stimulus":"Stimuli_Rocks480/I_Pegmatite_10.png","response":null,"trial_type":"image-keyboard-response","trial_index":26,"plugin_version":"2.1.0","time_elapsed":50284,"subject_id":"86400","group":"Group1","full_date":"2025-11-10T22:42:39.509Z","date":"2025-11-10","time":"22:42:39"},{"rt":null,"stimulus":"<p style=\"font-size: 50px; margin: 0; text-align: center;\">+</p>","response":null,"trial_type":"html-keyboard-response","trial_index":27,"plugin_version":"2.1.0","time_elapsed":51287,"subject_id":"86400","group":"Group1","full_date":"2025-11-10T22:42:39.509Z","date":"2025-11-10","time":"22:42:39"},{"task":"memory_phase","broad_category":"I","image_png":"I_Rhyolite_16.png","image_id":160,"category_name":"Rhyolite","category":10,"distinct_rating":2.19,"distinct_type":"Bottom","rt":null,"stimulus":"Stimuli_Rocks480/I_Rhyolite_16.png","response":null,"trial_type":"image-keyboard-response","trial_index":28,"plugin_version":"2.1.0","time_elapsed":53790,"subject_id":"86400","group":"Group1","full_date":"2025-11-10T22:42:39.509Z","date":"2025-11-10","time":"22:42:39"},{"rt":null,"stimulus":"<p style=\"font-size: 50px; margin: 0; text-align: center;\">+</p>","response":null,"trial_type":"html-keyboard-response","trial_index":29,"plugin_version":"2.1.0","time_elapsed":54792,"subject_id":"86400","group":"Group1","full_date":"2025-11-10T22:42:39.509Z","date":"2025-11-10","time":"22:42:39"},{"task":"memory_phase","broad_category":"S","image_png":"S_Shale_12.png","image_id":476,"category_name":"Shale","category":30,"distinct_rating":2.48,"distinct_type":"Bottom","rt":null,"stimulus":"Stimuli_Rocks480/S_Shale_12.png","response":null,"trial_type":"image-keyboard-response","trial_index":30,"plugin_version":"2.1.0","time_elapsed":57295,"subject_id":"86400","group":"Group1","full_date":"2025-11-10T22:42:39.509Z","date":"2025-11-10","time":"22:42:39"},{"rt":null,"stimulus":"<p style=\"font-size: 50px; margin: 0; text-align: center;\">+</p>","response":null,"trial_type":"html-keyboard-response","trial_index":31,"plugin_version":"2.1.0","time_elapsed":58297,"subject_id":"86400","group":"Group1","full_date":"2025-11-10T22:42:39.509Z","date":"2025-11-10","time":"22:42:39"},{"task":"memory_phase","broad_category":"S","image_png":"S_Rock Salt_01.png","image_id":433,"category_name":"Rock Salt","category":28,"distinct_rating":7.18,"distinct_type":"Top","rt":null,"stimulus":"Stimuli_Rocks480/S_Rock Salt_01.png","response":null,"trial_type":"image-keyboard-response","trial_index":32,"plugin_version":"2.1.0","time_elapsed":60801,"subject_id":"86400","group":"Group1","full_date":"2025-11-10T22:42:39.509Z","date":"2025-11-10","time":"22:42:39"},{"rt":null,"stimulus":"<p style=\"font-size: 50px; margin: 0; text-align: center;\">+</p>","response":null,"trial_type":"html-keyboard-response","trial_index":33,"plugin_version":"2.1.0","time_elapsed":61803,"subject_id":"86400","group":"Group1","full_date":"2025-11-10T22:42:39.509Z","date":"2025-11-10","time":"22:42:39"},{"task":"memory_phase","broad_category":"I","image_png":"I_Diorite_03.png","image_id":35,"category_name":"Diorite","category":3,"distinct_rating":3.14,"distinct_type":"Bottom","rt":null,"stimulus":"Stimuli_Rocks480/I_Diorite_03.png","response":null,"trial_type":"image-keyboard-response","trial_index":34,"plugin_version":"2.1.0","time_elapsed":64306,"subject_id":"86400","group":"Group1","full_date":"2025-11-10T22:42:39.509Z","date":"2025-11-10","time":"22:42:39"},{"rt":null,"stimulus":"<p style=\"font-size: 50px; margin: 0; text-align: center;\">+</p>","response":null,"trial_type":"html-keyboard-response","trial_index":35,"plugin_version":"2.1.0","time_elapsed":65309,"subject_id":"86400","group":"Group1","full_date":"2025-11-10T22:42:39.509Z","date":"2025-11-10","time":"22:42:39"},{"task":"memory_phase","broad_category":"M","image_png":"M_Gneiss_06.png","image_id":198,"category_name":"Gneiss","category":13,"distinct_rating":2.65,"distinct_type":"Bottom","rt":null,"stimulus":"Stimuli_Rocks480/M_Gneiss_06.png","response":null,"trial_type":"image-keyboard-response","trial_index":36,"plugin_version":"2.1.0","time_elapsed":67813,"subject_id":"86400","group":"Group1","full_date":"2025-11-10T22:42:39.509Z","date":"2025-11-10","time":"22:42:39"},{"rt":null,"stimulus":"<p style=\"font-size: 50px; margin: 0; text-align: center;\">+</p>","response":null,"trial_type":"html-keyboard-response","trial_index":37,"plugin_version":"2.1.0","time_elapsed":68815,"subject_id":"86400","group":"Group1","full_date":"2025-11-10T22:42:39.509Z","date":"2025-11-10","time":"22:42:39"},{"task":"memory_phase","broad_category":"S","image_png":"S_Rock Gypsum_04.png","image_id":420,"category_name":"Rock Gypsum","category":27,"distinct_rating":7.61,"distinct_type":"Top","rt":null,"stimulus":"Stimuli_Rocks480/S_Rock Gypsum_04.png","response":null,"trial_type":"image-keyboard-response","trial_index":38,"plugin_version":"2.1.0","time_elapsed":71319,"subject_id":"86400","group":"Group1","full_date":"2025-11-10T22:42:39.509Z","date":"2025-11-10","time":"22:42:39"},{"rt":null,"stimulus":"<p style=\"font-size: 50px; margin: 0; text-align: center;\">+</p>","response":null,"trial_type":"html-keyboard-response","trial_index":39,"plugin_version":"2.1.0","time_elapsed":72321,"subject_id":"86400","group":"Group1","full_date":"2025-11-10T22:42:39.509Z","date":"2025-11-10","time":"22:42:39"},{"task":"memory_phase","broad_category":"I","image_png":"I_Obsidian_05.png","image_id":85,"category_name":"Obsidian","category":6,"distinct_rating":7.32,"distinct_type":"Top","rt":null,"stimulus":"Stimuli_Rocks480/I_Obsidian_05.png","response":null,"trial_type":"image-keyboard-response","trial_index":40,"plugin_version":"2.1.0","time_elapsed":74824,"subject_id":"86400","group":"Group1","full_date":"2025-11-10T22:42:39.509Z","date":"2025-11-10","time":"22:42:39"},{"rt":null,"stimulus":"<p style=\"font-size: 50px; margin: 0; text-align: center;\">+</p>","response":null,"trial_type":"html-keyboard-response","trial_index":41,"plugin_version":"2.1.0","time_elapsed":75827,"subject_id":"86400","group":"Group1","full_date":"2025-11-10T22:42:39.509Z","date":"2025-11-10","time":"22:42:39"},{"task":"memory_phase","broad_category":"S","image_png":"S_Dolomite_12.png","image_id":396,"category_name":"Dolomite","category":25,"distinct_rating":1.85,"distinct_type":"Bottom","rt":null,"stimulus":"Stimuli_Rocks480/S_Dolomite_12.png","response":null,"trial_type":"image-keyboard-response","trial_index":42,"plugin_version":"2.1.0","time_elapsed":78330,"subject_id":"86400","group":"Group1","full_date":"2025-11-10T22:42:39.509Z","date":"2025-11-10","time":"22:42:39"},{"rt":null,"stimulus":"<p style=\"font-size: 50px; margin: 0; text-align: center;\">+</p>","response":null,"trial_type":"html-keyboard-response","trial_index":43,"plugin_version":"2.1.0","time_elapsed":79333,"subject_id":"86400","group":"Group1","full_date":"2025-11-10T22:42:39.509Z","date":"2025-11-10","time":"22:42:39"},{"task":"memory_phase","broad_category":"M","image_png":"M_Slate_03.png","image_id":307,"category_name":"Slate","category":20,"distinct_rating":1.87,"distinct_type":"Bottom","rt":null,"stimulus":"Stimuli_Rocks480/M_Slate_03.png","response":null,"trial_type":"image-keyboard-response","trial_index":44,"plugin_version":"2.1.0","time_elapsed":81837,"subject_id":"86400","group":"Group1","full_date":"2025-11-10T22:42:39.509Z","date":"2025-11-10","time":"22:42:39"},{"rt":null,"stimulus":"<p style=\"font-size: 50px; margin: 0; text-align: center;\">+</p>","response":null,"trial_type":"html-keyboard-response","trial_index":45,"plugin_version":"2.1.0","time_elapsed":82840,"subject_id":"86400","group":"Group1","full_date":"2025-11-10T22:42:39.509Z","date":"2025-11-10","time":"22:42:39"},{"task":"memory_phase","broad_category":"I","image_png":"I_Diorite_04.png","image_id":36,"category_name":"Diorite","category":3,"distinct_rating":2.98,"distinct_type":"Bottom","rt":null,"stimulus":"Stimuli_Rocks480/I_Diorite_04.png","response":null,"trial_type":"image-keyboard-response","trial_index":46,"plugin_version":"2.1.0","time_elapsed":85343,"subject_id":"86400","group":"Group1","full_date":"2025-11-10T22:42:39.509Z","date":"2025-11-10","time":"22:42:39"},{"rt":null,"stimulus":"<p style=\"font-size: 50px; margin: 0; text-align: center;\">+</p>","response":null,"trial_type":"html-keyboard-response","trial_index":47,"plugin_version":"2.1.0","time_elapsed":86345,"subject_id":"86400","group":"Group1","full_date":"2025-11-10T22:42:39.509Z","date":"2025-11-10","time":"22:42:39"},{"task":"memory_phase","broad_category":"S","image_png":"S_Dolomite_14.png","image_id":398,"category_name":"Dolomite","category":25,"distinct_rating":1.43,"distinct_type":"Bottom","rt":null,"stimulus":"Stimuli_Rocks480/S_Dolomite_14.png","response":null,"trial_type":"image-keyboard-response","trial_index":48,"plugin_version":"2.1.0","time_elapsed":88849,"subject_id":"86400","group":"Group1","full_date":"2025-11-10T22:42:39.509Z","date":"2025-11-10","time":"22:42:39"},{"rt":null,"stimulus":"<p style=\"font-size: 50px; margin: 0; text-align: center;\">+</p>","response":null,"trial_type":"html-keyboard-response","trial_index":49,"plugin_version":"2.1.0","time_elapsed":89851,"subject_id":"86400","group":"Group1","full_date":"2025-11-10T22:42:39.509Z","date":"2025-11-10","time":"22:42:39"},{"task":"memory_phase","broad_category":"M","image_png":"M_Phyllite_10.png","image_id":266,"category_name":"Phyllite","category":17,"distinct_rating":2.6,"distinct_type":"Bottom","rt":null,"stimulus":"Stimuli_Rocks480/M_Phyllite_10.png","response":null,"trial_type":"image-keyboard-response","trial_index":50,"plugin_version":"2.1.0","time_elapsed":92355,"subject_id":"86400","group":"Group1","full_date":"2025-11-10T22:42:39.509Z","date":"2025-11-10","time":"22:42:39"},{"rt":null,"stimulus":"<p style=\"font-size: 50px; margin: 0; text-align: center;\">+</p>","response":null,"trial_type":"html-keyboard-response","trial_index":51,"plugin_version":"2.1.0","time_elapsed":93357,"subject_id":"86400","group":"Group1","full_date":"2025-11-10T22:42:39.509Z","date":"2025-11-10","time":"22:42:39"},{"task":"memory_phase","broad_category":"I","image_png":"I_Andesite_06.png","image_id":6,"category_name":"Andesite","category":1,"distinct_rating":3.17,"distinct_type":"Bottom","rt":null,"stimulus":"Stimuli_Rocks480/I_Andesite_06.png","response":null,"trial_type":"image-keyboard-response","trial_index":52,"plugin_version":"2.1.0","time_elapsed":95860,"subject_id":"86400","group":"Group1","full_date":"2025-11-10T22:42:39.509Z","date":"2025-11-10","time":"22:42:39"},{"rt":null,"stimulus":"<p style=\"font-size: 50px; margin: 0; text-align: center;\">+</p>","response":null,"trial_type":"html-keyboard-response","trial_index":53,"plugin_version":"2.1.0","time_elapsed":96862,"subject_id":"86400","group":"Group1","full_date":"2025-11-10T22:42:39.509Z","date":"2025-11-10","time":"22:42:39"},{"task":"memory_phase","broad_category":"M","image_png":"M_Gneiss_05.png","image_id":197,"category_name":"Gneiss","category":13,"distinct_rating":2.97,"distinct_type":"Bottom","rt":null,"stimulus":"Stimuli_Rocks480/M_Gneiss_05.png","response":null,"trial_type":"image-keyboard-response","trial_index":54,"plugin_version":"2.1.0","time_elapsed":99364,"subject_id":"86400","group":"Group1","full_date":"2025-11-10T22:42:39.509Z","date":"2025-11-10","time":"22:42:39"},{"rt":2061,"stimulus":"<p style=\"font-size: 35px;\">Press SPACE to continue study phase</p>","response":" ","trial_type":"html-keyboard-response","trial_index":55,"plugin_version":"2.1.0","time_elapsed":101427,"subject_id":"86400","group":"Group1","full_date":"2025-11-10T22:42:39.509Z","date":"2025-11-10","time":"22:42:39"},{"rt":null,"stimulus":"<p style=\"font-size: 50px; margin: 0; text-align: center;\">+</p>","response":null,"trial_type":"html-keyboard-response","trial_index":56,"plugin_version":"2.1.0","time_elapsed":102429,"subject_id":"86400","group":"Group1","full_date":"2025-11-10T22:42:39.509Z","date":"2025-11-10","time":"22:42:39"},{"task":"memory_phase","broad_category":"M","image_png":"M_Phyllite_07.png","image_id":263,"category_name":"Phyllite","category":17,"distinct_rating":2.59,"distinct_type":"Bottom","rt":null,"stimulus":"Stimuli_Rocks480/M_Phyllite_07.png","response":null,"trial_type":"image-keyboard-response","trial_index":57,"plugin_version":"2.1.0","time_elapsed":104933,"subject_id":"86400","group":"Group1","full_date":"2025-11-10T22:42:39.509Z","date":"2025-11-10","time":"22:42:39"},{"rt":null,"stimulus":"<p style=\"font-size: 50px; margin: 0; text-align: center;\">+</p>","response":null,"trial_type":"html-keyboard-response","trial_index":58,"plugin_version":"2.1.0","time_elapsed":105936,"subject_id":"86400","group":"Group1","full_date":"2025-11-10T22:42:39.509Z","date":"2025-11-10","time":"22:42:39"},{"task":"memory_phase","broad_category":"I","image_png":"I_Pumice_08.png","image_id":136,"category_name":"Pumice","category":9,"distinct_rating":3.1,"distinct_type":"Bottom","rt":null,"stimulus":"Stimuli_Rocks480/I_Pumice_08.png","response":null,"trial_type":"image-keyboard-response","trial_index":59,"plugin_version":"2.1.0","time_elapsed":108439,"subject_id":"86400","group":"Group1","full_date":"2025-11-10T22:42:39.509Z","date":"2025-11-10","time":"22:42:39"},{"rt":null,"stimulus":"<p style=\"font-size: 50px; margin: 0; text-align: center;\">+</p>","response":null,"trial_type":"html-keyboard-response","trial_index":60,"plugin_version":"2.1.0","time_elapsed":109442,"subject_id":"86400","group":"Group1","full_date":"2025-11-10T22:42:39.509Z","date":"2025-11-10","time":"22:42:39"},{"task":"memory_phase","broad_category":"I","image_png":"I_Andesite_10.png","image_id":10,"category_name":"Andesite","category":1,"distinct_rating":3.15,"distinct_type":"Bottom","rt":null,"stimulus":"Stimuli_Rocks480/I_Andesite_10.png","response":null,"trial_type":"image-keyboard-response","trial_index":61,"plugin_version":"2.1.0","time_elapsed":111945,"subject_id":"86400","group":"Group1","full_date":"2025-11-10T22:42:39.509Z","date":"2025-11-10","time":"22:42:39"},{"rt":null,"stimulus":"<p style=\"font-size: 50px; margin: 0; text-align: center;\">+</p>","response":null,"trial_type":"html-keyboard-response","trial_index":62,"plugin_version":"2.1.0","time_elapsed":112948,"subject_id":"86400","group":"Group1","full_date":"2025-11-10T22:42:39.509Z","date":"2025-11-10","time":"22:42:39"},{"task":"memory_phase","broad_category":"M","image_png":"M_Quartzite_13.png","image_id":285,"category_name":"Quartzite","category":18,"distinct_rating":2.27,"distinct_type":"Bottom","rt":null,"stimulus":"Stimuli_Rocks480/M_Quartzite_13.png","response":null,"trial_type":"image-keyboard-response","trial_index":63,"plugin_version":"2.1.0","time_elapsed":115451,"subject_id":"86400","group":"Group1","full_date":"2025-11-10T22:42:39.509Z","date":"2025-11-10","time":"22:42:39"},{"rt":null,"stimulus":"<p style=\"font-size: 50px; margin: 0; text-align: center;\">+</p>","response":null,"trial_type":"html-keyboard-response","trial_index":64,"plugin_version":"2.1.0","time_elapsed":116453,"subject_id":"86400","group":"Group1","full_date":"2025-11-10T22:42:39.509Z","date":"2025-11-10","time":"22:42:39"},{"task":"memory_phase","broad_category":"S","image_png":"S_Sandstone_15.png","image_id":463,"category_name":"Sandstone","category":29,"distinct_rating":2,"distinct_type":"Bottom","rt":null,"stimulus":"Stimuli_Rocks480/S_Sandstone_15.png","response":null,"trial_type":"image-keyboard-response","trial_index":65,"plugin_version":"2.1.0","time_elapsed":118957,"subject_id":"86400","group":"Group1","full_date":"2025-11-10T22:42:39.509Z","date":"2025-11-10","time":"22:42:39"},{"rt":null,"stimulus":"<p style=\"font-size: 50px; margin: 0; text-align: center;\">+</p>","response":null,"trial_type":"html-keyboard-response","trial_index":66,"plugin_version":"2.1.0","time_elapsed":119959,"subject_id":"86400","group":"Group1","full_date":"2025-11-10T22:42:39.509Z","date":"2025-11-10","time":"22:42:39"},{"task":"memory_phase","broad_category":"M","image_png":"M_Slate_11.png","image_id":315,"category_name":"Slate","category":20,"distinct_rating":2.75,"distinct_type":"Bottom","rt":null,"stimulus":"Stimuli_Rocks480/M_Slate_11.png","response":null,"trial_type":"image-keyboard-response","trial_index":67,"plugin_version":"2.1.0","time_elapsed":122462,"subject_id":"86400","group":"Group1","full_date":"2025-11-10T22:42:39.509Z","date":"2025-11-10","time":"22:42:39"},{"rt":null,"stimulus":"<p style=\"font-size: 50px; margin: 0; text-align: center;\">+</p>","response":null,"trial_type":"html-keyboard-response","trial_index":68,"plugin_version":"2.1.0","time_elapsed":123465,"subject_id":"86400","group":"Group1","full_date":"2025-11-10T22:42:39.509Z","date":"2025-11-10","time":"22:42:39"},{"task":"memory_phase","broad_category":"M","image_png":"M_Marble_06.png","image_id":230,"category_name":"Marble","category":15,"distinct_rating":3.4,"distinct_type":"Bottom","rt":null,"stimulus":"Stimuli_Rocks480/M_Marble_06.png","response":null,"trial_type":"image-keyboard-response","trial_index":69,"plugin_version":"2.1.0","time_elapsed":125968,"subject_id":"86400","group":"Group1","full_date":"2025-11-10T22:42:39.509Z","date":"2025-11-10","time":"22:42:39"},{"rt":null,"stimulus":"<p style=\"font-size: 50px; margin: 0; text-align: center;\">+</p>","response":null,"trial_type":"html-keyboard-response","trial_index":70,"plugin_version":"2.1.0","time_elapsed":126969,"subject_id":"86400","group":"Group1","full_date":"2025-11-10T22:42:39.509Z","date":"2025-11-10","time":"22:42:39"},{"task":"memory_phase","broad_category":"I","image_png":"I_Rhyolite_11.png","image_id":155,"category_name":"Rhyolite","category":10,"distinct_rating":1.73,"distinct_type":"Bottom","rt":null,"stimulus":"Stimuli_Rocks480/I_Rhyolite_11.png","response":null,"trial_type":"image-keyboard-response","trial_index":71,"plugin_version":"2.1.0","time_elapsed":129473,"subject_id":"86400","group":"Group1","full_date":"2025-11-10T22:42:39.509Z","date":"2025-11-10","time":"22:42:39"},{"rt":null,"stimulus":"<p style=\"font-size: 50px; margin: 0; text-align: center;\">+</p>","response":null,"trial_type":"html-keyboard-response","trial_index":72,"plugin_version":"2.1.0","time_elapsed":130475,"subject_id":"86400","group":"Group1","full_date":"2025-11-10T22:42:39.509Z","date":"2025-11-10","time":"22:42:39"},{"task":"memory_phase","broad_category":"S","image_png":"S_Breccia_11.png","image_id":347,"category_name":"Breccia","category":22,"distinct_rating":6.7,"distinct_type":"Top","rt":null,"stimulus":"Stimuli_Rocks480/S_Breccia_11.png","response":null,"trial_type":"image-keyboard-response","trial_index":73,"plugin_version":"2.1.0","time_elapsed":132979,"subject_id":"86400","group":"Group1","full_date":"2025-11-10T22:42:39.509Z","date":"2025-11-10","time":"22:42:39"},{"rt":null,"stimulus":"<p style=\"font-size: 50px; margin: 0; text-align: center;\">+</p>","response":null,"trial_type":"html-keyboard-response","trial_index":74,"plugin_version":"2.1.0","time_elapsed":133981,"subject_id":"86400","group":"Group1","full_date":"2025-11-10T22:42:39.509Z","date":"2025-11-10","time":"22:42:39"},{"task":"memory_phase","broad_category":"S","image_png":"S_Dolomite_13.png","image_id":397,"category_name":"Dolomite","category":25,"distinct_rating":1.77,"distinct_type":"Bottom","rt":null,"stimulus":"Stimuli_Rocks480/S_Dolomite_13.png","response":null,"trial_type":"image-keyboard-response","trial_index":75,"plugin_version":"2.1.0","time_elapsed":136485,"subject_id":"86400","group":"Group1","full_date":"2025-11-10T22:42:39.509Z","date":"2025-11-10","time":"22:42:39"},{"rt":null,"stimulus":"<p style=\"font-size: 50px; margin: 0; text-align: center;\">+</p>","response":null,"trial_type":"html-keyboard-response","trial_index":76,"plugin_version":"2.1.0","time_elapsed":137487,"subject_id":"86400","group":"Group1","full_date":"2025-11-10T22:42:39.509Z","date":"2025-11-10","time":"22:42:39"},{"task":"memory_phase","broad_category":"I","image_png":"I_Basalt_02.png","image_id":18,"category_name":"Basalt","category":2,"distinct_rating":1.84,"distinct_type":"Bottom","rt":null,"stimulus":"Stimuli_Rocks480/I_Basalt_02.png","response":null,"trial_type":"image-keyboard-response","trial_index":77,"plugin_version":"2.1.0","time_elapsed":139990,"subject_id":"86400","group":"Group1","full_date":"2025-11-10T22:42:39.509Z","date":"2025-11-10","time":"22:42:39"},{"rt":null,"stimulus":"<p style=\"font-size: 50px; margin: 0; text-align: center;\">+</p>","response":null,"trial_type":"html-keyboard-response","trial_index":78,"plugin_version":"2.1.0","time_elapsed":140992,"subject_id":"86400","group":"Group1","full_date":"2025-11-10T22:42:39.509Z","date":"2025-11-10","time":"22:42:39"},{"task":"memory_phase","broad_category":"S","image_png":"S_Chert_10.png","image_id":362,"category_name":"Chert","category":23,"distinct_rating":7.17,"distinct_type":"Top","rt":null,"stimulus":"Stimuli_Rocks480/S_Chert_10.png","response":null,"trial_type":"image-keyboard-response","trial_index":79,"plugin_version":"2.1.0","time_elapsed":143495,"subject_id":"86400","group":"Group1","full_date":"2025-11-10T22:42:39.509Z","date":"2025-11-10","time":"22:42:39"},{"rt":null,"stimulus":"<p style=\"font-size: 50px; margin: 0; text-align: center;\">+</p>","response":null,"trial_type":"html-keyboard-response","trial_index":80,"plugin_version":"2.1.0","time_elapsed":144498,"subject_id":"86400","group":"Group1","full_date":"2025-11-10T22:42:39.509Z","date":"2025-11-10","time":"22:42:39"},{"task":"memory_phase","broad_category":"M","image_png":"M_Gneiss_13.png","image_id":205,"category_name":"Gneiss","category":13,"distinct_rating":3.26,"distinct_type":"Bottom","rt":null,"stimulus":"Stimuli_Rocks480/M_Gneiss_13.png","response":null,"trial_type":"image-keyboard-response","trial_index":81,"plugin_version":"2.1.0","time_elapsed":147001,"subject_id":"86400","group":"Group1","full_date":"2025-11-10T22:42:39.509Z","date":"2025-11-10","time":"22:42:39"},{"rt":null,"stimulus":"<p style=\"font-size: 50px; margin: 0; text-align: center;\">+</p>","response":null,"trial_type":"html-keyboard-response","trial_index":82,"plugin_version":"2.1.0","time_elapsed":148004,"subject_id":"86400","group":"Group1","full_date":"2025-11-10T22:42:39.509Z","date":"2025-11-10","time":"22:42:39"},{"task":"memory_phase","broad_category":"I","image_png":"I_Basalt_01.png","image_id":17,"category_name":"Basalt","category":2,"distinct_rating":1.92,"distinct_type":"Bottom","rt":null,"stimulus":"Stimuli_Rocks480/I_Basalt_01.png","response":null,"trial_type":"image-keyboard-response","trial_index":83,"plugin_version":"2.1.0","time_elapsed":150506,"subject_id":"86400","group":"Group1","full_date":"2025-11-10T22:42:39.509Z","date":"2025-11-10","time":"22:42:39"},{"rt":null,"stimulus":"<p style=\"font-size: 50px; margin: 0; text-align: center;\">+</p>","response":null,"trial_type":"html-keyboard-response","trial_index":84,"plugin_version":"2.1.0","time_elapsed":151508,"subject_id":"86400","group":"Group1","full_date":"2025-11-10T22:42:39.509Z","date":"2025-11-10","time":"22:42:39"},{"task":"memory_phase","broad_category":"S","image_png":"S_Conglomerate_05.png","image_id":373,"category_name":"Conglomerate","category":24,"distinct_rating":7.32,"distinct_type":"Top","rt":null,"stimulus":"Stimuli_Rocks480/S_Conglomerate_05.png","response":null,"trial_type":"image-keyboard-response","trial_index":85,"plugin_version":"2.1.0","time_elapsed":154011,"subject_id":"86400","group":"Group1","full_date":"2025-11-10T22:42:39.509Z","date":"2025-11-10","time":"22:42:39"},{"rt":null,"stimulus":"<p style=\"font-size: 50px; margin: 0; text-align: center;\">+</p>","response":null,"trial_type":"html-keyboard-response","trial_index":86,"plugin_version":"2.1.0","time_elapsed":155013,"subject_id":"86400","group":"Group1","full_date":"2025-11-10T22:42:39.509Z","date":"2025-11-10","time":"22:42:39"},{"task":"memory_phase","broad_category":"M","image_png":"M_Phyllite_03.png","image_id":259,"category_name":"Phyllite","category":17,"distinct_rating":2.5,"distinct_type":"Bottom","rt":null,"stimulus":"Stimuli_Rocks480/M_Phyllite_03.png","response":null,"trial_type":"image-keyboard-response","trial_index":87,"plugin_version":"2.1.0","time_elapsed":157517,"subject_id":"86400","group":"Group1","full_date":"2025-11-10T22:42:39.509Z","date":"2025-11-10","time":"22:42:39"},{"rt":null,"stimulus":"<p style=\"font-size: 50px; margin: 0; text-align: center;\">+</p>","response":null,"trial_type":"html-keyboard-response","trial_index":88,"plugin_version":"2.1.0","time_elapsed":158519,"subject_id":"86400","group":"Group1","full_date":"2025-11-10T22:42:39.509Z","date":"2025-11-10","time":"22:42:39"},{"task":"memory_phase","broad_category":"I","image_png":"I_Gabbro_16.png","image_id":64,"category_name":"Gabbro","category":4,"distinct_rating":2.52,"distinct_type":"Bottom","rt":null,"stimulus":"Stimuli_Rocks480/I_Gabbro_16.png","response":null,"trial_type":"image-keyboard-response","trial_index":89,"plugin_version":"2.1.0","time_elapsed":161023,"subject_id":"86400","group":"Group1","full_date":"2025-11-10T22:42:39.509Z","date":"2025-11-10","time":"22:42:39"},{"rt":null,"stimulus":"<p style=\"font-size: 50px; margin: 0; text-align: center;\">+</p>","response":null,"trial_type":"html-keyboard-response","trial_index":90,"plugin_version":"2.1.0","time_elapsed":162026,"subject_id":"86400","group":"Group1","full_date":"2025-11-10T22:42:39.509Z","date":"2025-11-10","time":"22:42:39"},{"task":"memory_phase","broad_category":"I","image_png":"I_Rhyolite_14.png","image_id":158,"category_name":"Rhyolite","category":10,"distinct_rating":2.59,"distinct_type":"Bottom","rt":null,"stimulus":"Stimuli_Rocks480/I_Rhyolite_14.png","response":null,"trial_type":"image-keyboard-response","trial_index":91,"plugin_version":"2.1.0","time_elapsed":164529,"subject_id":"86400","group":"Group1","full_date":"2025-11-10T22:42:39.509Z","date":"2025-11-10","time":"22:42:39"},{"rt":null,"stimulus":"<p style=\"font-size: 50px; margin: 0; text-align: center;\">+</p>","response":null,"trial_type":"html-keyboard-response","trial_index":92,"plugin_version":"2.1.0","time_elapsed":165532,"subject_id":"86400","group":"Group1","full_date":"2025-11-10T22:42:39.509Z","date":"2025-11-10","time":"22:42:39"},{"task":"memory_phase","broad_category":"I","image_png":"I_Diorite_05.png","image_id":37,"category_name":"Diorite","category":3,"distinct_rating":3.08,"distinct_type":"Bottom","rt":null,"stimulus":"Stimuli_Rocks480/I_Diorite_05.png","response":null,"trial_type":"image-keyboard-response","trial_index":93,"plugin_version":"2.1.0","time_elapsed":168036,"subject_id":"86400","group":"Group1","full_date":"2025-11-10T22:42:39.509Z","date":"2025-11-10","time":"22:42:39"},{"rt":null,"stimulus":"<p style=\"font-size: 50px; margin: 0; text-align: center;\">+</p>","response":null,"trial_type":"html-keyboard-response","trial_index":94,"plugin_version":"2.1.0","time_elapsed":169039,"subject_id":"86400","group":"Group1","full_date":"2025-11-10T22:42:39.509Z","date":"2025-11-10","time":"22:42:39"},{"task":"memory_phase","broad_category":"I","image_png":"I_Basalt_09.png","image_id":25,"category_name":"Basalt","category":2,"distinct_rating":1.89,"distinct_type":"Bottom","rt":null,"stimulus":"Stimuli_Rocks480/I_Basalt_09.png","response":null,"trial_type":"image-keyboard-response","trial_index":95,"plugin_version":"2.1.0","time_elapsed":171542,"subject_id":"86400","group":"Group1","full_date":"2025-11-10T22:42:39.509Z","date":"2025-11-10","time":"22:42:39"},{"rt":null,"stimulus":"<p style=\"font-size: 50px; margin: 0; text-align: center;\">+</p>","response":null,"trial_type":"html-keyboard-response","trial_index":96,"plugin_version":"2.1.0","time_elapsed":172544,"subject_id":"86400","group":"Group1","full_date":"2025-11-10T22:42:39.509Z","date":"2025-11-10","time":"22:42:39"},{"task":"memory_phase","broad_category":"S","image_png":"S_Sandstone_16.png","image_id":464,"category_name":"Sandstone","category":29,"distinct_rating":1.93,"distinct_type":"Bottom","rt":null,"stimulus":"Stimuli_Rocks480/S_Sandstone_16.png","response":null,"trial_type":"image-keyboard-response","trial_index":97,"plugin_version":"2.1.0","time_elapsed":175048,"subject_id":"86400","group":"Group1","full_date":"2025-11-10T22:42:39.509Z","date":"2025-11-10","time":"22:42:39"},{"rt":null,"stimulus":"<p style=\"font-size: 50px; margin: 0; text-align: center;\">+</p>","response":null,"trial_type":"html-keyboard-response","trial_index":98,"plugin_version":"2.1.0","time_elapsed":176052,"subject_id":"86400","group":"Group1","full_date":"2025-11-10T22:42:39.509Z","date":"2025-11-10","time":"22:42:39"},{"task":"memory_phase","broad_category":"I","image_png":"I_Pumice_11.png","image_id":139,"category_name":"Pumice","category":9,"distinct_rating":1.74,"distinct_type":"Bottom","rt":null,"stimulus":"Stimuli_Rocks480/I_Pumice_11.png","response":null,"trial_type":"image-keyboard-response","trial_index":99,"plugin_version":"2.1.0","time_elapsed":178555,"subject_id":"86400","group":"Group1","full_date":"2025-11-10T22:42:39.509Z","date":"2025-11-10","time":"22:42:39"},{"rt":null,"stimulus":"<p style=\"font-size: 50px; margin: 0; text-align: center;\">+</p>","response":null,"trial_type":"html-keyboard-response","trial_index":100,"plugin_version":"2.1.0","time_elapsed":179557,"subject_id":"86400","group":"Group1","full_date":"2025-11-10T22:42:39.509Z","date":"2025-11-10","time":"22:42:39"},{"task":"memory_phase","broad_category":"M","image_png":"M_Quartzite_05.png","image_id":277,"category_name":"Quartzite","category":18,"distinct_rating":2.23,"distinct_type":"Bottom","rt":null,"stimulus":"Stimuli_Rocks480/M_Quartzite_05.png","response":null,"trial_type":"image-keyboard-response","trial_index":101,"plugin_version":"2.1.0","time_elapsed":182060,"subject_id":"86400","group":"Group1","full_date":"2025-11-10T22:42:39.509Z","date":"2025-11-10","time":"22:42:39"},{"rt":null,"stimulus":"<p style=\"font-size: 50px; margin: 0; text-align: center;\">+</p>","response":null,"trial_type":"html-keyboard-response","trial_index":102,"plugin_version":"2.1.0","time_elapsed":183063,"subject_id":"86400","group":"Group1","full_date":"2025-11-10T22:42:39.509Z","date":"2025-11-10","time":"22:42:39"},{"task":"memory_phase","broad_category":"M","image_png":"M_Slate_15.png","image_id":319,"category_name":"Slate","category":20,"distinct_rating":2.13,"distinct_type":"Bottom","rt":null,"stimulus":"Stimuli_Rocks480/M_Slate_15.png","response":null,"trial_type":"image-keyboard-response","trial_index":103,"plugin_version":"2.1.0","time_elapsed":185566,"subject_id":"86400","group":"Group1","full_date":"2025-11-10T22:42:39.509Z","date":"2025-11-10","time":"22:42:39"},{"rt":null,"stimulus":"<p style=\"font-size: 50px; margin: 0; text-align: center;\">+</p>","response":null,"trial_type":"html-keyboard-response","trial_index":104,"plugin_version":"2.1.0","time_elapsed":186569,"subject_id":"86400","group":"Group1","full_date":"2025-11-10T22:42:39.509Z","date":"2025-11-10","time":"22:42:39"},{"task":"memory_phase","broad_category":"M","image_png":"M_Quartzite_08.png","image_id":280,"category_name":"Quartzite","category":18,"distinct_rating":2.15,"distinct_type":"Bottom","rt":null,"stimulus":"Stimuli_Rocks480/M_Quartzite_08.png","response":null,"trial_type":"image-keyboard-response","trial_index":105,"plugin_version":"2.1.0","time_elapsed":189072,"subject_id":"86400","group":"Group1","full_date":"2025-11-10T22:42:39.509Z","date":"2025-11-10","time":"22:42:39"},{"rt":20268,"stimulus":"<div style=\"max-width: 760px; margin: auto; font-size: 20px; line-height: 1.5;\">\n      <h1 style=\"text-align:center; font-size: 30px;\">Instructions for the Test Phase</h1>\n      <p>\n        The study phase is now complete.\n      </p>\n      <p>\n        In the test phase, you will again see a series of rock images. \n        Some will be ones you saw before - during the study phase, while others will be new.  \n        <b>Your task</b> is to decide whether you have seen each image before by pressing the corresponding key on your keyboard:<br><br>\n          <b>A</b> - NO (you did not see this image before)<br>\n          <b>L</b> - YES (you saw this image before)<br><br>\n        The test will proceed at your own pace. You will receive feedback after each response.  \n        Please try to respond <b>as accurately as possible</b>.\n      </p>\n      <p>\n        <b>Reminder:</b> If your computer has multiple language settings (e.g., English and another language),\n        please ensure it is set to English during the test phase.\n      </p>\n      <p>\n        You can track your progress using the <b>completion bar</b> at the top of the screen.  \n        Note that it has been refreshed to reflect your progress during this final phase.\n      </p>\n      <p>\n        Press the button below when you are ready to continue.\n      </p>\n    </div>","response":0,"trial_type":"html-button-response","trial_index":106,"plugin_version":"2.1.0","time_elapsed":209342,"subject_id":"86400","group":"Group1","full_date":"2025-11-10T22:42:39.509Z","date":"2025-11-10","time":"22:42:39"},{"correct_response":"l","task":"test_phase","broad_category":"M","image_png":"M_Gneiss_06.png","image_id":198,"category_name":"Gneiss","category":13,"distinct_rating":2.65,"distinct_type":"Bottom","item_type":"Target","rt":2885,"stimulus":"Stimuli_Rocks480/M_Gneiss_06.png","response":"l","trial_type":"image-keyboard-response","trial_index":107,"plugin_version":"2.1.0","time_elapsed":212231,"subject_id":"86400","group":"Group1","full_date":"2025-11-10T22:42:39.509Z","date":"2025-11-10","time":"22:42:39","cor_ans":true},{"trial_type":"html-keyboard-response","rt":null,"stimulus":"<p style=\"color: green; font-size: 50px; font-weight: bold;\">Correct</p>","response":null,"trial_index":108,"plugin_version":"2.1.0","time_elapsed":212733,"subject_id":"86400","group":"Group1","full_date":"2025-11-10T22:42:39.509Z","date":"2025-11-10","time":"22:42:39"},{"correct_response":"l","task":"test_phase","broad_category":"M","image_png":"M_Gneiss_13.png","image_id":205,"category_name":"Gneiss","category":13,"distinct_rating":3.26,"distinct_type":"Bottom","item_type":"Target","rt":883,"stimulus":"Stimuli_Rocks480/M_Gneiss_13.png","response":"l","trial_type":"image-keyboard-response","trial_index":109,"plugin_version":"2.1.0","time_elapsed":213618,"subject_id":"86400","group":"Group1","full_date":"2025-11-10T22:42:39.509Z","date":"2025-11-10","time":"22:42:39","cor_ans":true},{"trial_type":"html-keyboard-response","rt":null,"stimulus":"<p style=\"color: green; font-size: 50px; font-weight: bold;\">Correct</p>","response":null,"trial_index":110,"plugin_version":"2.1.0","time_elapsed":214120,"subject_id":"86400","group":"Group1","full_date":"2025-11-10T22:42:39.509Z","date":"2025-11-10","time":"22:42:39"},{"correct_response":"l","task":"test_phase","broad_category":"M","image_png":"M_Slate_03.png","image_id":307,"category_name":"Slate","category":20,"distinct_rating":1.87,"distinct_type":"Bottom","item_type":"Target","rt":781,"stimulus":"Stimuli_Rocks480/M_Slate_03.png","response":"l","trial_type":"image-keyboard-response","trial_index":111,"plugin_version":"2.1.0","time_elapsed":214904,"subject_id":"86400","group":"Group1","full_date":"2025-11-10T22:42:39.509Z","date":"2025-11-10","time":"22:42:39","cor_ans":true},{"trial_type":"html-keyboard-response","rt":null,"stimulus":"<p style=\"color: green; font-size: 50px; font-weight: bold;\">Correct</p>","response":null,"trial_index":112,"plugin_version":"2.1.0","time_elapsed":215406,"subject_id":"86400","group":"Group1","full_date":"2025-11-10T22:42:39.509Z","date":"2025-11-10","time":"22:42:39"},{"correct_response":"l","task":"test_phase","broad_category":"M","image_png":"M_Quartzite_13.png","image_id":285,"category_name":"Quartzite","category":18,"distinct_rating":2.27,"distinct_type":"Bottom","item_type":"Target","rt":2252,"stimulus":"Stimuli_Rocks480/M_Quartzite_13.png","response":"a","trial_type":"image-keyboard-response","trial_index":113,"plugin_version":"2.1.0","time_elapsed":217662,"subject_id":"86400","group":"Group1","full_date":"2025-11-10T22:42:39.509Z","date":"2025-11-10","time":"22:42:39","cor_ans":false},{"trial_type":"html-keyboard-response","rt":null,"stimulus":"<p style=\"color: red; font-size: 50px; font-weight: bold;\">Incorrect</p>","response":null,"trial_index":114,"plugin_version":"2.1.0","time_elapsed":218163,"subject_id":"86400","group":"Group1","full_date":"2025-11-10T22:42:39.509Z","date":"2025-11-10","time":"22:42:39"},{"correct_response":"a","task":"test_phase","broad_category":"M","image_png":"M_Slate_14.png","image_id":318,"category_name":"Slate","category":20,"distinct_rating":2.58,"distinct_type":"Bottom","item_type":"Foil","rt":895,"stimulus":"Stimuli_Rocks480/M_Slate_14.png","response":"l","trial_type":"image-keyboard-response","trial_index":115,"plugin_version":"2.1.0","time_elapsed":219060,"subject_id":"86400","group":"Group1","full_date":"2025-11-10T22:42:39.509Z","date":"2025-11-10","time":"22:42:39","cor_ans":false},{"trial_type":"html-keyboard-response","rt":null,"stimulus":"<p style=\"color: red; font-size: 50px; font-weight: bold;\">Incorrect</p>","response":null,"trial_index":116,"plugin_version":"2.1.0","time_elapsed":219561,"subject_id":"86400","group":"Group1","full_date":"2025-11-10T22:42:39.509Z","date":"2025-11-10","time":"22:42:39"},{"correct_response":"l","task":"test_phase","broad_category":"I","image_png":"I_Gabbro_16.png","image_id":64,"category_name":"Gabbro","category":4,"distinct_rating":2.52,"distinct_type":"Bottom","item_type":"Target","rt":567,"stimulus":"Stimuli_Rocks480/I_Gabbro_16.png","response":"l","trial_type":"image-keyboard-response","trial_index":117,"plugin_version":"2.1.0","time_elapsed":220130,"subject_id":"86400","group":"Group1","full_date":"2025-11-10T22:42:39.509Z","date":"2025-11-10","time":"22:42:39","cor_ans":true},{"trial_type":"html-keyboard-response","rt":null,"stimulus":"<p style=\"color: green; font-size: 50px; font-weight: bold;\">Correct</p>","response":null,"trial_index":118,"plugin_version":"2.1.0","time_elapsed":220632,"subject_id":"86400","group":"Group1","full_date":"2025-11-10T22:42:39.509Z","date":"2025-11-10","time":"22:42:39"},{"correct_response":"l","task":"test_phase","broad_category":"I","image_png":"I_Rhyolite_11.png","image_id":155,"category_name":"Rhyolite","category":10,"distinct_rating":1.73,"distinct_type":"Bottom","item_type":"Target","rt":1061,"stimulus":"Stimuli_Rocks480/I_Rhyolite_11.png","response":"l","trial_type":"image-keyboard-response","trial_index":119,"plugin_version":"2.1.0","time_elapsed":221695,"subject_id":"86400","group":"Group1","full_date":"2025-11-10T22:42:39.509Z","date":"2025-11-10","time":"22:42:39","cor_ans":true},{"trial_type":"html-keyboard-response","rt":null,"stimulus":"<p style=\"color: green; font-size: 50px; font-weight: bold;\">Correct</p>","response":null,"trial_index":120,"plugin_version":"2.1.0","time_elapsed":222196,"subject_id":"86400","group":"Group1","full_date":"2025-11-10T22:42:39.509Z","date":"2025-11-10","time":"22:42:39"},{"correct_response":"a","task":"test_phase","broad_category":"M","image_png":"M_Gneiss_10.png","image_id":202,"category_name":"Gneiss","category":13,"distinct_rating":3.09,"distinct_type":"Bottom","item_type":"Foil","rt":825,"stimulus":"Stimuli_Rocks480/M_Gneiss_10.png","response":"l","trial_type":"image-keyboard-response","trial_index":121,"plugin_version":"2.1.0","time_elapsed":223023,"subject_id":"86400","group":"Group1","full_date":"2025-11-10T22:42:39.509Z","date":"2025-11-10","time":"22:42:39","cor_ans":false},{"trial_type":"html-keyboard-response","rt":null,"stimulus":"<p style=\"color: red; font-size: 50px; font-weight: bold;\">Incorrect</p>","response":null,"trial_index":122,"plugin_version":"2.1.0","time_elapsed":223524,"subject_id":"86400","group":"Group1","full_date":"2025-11-10T22:42:39.509Z","date":"2025-11-10","time":"22:42:39"},{"correct_response":"a","task":"test_phase","broad_category":"I","image_png":"I_Andesite_04.png","image_id":4,"category_name":"Andesite","category":1,"distinct_rating":3.18,"distinct_type":"Bottom","item_type":"Foil","rt":903,"stimulus":"Stimuli_Rocks480/I_Andesite_04.png","response":"l","trial_type":"image-keyboard-response","trial_index":123,"plugin_version":"2.1.0","time_elapsed":224430,"subject_id":"86400","group":"Group1","full_date":"2025-11-10T22:42:39.509Z","date":"2025-11-10","time":"22:42:39","cor_ans":false},{"trial_type":"html-keyboard-response","rt":null,"stimulus":"<p style=\"color: red; font-size: 50px; font-weight: bold;\">Incorrect</p>","response":null,"trial_index":124,"plugin_version":"2.1.0","time_elapsed":224932,"subject_id":"86400","group":"Group1","full_date":"2025-11-10T22:42:39.509Z","date":"2025-11-10","time":"22:42:39"},{"correct_response":"l","task":"test_phase","broad_category":"M","image_png":"M_Marble_06.png","image_id":230,"category_name":"Marble","category":15,"distinct_rating":3.4,"distinct_type":"Bottom","item_type":"Target","rt":1081,"stimulus":"Stimuli_Rocks480/M_Marble_06.png","response":"a","trial_type":"image-keyboard-response","trial_index":125,"plugin_version":"2.1.0","time_elapsed":226015,"subject_id":"86400","group":"Group1","full_date":"2025-11-10T22:42:39.509Z","date":"2025-11-10","time":"22:42:39","cor_ans":false},{"trial_type":"html-keyboard-response","rt":null,"stimulus":"<p style=\"color: red; font-size: 50px; font-weight: bold;\">Incorrect</p>","response":null,"trial_index":126,"plugin_version":"2.1.0","time_elapsed":226516,"subject_id":"86400","group":"Group1","full_date":"2025-11-10T22:42:39.509Z","date":"2025-11-10","time":"22:42:39"},{"correct_response":"a","task":"test_phase","broad_category":"I","image_png":"I_Diorite_15.png","image_id":47,"category_name":"Diorite","category":3,"distinct_rating":3.05,"distinct_type":"Bottom","item_type":"Foil","rt":994,"stimulus":"Stimuli_Rocks480/I_Diorite_15.png","response":"a","trial_type":"image-keyboard-response","trial_index":127,"plugin_version":"2.1.0","time_elapsed":227512,"subject_id":"86400","group":"Group1","full_date":"2025-11-10T22:42:39.509Z","date":"2025-11-10","time":"22:42:39","cor_ans":true},{"trial_type":"html-keyboard-response","rt":null,"stimulus":"<p style=\"color: green; font-size: 50px; font-weight: bold;\">Correct</p>","response":null,"trial_index":128,"plugin_version":"2.1.0","time_elapsed":228013,"subject_id":"86400","group":"Group1","full_date":"2025-11-10T22:42:39.509Z","date":"2025-11-10","time":"22:42:39"},{"correct_response":"l","task":"test_phase","broad_category":"S","image_png":"S_Dolomite_12.png","image_id":396,"category_name":"Dolomite","category":25,"distinct_rating":1.85,"distinct_type":"Bottom","item_type":"Target","rt":1394,"stimulus":"Stimuli_Rocks480/S_Dolomite_12.png","response":"l","trial_type":"image-keyboard-response","trial_index":129,"plugin_version":"2.1.0","time_elapsed":229409,"subject_id":"86400","group":"Group1","full_date":"2025-11-10T22:42:39.509Z","date":"2025-11-10","time":"22:42:39","cor_ans":true},{"trial_type":"html-keyboard-response","rt":null,"stimulus":"<p style=\"color: green; font-size: 50px; font-weight: bold;\">Correct</p>","response":null,"trial_index":130,"plugin_version":"2.1.0","time_elapsed":229910,"subject_id":"86400","group":"Group1","full_date":"2025-11-10T22:42:39.509Z","date":"2025-11-10","time":"22:42:39"},{"correct_response":"a","task":"test_phase","broad_category":"I","image_png":"I_Andesite_03.png","image_id":3,"category_name":"Andesite","category":1,"distinct_rating":3.17,"distinct_type":"Bottom","item_type":"Foil","rt":863,"stimulus":"Stimuli_Rocks480/I_Andesite_03.png","response":"a","trial_type":"image-keyboard-response","trial_index":131,"plugin_version":"2.1.0","time_elapsed":230775,"subject_id":"86400","group":"Group1","full_date":"2025-11-10T22:42:39.509Z","date":"2025-11-10","time":"22:42:39","cor_ans":true},{"trial_type":"html-keyboard-response","rt":null,"stimulus":"<p style=\"color: green; font-size: 50px; font-weight: bold;\">Correct</p>","response":null,"trial_index":132,"plugin_version":"2.1.0","time_elapsed":231276,"subject_id":"86400","group":"Group1","full_date":"2025-11-10T22:42:39.509Z","date":"2025-11-10","time":"22:42:39"},{"correct_response":"l","task":"test_phase","broad_category":"S","image_png":"S_Shale_12.png","image_id":476,"category_name":"Shale","category":30,"distinct_rating":2.48,"distinct_type":"Bottom","item_type":"Target","rt":870,"stimulus":"Stimuli_Rocks480/S_Shale_12.png","response":"l","trial_type":"image-keyboard-response","trial_index":133,"plugin_version":"2.1.0","time_elapsed":232149,"subject_id":"86400","group":"Group1","full_date":"2025-11-10T22:42:39.509Z","date":"2025-11-10","time":"22:42:39","cor_ans":true},{"trial_type":"html-keyboard-response","rt":null,"stimulus":"<p style=\"color: green; font-size: 50px; font-weight: bold;\">Correct</p>","response":null,"trial_index":134,"plugin_version":"2.1.0","time_elapsed":232650,"subject_id":"86400","group":"Group1","full_date":"2025-11-10T22:42:39.509Z","date":"2025-11-10","time":"22:42:39"},{"correct_response":"l","task":"test_phase","broad_category":"M","image_png":"M_Marble_16.png","image_id":240,"category_name":"Marble","category":15,"distinct_rating":2.57,"distinct_type":"Bottom","item_type":"Target","rt":3641,"stimulus":"Stimuli_Rocks480/M_Marble_16.png","response":"l","trial_type":"image-keyboard-response","trial_index":135,"plugin_version":"2.1.0","time_elapsed":236292,"subject_id":"86400","group":"Group1","full_date":"2025-11-10T22:42:39.509Z","date":"2025-11-10","time":"22:42:39","cor_ans":true},{"trial_type":"html-keyboard-response","rt":null,"stimulus":"<p style=\"color: green; font-size: 50px; font-weight: bold;\">Correct</p>","response":null,"trial_index":136,"plugin_version":"2.1.0","time_elapsed":236794,"subject_id":"86400","group":"Group1","full_date":"2025-11-10T22:42:39.509Z","date":"2025-11-10","time":"22:42:39"},{"correct_response":"l","task":"test_phase","broad_category":"I","image_png":"I_Diorite_04.png","image_id":36,"category_name":"Diorite","category":3,"distinct_rating":2.98,"distinct_type":"Bottom","item_type":"Target","rt":1237,"stimulus":"Stimuli_Rocks480/I_Diorite_04.png","response":"l","trial_type":"image-keyboard-response","trial_index":137,"plugin_version":"2.1.0","time_elapsed":238032,"subject_id":"86400","group":"Group1","full_date":"2025-11-10T22:42:39.509Z","date":"2025-11-10","time":"22:42:39","cor_ans":true},{"trial_type":"html-keyboard-response","rt":null,"stimulus":"<p style=\"color: green; font-size: 50px; font-weight: bold;\">Correct</p>","response":null,"trial_index":138,"plugin_version":"2.1.0","time_elapsed":238534,"subject_id":"86400","group":"Group1","full_date":"2025-11-10T22:42:39.509Z","date":"2025-11-10","time":"22:42:39"},{"correct_response":"a","task":"test_phase","broad_category":"S","image_png":"S_Sandstone_04.png","image_id":452,"category_name":"Sandstone","category":29,"distinct_rating":1.8,"distinct_type":"Bottom","item_type":"Foil","rt":1518,"stimulus":"Stimuli_Rocks480/S_Sandstone_04.png","response":"a","trial_type":"image-keyboard-response","trial_index":139,"plugin_version":"2.1.0","time_elapsed":240054,"subject_id":"86400","group":"Group1","full_date":"2025-11-10T22:42:39.509Z","date":"2025-11-10","time":"22:42:39","cor_ans":true},{"trial_type":"html-keyboard-response","rt":null,"stimulus":"<p style=\"color: green; font-size: 50px; font-weight: bold;\">Correct</p>","response":null,"trial_index":140,"plugin_version":"2.1.0","time_elapsed":240555,"subject_id":"86400","group":"Group1","full_date":"2025-11-10T22:42:39.509Z","date":"2025-11-10","time":"22:42:39"},{"correct_response":"a","task":"test_phase","broad_category":"I","image_png":"I_Pumice_13.png","image_id":141,"category_name":"Pumice","category":9,"distinct_rating":3.12,"distinct_type":"Bottom","item_type":"Foil","rt":1147,"stimulus":"Stimuli_Rocks480/I_Pumice_13.png","response":"a","trial_type":"image-keyboard-response","trial_index":141,"plugin_version":"2.1.0","time_elapsed":241705,"subject_id":"86400","group":"Group1","full_date":"2025-11-10T22:42:39.509Z","date":"2025-11-10","time":"22:42:39","cor_ans":true},{"trial_type":"html-keyboard-response","rt":null,"stimulus":"<p style=\"color: green; font-size: 50px; font-weight: bold;\">Correct</p>","response":null,"trial_index":142,"plugin_version":"2.1.0","time_elapsed":242207,"subject_id":"86400","group":"Group1","full_date":"2025-11-10T22:42:39.509Z","date":"2025-11-10","time":"22:42:39"},{"correct_response":"l","task":"test_phase","broad_category":"S","image_png":"S_Breccia_11.png","image_id":347,"category_name":"Breccia","category":22,"distinct_rating":6.7,"distinct_type":"Top","item_type":"Target","rt":889,"stimulus":"Stimuli_Rocks480/S_Breccia_11.png","response":"l","trial_type":"image-keyboard-response","trial_index":143,"plugin_version":"2.1.0","time_elapsed":243098,"subject_id":"86400","group":"Group1","full_date":"2025-11-10T22:42:39.509Z","date":"2025-11-10","time":"22:42:39","cor_ans":true},{"trial_type":"html-keyboard-response","rt":null,"stimulus":"<p style=\"color: green; font-size: 50px; font-weight: bold;\">Correct</p>","response":null,"trial_index":144,"plugin_version":"2.1.0","time_elapsed":243600,"subject_id":"86400","group":"Group1","full_date":"2025-11-10T22:42:39.509Z","date":"2025-11-10","time":"22:42:39"},{"correct_response":"a","task":"test_phase","broad_category":"I","image_png":"I_Gabbro_02.png","image_id":50,"category_name":"Gabbro","category":4,"distinct_rating":2.73,"distinct_type":"Bottom","item_type":"Foil","rt":953,"stimulus":"Stimuli_Rocks480/I_Gabbro_02.png","response":"l","trial_type":"image-keyboard-response","trial_index":145,"plugin_version":"2.1.0","time_elapsed":244555,"subject_id":"86400","group":"Group1","full_date":"2025-11-10T22:42:39.509Z","date":"2025-11-10","time":"22:42:39","cor_ans":false},{"trial_type":"html-keyboard-response","rt":null,"stimulus":"<p style=\"color: red; font-size: 50px; font-weight: bold;\">Incorrect</p>","response":null,"trial_index":146,"plugin_version":"2.1.0","time_elapsed":245057,"subject_id":"86400","group":"Group1","full_date":"2025-11-10T22:42:39.509Z","date":"2025-11-10","time":"22:42:39"},{"correct_response":"l","task":"test_phase","broad_category":"I","image_png":"I_Pegmatite_10.png","image_id":106,"category_name":"Pegmatite","category":7,"distinct_rating":7.66,"distinct_type":"Top","item_type":"Target","rt":1086,"stimulus":"Stimuli_Rocks480/I_Pegmatite_10.png","response":"l","trial_type":"image-keyboard-response","trial_index":147,"plugin_version":"2.1.0","time_elapsed":246145,"subject_id":"86400","group":"Group1","full_date":"2025-11-10T22:42:39.509Z","date":"2025-11-10","time":"22:42:39","cor_ans":true},{"trial_type":"html-keyboard-response","rt":null,"stimulus":"<p style=\"color: green; font-size: 50px; font-weight: bold;\">Correct</p>","response":null,"trial_index":148,"plugin_version":"2.1.0","time_elapsed":246646,"subject_id":"86400","group":"Group1","full_date":"2025-11-10T22:42:39.509Z","date":"2025-11-10","time":"22:42:39"},{"correct_response":"l","task":"test_phase","broad_category":"I","image_png":"I_Basalt_02.png","image_id":18,"category_name":"Basalt","category":2,"distinct_rating":1.84,"distinct_type":"Bottom","item_type":"Target","rt":979,"stimulus":"Stimuli_Rocks480/I_Basalt_02.png","response":"l","trial_type":"image-keyboard-response","trial_index":149,"plugin_version":"2.1.0","time_elapsed":247628,"subject_id":"86400","group":"Group1","full_date":"2025-11-10T22:42:39.509Z","date":"2025-11-10","time":"22:42:39","cor_ans":true},{"trial_type":"html-keyboard-response","rt":null,"stimulus":"<p style=\"color: green; font-size: 50px; font-weight: bold;\">Correct</p>","response":null,"trial_index":150,"plugin_version":"2.1.0","time_elapsed":248129,"subject_id":"86400","group":"Group1","full_date":"2025-11-10T22:42:39.509Z","date":"2025-11-10","time":"22:42:39"},{"correct_response":"l","task":"test_phase","broad_category":"I","image_png":"I_Pegmatite_16.png","image_id":112,"category_name":"Pegmatite","category":7,"distinct_rating":7.03,"distinct_type":"Top","item_type":"Target","rt":1090,"stimulus":"Stimuli_Rocks480/I_Pegmatite_16.png","response":"a","trial_type":"image-keyboard-response","trial_index":151,"plugin_version":"2.1.0","time_elapsed":249221,"subject_id":"86400","group":"Group1","full_date":"2025-11-10T22:42:39.509Z","date":"2025-11-10","time":"22:42:39","cor_ans":false},{"trial_type":"html-keyboard-response","rt":null,"stimulus":"<p style=\"color: red; font-size: 50px; font-weight: bold;\">Incorrect</p>","response":null,"trial_index":152,"plugin_version":"2.1.0","time_elapsed":249723,"subject_id":"86400","group":"Group1","full_date":"2025-11-10T22:42:39.509Z","date":"2025-11-10","time":"22:42:39"},{"correct_response":"l","task":"test_phase","broad_category":"M","image_png":"M_Slate_11.png","image_id":315,"category_name":"Slate","category":20,"distinct_rating":2.75,"distinct_type":"Bottom","item_type":"Target","rt":797,"stimulus":"Stimuli_Rocks480/M_Slate_11.png","response":"l","trial_type":"image-keyboard-response","trial_index":153,"plugin_version":"2.1.0","time_elapsed":250522,"subject_id":"86400","group":"Group1","full_date":"2025-11-10T22:42:39.509Z","date":"2025-11-10","time":"22:42:39","cor_ans":true},{"trial_type":"html-keyboard-response","rt":null,"stimulus":"<p style=\"color: green; font-size: 50px; font-weight: bold;\">Correct</p>","response":null,"trial_index":154,"plugin_version":"2.1.0","time_elapsed":251023,"subject_id":"86400","group":"Group1","full_date":"2025-11-10T22:42:39.509Z","date":"2025-11-10","time":"22:42:39"},{"correct_response":"l","task":"test_phase","broad_category":"M","image_png":"M_Slate_15.png","image_id":319,"category_name":"Slate","category":20,"distinct_rating":2.13,"distinct_type":"Bottom","item_type":"Target","rt":1139,"stimulus":"Stimuli_Rocks480/M_Slate_15.png","response":"l","trial_type":"image-keyboard-response","trial_index":155,"plugin_version":"2.1.0","time_elapsed":252165,"subject_id":"86400","group":"Group1","full_date":"2025-11-10T22:42:39.509Z","date":"2025-11-10","time":"22:42:39","cor_ans":true},{"trial_type":"html-keyboard-response","rt":null,"stimulus":"<p style=\"color: green; font-size: 50px; font-weight: bold;\">Correct</p>","response":null,"trial_index":156,"plugin_version":"2.1.0","time_elapsed":252667,"subject_id":"86400","group":"Group1","full_date":"2025-11-10T22:42:39.509Z","date":"2025-11-10","time":"22:42:39"},{"correct_response":"l","task":"test_phase","broad_category":"S","image_png":"S_Dolomite_14.png","image_id":398,"category_name":"Dolomite","category":25,"distinct_rating":1.43,"distinct_type":"Bottom","item_type":"Target","rt":1138,"stimulus":"Stimuli_Rocks480/S_Dolomite_14.png","response":"l","trial_type":"image-keyboard-response","trial_index":157,"plugin_version":"2.1.0","time_elapsed":253807,"subject_id":"86400","group":"Group1","full_date":"2025-11-10T22:42:39.509Z","date":"2025-11-10","time":"22:42:39","cor_ans":true},{"trial_type":"html-keyboard-response","rt":null,"stimulus":"<p style=\"color: green; font-size: 50px; font-weight: bold;\">Correct</p>","response":null,"trial_index":158,"plugin_version":"2.1.0","time_elapsed":254309,"subject_id":"86400","group":"Group1","full_date":"2025-11-10T22:42:39.509Z","date":"2025-11-10","time":"22:42:39"},{"correct_response":"l","task":"test_phase","broad_category":"M","image_png":"M_Quartzite_08.png","image_id":280,"category_name":"Quartzite","category":18,"distinct_rating":2.15,"distinct_type":"Bottom","item_type":"Target","rt":830,"stimulus":"Stimuli_Rocks480/M_Quartzite_08.png","response":"l","trial_type":"image-keyboard-response","trial_index":159,"plugin_version":"2.1.0","time_elapsed":255141,"subject_id":"86400","group":"Group1","full_date":"2025-11-10T22:42:39.509Z","date":"2025-11-10","time":"22:42:39","cor_ans":true},{"trial_type":"html-keyboard-response","rt":null,"stimulus":"<p style=\"color: green; font-size: 50px; font-weight: bold;\">Correct</p>","response":null,"trial_index":160,"plugin_version":"2.1.0","time_elapsed":255642,"subject_id":"86400","group":"Group1","full_date":"2025-11-10T22:42:39.509Z","date":"2025-11-10","time":"22:42:39"},{"correct_response":"l","task":"test_phase","broad_category":"M","image_png":"M_Phyllite_07.png","image_id":263,"category_name":"Phyllite","category":17,"distinct_rating":2.59,"distinct_type":"Bottom","item_type":"Target","rt":1285,"stimulus":"Stimuli_Rocks480/M_Phyllite_07.png","response":"l","trial_type":"image-keyboard-response","trial_index":161,"plugin_version":"2.1.0","time_elapsed":256929,"subject_id":"86400","group":"Group1","full_date":"2025-11-10T22:42:39.509Z","date":"2025-11-10","time":"22:42:39","cor_ans":true},{"trial_type":"html-keyboard-response","rt":null,"stimulus":"<p style=\"color: green; font-size: 50px; font-weight: bold;\">Correct</p>","response":null,"trial_index":162,"plugin_version":"2.1.0","time_elapsed":257431,"subject_id":"86400","group":"Group1","full_date":"2025-11-10T22:42:39.509Z","date":"2025-11-10","time":"22:42:39"},{"correct_response":"l","task":"test_phase","broad_category":"S","image_png":"S_Sandstone_15.png","image_id":463,"category_name":"Sandstone","category":29,"distinct_rating":2,"distinct_type":"Bottom","item_type":"Target","rt":2740,"stimulus":"Stimuli_Rocks480/S_Sandstone_15.png","response":"a","trial_type":"image-keyboard-response","trial_index":163,"plugin_version":"2.1.0","time_elapsed":260173,"subject_id":"86400","group":"Group1","full_date":"2025-11-10T22:42:39.509Z","date":"2025-11-10","time":"22:42:39","cor_ans":false},{"trial_type":"html-keyboard-response","rt":null,"stimulus":"<p style=\"color: red; font-size: 50px; font-weight: bold;\">Incorrect</p>","response":null,"trial_index":164,"plugin_version":"2.1.0","time_elapsed":260674,"subject_id":"86400","group":"Group1","full_date":"2025-11-10T22:42:39.509Z","date":"2025-11-10","time":"22:42:39"},{"correct_response":"a","task":"test_phase","broad_category":"M","image_png":"M_Quartzite_12.png","image_id":284,"category_name":"Quartzite","category":18,"distinct_rating":1.92,"distinct_type":"Bottom","item_type":"Foil","rt":843,"stimulus":"Stimuli_Rocks480/M_Quartzite_12.png","response":"l","trial_type":"image-keyboard-response","trial_index":165,"plugin_version":"2.1.0","time_elapsed":261519,"subject_id":"86400","group":"Group1","full_date":"2025-11-10T22:42:39.509Z","date":"2025-11-10","time":"22:42:39","cor_ans":false},{"trial_type":"html-keyboard-response","rt":null,"stimulus":"<p style=\"color: red; font-size: 50px; font-weight: bold;\">Incorrect</p>","response":null,"trial_index":166,"plugin_version":"2.1.0","time_elapsed":262020,"subject_id":"86400","group":"Group1","full_date":"2025-11-10T22:42:39.509Z","date":"2025-11-10","time":"22:42:39"},{"correct_response":"l","task":"test_phase","broad_category":"I","image_png":"I_Gabbro_11.png","image_id":59,"category_name":"Gabbro","category":4,"distinct_rating":1.99,"distinct_type":"Bottom","item_type":"Target","rt":587,"stimulus":"Stimuli_Rocks480/I_Gabbro_11.png","response":"l","trial_type":"image-keyboard-response","trial_index":167,"plugin_version":"2.1.0","time_elapsed":262609,"subject_id":"86400","group":"Group1","full_date":"2025-11-10T22:42:39.509Z","date":"2025-11-10","time":"22:42:39","cor_ans":true},{"trial_type":"html-keyboard-response","rt":null,"stimulus":"<p style=\"color: green; font-size: 50px; font-weight: bold;\">Correct</p>","response":null,"trial_index":168,"plugin_version":"2.1.0","time_elapsed":263111,"subject_id":"86400","group":"Group1","full_date":"2025-11-10T22:42:39.509Z","date":"2025-11-10","time":"22:42:39"},{"correct_response":"a","task":"test_phase","broad_category":"I","image_png":"I_Pumice_14.png","image_id":142,"category_name":"Pumice","category":9,"distinct_rating":3.22,"distinct_type":"Bottom","item_type":"Foil","rt":845,"stimulus":"Stimuli_Rocks480/I_Pumice_14.png","response":"l","trial_type":"image-keyboard-response","trial_index":169,"plugin_version":"2.1.0","time_elapsed":263958,"subject_id":"86400","group":"Group1","full_date":"2025-11-10T22:42:39.509Z","date":"2025-11-10","time":"22:42:39","cor_ans":false},{"trial_type":"html-keyboard-response","rt":null,"stimulus":"<p style=\"color: red; font-size: 50px; font-weight: bold;\">Incorrect</p>","response":null,"trial_index":170,"plugin_version":"2.1.0","time_elapsed":264459,"subject_id":"86400","group":"Group1","full_date":"2025-11-10T22:42:39.509Z","date":"2025-11-10","time":"22:42:39"},{"correct_response":"l","task":"test_phase","broad_category":"I","image_png":"I_Rhyolite_16.png","image_id":160,"category_name":"Rhyolite","category":10,"distinct_rating":2.19,"distinct_type":"Bottom","item_type":"Target","rt":1139,"stimulus":"Stimuli_Rocks480/I_Rhyolite_16.png","response":"l","trial_type":"image-keyboard-response","trial_index":171,"plugin_version":"2.1.0","time_elapsed":265600,"subject_id":"86400","group":"Group1","full_date":"2025-11-10T22:42:39.509Z","date":"2025-11-10","time":"22:42:39","cor_ans":true},{"trial_type":"html-keyboard-response","rt":null,"stimulus":"<p style=\"color: green; font-size: 50px; font-weight: bold;\">Correct</p>","response":null,"trial_index":172,"plugin_version":"2.1.0","time_elapsed":266102,"subject_id":"86400","group":"Group1","full_date":"2025-11-10T22:42:39.509Z","date":"2025-11-10","time":"22:42:39"},{"correct_response":"a","task":"test_phase","broad_category":"M","image_png":"M_Quartzite_07.png","image_id":279,"category_name":"Quartzite","category":18,"distinct_rating":1.97,"distinct_type":"Bottom","item_type":"Foil","rt":1199,"stimulus":"Stimuli_Rocks480/M_Quartzite_07.png","response":"l","trial_type":"image-keyboard-response","trial_index":173,"plugin_version":"2.1.0","time_elapsed":267302,"subject_id":"86400","group":"Group1","full_date":"2025-11-10T22:42:39.509Z","date":"2025-11-10","time":"22:42:39","cor_ans":false},{"trial_type":"html-keyboard-response","rt":null,"stimulus":"<p style=\"color: red; font-size: 50px; font-weight: bold;\">Incorrect</p>","response":null,"trial_index":174,"plugin_version":"2.1.0","time_elapsed":267804,"subject_id":"86400","group":"Group1","full_date":"2025-11-10T22:42:39.509Z","date":"2025-11-10","time":"22:42:39"},{"correct_response":"a","task":"test_phase","broad_category":"S","image_png":"S_Dolomite_01.png","image_id":385,"category_name":"Dolomite","category":25,"distinct_rating":1.43,"distinct_type":"Bottom","item_type":"Foil","rt":559,"stimulus":"Stimuli_Rocks480/S_Dolomite_01.png","response":"a","trial_type":"image-keyboard-response","trial_index":175,"plugin_version":"2.1.0","time_elapsed":268365,"subject_id":"86400","group":"Group1","full_date":"2025-11-10T22:42:39.509Z","date":"2025-11-10","time":"22:42:39","cor_ans":true},{"trial_type":"html-keyboard-response","rt":null,"stimulus":"<p style=\"color: green; font-size: 50px; font-weight: bold;\">Correct</p>","response":null,"trial_index":176,"plugin_version":"2.1.0","time_elapsed":268866,"subject_id":"86400","group":"Group1","full_date":"2025-11-10T22:42:39.509Z","date":"2025-11-10","time":"22:42:39"},{"correct_response":"l","task":"test_phase","broad_category":"I","image_png":"I_Pumice_11.png","image_id":139,"category_name":"Pumice","category":9,"distinct_rating":1.74,"distinct_type":"Bottom","item_type":"Target","rt":911,"stimulus":"Stimuli_Rocks480/I_Pumice_11.png","response":"l","trial_type":"image-keyboard-response","trial_index":177,"plugin_version":"2.1.0","time_elapsed":269779,"subject_id":"86400","group":"Group1","full_date":"2025-11-10T22:42:39.509Z","date":"2025-11-10","time":"22:42:39","cor_ans":true},{"trial_type":"html-keyboard-response","rt":null,"stimulus":"<p style=\"color: green; font-size: 50px; font-weight: bold;\">Correct</p>","response":null,"trial_index":178,"plugin_version":"2.1.0","time_elapsed":270281,"subject_id":"86400","group":"Group1","full_date":"2025-11-10T22:42:39.509Z","date":"2025-11-10","time":"22:42:39"},{"correct_response":"a","task":"test_phase","broad_category":"S","image_png":"S_Shale_07.png","image_id":471,"category_name":"Shale","category":30,"distinct_rating":2.73,"distinct_type":"Bottom","item_type":"Foil","rt":1466,"stimulus":"Stimuli_Rocks480/S_Shale_07.png","response":"l","trial_type":"image-keyboard-response","trial_index":179,"plugin_version":"2.1.0","time_elapsed":271750,"subject_id":"86400","group":"Group1","full_date":"2025-11-10T22:42:39.509Z","date":"2025-11-10","time":"22:42:39","cor_ans":false},{"trial_type":"html-keyboard-response","rt":null,"stimulus":"<p style=\"color: red; font-size: 50px; font-weight: bold;\">Incorrect</p>","response":null,"trial_index":180,"plugin_version":"2.1.0","time_elapsed":272252,"subject_id":"86400","group":"Group1","full_date":"2025-11-10T22:42:39.509Z","date":"2025-11-10","time":"22:42:39"},{"correct_response":"l","task":"test_phase","broad_category":"S","image_png":"S_Chert_10.png","image_id":362,"category_name":"Chert","category":23,"distinct_rating":7.17,"distinct_type":"Top","item_type":"Target","rt":616,"stimulus":"Stimuli_Rocks480/S_Chert_10.png","response":"a","trial_type":"image-keyboard-response","trial_index":181,"plugin_version":"2.1.0","time_elapsed":272870,"subject_id":"86400","group":"Group1","full_date":"2025-11-10T22:42:39.509Z","date":"2025-11-10","time":"22:42:39","cor_ans":false},{"trial_type":"html-keyboard-response","rt":null,"stimulus":"<p style=\"color: red; font-size: 50px; font-weight: bold;\">Incorrect</p>","response":null,"trial_index":182,"plugin_version":"2.1.0","time_elapsed":273371,"subject_id":"86400","group":"Group1","full_date":"2025-11-10T22:42:39.509Z","date":"2025-11-10","time":"22:42:39"},{"correct_response":"a","task":"test_phase","broad_category":"M","image_png":"M_Marble_14.png","image_id":238,"category_name":"Marble","category":15,"distinct_rating":3.31,"distinct_type":"Bottom","item_type":"Foil","rt":634,"stimulus":"Stimuli_Rocks480/M_Marble_14.png","response":"l","trial_type":"image-keyboard-response","trial_index":183,"plugin_version":"2.1.0","time_elapsed":274008,"subject_id":"86400","group":"Group1","full_date":"2025-11-10T22:42:39.509Z","date":"2025-11-10","time":"22:42:39","cor_ans":false},{"trial_type":"html-keyboard-response","rt":null,"stimulus":"<p style=\"color: red; font-size: 50px; font-weight: bold;\">Incorrect</p>","response":null,"trial_index":184,"plugin_version":"2.1.0","time_elapsed":274509,"subject_id":"86400","group":"Group1","full_date":"2025-11-10T22:42:39.509Z","date":"2025-11-10","time":"22:42:39"},{"correct_response":"a","task":"test_phase","broad_category":"I","image_png":"I_Peridotite_13.png","image_id":125,"category_name":"Peridotite","category":8,"distinct_rating":7.28,"distinct_type":"Top","item_type":"Foil","rt":320,"stimulus":"Stimuli_Rocks480/I_Peridotite_13.png","response":"l","trial_type":"image-keyboard-response","trial_index":185,"plugin_version":"2.1.0","time_elapsed":274831,"subject_id":"86400","group":"Group1","full_date":"2025-11-10T22:42:39.509Z","date":"2025-11-10","time":"22:42:39","cor_ans":false},{"trial_type":"html-keyboard-response","rt":null,"stimulus":"<p style=\"color: red; font-size: 50px; font-weight: bold;\">Incorrect</p>","response":null,"trial_index":186,"plugin_version":"2.1.0","time_elapsed":275333,"subject_id":"86400","group":"Group1","full_date":"2025-11-10T22:42:39.509Z","date":"2025-11-10","time":"22:42:39"},{"correct_response":"l","task":"test_phase","broad_category":"I","image_png":"I_Basalt_09.png","image_id":25,"category_name":"Basalt","category":2,"distinct_rating":1.89,"distinct_type":"Bottom","item_type":"Target","rt":643,"stimulus":"Stimuli_Rocks480/I_Basalt_09.png","response":"l","trial_type":"image-keyboard-response","trial_index":187,"plugin_version":"2.1.0","time_elapsed":275978,"subject_id":"86400","group":"Group1","full_date":"2025-11-10T22:42:39.509Z","date":"2025-11-10","time":"22:42:39","cor_ans":true},{"trial_type":"html-keyboard-response","rt":null,"stimulus":"<p style=\"color: green; font-size: 50px; font-weight: bold;\">Correct</p>","response":null,"trial_index":188,"plugin_version":"2.1.0","time_elapsed":276480,"subject_id":"86400","group":"Group1","full_date":"2025-11-10T22:42:39.509Z","date":"2025-11-10","time":"22:42:39"},{"correct_response":"l","task":"test_phase","broad_category":"S","image_png":"S_Dolomite_13.png","image_id":397,"category_name":"Dolomite","category":25,"distinct_rating":1.77,"distinct_type":"Bottom","item_type":"Target","rt":1149,"stimulus":"Stimuli_Rocks480/S_Dolomite_13.png","response":"l","trial_type":"image-keyboard-response","trial_index":189,"plugin_version":"2.1.0","time_elapsed":277631,"subject_id":"86400","group":"Group1","full_date":"2025-11-10T22:42:39.509Z","date":"2025-11-10","time":"22:42:39","cor_ans":true},{"trial_type":"html-keyboard-response","rt":null,"stimulus":"<p style=\"color: green; font-size: 50px; font-weight: bold;\">Correct</p>","response":null,"trial_index":190,"plugin_version":"2.1.0","time_elapsed":278132,"subject_id":"86400","group":"Group1","full_date":"2025-11-10T22:42:39.509Z","date":"2025-11-10","time":"22:42:39"},{"correct_response":"l","task":"test_phase","broad_category":"I","image_png":"I_Basalt_01.png","image_id":17,"category_name":"Basalt","category":2,"distinct_rating":1.92,"distinct_type":"Bottom","item_type":"Target","rt":1074,"stimulus":"Stimuli_Rocks480/I_Basalt_01.png","response":"l","trial_type":"image-keyboard-response","trial_index":191,"plugin_version":"2.1.0","time_elapsed":279208,"subject_id":"86400","group":"Group1","full_date":"2025-11-10T22:42:39.509Z","date":"2025-11-10","time":"22:42:39","cor_ans":true},{"trial_type":"html-keyboard-response","rt":null,"stimulus":"<p style=\"color: green; font-size: 50px; font-weight: bold;\">Correct</p>","response":null,"trial_index":192,"plugin_version":"2.1.0","time_elapsed":279710,"subject_id":"86400","group":"Group1","full_date":"2025-11-10T22:42:39.509Z","date":"2025-11-10","time":"22:42:39"},{"correct_response":"a","task":"test_phase","broad_category":"M","image_png":"M_Slate_04.png","image_id":308,"category_name":"Slate","category":20,"distinct_rating":2.2,"distinct_type":"Bottom","item_type":"Foil","rt":1768,"stimulus":"Stimuli_Rocks480/M_Slate_04.png","response":"l","trial_type":"image-keyboard-response","trial_index":193,"plugin_version":"2.1.0","time_elapsed":281479,"subject_id":"86400","group":"Group1","full_date":"2025-11-10T22:42:39.509Z","date":"2025-11-10","time":"22:42:39","cor_ans":false},{"trial_type":"html-keyboard-response","rt":null,"stimulus":"<p style=\"color: red; font-size: 50px; font-weight: bold;\">Incorrect</p>","response":null,"trial_index":194,"plugin_version":"2.1.0","time_elapsed":281981,"subject_id":"86400","group":"Group1","full_date":"2025-11-10T22:42:39.509Z","date":"2025-11-10","time":"22:42:39"},{"correct_response":"a","task":"test_phase","broad_category":"I","image_png":"I_Obsidian_06.png","image_id":86,"category_name":"Obsidian","category":6,"distinct_rating":8.01,"distinct_type":"Top","item_type":"Foil","rt":1452,"stimulus":"Stimuli_Rocks480/I_Obsidian_06.png","response":"a","trial_type":"image-keyboard-response","trial_index":195,"plugin_version":"2.1.0","time_elapsed":283435,"subject_id":"86400","group":"Group1","full_date":"2025-11-10T22:42:39.509Z","date":"2025-11-10","time":"22:42:39","cor_ans":true},{"trial_type":"html-keyboard-response","rt":null,"stimulus":"<p style=\"color: green; font-size: 50px; font-weight: bold;\">Correct</p>","response":null,"trial_index":196,"plugin_version":"2.1.0","time_elapsed":283937,"subject_id":"86400","group":"Group1","full_date":"2025-11-10T22:42:39.509Z","date":"2025-11-10","time":"22:42:39"},{"correct_response":"l","task":"test_phase","broad_category":"S","image_png":"S_Conglomerate_05.png","image_id":373,"category_name":"Conglomerate","category":24,"distinct_rating":7.32,"distinct_type":"Top","item_type":"Target","rt":1060,"stimulus":"Stimuli_Rocks480/S_Conglomerate_05.png","response":"a","trial_type":"image-keyboard-response","trial_index":197,"plugin_version":"2.1.0","time_elapsed":285000,"subject_id":"86400","group":"Group1","full_date":"2025-11-10T22:42:39.509Z","date":"2025-11-10","time":"22:42:39","cor_ans":false},{"trial_type":"html-keyboard-response","rt":null,"stimulus":"<p style=\"color: red; font-size: 50px; font-weight: bold;\">Incorrect</p>","response":null,"trial_index":198,"plugin_version":"2.1.0","time_elapsed":285502,"subject_id":"86400","group":"Group1","full_date":"2025-11-10T22:42:39.509Z","date":"2025-11-10","time":"22:42:39"},{"correct_response":"l","task":"test_phase","broad_category":"I","image_png":"I_Pumice_08.png","image_id":136,"category_name":"Pumice","category":9,"distinct_rating":3.1,"distinct_type":"Bottom","item_type":"Target","rt":507,"stimulus":"Stimuli_Rocks480/I_Pumice_08.png","response":"l","trial_type":"image-keyboard-response","trial_index":199,"plugin_version":"2.1.0","time_elapsed":286012,"subject_id":"86400","group":"Group1","full_date":"2025-11-10T22:42:39.509Z","date":"2025-11-10","time":"22:42:39","cor_ans":true},{"trial_type":"html-keyboard-response","rt":null,"stimulus":"<p style=\"color: green; font-size: 50px; font-weight: bold;\">Correct</p>","response":null,"trial_index":200,"plugin_version":"2.1.0","time_elapsed":286514,"subject_id":"86400","group":"Group1","full_date":"2025-11-10T22:42:39.509Z","date":"2025-11-10","time":"22:42:39"},{"correct_response":"a","task":"test_phase","broad_category":"S","image_png":"S_Shale_02.png","image_id":466,"category_name":"Shale","category":30,"distinct_rating":2.9,"distinct_type":"Bottom","item_type":"Foil","rt":697,"stimulus":"Stimuli_Rocks480/S_Shale_02.png","response":"l","trial_type":"image-keyboard-response","trial_index":201,"plugin_version":"2.1.0","time_elapsed":287214,"subject_id":"86400","group":"Group1","full_date":"2025-11-10T22:42:39.509Z","date":"2025-11-10","time":"22:42:39","cor_ans":false},{"trial_type":"html-keyboard-response","rt":null,"stimulus":"<p style=\"color: red; font-size: 50px; font-weight: bold;\">Incorrect</p>","response":null,"trial_index":202,"plugin_version":"2.1.0","time_elapsed":287717,"subject_id":"86400","group":"Group1","full_date":"2025-11-10T22:42:39.509Z","date":"2025-11-10","time":"22:42:39"},{"correct_response":"a","task":"test_phase","broad_category":"I","image_png":"I_Basalt_13.png","image_id":29,"category_name":"Basalt","category":2,"distinct_rating":2.68,"distinct_type":"Bottom","item_type":"Foil","rt":1174,"stimulus":"Stimuli_Rocks480/I_Basalt_13.png","response":"l","trial_type":"image-keyboard-response","trial_index":203,"plugin_version":"2.1.0","time_elapsed":288894,"subject_id":"86400","group":"Group1","full_date":"2025-11-10T22:42:39.509Z","date":"2025-11-10","time":"22:42:39","cor_ans":false},{"trial_type":"html-keyboard-response","rt":null,"stimulus":"<p style=\"color: red; font-size: 50px; font-weight: bold;\">Incorrect</p>","response":null,"trial_index":204,"plugin_version":"2.1.0","time_elapsed":289397,"subject_id":"86400","group":"Group1","full_date":"2025-11-10T22:42:39.509Z","date":"2025-11-10","time":"22:42:39"},{"correct_response":"a","task":"test_phase","broad_category":"S","image_png":"S_Dolomite_07.png","image_id":391,"category_name":"Dolomite","category":25,"distinct_rating":1.73,"distinct_type":"Bottom","item_type":"Foil","rt":1318,"stimulus":"Stimuli_Rocks480/S_Dolomite_07.png","response":"l","trial_type":"image-keyboard-response","trial_index":205,"plugin_version":"2.1.0","time_elapsed":290718,"subject_id":"86400","group":"Group1","full_date":"2025-11-10T22:42:39.509Z","date":"2025-11-10","time":"22:42:39","cor_ans":false},{"trial_type":"html-keyboard-response","rt":null,"stimulus":"<p style=\"color: red; font-size: 50px; font-weight: bold;\">Incorrect</p>","response":null,"trial_index":206,"plugin_version":"2.1.0","time_elapsed":291220,"subject_id":"86400","group":"Group1","full_date":"2025-11-10T22:42:39.509Z","date":"2025-11-10","time":"22:42:39"},{"correct_response":"l","task":"test_phase","broad_category":"M","image_png":"M_Quartzite_05.png","image_id":277,"category_name":"Quartzite","category":18,"distinct_rating":2.23,"distinct_type":"Bottom","item_type":"Target","rt":711,"stimulus":"Stimuli_Rocks480/M_Quartzite_05.png","response":"l","trial_type":"image-keyboard-response","trial_index":207,"plugin_version":"2.1.0","time_elapsed":291933,"subject_id":"86400","group":"Group1","full_date":"2025-11-10T22:42:39.509Z","date":"2025-11-10","time":"22:42:39","cor_ans":true},{"trial_type":"html-keyboard-response","rt":null,"stimulus":"<p style=\"color: green; font-size: 50px; font-weight: bold;\">Correct</p>","response":null,"trial_index":208,"plugin_version":"2.1.0","time_elapsed":292436,"subject_id":"86400","group":"Group1","full_date":"2025-11-10T22:42:39.509Z","date":"2025-11-10","time":"22:42:39"},{"correct_response":"a","task":"test_phase","broad_category":"S","image_png":"S_Chert_13.png","image_id":365,"category_name":"Chert","category":23,"distinct_rating":6.57,"distinct_type":"Top","item_type":"Foil","rt":675,"stimulus":"Stimuli_Rocks480/S_Chert_13.png","response":"a","trial_type":"image-keyboard-response","trial_index":209,"plugin_version":"2.1.0","time_elapsed":293113,"subject_id":"86400","group":"Group1","full_date":"2025-11-10T22:42:39.509Z","date":"2025-11-10","time":"22:42:39","cor_ans":true},{"trial_type":"html-keyboard-response","rt":null,"stimulus":"<p style=\"color: green; font-size: 50px; font-weight: bold;\">Correct</p>","response":null,"trial_index":210,"plugin_version":"2.1.0","time_elapsed":293614,"subject_id":"86400","group":"Group1","full_date":"2025-11-10T22:42:39.509Z","date":"2025-11-10","time":"22:42:39"},{"correct_response":"a","task":"test_phase","broad_category":"I","image_png":"I_Pegmatite_11.png","image_id":107,"category_name":"Pegmatite","category":7,"distinct_rating":7.11,"distinct_type":"Top","item_type":"Foil","rt":1449,"stimulus":"Stimuli_Rocks480/I_Pegmatite_11.png","response":"a","trial_type":"image-keyboard-response","trial_index":211,"plugin_version":"2.1.0","time_elapsed":295067,"subject_id":"86400","group":"Group1","full_date":"2025-11-10T22:42:39.509Z","date":"2025-11-10","time":"22:42:39","cor_ans":true},{"trial_type":"html-keyboard-response","rt":null,"stimulus":"<p style=\"color: green; font-size: 50px; font-weight: bold;\">Correct</p>","response":null,"trial_index":212,"plugin_version":"2.1.0","time_elapsed":295569,"subject_id":"86400","group":"Group1","full_date":"2025-11-10T22:42:39.509Z","date":"2025-11-10","time":"22:42:39"},{"correct_response":"a","task":"test_phase","broad_category":"S","image_png":"S_Conglomerate_14.png","image_id":382,"category_name":"Conglomerate","category":24,"distinct_rating":6.86,"distinct_type":"Top","item_type":"Foil","rt":951,"stimulus":"Stimuli_Rocks480/S_Conglomerate_14.png","response":"a","trial_type":"image-keyboard-response","trial_index":213,"plugin_version":"2.1.0","time_elapsed":296523,"subject_id":"86400","group":"Group1","full_date":"2025-11-10T22:42:39.509Z","date":"2025-11-10","time":"22:42:39","cor_ans":true},{"trial_type":"html-keyboard-response","rt":null,"stimulus":"<p style=\"color: green; font-size: 50px; font-weight: bold;\">Correct</p>","response":null,"trial_index":214,"plugin_version":"2.1.0","time_elapsed":297025,"subject_id":"86400","group":"Group1","full_date":"2025-11-10T22:42:39.509Z","date":"2025-11-10","time":"22:42:39"},{"correct_response":"a","task":"test_phase","broad_category":"S","image_png":"S_Shale_03.png","image_id":467,"category_name":"Shale","category":30,"distinct_rating":1.95,"distinct_type":"Bottom","item_type":"Foil","rt":955,"stimulus":"Stimuli_Rocks480/S_Shale_03.png","response":"l","trial_type":"image-keyboard-response","trial_index":215,"plugin_version":"2.1.0","time_elapsed":297983,"subject_id":"86400","group":"Group1","full_date":"2025-11-10T22:42:39.509Z","date":"2025-11-10","time":"22:42:39","cor_ans":false},{"trial_type":"html-keyboard-response","rt":null,"stimulus":"<p style=\"color: red; font-size: 50px; font-weight: bold;\">Incorrect</p>","response":null,"trial_index":216,"plugin_version":"2.1.0","time_elapsed":298486,"subject_id":"86400","group":"Group1","full_date":"2025-11-10T22:42:39.509Z","date":"2025-11-10","time":"22:42:39"},{"correct_response":"a","task":"test_phase","broad_category":"S","image_png":"S_Rock Salt_13.png","image_id":445,"category_name":"Rock Salt","category":28,"distinct_rating":7.58,"distinct_type":"Top","item_type":"Foil","rt":1025,"stimulus":"Stimuli_Rocks480/S_Rock Salt_13.png","response":"a","trial_type":"image-keyboard-response","trial_index":217,"plugin_version":"2.1.0","time_elapsed":299514,"subject_id":"86400","group":"Group1","full_date":"2025-11-10T22:42:39.509Z","date":"2025-11-10","time":"22:42:39","cor_ans":true},{"trial_type":"html-keyboard-response","rt":null,"stimulus":"<p style=\"color: green; font-size: 50px; font-weight: bold;\">Correct</p>","response":null,"trial_index":218,"plugin_version":"2.1.0","time_elapsed":300016,"subject_id":"86400","group":"Group1","full_date":"2025-11-10T22:42:39.509Z","date":"2025-11-10","time":"22:42:39"},{"correct_response":"a","task":"test_phase","broad_category":"M","image_png":"M_Phyllite_02.png","image_id":258,"category_name":"Phyllite","category":17,"distinct_rating":2.89,"distinct_type":"Bottom","item_type":"Foil","rt":1064,"stimulus":"Stimuli_Rocks480/M_Phyllite_02.png","response":"l","trial_type":"image-keyboard-response","trial_index":219,"plugin_version":"2.1.0","time_elapsed":301083,"subject_id":"86400","group":"Group1","full_date":"2025-11-10T22:42:39.509Z","date":"2025-11-10","time":"22:42:39","cor_ans":false},{"trial_type":"html-keyboard-response","rt":null,"stimulus":"<p style=\"color: red; font-size: 50px; font-weight: bold;\">Incorrect</p>","response":null,"trial_index":220,"plugin_version":"2.1.0","time_elapsed":301585,"subject_id":"86400","group":"Group1","full_date":"2025-11-10T22:42:39.509Z","date":"2025-11-10","time":"22:42:39"},{"correct_response":"a","task":"test_phase","broad_category":"I","image_png":"I_Diorite_10.png","image_id":42,"category_name":"Diorite","category":3,"distinct_rating":2.84,"distinct_type":"Bottom","item_type":"Foil","rt":1733,"stimulus":"Stimuli_Rocks480/I_Diorite_10.png","response":"a","trial_type":"image-keyboard-response","trial_index":221,"plugin_version":"2.1.0","time_elapsed":303321,"subject_id":"86400","group":"Group1","full_date":"2025-11-10T22:42:39.509Z","date":"2025-11-10","time":"22:42:39","cor_ans":true},{"trial_type":"html-keyboard-response","rt":null,"stimulus":"<p style=\"color: green; font-size: 50px; font-weight: bold;\">Correct</p>","response":null,"trial_index":222,"plugin_version":"2.1.0","time_elapsed":303822,"subject_id":"86400","group":"Group1","full_date":"2025-11-10T22:42:39.509Z","date":"2025-11-10","time":"22:42:39"},{"correct_response":"a","task":"test_phase","broad_category":"I","image_png":"I_Diorite_01.png","image_id":33,"category_name":"Diorite","category":3,"distinct_rating":2.97,"distinct_type":"Bottom","item_type":"Foil","rt":1509,"stimulus":"Stimuli_Rocks480/I_Diorite_01.png","response":"l","trial_type":"image-keyboard-response","trial_index":223,"plugin_version":"2.1.0","time_elapsed":305334,"subject_id":"86400","group":"Group1","full_date":"2025-11-10T22:42:39.509Z","date":"2025-11-10","time":"22:42:39","cor_ans":false},{"trial_type":"html-keyboard-response","rt":null,"stimulus":"<p style=\"color: red; font-size: 50px; font-weight: bold;\">Incorrect</p>","response":null,"trial_index":224,"plugin_version":"2.1.0","time_elapsed":305836,"subject_id":"86400","group":"Group1","full_date":"2025-11-10T22:42:39.509Z","date":"2025-11-10","time":"22:42:39"},{"correct_response":"a","task":"test_phase","broad_category":"M","image_png":"M_Phyllite_05.png","image_id":261,"category_name":"Phyllite","category":17,"distinct_rating":2.14,"distinct_type":"Bottom","item_type":"Foil","rt":569,"stimulus":"Stimuli_Rocks480/M_Phyllite_05.png","response":"l","trial_type":"image-keyboard-response","trial_index":225,"plugin_version":"2.1.0","time_elapsed":306407,"subject_id":"86400","group":"Group1","full_date":"2025-11-10T22:42:39.509Z","date":"2025-11-10","time":"22:42:39","cor_ans":false},{"trial_type":"html-keyboard-response","rt":null,"stimulus":"<p style=\"color: red; font-size: 50px; font-weight: bold;\">Incorrect</p>","response":null,"trial_index":226,"plugin_version":"2.1.0","time_elapsed":306909,"subject_id":"86400","group":"Group1","full_date":"2025-11-10T22:42:39.509Z","date":"2025-11-10","time":"22:42:39"},{"correct_response":"l","task":"test_phase","broad_category":"I","image_png":"I_Gabbro_08.png","image_id":56,"category_name":"Gabbro","category":4,"distinct_rating":3.02,"distinct_type":"Bottom","item_type":"Target","rt":368,"stimulus":"Stimuli_Rocks480/I_Gabbro_08.png","response":"a","trial_type":"image-keyboard-response","trial_index":227,"plugin_version":"2.1.0","time_elapsed":307279,"subject_id":"86400","group":"Group1","full_date":"2025-11-10T22:42:39.509Z","date":"2025-11-10","time":"22:42:39","cor_ans":false},{"trial_type":"html-keyboard-response","rt":null,"stimulus":"<p style=\"color: red; font-size: 50px; font-weight: bold;\">Incorrect</p>","response":null,"trial_index":228,"plugin_version":"2.1.0","time_elapsed":307781,"subject_id":"86400","group":"Group1","full_date":"2025-11-10T22:42:39.509Z","date":"2025-11-10","time":"22:42:39"},{"correct_response":"l","task":"test_phase","broad_category":"I","image_png":"I_Pumice_12.png","image_id":140,"category_name":"Pumice","category":9,"distinct_rating":2.97,"distinct_type":"Bottom","item_type":"Target","rt":883,"stimulus":"Stimuli_Rocks480/I_Pumice_12.png","response":"a","trial_type":"image-keyboard-response","trial_index":229,"plugin_version":"2.1.0","time_elapsed":308666,"subject_id":"86400","group":"Group1","full_date":"2025-11-10T22:42:39.509Z","date":"2025-11-10","time":"22:42:39","cor_ans":false},{"trial_type":"html-keyboard-response","rt":null,"stimulus":"<p style=\"color: red; font-size: 50px; font-weight: bold;\">Incorrect</p>","response":null,"trial_index":230,"plugin_version":"2.1.0","time_elapsed":309168,"subject_id":"86400","group":"Group1","full_date":"2025-11-10T22:42:39.509Z","date":"2025-11-10","time":"22:42:39"},{"correct_response":"a","task":"test_phase","broad_category":"I","image_png":"I_Basalt_08.png","image_id":24,"category_name":"Basalt","category":2,"distinct_rating":2.31,"distinct_type":"Bottom","item_type":"Foil","rt":563,"stimulus":"Stimuli_Rocks480/I_Basalt_08.png","response":"l","trial_type":"image-keyboard-response","trial_index":231,"plugin_version":"2.1.0","time_elapsed":309733,"subject_id":"86400","group":"Group1","full_date":"2025-11-10T22:42:39.509Z","date":"2025-11-10","time":"22:42:39","cor_ans":false},{"trial_type":"html-keyboard-response","rt":null,"stimulus":"<p style=\"color: red; font-size: 50px; font-weight: bold;\">Incorrect</p>","response":null,"trial_index":232,"plugin_version":"2.1.0","time_elapsed":310235,"subject_id":"86400","group":"Group1","full_date":"2025-11-10T22:42:39.509Z","date":"2025-11-10","time":"22:42:39"},{"correct_response":"a","task":"test_phase","broad_category":"M","image_png":"M_Quartzite_15.png","image_id":287,"category_name":"Quartzite","category":18,"distinct_rating":2.19,"distinct_type":"Bottom","item_type":"Foil","rt":264,"stimulus":"Stimuli_Rocks480/M_Quartzite_15.png","response":"l","trial_type":"image-keyboard-response","trial_index":233,"plugin_version":"2.1.0","time_elapsed":310501,"subject_id":"86400","group":"Group1","full_date":"2025-11-10T22:42:39.509Z","date":"2025-11-10","time":"22:42:39","cor_ans":false},{"trial_type":"html-keyboard-response","rt":null,"stimulus":"<p style=\"color: red; font-size: 50px; font-weight: bold;\">Incorrect</p>","response":null,"trial_index":234,"plugin_version":"2.1.0","time_elapsed":311002,"subject_id":"86400","group":"Group1","full_date":"2025-11-10T22:42:39.509Z","date":"2025-11-10","time":"22:42:39"},{"correct_response":"a","task":"test_phase","broad_category":"S","image_png":"S_Sandstone_11.png","image_id":459,"category_name":"Sandstone","category":29,"distinct_rating":1.82,"distinct_type":"Bottom","item_type":"Foil","rt":244,"stimulus":"Stimuli_Rocks480/S_Sandstone_11.png","response":"l","trial_type":"image-keyboard-response","trial_index":235,"plugin_version":"2.1.0","time_elapsed":311248,"subject_id":"86400","group":"Group1","full_date":"2025-11-10T22:42:39.509Z","date":"2025-11-10","time":"22:42:39","cor_ans":false},{"trial_type":"html-keyboard-response","rt":null,"stimulus":"<p st