[{"width":1710,"height":878,"webaudio":true,"browser":"chrome","browser_version":"139.0.0","mobile":false,"os":"Mac OS","fullscreen":true,"vsync_rate":61.36,"webcam":true,"microphone":true,"trial_type":"browser-check","trial_index":0,"plugin_version":"2.1.0","time_elapsed":1065,"subject_id":"89967","group":"Group2","full_date":"2025-11-09T20:51:19.611Z","date":"2025-11-09","time":"20:51:19"},{"success":true,"timeout":false,"failed_images":[],"failed_audio":[],"failed_video":[],"trial_type":"preload","trial_index":1,"plugin_version":"2.1.0","time_elapsed":7476,"subject_id":"89967","group":"Group2","full_date":"2025-11-09T20:51:19.611Z","date":"2025-11-09","time":"20:51:19"},{"rt":44320,"url":"SONA_consent_memorability.html","trial_type":"external-html","trial_index":2,"plugin_version":"2.1.0","time_elapsed":51845,"subject_id":"89967","group":"Group2","full_date":"2025-11-09T20:51:19.611Z","date":"2025-11-09","time":"20:51:19"},{"success":true,"rt":2150,"trial_type":"fullscreen","trial_index":3,"plugin_version":"2.1.0","time_elapsed":54998,"subject_id":"89967","group":"Group2","full_date":"2025-11-09T20:51:19.611Z","date":"2025-11-09","time":"20:51:19"},{"rt":31262,"stimulus":"<div style=\"max-width: 760px; margin: auto; font-size: 20px; line-height: 1.5;\">\n      <h1 style=\"text-align:center; font-size: 30px;\">Instructions</h1>\n      <p>\n        Welcome to the study on <b>visual memory</b>. This experiment consists of <b>two phases</b>: \n        a <b>study phase</b> and a <b>test phase</b>.\n      </p>\n      <p>\n        In the study phase, you will see a series of rock images along with their category labels.\n        The images will appear one at a time.\n        <b>Your task</b> is to learn the categories to which the rock images belong \n        and to remember each image as accurately as possible.\n      </p> \n      <p>\n        After the study phase, <b>your memory will be tested</b>. \n        Additional instructions for the test phase will be provided at that time.\n      </p>\n      <p>\n        If your computer has multiple <b>language settings</b> (e.g., English and another language),\n        please make sure it is set to English before starting.\n      </p>\n      <p>\n        You can track your progress using the <b>completion bar</b> at the top of the screen. \n        Please note that the bar will refresh when the test phase begins \n        to give you an accurate sense of your progress in both phases.\n      </p> \n      <p>\n        Press the button below when you are ready to begin.\n      </p>\n    </div>","response":0,"trial_type":"html-button-response","trial_index":4,"plugin_version":"2.1.0","time_elapsed":86261,"subject_id":"89967","group":"Group2","full_date":"2025-11-09T20:51:19.611Z","date":"2025-11-09","time":"20:51:19"},{"rt":null,"stimulus":"<p style=\"font-size: 50px; margin: 0; text-align: center;\">+</p>","response":null,"trial_type":"html-keyboard-response","trial_index":5,"plugin_version":"2.1.0","time_elapsed":87264,"subject_id":"89967","group":"Group2","full_date":"2025-11-09T20:51:19.611Z","date":"2025-11-09","time":"20:51:19"},{"task":"memory_phase","broad_category":"M","image_png":"M_Marble_02.png","image_id":226,"category_name":"Marble","category":15,"distinct_rating":3.2,"distinct_type":"Bottom","rt":null,"stimulus":"Stimuli_Rocks480/M_Marble_02.png","response":null,"trial_type":"image-keyboard-response","trial_index":6,"plugin_version":"2.1.0","time_elapsed":89767,"subject_id":"89967","group":"Group2","full_date":"2025-11-09T20:51:19.611Z","date":"2025-11-09","time":"20:51:19"},{"rt":null,"stimulus":"<p style=\"font-size: 50px; margin: 0; text-align: center;\">+</p>","response":null,"trial_type":"html-keyboard-response","trial_index":7,"plugin_version":"2.1.0","time_elapsed":90770,"subject_id":"89967","group":"Group2","full_date":"2025-11-09T20:51:19.611Z","date":"2025-11-09","time":"20:51:19"},{"task":"memory_phase","broad_category":"I","image_png":"I_Pumice_14.png","image_id":142,"category_name":"Pumice","category":9,"distinct_rating":3.22,"distinct_type":"Bottom","rt":null,"stimulus":"Stimuli_Rocks480/I_Pumice_14.png","response":null,"trial_type":"image-keyboard-response","trial_index":8,"plugin_version":"2.1.0","time_elapsed":93273,"subject_id":"89967","group":"Group2","full_date":"2025-11-09T20:51:19.611Z","date":"2025-11-09","time":"20:51:19"},{"rt":null,"stimulus":"<p style=\"font-size: 50px; margin: 0; text-align: center;\">+</p>","response":null,"trial_type":"html-keyboard-response","trial_index":9,"plugin_version":"2.1.0","time_elapsed":94276,"subject_id":"89967","group":"Group2","full_date":"2025-11-09T20:51:19.611Z","date":"2025-11-09","time":"20:51:19"},{"task":"memory_phase","broad_category":"M","image_png":"M_Slate_10.png","image_id":314,"category_name":"Slate","category":20,"distinct_rating":1.94,"distinct_type":"Bottom","rt":null,"stimulus":"Stimuli_Rocks480/M_Slate_10.png","response":null,"trial_type":"image-keyboard-response","trial_index":10,"plugin_version":"2.1.0","time_elapsed":96779,"subject_id":"89967","group":"Group2","full_date":"2025-11-09T20:51:19.611Z","date":"2025-11-09","time":"20:51:19"},{"rt":null,"stimulus":"<p style=\"font-size: 50px; margin: 0; text-align: center;\">+</p>","response":null,"trial_type":"html-keyboard-response","trial_index":11,"plugin_version":"2.1.0","time_elapsed":97780,"subject_id":"89967","group":"Group2","full_date":"2025-11-09T20:51:19.611Z","date":"2025-11-09","time":"20:51:19"},{"task":"memory_phase","broad_category":"S","image_png":"S_Conglomerate_14.png","image_id":382,"category_name":"Conglomerate","category":24,"distinct_rating":6.86,"distinct_type":"Top","rt":null,"stimulus":"Stimuli_Rocks480/S_Conglomerate_14.png","response":null,"trial_type":"image-keyboard-response","trial_index":12,"plugin_version":"2.1.0","time_elapsed":100283,"subject_id":"89967","group":"Group2","full_date":"2025-11-09T20:51:19.611Z","date":"2025-11-09","time":"20:51:19"},{"rt":null,"stimulus":"<p style=\"font-size: 50px; margin: 0; text-align: center;\">+</p>","response":null,"trial_type":"html-keyboard-response","trial_index":13,"plugin_version":"2.1.0","time_elapsed":101286,"subject_id":"89967","group":"Group2","full_date":"2025-11-09T20:51:19.611Z","date":"2025-11-09","time":"20:51:19"},{"task":"memory_phase","broad_category":"M","image_png":"M_Quartzite_07.png","image_id":279,"category_name":"Quartzite","category":18,"distinct_rating":1.97,"distinct_type":"Bottom","rt":null,"stimulus":"Stimuli_Rocks480/M_Quartzite_07.png","response":null,"trial_type":"image-keyboard-response","trial_index":14,"plugin_version":"2.1.0","time_elapsed":103789,"subject_id":"89967","group":"Group2","full_date":"2025-11-09T20:51:19.611Z","date":"2025-11-09","time":"20:51:19"},{"rt":null,"stimulus":"<p style=\"font-size: 50px; margin: 0; text-align: center;\">+</p>","response":null,"trial_type":"html-keyboard-response","trial_index":15,"plugin_version":"2.1.0","time_elapsed":104791,"subject_id":"89967","group":"Group2","full_date":"2025-11-09T20:51:19.611Z","date":"2025-11-09","time":"20:51:19"},{"task":"memory_phase","broad_category":"S","image_png":"S_Rock Salt_15.png","image_id":447,"category_name":"Rock Salt","category":28,"distinct_rating":7.79,"distinct_type":"Top","rt":null,"stimulus":"Stimuli_Rocks480/S_Rock Salt_15.png","response":null,"trial_type":"image-keyboard-response","trial_index":16,"plugin_version":"2.1.0","time_elapsed":107294,"subject_id":"89967","group":"Group2","full_date":"2025-11-09T20:51:19.611Z","date":"2025-11-09","time":"20:51:19"},{"rt":null,"stimulus":"<p style=\"font-size: 50px; margin: 0; text-align: center;\">+</p>","response":null,"trial_type":"html-keyboard-response","trial_index":17,"plugin_version":"2.1.0","time_elapsed":108296,"subject_id":"89967","group":"Group2","full_date":"2025-11-09T20:51:19.611Z","date":"2025-11-09","time":"20:51:19"},{"task":"memory_phase","broad_category":"I","image_png":"I_Basalt_13.png","image_id":29,"category_name":"Basalt","category":2,"distinct_rating":2.68,"distinct_type":"Bottom","rt":null,"stimulus":"Stimuli_Rocks480/I_Basalt_13.png","response":null,"trial_type":"image-keyboard-response","trial_index":18,"plugin_version":"2.1.0","time_elapsed":110799,"subject_id":"89967","group":"Group2","full_date":"2025-11-09T20:51:19.611Z","date":"2025-11-09","time":"20:51:19"},{"rt":null,"stimulus":"<p style=\"font-size: 50px; margin: 0; text-align: center;\">+</p>","response":null,"trial_type":"html-keyboard-response","trial_index":19,"plugin_version":"2.1.0","time_elapsed":111802,"subject_id":"89967","group":"Group2","full_date":"2025-11-09T20:51:19.611Z","date":"2025-11-09","time":"20:51:19"},{"task":"memory_phase","broad_category":"I","image_png":"I_Diorite_15.png","image_id":47,"category_name":"Diorite","category":3,"distinct_rating":3.05,"distinct_type":"Bottom","rt":null,"stimulus":"Stimuli_Rocks480/I_Diorite_15.png","response":null,"trial_type":"image-keyboard-response","trial_index":20,"plugin_version":"2.1.0","time_elapsed":114305,"subject_id":"89967","group":"Group2","full_date":"2025-11-09T20:51:19.611Z","date":"2025-11-09","time":"20:51:19"},{"rt":null,"stimulus":"<p style=\"font-size: 50px; margin: 0; text-align: center;\">+</p>","response":null,"trial_type":"html-keyboard-response","trial_index":21,"plugin_version":"2.1.0","time_elapsed":115308,"subject_id":"89967","group":"Group2","full_date":"2025-11-09T20:51:19.611Z","date":"2025-11-09","time":"20:51:19"},{"task":"memory_phase","broad_category":"I","image_png":"I_Basalt_08.png","image_id":24,"category_name":"Basalt","category":2,"distinct_rating":2.31,"distinct_type":"Bottom","rt":null,"stimulus":"Stimuli_Rocks480/I_Basalt_08.png","response":null,"trial_type":"image-keyboard-response","trial_index":22,"plugin_version":"2.1.0","time_elapsed":117810,"subject_id":"89967","group":"Group2","full_date":"2025-11-09T20:51:19.611Z","date":"2025-11-09","time":"20:51:19"},{"rt":null,"stimulus":"<p style=\"font-size: 50px; margin: 0; text-align: center;\">+</p>","response":null,"trial_type":"html-keyboard-response","trial_index":23,"plugin_version":"2.1.0","time_elapsed":118813,"subject_id":"89967","group":"Group2","full_date":"2025-11-09T20:51:19.611Z","date":"2025-11-09","time":"20:51:19"},{"task":"memory_phase","broad_category":"I","image_png":"I_Andesite_04.png","image_id":4,"category_name":"Andesite","category":1,"distinct_rating":3.18,"distinct_type":"Bottom","rt":null,"stimulus":"Stimuli_Rocks480/I_Andesite_04.png","response":null,"trial_type":"image-keyboard-response","trial_index":24,"plugin_version":"2.1.0","time_elapsed":121316,"subject_id":"89967","group":"Group2","full_date":"2025-11-09T20:51:19.611Z","date":"2025-11-09","time":"20:51:19"},{"rt":null,"stimulus":"<p style=\"font-size: 50px; margin: 0; text-align: center;\">+</p>","response":null,"trial_type":"html-keyboard-response","trial_index":25,"plugin_version":"2.1.0","time_elapsed":122318,"subject_id":"89967","group":"Group2","full_date":"2025-11-09T20:51:19.611Z","date":"2025-11-09","time":"20:51:19"},{"task":"memory_phase","broad_category":"I","image_png":"I_Gabbro_14.png","image_id":62,"category_name":"Gabbro","category":4,"distinct_rating":2.95,"distinct_type":"Bottom","rt":null,"stimulus":"Stimuli_Rocks480/I_Gabbro_14.png","response":null,"trial_type":"image-keyboard-response","trial_index":26,"plugin_version":"2.1.0","time_elapsed":124822,"subject_id":"89967","group":"Group2","full_date":"2025-11-09T20:51:19.611Z","date":"2025-11-09","time":"20:51:19"},{"rt":null,"stimulus":"<p style=\"font-size: 50px; margin: 0; text-align: center;\">+</p>","response":null,"trial_type":"html-keyboard-response","trial_index":27,"plugin_version":"2.1.0","time_elapsed":125824,"subject_id":"89967","group":"Group2","full_date":"2025-11-09T20:51:19.611Z","date":"2025-11-09","time":"20:51:19"},{"task":"memory_phase","broad_category":"I","image_png":"I_Obsidian_06.png","image_id":86,"category_name":"Obsidian","category":6,"distinct_rating":8.01,"distinct_type":"Top","rt":null,"stimulus":"Stimuli_Rocks480/I_Obsidian_06.png","response":null,"trial_type":"image-keyboard-response","trial_index":28,"plugin_version":"2.1.0","time_elapsed":128326,"subject_id":"89967","group":"Group2","full_date":"2025-11-09T20:51:19.611Z","date":"2025-11-09","time":"20:51:19"},{"rt":null,"stimulus":"<p style=\"font-size: 50px; margin: 0; text-align: center;\">+</p>","response":null,"trial_type":"html-keyboard-response","trial_index":29,"plugin_version":"2.1.0","time_elapsed":129328,"subject_id":"89967","group":"Group2","full_date":"2025-11-09T20:51:19.611Z","date":"2025-11-09","time":"20:51:19"},{"task":"memory_phase","broad_category":"I","image_png":"I_Diorite_10.png","image_id":42,"category_name":"Diorite","category":3,"distinct_rating":2.84,"distinct_type":"Bottom","rt":null,"stimulus":"Stimuli_Rocks480/I_Diorite_10.png","response":null,"trial_type":"image-keyboard-response","trial_index":30,"plugin_version":"2.1.0","time_elapsed":131832,"subject_id":"89967","group":"Group2","full_date":"2025-11-09T20:51:19.611Z","date":"2025-11-09","time":"20:51:19"},{"rt":null,"stimulus":"<p style=\"font-size: 50px; margin: 0; text-align: center;\">+</p>","response":null,"trial_type":"html-keyboard-response","trial_index":31,"plugin_version":"2.1.0","time_elapsed":132834,"subject_id":"89967","group":"Group2","full_date":"2025-11-09T20:51:19.611Z","date":"2025-11-09","time":"20:51:19"},{"task":"memory_phase","broad_category":"I","image_png":"I_Gabbro_12.png","image_id":60,"category_name":"Gabbro","category":4,"distinct_rating":2.6,"distinct_type":"Bottom","rt":null,"stimulus":"Stimuli_Rocks480/I_Gabbro_12.png","response":null,"trial_type":"image-keyboard-response","trial_index":32,"plugin_version":"2.1.0","time_elapsed":135337,"subject_id":"89967","group":"Group2","full_date":"2025-11-09T20:51:19.611Z","date":"2025-11-09","time":"20:51:19"},{"rt":null,"stimulus":"<p style=\"font-size: 50px; margin: 0; text-align: center;\">+</p>","response":null,"trial_type":"html-keyboard-response","trial_index":33,"plugin_version":"2.1.0","time_elapsed":136340,"subject_id":"89967","group":"Group2","full_date":"2025-11-09T20:51:19.611Z","date":"2025-11-09","time":"20:51:19"},{"task":"memory_phase","broad_category":"I","image_png":"I_Pegmatite_11.png","image_id":107,"category_name":"Pegmatite","category":7,"distinct_rating":7.11,"distinct_type":"Top","rt":null,"stimulus":"Stimuli_Rocks480/I_Pegmatite_11.png","response":null,"trial_type":"image-keyboard-response","trial_index":34,"plugin_version":"2.1.0","time_elapsed":138842,"subject_id":"89967","group":"Group2","full_date":"2025-11-09T20:51:19.611Z","date":"2025-11-09","time":"20:51:19"},{"rt":null,"stimulus":"<p style=\"font-size: 50px; margin: 0; text-align: center;\">+</p>","response":null,"trial_type":"html-keyboard-response","trial_index":35,"plugin_version":"2.1.0","time_elapsed":139844,"subject_id":"89967","group":"Group2","full_date":"2025-11-09T20:51:19.611Z","date":"2025-11-09","time":"20:51:19"},{"task":"memory_phase","broad_category":"I","image_png":"I_Basalt_10.png","image_id":26,"category_name":"Basalt","category":2,"distinct_rating":2.76,"distinct_type":"Bottom","rt":null,"stimulus":"Stimuli_Rocks480/I_Basalt_10.png","response":null,"trial_type":"image-keyboard-response","trial_index":36,"plugin_version":"2.1.0","time_elapsed":142347,"subject_id":"89967","group":"Group2","full_date":"2025-11-09T20:51:19.611Z","date":"2025-11-09","time":"20:51:19"},{"rt":null,"stimulus":"<p style=\"font-size: 50px; margin: 0; text-align: center;\">+</p>","response":null,"trial_type":"html-keyboard-response","trial_index":37,"plugin_version":"2.1.0","time_elapsed":143349,"subject_id":"89967","group":"Group2","full_date":"2025-11-09T20:51:19.611Z","date":"2025-11-09","time":"20:51:19"},{"task":"memory_phase","broad_category":"M","image_png":"M_Gneiss_15.png","image_id":207,"category_name":"Gneiss","category":13,"distinct_rating":3.11,"distinct_type":"Bottom","rt":null,"stimulus":"Stimuli_Rocks480/M_Gneiss_15.png","response":null,"trial_type":"image-keyboard-response","trial_index":38,"plugin_version":"2.1.0","time_elapsed":145852,"subject_id":"89967","group":"Group2","full_date":"2025-11-09T20:51:19.611Z","date":"2025-11-09","time":"20:51:19"},{"rt":null,"stimulus":"<p style=\"font-size: 50px; margin: 0; text-align: center;\">+</p>","response":null,"trial_type":"html-keyboard-response","trial_index":39,"plugin_version":"2.1.0","time_elapsed":146854,"subject_id":"89967","group":"Group2","full_date":"2025-11-09T20:51:19.611Z","date":"2025-11-09","time":"20:51:19"},{"task":"memory_phase","broad_category":"I","image_png":"I_Rhyolite_10.png","image_id":154,"category_name":"Rhyolite","category":10,"distinct_rating":2.88,"distinct_type":"Bottom","rt":null,"stimulus":"Stimuli_Rocks480/I_Rhyolite_10.png","response":null,"trial_type":"image-keyboard-response","trial_index":40,"plugin_version":"2.1.0","time_elapsed":149356,"subject_id":"89967","group":"Group2","full_date":"2025-11-09T20:51:19.611Z","date":"2025-11-09","time":"20:51:19"},{"rt":null,"stimulus":"<p style=\"font-size: 50px; margin: 0; text-align: center;\">+</p>","response":null,"trial_type":"html-keyboard-response","trial_index":41,"plugin_version":"2.1.0","time_elapsed":150359,"subject_id":"89967","group":"Group2","full_date":"2025-11-09T20:51:19.611Z","date":"2025-11-09","time":"20:51:19"},{"task":"memory_phase","broad_category":"I","image_png":"I_Rhyolite_05.png","image_id":149,"category_name":"Rhyolite","category":10,"distinct_rating":3.02,"distinct_type":"Bottom","rt":null,"stimulus":"Stimuli_Rocks480/I_Rhyolite_05.png","response":null,"trial_type":"image-keyboard-response","trial_index":42,"plugin_version":"2.1.0","time_elapsed":152862,"subject_id":"89967","group":"Group2","full_date":"2025-11-09T20:51:19.611Z","date":"2025-11-09","time":"20:51:19"},{"rt":null,"stimulus":"<p style=\"font-size: 50px; margin: 0; text-align: center;\">+</p>","response":null,"trial_type":"html-keyboard-response","trial_index":43,"plugin_version":"2.1.0","time_elapsed":153865,"subject_id":"89967","group":"Group2","full_date":"2025-11-09T20:51:19.611Z","date":"2025-11-09","time":"20:51:19"},{"task":"memory_phase","broad_category":"M","image_png":"M_Gneiss_10.png","image_id":202,"category_name":"Gneiss","category":13,"distinct_rating":3.09,"distinct_type":"Bottom","rt":null,"stimulus":"Stimuli_Rocks480/M_Gneiss_10.png","response":null,"trial_type":"image-keyboard-response","trial_index":44,"plugin_version":"2.1.0","time_elapsed":156368,"subject_id":"89967","group":"Group2","full_date":"2025-11-09T20:51:19.611Z","date":"2025-11-09","time":"20:51:19"},{"rt":null,"stimulus":"<p style=\"font-size: 50px; margin: 0; text-align: center;\">+</p>","response":null,"trial_type":"html-keyboard-response","trial_index":45,"plugin_version":"2.1.0","time_elapsed":157370,"subject_id":"89967","group":"Group2","full_date":"2025-11-09T20:51:19.611Z","date":"2025-11-09","time":"20:51:19"},{"task":"memory_phase","broad_category":"M","image_png":"M_Phyllite_05.png","image_id":261,"category_name":"Phyllite","category":17,"distinct_rating":2.14,"distinct_type":"Bottom","rt":null,"stimulus":"Stimuli_Rocks480/M_Phyllite_05.png","response":null,"trial_type":"image-keyboard-response","trial_index":46,"plugin_version":"2.1.0","time_elapsed":159874,"subject_id":"89967","group":"Group2","full_date":"2025-11-09T20:51:19.611Z","date":"2025-11-09","time":"20:51:19"},{"rt":null,"stimulus":"<p style=\"font-size: 50px; margin: 0; text-align: center;\">+</p>","response":null,"trial_type":"html-keyboard-response","trial_index":47,"plugin_version":"2.1.0","time_elapsed":160876,"subject_id":"89967","group":"Group2","full_date":"2025-11-09T20:51:19.611Z","date":"2025-11-09","time":"20:51:19"},{"task":"memory_phase","broad_category":"I","image_png":"I_Peridotite_13.png","image_id":125,"category_name":"Peridotite","category":8,"distinct_rating":7.28,"distinct_type":"Top","rt":null,"stimulus":"Stimuli_Rocks480/I_Peridotite_13.png","response":null,"trial_type":"image-keyboard-response","trial_index":48,"plugin_version":"2.1.0","time_elapsed":163379,"subject_id":"89967","group":"Group2","full_date":"2025-11-09T20:51:19.611Z","date":"2025-11-09","time":"20:51:19"},{"rt":null,"stimulus":"<p style=\"font-size: 50px; margin: 0; text-align: center;\">+</p>","response":null,"trial_type":"html-keyboard-response","trial_index":49,"plugin_version":"2.1.0","time_elapsed":164382,"subject_id":"89967","group":"Group2","full_date":"2025-11-09T20:51:19.611Z","date":"2025-11-09","time":"20:51:19"},{"task":"memory_phase","broad_category":"M","image_png":"M_Quartzite_12.png","image_id":284,"category_name":"Quartzite","category":18,"distinct_rating":1.92,"distinct_type":"Bottom","rt":null,"stimulus":"Stimuli_Rocks480/M_Quartzite_12.png","response":null,"trial_type":"image-keyboard-response","trial_index":50,"plugin_version":"2.1.0","time_elapsed":166883,"subject_id":"89967","group":"Group2","full_date":"2025-11-09T20:51:19.611Z","date":"2025-11-09","time":"20:51:19"},{"rt":null,"stimulus":"<p style=\"font-size: 50px; margin: 0; text-align: center;\">+</p>","response":null,"trial_type":"html-keyboard-response","trial_index":51,"plugin_version":"2.1.0","time_elapsed":167886,"subject_id":"89967","group":"Group2","full_date":"2025-11-09T20:51:19.611Z","date":"2025-11-09","time":"20:51:19"},{"task":"memory_phase","broad_category":"M","image_png":"M_Gneiss_14.png","image_id":206,"category_name":"Gneiss","category":13,"distinct_rating":3.41,"distinct_type":"Bottom","rt":null,"stimulus":"Stimuli_Rocks480/M_Gneiss_14.png","response":null,"trial_type":"image-keyboard-response","trial_index":52,"plugin_version":"2.1.0","time_elapsed":170389,"subject_id":"89967","group":"Group2","full_date":"2025-11-09T20:51:19.611Z","date":"2025-11-09","time":"20:51:19"},{"rt":null,"stimulus":"<p style=\"font-size: 50px; margin: 0; text-align: center;\">+</p>","response":null,"trial_type":"html-keyboard-response","trial_index":53,"plugin_version":"2.1.0","time_elapsed":171391,"subject_id":"89967","group":"Group2","full_date":"2025-11-09T20:51:19.611Z","date":"2025-11-09","time":"20:51:19"},{"task":"memory_phase","broad_category":"M","image_png":"M_Marble_14.png","image_id":238,"category_name":"Marble","category":15,"distinct_rating":3.31,"distinct_type":"Bottom","rt":null,"stimulus":"Stimuli_Rocks480/M_Marble_14.png","response":null,"trial_type":"image-keyboard-response","trial_index":54,"plugin_version":"2.1.0","time_elapsed":173894,"subject_id":"89967","group":"Group2","full_date":"2025-11-09T20:51:19.611Z","date":"2025-11-09","time":"20:51:19"},{"rt":2125,"stimulus":"<p style=\"font-size: 35px;\">Press SPACE to continue study phase</p>","response":" ","trial_type":"html-keyboard-response","trial_index":55,"plugin_version":"2.1.0","time_elapsed":176021,"subject_id":"89967","group":"Group2","full_date":"2025-11-09T20:51:19.611Z","date":"2025-11-09","time":"20:51:19"},{"rt":null,"stimulus":"<p style=\"font-size: 50px; margin: 0; text-align: center;\">+</p>","response":null,"trial_type":"html-keyboard-response","trial_index":56,"plugin_version":"2.1.0","time_elapsed":177023,"subject_id":"89967","group":"Group2","full_date":"2025-11-09T20:51:19.611Z","date":"2025-11-09","time":"20:51:19"},{"task":"memory_phase","broad_category":"S","image_png":"S_Rock Salt_13.png","image_id":445,"category_name":"Rock Salt","category":28,"distinct_rating":7.58,"distinct_type":"Top","rt":null,"stimulus":"Stimuli_Rocks480/S_Rock Salt_13.png","response":null,"trial_type":"image-keyboard-response","trial_index":57,"plugin_version":"2.1.0","time_elapsed":179527,"subject_id":"89967","group":"Group2","full_date":"2025-11-09T20:51:19.611Z","date":"2025-11-09","time":"20:51:19"},{"rt":null,"stimulus":"<p style=\"font-size: 50px; margin: 0; text-align: center;\">+</p>","response":null,"trial_type":"html-keyboard-response","trial_index":58,"plugin_version":"2.1.0","time_elapsed":180529,"subject_id":"89967","group":"Group2","full_date":"2025-11-09T20:51:19.611Z","date":"2025-11-09","time":"20:51:19"},{"task":"memory_phase","broad_category":"S","image_png":"S_Dolomite_16.png","image_id":400,"category_name":"Dolomite","category":25,"distinct_rating":1.71,"distinct_type":"Bottom","rt":null,"stimulus":"Stimuli_Rocks480/S_Dolomite_16.png","response":null,"trial_type":"image-keyboard-response","trial_index":59,"plugin_version":"2.1.0","time_elapsed":183031,"subject_id":"89967","group":"Group2","full_date":"2025-11-09T20:51:19.611Z","date":"2025-11-09","time":"20:51:19"},{"rt":null,"stimulus":"<p style=\"font-size: 50px; margin: 0; text-align: center;\">+</p>","response":null,"trial_type":"html-keyboard-response","trial_index":60,"plugin_version":"2.1.0","time_elapsed":184033,"subject_id":"89967","group":"Group2","full_date":"2025-11-09T20:51:19.611Z","date":"2025-11-09","time":"20:51:19"},{"task":"memory_phase","broad_category":"M","image_png":"M_Phyllite_02.png","image_id":258,"category_name":"Phyllite","category":17,"distinct_rating":2.89,"distinct_type":"Bottom","rt":null,"stimulus":"Stimuli_Rocks480/M_Phyllite_02.png","response":null,"trial_type":"image-keyboard-response","trial_index":61,"plugin_version":"2.1.0","time_elapsed":186536,"subject_id":"89967","group":"Group2","full_date":"2025-11-09T20:51:19.611Z","date":"2025-11-09","time":"20:51:19"},{"rt":null,"stimulus":"<p style=\"font-size: 50px; margin: 0; text-align: center;\">+</p>","response":null,"trial_type":"html-keyboard-response","trial_index":62,"plugin_version":"2.1.0","time_elapsed":187539,"subject_id":"89967","group":"Group2","full_date":"2025-11-09T20:51:19.611Z","date":"2025-11-09","time":"20:51:19"},{"task":"memory_phase","broad_category":"S","image_png":"S_Sandstone_08.png","image_id":456,"category_name":"Sandstone","category":29,"distinct_rating":1.5,"distinct_type":"Bottom","rt":null,"stimulus":"Stimuli_Rocks480/S_Sandstone_08.png","response":null,"trial_type":"image-keyboard-response","trial_index":63,"plugin_version":"2.1.0","time_elapsed":190042,"subject_id":"89967","group":"Group2","full_date":"2025-11-09T20:51:19.611Z","date":"2025-11-09","time":"20:51:19"},{"rt":null,"stimulus":"<p style=\"font-size: 50px; margin: 0; text-align: center;\">+</p>","response":null,"trial_type":"html-keyboard-response","trial_index":64,"plugin_version":"2.1.0","time_elapsed":191045,"subject_id":"89967","group":"Group2","full_date":"2025-11-09T20:51:19.611Z","date":"2025-11-09","time":"20:51:19"},{"task":"memory_phase","broad_category":"I","image_png":"I_Rhyolite_08.png","image_id":152,"category_name":"Rhyolite","category":10,"distinct_rating":1.38,"distinct_type":"Bottom","rt":null,"stimulus":"Stimuli_Rocks480/I_Rhyolite_08.png","response":null,"trial_type":"image-keyboard-response","trial_index":65,"plugin_version":"2.1.0","time_elapsed":193548,"subject_id":"89967","group":"Group2","full_date":"2025-11-09T20:51:19.611Z","date":"2025-11-09","time":"20:51:19"},{"rt":null,"stimulus":"<p style=\"font-size: 50px; margin: 0; text-align: center;\">+</p>","response":null,"trial_type":"html-keyboard-response","trial_index":66,"plugin_version":"2.1.0","time_elapsed":194550,"subject_id":"89967","group":"Group2","full_date":"2025-11-09T20:51:19.611Z","date":"2025-11-09","time":"20:51:19"},{"task":"memory_phase","broad_category":"I","image_png":"I_Pumice_13.png","image_id":141,"category_name":"Pumice","category":9,"distinct_rating":3.12,"distinct_type":"Bottom","rt":null,"stimulus":"Stimuli_Rocks480/I_Pumice_13.png","response":null,"trial_type":"image-keyboard-response","trial_index":67,"plugin_version":"2.1.0","time_elapsed":197053,"subject_id":"89967","group":"Group2","full_date":"2025-11-09T20:51:19.611Z","date":"2025-11-09","time":"20:51:19"},{"rt":null,"stimulus":"<p style=\"font-size: 50px; margin: 0; text-align: center;\">+</p>","response":null,"trial_type":"html-keyboard-response","trial_index":68,"plugin_version":"2.1.0","time_elapsed":198056,"subject_id":"89967","group":"Group2","full_date":"2025-11-09T20:51:19.611Z","date":"2025-11-09","time":"20:51:19"},{"task":"memory_phase","broad_category":"M","image_png":"M_Phyllite_13.png","image_id":269,"category_name":"Phyllite","category":17,"distinct_rating":2.8,"distinct_type":"Bottom","rt":null,"stimulus":"Stimuli_Rocks480/M_Phyllite_13.png","response":null,"trial_type":"image-keyboard-response","trial_index":69,"plugin_version":"2.1.0","time_elapsed":200559,"subject_id":"89967","group":"Group2","full_date":"2025-11-09T20:51:19.611Z","date":"2025-11-09","time":"20:51:19"},{"rt":null,"stimulus":"<p style=\"font-size: 50px; margin: 0; text-align: center;\">+</p>","response":null,"trial_type":"html-keyboard-response","trial_index":70,"plugin_version":"2.1.0","time_elapsed":201561,"subject_id":"89967","group":"Group2","full_date":"2025-11-09T20:51:19.611Z","date":"2025-11-09","time":"20:51:19"},{"task":"memory_phase","broad_category":"I","image_png":"I_Diorite_01.png","image_id":33,"category_name":"Diorite","category":3,"distinct_rating":2.97,"distinct_type":"Bottom","rt":null,"stimulus":"Stimuli_Rocks480/I_Diorite_01.png","response":null,"trial_type":"image-keyboard-response","trial_index":71,"plugin_version":"2.1.0","time_elapsed":204064,"subject_id":"89967","group":"Group2","full_date":"2025-11-09T20:51:19.611Z","date":"2025-11-09","time":"20:51:19"},{"rt":null,"stimulus":"<p style=\"font-size: 50px; margin: 0; text-align: center;\">+</p>","response":null,"trial_type":"html-keyboard-response","trial_index":72,"plugin_version":"2.1.0","time_elapsed":205066,"subject_id":"89967","group":"Group2","full_date":"2025-11-09T20:51:19.611Z","date":"2025-11-09","time":"20:51:19"},{"task":"memory_phase","broad_category":"S","image_png":"S_Sandstone_04.png","image_id":452,"category_name":"Sandstone","category":29,"distinct_rating":1.8,"distinct_type":"Bottom","rt":null,"stimulus":"Stimuli_Rocks480/S_Sandstone_04.png","response":null,"trial_type":"image-keyboard-response","trial_index":73,"plugin_version":"2.1.0","time_elapsed":207570,"subject_id":"89967","group":"Group2","full_date":"2025-11-09T20:51:19.611Z","date":"2025-11-09","time":"20:51:19"},{"rt":null,"stimulus":"<p style=\"font-size: 50px; margin: 0; text-align: center;\">+</p>","response":null,"trial_type":"html-keyboard-response","trial_index":74,"plugin_version":"2.1.0","time_elapsed":208572,"subject_id":"89967","group":"Group2","full_date":"2025-11-09T20:51:19.611Z","date":"2025-11-09","time":"20:51:19"},{"task":"memory_phase","broad_category":"M","image_png":"M_Slate_04.png","image_id":308,"category_name":"Slate","category":20,"distinct_rating":2.2,"distinct_type":"Bottom","rt":null,"stimulus":"Stimuli_Rocks480/M_Slate_04.png","response":null,"trial_type":"image-keyboard-response","trial_index":75,"plugin_version":"2.1.0","time_elapsed":211073,"subject_id":"89967","group":"Group2","full_date":"2025-11-09T20:51:19.611Z","date":"2025-11-09","time":"20:51:19"},{"rt":null,"stimulus":"<p style=\"font-size: 50px; margin: 0; text-align: center;\">+</p>","response":null,"trial_type":"html-keyboard-response","trial_index":76,"plugin_version":"2.1.0","time_elapsed":212076,"subject_id":"89967","group":"Group2","full_date":"2025-11-09T20:51:19.611Z","date":"2025-11-09","time":"20:51:19"},{"task":"memory_phase","broad_category":"I","image_png":"I_Gabbro_02.png","image_id":50,"category_name":"Gabbro","category":4,"distinct_rating":2.73,"distinct_type":"Bottom","rt":null,"stimulus":"Stimuli_Rocks480/I_Gabbro_02.png","response":null,"trial_type":"image-keyboard-response","trial_index":77,"plugin_version":"2.1.0","time_elapsed":214579,"subject_id":"89967","group":"Group2","full_date":"2025-11-09T20:51:19.611Z","date":"2025-11-09","time":"20:51:19"},{"rt":null,"stimulus":"<p style=\"font-size: 50px; margin: 0; text-align: center;\">+</p>","response":null,"trial_type":"html-keyboard-response","trial_index":78,"plugin_version":"2.1.0","time_elapsed":215581,"subject_id":"89967","group":"Group2","full_date":"2025-11-09T20:51:19.611Z","date":"2025-11-09","time":"20:51:19"},{"task":"memory_phase","broad_category":"S","image_png":"S_Dolomite_01.png","image_id":385,"category_name":"Dolomite","category":25,"distinct_rating":1.43,"distinct_type":"Bottom","rt":null,"stimulus":"Stimuli_Rocks480/S_Dolomite_01.png","response":null,"trial_type":"image-keyboard-response","trial_index":79,"plugin_version":"2.1.0","time_elapsed":218084,"subject_id":"89967","group":"Group2","full_date":"2025-11-09T20:51:19.611Z","date":"2025-11-09","time":"20:51:19"},{"rt":null,"stimulus":"<p style=\"font-size: 50px; margin: 0; text-align: center;\">+</p>","response":null,"trial_type":"html-keyboard-response","trial_index":80,"plugin_version":"2.1.0","time_elapsed":219087,"subject_id":"89967","group":"Group2","full_date":"2025-11-09T20:51:19.611Z","date":"2025-11-09","time":"20:51:19"},{"task":"memory_phase","broad_category":"S","image_png":"S_Shale_02.png","image_id":466,"category_name":"Shale","category":30,"distinct_rating":2.9,"distinct_type":"Bottom","rt":null,"stimulus":"Stimuli_Rocks480/S_Shale_02.png","response":null,"trial_type":"image-keyboard-response","trial_index":81,"plugin_version":"2.1.0","time_elapsed":221590,"subject_id":"89967","group":"Group2","full_date":"2025-11-09T20:51:19.611Z","date":"2025-11-09","time":"20:51:19"},{"rt":null,"stimulus":"<p style=\"font-size: 50px; margin: 0; text-align: center;\">+</p>","response":null,"trial_type":"html-keyboard-response","trial_index":82,"plugin_version":"2.1.0","time_elapsed":222593,"subject_id":"89967","group":"Group2","full_date":"2025-11-09T20:51:19.611Z","date":"2025-11-09","time":"20:51:19"},{"task":"memory_phase","broad_category":"I","image_png":"I_Pumice_01.png","image_id":129,"category_name":"Pumice","category":9,"distinct_rating":3.25,"distinct_type":"Bottom","rt":null,"stimulus":"Stimuli_Rocks480/I_Pumice_01.png","response":null,"trial_type":"image-keyboard-response","trial_index":83,"plugin_version":"2.1.0","time_elapsed":225095,"subject_id":"89967","group":"Group2","full_date":"2025-11-09T20:51:19.611Z","date":"2025-11-09","time":"20:51:19"},{"rt":null,"stimulus":"<p style=\"font-size: 50px; margin: 0; text-align: center;\">+</p>","response":null,"trial_type":"html-keyboard-response","trial_index":84,"plugin_version":"2.1.0","time_elapsed":226098,"subject_id":"89967","group":"Group2","full_date":"2025-11-09T20:51:19.611Z","date":"2025-11-09","time":"20:51:19"},{"task":"memory_phase","broad_category":"S","image_png":"S_Sandstone_11.png","image_id":459,"category_name":"Sandstone","category":29,"distinct_rating":1.82,"distinct_type":"Bottom","rt":null,"stimulus":"Stimuli_Rocks480/S_Sandstone_11.png","response":null,"trial_type":"image-keyboard-response","trial_index":85,"plugin_version":"2.1.0","time_elapsed":228601,"subject_id":"89967","group":"Group2","full_date":"2025-11-09T20:51:19.611Z","date":"2025-11-09","time":"20:51:19"},{"rt":null,"stimulus":"<p style=\"font-size: 50px; margin: 0; text-align: center;\">+</p>","response":null,"trial_type":"html-keyboard-response","trial_index":86,"plugin_version":"2.1.0","time_elapsed":229603,"subject_id":"89967","group":"Group2","full_date":"2025-11-09T20:51:19.611Z","date":"2025-11-09","time":"20:51:19"},{"task":"memory_phase","broad_category":"M","image_png":"M_Marble_03.png","image_id":227,"category_name":"Marble","category":15,"distinct_rating":2.67,"distinct_type":"Bottom","rt":null,"stimulus":"Stimuli_Rocks480/M_Marble_03.png","response":null,"trial_type":"image-keyboard-response","trial_index":87,"plugin_version":"2.1.0","time_elapsed":232106,"subject_id":"89967","group":"Group2","full_date":"2025-11-09T20:51:19.611Z","date":"2025-11-09","time":"20:51:19"},{"rt":null,"stimulus":"<p style=\"font-size: 50px; margin: 0; text-align: center;\">+</p>","response":null,"trial_type":"html-keyboard-response","trial_index":88,"plugin_version":"2.1.0","time_elapsed":233109,"subject_id":"89967","group":"Group2","full_date":"2025-11-09T20:51:19.611Z","date":"2025-11-09","time":"20:51:19"},{"task":"memory_phase","broad_category":"M","image_png":"M_Quartzite_15.png","image_id":287,"category_name":"Quartzite","category":18,"distinct_rating":2.19,"distinct_type":"Bottom","rt":null,"stimulus":"Stimuli_Rocks480/M_Quartzite_15.png","response":null,"trial_type":"image-keyboard-response","trial_index":89,"plugin_version":"2.1.0","time_elapsed":235610,"subject_id":"89967","group":"Group2","full_date":"2025-11-09T20:51:19.611Z","date":"2025-11-09","time":"20:51:19"},{"rt":null,"stimulus":"<p style=\"font-size: 50px; margin: 0; text-align: center;\">+</p>","response":null,"trial_type":"html-keyboard-response","trial_index":90,"plugin_version":"2.1.0","time_elapsed":236612,"subject_id":"89967","group":"Group2","full_date":"2025-11-09T20:51:19.611Z","date":"2025-11-09","time":"20:51:19"},{"task":"memory_phase","broad_category":"S","image_png":"S_Dolomite_07.png","image_id":391,"category_name":"Dolomite","category":25,"distinct_rating":1.73,"distinct_type":"Bottom","rt":null,"stimulus":"Stimuli_Rocks480/S_Dolomite_07.png","response":null,"trial_type":"image-keyboard-response","trial_index":91,"plugin_version":"2.1.0","time_elapsed":239115,"subject_id":"89967","group":"Group2","full_date":"2025-11-09T20:51:19.611Z","date":"2025-11-09","time":"20:51:19"},{"rt":null,"stimulus":"<p style=\"font-size: 50px; margin: 0; text-align: center;\">+</p>","response":null,"trial_type":"html-keyboard-response","trial_index":92,"plugin_version":"2.1.0","time_elapsed":240118,"subject_id":"89967","group":"Group2","full_date":"2025-11-09T20:51:19.611Z","date":"2025-11-09","time":"20:51:19"},{"task":"memory_phase","broad_category":"I","image_png":"I_Andesite_09.png","image_id":9,"category_name":"Andesite","category":1,"distinct_rating":2.49,"distinct_type":"Bottom","rt":null,"stimulus":"Stimuli_Rocks480/I_Andesite_09.png","response":null,"trial_type":"image-keyboard-response","trial_index":93,"plugin_version":"2.1.0","time_elapsed":242621,"subject_id":"89967","group":"Group2","full_date":"2025-11-09T20:51:19.611Z","date":"2025-11-09","time":"20:51:19"},{"rt":null,"stimulus":"<p style=\"font-size: 50px; margin: 0; text-align: center;\">+</p>","response":null,"trial_type":"html-keyboard-response","trial_index":94,"plugin_version":"2.1.0","time_elapsed":243623,"subject_id":"89967","group":"Group2","full_date":"2025-11-09T20:51:19.611Z","date":"2025-11-09","time":"20:51:19"},{"task":"memory_phase","broad_category":"S","image_png":"S_Chert_13.png","image_id":365,"category_name":"Chert","category":23,"distinct_rating":6.57,"distinct_type":"Top","rt":null,"stimulus":"Stimuli_Rocks480/S_Chert_13.png","response":null,"trial_type":"image-keyboard-response","trial_index":95,"plugin_version":"2.1.0","time_elapsed":246126,"subject_id":"89967","group":"Group2","full_date":"2025-11-09T20:51:19.611Z","date":"2025-11-09","time":"20:51:19"},{"rt":null,"stimulus":"<p style=\"font-size: 50px; margin: 0; text-align: center;\">+</p>","response":null,"trial_type":"html-keyboard-response","trial_index":96,"plugin_version":"2.1.0","time_elapsed":247129,"subject_id":"89967","group":"Group2","full_date":"2025-11-09T20:51:19.611Z","date":"2025-11-09","time":"20:51:19"},{"task":"memory_phase","broad_category":"S","image_png":"S_Shale_07.png","image_id":471,"category_name":"Shale","category":30,"distinct_rating":2.73,"distinct_type":"Bottom","rt":null,"stimulus":"Stimuli_Rocks480/S_Shale_07.png","response":null,"trial_type":"image-keyboard-response","trial_index":97,"plugin_version":"2.1.0","time_elapsed":249631,"subject_id":"89967","group":"Group2","full_date":"2025-11-09T20:51:19.611Z","date":"2025-11-09","time":"20:51:19"},{"rt":null,"stimulus":"<p style=\"font-size: 50px; margin: 0; text-align: center;\">+</p>","response":null,"trial_type":"html-keyboard-response","trial_index":98,"plugin_version":"2.1.0","time_elapsed":250632,"subject_id":"89967","group":"Group2","full_date":"2025-11-09T20:51:19.611Z","date":"2025-11-09","time":"20:51:19"},{"task":"memory_phase","broad_category":"M","image_png":"M_Slate_14.png","image_id":318,"category_name":"Slate","category":20,"distinct_rating":2.58,"distinct_type":"Bottom","rt":null,"stimulus":"Stimuli_Rocks480/M_Slate_14.png","response":null,"trial_type":"image-keyboard-response","trial_index":99,"plugin_version":"2.1.0","time_elapsed":253135,"subject_id":"89967","group":"Group2","full_date":"2025-11-09T20:51:19.611Z","date":"2025-11-09","time":"20:51:19"},{"rt":null,"stimulus":"<p style=\"font-size: 50px; margin: 0; text-align: center;\">+</p>","response":null,"trial_type":"html-keyboard-response","trial_index":100,"plugin_version":"2.1.0","time_elapsed":254137,"subject_id":"89967","group":"Group2","full_date":"2025-11-09T20:51:19.611Z","date":"2025-11-09","time":"20:51:19"},{"task":"memory_phase","broad_category":"I","image_png":"I_Pegmatite_03.png","image_id":99,"category_name":"Pegmatite","category":7,"distinct_rating":7.24,"distinct_type":"Top","rt":null,"stimulus":"Stimuli_Rocks480/I_Pegmatite_03.png","response":null,"trial_type":"image-keyboard-response","trial_index":101,"plugin_version":"2.1.0","time_elapsed":256640,"subject_id":"89967","group":"Group2","full_date":"2025-11-09T20:51:19.611Z","date":"2025-11-09","time":"20:51:19"},{"rt":null,"stimulus":"<p style=\"font-size: 50px; margin: 0; text-align: center;\">+</p>","response":null,"trial_type":"html-keyboard-response","trial_index":102,"plugin_version":"2.1.0","time_elapsed":257642,"subject_id":"89967","group":"Group2","full_date":"2025-11-09T20:51:19.611Z","date":"2025-11-09","time":"20:51:19"},{"task":"memory_phase","broad_category":"I","image_png":"I_Andesite_03.png","image_id":3,"category_name":"Andesite","category":1,"distinct_rating":3.17,"distinct_type":"Bottom","rt":null,"stimulus":"Stimuli_Rocks480/I_Andesite_03.png","response":null,"trial_type":"image-keyboard-response","trial_index":103,"plugin_version":"2.1.0","time_elapsed":260144,"subject_id":"89967","group":"Group2","full_date":"2025-11-09T20:51:19.611Z","date":"2025-11-09","time":"20:51:19"},{"rt":null,"stimulus":"<p style=\"font-size: 50px; margin: 0; text-align: center;\">+</p>","response":null,"trial_type":"html-keyboard-response","trial_index":104,"plugin_version":"2.1.0","time_elapsed":261147,"subject_id":"89967","group":"Group2","full_date":"2025-11-09T20:51:19.611Z","date":"2025-11-09","time":"20:51:19"},{"task":"memory_phase","broad_category":"S","image_png":"S_Shale_03.png","image_id":467,"category_name":"Shale","category":30,"distinct_rating":1.95,"distinct_type":"Bottom","rt":null,"stimulus":"Stimuli_Rocks480/S_Shale_03.png","response":null,"trial_type":"image-keyboard-response","trial_index":105,"plugin_version":"2.1.0","time_elapsed":263650,"subject_id":"89967","group":"Group2","full_date":"2025-11-09T20:51:19.611Z","date":"2025-11-09","time":"20:51:19"},{"rt":23025,"stimulus":"<div style=\"max-width: 760px; margin: auto; font-size: 20px; line-height: 1.5;\">\n      <h1 style=\"text-align:center; font-size: 30px;\">Instructions for the Test Phase</h1>\n      <p>\n        The study phase is now complete.\n      </p>\n      <p>\n        In the test phase, you will again see a series of rock images. \n        Some will be ones you saw before - during the study phase, while others will be new.  \n        <b>Your task</b> is to decide whether you have seen each image before by pressing the corresponding key on your keyboard:<br><br>\n          <b>A</b> - NO (you did not see this image before)<br>\n          <b>L</b> - YES (you saw this image before)<br><br>\n        The test will proceed at your own pace. You will receive feedback after each response.  \n        Please try to respond <b>as accurately as possible</b>.\n      </p>\n      <p>\n        <b>Reminder:</b> If your computer has multiple language settings (e.g., English and another language),\n        please ensure it is set to English during the test phase.\n      </p>\n      <p>\n        You can track your progress using the <b>completion bar</b> at the top of the screen.  \n        Note that it has been refreshed to reflect your progress during this final phase.\n      </p>\n      <p>\n        Press the button below when you are ready to continue.\n      </p>\n    </div>","response":0,"trial_type":"html-button-response","trial_index":106,"plugin_version":"2.1.0","time_elapsed":286677,"subject_id":"89967","group":"Group2","full_date":"2025-11-09T20:51:19.611Z","date":"2025-11-09","time":"20:51:19"},{"correct_response":"l","task":"test_phase","broad_category":"M","image_png":"M_Marble_14.png","image_id":238,"category_name":"Marble","category":15,"distinct_rating":3.31,"distinct_type":"Bottom","item_type":"Target","rt":2706,"stimulus":"Stimuli_Rocks480/M_Marble_14.png","response":"l","trial_type":"image-keyboard-response","trial_index":107,"plugin_version":"2.1.0","time_elapsed":289385,"subject_id":"89967","group":"Group2","full_date":"2025-11-09T20:51:19.611Z","date":"2025-11-09","time":"20:51:19","cor_ans":true},{"trial_type":"html-keyboard-response","rt":null,"stimulus":"<p style=\"color: green; font-size: 50px; font-weight: bold;\">Correct</p>","response":null,"trial_index":108,"plugin_version":"2.1.0","time_elapsed":289887,"subject_id":"89967","group":"Group2","full_date":"2025-11-09T20:51:19.611Z","date":"2025-11-09","time":"20:51:19"},{"correct_response":"l","task":"test_phase","broad_category":"M","image_png":"M_Marble_03.png","image_id":227,"category_name":"Marble","category":15,"distinct_rating":2.67,"distinct_type":"Bottom","item_type":"Target","rt":1268,"stimulus":"Stimuli_Rocks480/M_Marble_03.png","response":"l","trial_type":"image-keyboard-response","trial_index":109,"plugin_version":"2.1.0","time_elapsed":291157,"subject_id":"89967","group":"Group2","full_date":"2025-11-09T20:51:19.611Z","date":"2025-11-09","time":"20:51:19","cor_ans":true},{"trial_type":"html-keyboard-response","rt":null,"stimulus":"<p style=\"color: green; font-size: 50px; font-weight: bold;\">Correct</p>","response":null,"trial_index":110,"plugin_version":"2.1.0","time_elapsed":291659,"subject_id":"89967","group":"Group2","full_date":"2025-11-09T20:51:19.611Z","date":"2025-11-09","time":"20:51:19"},{"correct_response":"a","task":"test_phase","broad_category":"I","image_png":"I_Pumice_08.png","image_id":136,"category_name":"Pumice","category":9,"distinct_rating":3.1,"distinct_type":"Bottom","item_type":"Foil","rt":1320,"stimulus":"Stimuli_Rocks480/I_Pumice_08.png","response":"a","trial_type":"image-keyboard-response","trial_index":111,"plugin_version":"2.1.0","time_elapsed":292980,"subject_id":"89967","group":"Group2","full_date":"2025-11-09T20:51:19.611Z","date":"2025-11-09","time":"20:51:19","cor_ans":true},{"trial_type":"html-keyboard-response","rt":null,"stimulus":"<p style=\"color: green; font-size: 50px; font-weight: bold;\">Correct</p>","response":null,"trial_index":112,"plugin_version":"2.1.0","time_elapsed":293482,"subject_id":"89967","group":"Group2","full_date":"2025-11-09T20:51:19.611Z","date":"2025-11-09","time":"20:51:19"},{"correct_response":"l","task":"test_phase","broad_category":"I","image_png":"I_Andesite_03.png","image_id":3,"category_name":"Andesite","category":1,"distinct_rating":3.17,"distinct_type":"Bottom","item_type":"Target","rt":2205,"stimulus":"Stimuli_Rocks480/I_Andesite_03.png","response":"a","trial_type":"image-keyboard-response","trial_index":113,"plugin_version":"2.1.0","time_elapsed":295689,"subject_id":"89967","group":"Group2","full_date":"2025-11-09T20:51:19.611Z","date":"2025-11-09","time":"20:51:19","cor_ans":false},{"trial_type":"html-keyboard-response","rt":null,"stimulus":"<p style=\"color: red; font-size: 50px; font-weight: bold;\">Incorrect</p>","response":null,"trial_index":114,"plugin_version":"2.1.0","time_elapsed":296191,"subject_id":"89967","group":"Group2","full_date":"2025-11-09T20:51:19.611Z","date":"2025-11-09","time":"20:51:19"},{"correct_response":"a","task":"test_phase","broad_category":"S","image_png":"S_Sandstone_15.png","image_id":463,"category_name":"Sandstone","category":29,"distinct_rating":2,"distinct_type":"Bottom","item_type":"Foil","rt":1760,"stimulus":"Stimuli_Rocks480/S_Sandstone_15.png","response":"a","trial_type":"image-keyboard-response","trial_index":115,"plugin_version":"2.1.0","time_elapsed":297952,"subject_id":"89967","group":"Group2","full_date":"2025-11-09T20:51:19.611Z","date":"2025-11-09","time":"20:51:19","cor_ans":true},{"trial_type":"html-keyboard-response","rt":null,"stimulus":"<p style=\"color: green; font-size: 50px; font-weight: bold;\">Correct</p>","response":null,"trial_index":116,"plugin_version":"2.1.0","time_elapsed":298454,"subject_id":"89967","group":"Group2","full_date":"2025-11-09T20:51:19.611Z","date":"2025-11-09","time":"20:51:19"},{"correct_response":"l","task":"test_phase","broad_category":"S","image_png":"S_Dolomite_16.png","image_id":400,"category_name":"Dolomite","category":25,"distinct_rating":1.71,"distinct_type":"Bottom","item_type":"Target","rt":1446,"stimulus":"Stimuli_Rocks480/S_Dolomite_16.png","response":"a","trial_type":"image-keyboard-response","trial_index":117,"plugin_version":"2.1.0","time_elapsed":299901,"subject_id":"89967","group":"Group2","full_date":"2025-11-09T20:51:19.611Z","date":"2025-11-09","time":"20:51:19","cor_ans":false},{"trial_type":"html-keyboard-response","rt":null,"stimulus":"<p style=\"color: red; font-size: 50px; font-weight: bold;\">Incorrect</p>","response":null,"trial_index":118,"plugin_version":"2.1.0","time_elapsed":300403,"subject_id":"89967","group":"Group2","full_date":"2025-11-09T20:51:19.611Z","date":"2025-11-09","time":"20:51:19"},{"correct_response":"a","task":"test_phase","broad_category":"I","image_png":"I_Rhyolite_14.png","image_id":158,"category_name":"Rhyolite","category":10,"distinct_rating":2.59,"distinct_type":"Bottom","item_type":"Foil","rt":1002,"stimulus":"Stimuli_Rocks480/I_Rhyolite_14.png","response":"l","trial_type":"image-keyboard-response","trial_index":119,"plugin_version":"2.1.0","time_elapsed":301407,"subject_id":"89967","group":"Group2","full_date":"2025-11-09T20:51:19.611Z","date":"2025-11-09","time":"20:51:19","cor_ans":false},{"trial_type":"html-keyboard-response","rt":null,"stimulus":"<p style=\"color: red; font-size: 50px; font-weight: bold;\">Incorrect</p>","response":null,"trial_index":120,"plugin_version":"2.1.0","time_elapsed":301908,"subject_id":"89967","group":"Group2","full_date":"2025-11-09T20:51:19.611Z","date":"2025-11-09","time":"20:51:19"},{"correct_response":"l","task":"test_phase","broad_category":"M","image_png":"M_Quartzite_07.png","image_id":279,"category_name":"Quartzite","category":18,"distinct_rating":1.97,"distinct_type":"Bottom","item_type":"Target","rt":1007,"stimulus":"Stimuli_Rocks480/M_Quartzite_07.png","response":"l","trial_type":"image-keyboard-response","trial_index":121,"plugin_version":"2.1.0","time_elapsed":302916,"subject_id":"89967","group":"Group2","full_date":"2025-11-09T20:51:19.611Z","date":"2025-11-09","time":"20:51:19","cor_ans":true},{"trial_type":"html-keyboard-response","rt":null,"stimulus":"<p style=\"color: green; font-size: 50px; font-weight: bold;\">Correct</p>","response":null,"trial_index":122,"plugin_version":"2.1.0","time_elapsed":303418,"subject_id":"89967","group":"Group2","full_date":"2025-11-09T20:51:19.611Z","date":"2025-11-09","time":"20:51:19"},{"correct_response":"a","task":"test_phase","broad_category":"M","image_png":"M_Phyllite_10.png","image_id":266,"category_name":"Phyllite","category":17,"distinct_rating":2.6,"distinct_type":"Bottom","item_type":"Foil","rt":3116,"stimulus":"Stimuli_Rocks480/M_Phyllite_10.png","response":"l","trial_type":"image-keyboard-response","trial_index":123,"plugin_version":"2.1.0","time_elapsed":306536,"subject_id":"89967","group":"Group2","full_date":"2025-11-09T20:51:19.611Z","date":"2025-11-09","time":"20:51:19","cor_ans":false},{"trial_type":"html-keyboard-response","rt":null,"stimulus":"<p style=\"color: red; font-size: 50px; font-weight: bold;\">Incorrect</p>","response":null,"trial_index":124,"plugin_version":"2.1.0","time_elapsed":307037,"subject_id":"89967","group":"Group2","full_date":"2025-11-09T20:51:19.611Z","date":"2025-11-09","time":"20:51:19"},{"correct_response":"a","task":"test_phase","broad_category":"S","image_png":"S_Breccia_11.png","image_id":347,"category_name":"Breccia","category":22,"distinct_rating":6.7,"distinct_type":"Top","item_type":"Foil","rt":1168,"stimulus":"Stimuli_Rocks480/S_Breccia_11.png","response":"a","trial_type":"image-keyboard-response","trial_index":125,"plugin_version":"2.1.0","time_elapsed":308206,"subject_id":"89967","group":"Group2","full_date":"2025-11-09T20:51:19.611Z","date":"2025-11-09","time":"20:51:19","cor_ans":true},{"trial_type":"html-keyboard-response","rt":null,"stimulus":"<p style=\"color: green; font-size: 50px; font-weight: bold;\">Correct</p>","response":null,"trial_index":126,"plugin_version":"2.1.0","time_elapsed":308707,"subject_id":"89967","group":"Group2","full_date":"2025-11-09T20:51:19.611Z","date":"2025-11-09","time":"20:51:19"},{"correct_response":"l","task":"test_phase","broad_category":"S","image_png":"S_Shale_03.png","image_id":467,"category_name":"Shale","category":30,"distinct_rating":1.95,"distinct_type":"Bottom","item_type":"Target","rt":834,"stimulus":"Stimuli_Rocks480/S_Shale_03.png","response":"l","trial_type":"image-keyboard-response","trial_index":127,"plugin_version":"2.1.0","time_elapsed":309543,"subject_id":"89967","group":"Group2","full_date":"2025-11-09T20:51:19.611Z","date":"2025-11-09","time":"20:51:19","cor_ans":true},{"trial_type":"html-keyboard-response","rt":null,"stimulus":"<p style=\"color: green; font-size: 50px; font-weight: bold;\">Correct</p>","response":null,"trial_index":128,"plugin_version":"2.1.0","time_elapsed":310044,"subject_id":"89967","group":"Group2","full_date":"2025-11-09T20:51:19.611Z","date":"2025-11-09","time":"20:51:19"},{"correct_response":"a","task":"test_phase","broad_category":"I","image_png":"I_Diorite_03.png","image_id":35,"category_name":"Diorite","category":3,"distinct_rating":3.14,"distinct_type":"Bottom","item_type":"Foil","rt":1114,"stimulus":"Stimuli_Rocks480/I_Diorite_03.png","response":"l","trial_type":"image-keyboard-response","trial_index":129,"plugin_version":"2.1.0","time_elapsed":311159,"subject_id":"89967","group":"Group2","full_date":"2025-11-09T20:51:19.611Z","date":"2025-11-09","time":"20:51:19","cor_ans":false},{"trial_type":"html-keyboard-response","rt":null,"stimulus":"<p style=\"color: red; font-size: 50px; font-weight: bold;\">Incorrect</p>","response":null,"trial_index":130,"plugin_version":"2.1.0","time_elapsed":311661,"subject_id":"89967","group":"Group2","full_date":"2025-11-09T20:51:19.611Z","date":"2025-11-09","time":"20:51:19"},{"correct_response":"a","task":"test_phase","broad_category":"M","image_png":"M_Slate_11.png","image_id":315,"category_name":"Slate","category":20,"distinct_rating":2.75,"distinct_type":"Bottom","item_type":"Foil","rt":886,"stimulus":"Stimuli_Rocks480/M_Slate_11.png","response":"l","trial_type":"image-keyboard-response","trial_index":131,"plugin_version":"2.1.0","time_elapsed":312549,"subject_id":"89967","group":"Group2","full_date":"2025-11-09T20:51:19.611Z","date":"2025-11-09","time":"20:51:19","cor_ans":false},{"trial_type":"html-keyboard-response","rt":null,"stimulus":"<p style=\"color: red; font-size: 50px; font-weight: bold;\">Incorrect</p>","response":null,"trial_index":132,"plugin_version":"2.1.0","time_elapsed":313050,"subject_id":"89967","group":"Group2","full_date":"2025-11-09T20:51:19.611Z","date":"2025-11-09","time":"20:51:19"},{"correct_response":"l","task":"test_phase","broad_category":"S","image_png":"S_Sandstone_04.png","image_id":452,"category_name":"Sandstone","category":29,"distinct_rating":1.8,"distinct_type":"Bottom","item_type":"Target","rt":1878,"stimulus":"Stimuli_Rocks480/S_Sandstone_04.png","response":"l","trial_type":"image-keyboard-response","trial_index":133,"plugin_version":"2.1.0","time_elapsed":314929,"subject_id":"89967","group":"Group2","full_date":"2025-11-09T20:51:19.611Z","date":"2025-11-09","time":"20:51:19","cor_ans":true},{"trial_type":"html-keyboard-response","rt":null,"stimulus":"<p style=\"color: green; font-size: 50px; font-weight: bold;\">Correct</p>","response":null,"trial_index":134,"plugin_version":"2.1.0","time_elapsed":315431,"subject_id":"89967","group":"Group2","full_date":"2025-11-09T20:51:19.611Z","date":"2025-11-09","time":"20:51:19"},{"correct_response":"l","task":"test_phase","broad_category":"I","image_png":"I_Basalt_10.png","image_id":26,"category_name":"Basalt","category":2,"distinct_rating":2.76,"distinct_type":"Bottom","item_type":"Target","rt":900,"stimulus":"Stimuli_Rocks480/I_Basalt_10.png","response":"a","trial_type":"image-keyboard-response","trial_index":135,"plugin_version":"2.1.0","time_elapsed":316331,"subject_id":"89967","group":"Group2","full_date":"2025-11-09T20:51:19.611Z","date":"2025-11-09","time":"20:51:19","cor_ans":false},{"trial_type":"html-keyboard-response","rt":null,"stimulus":"<p style=\"color: red; font-size: 50px; font-weight: bold;\">Incorrect</p>","response":null,"trial_index":136,"plugin_version":"2.1.0","time_elapsed":316834,"subject_id":"89967","group":"Group2","full_date":"2025-11-09T20:51:19.611Z","date":"2025-11-09","time":"20:51:19"},{"correct_response":"l","task":"test_phase","broad_category":"S","image_png":"S_Rock Salt_15.png","image_id":447,"category_name":"Rock Salt","category":28,"distinct_rating":7.79,"distinct_type":"Top","item_type":"Target","rt":757,"stimulus":"Stimuli_Rocks480/S_Rock Salt_15.png","response":"l","trial_type":"image-keyboard-response","trial_index":137,"plugin_version":"2.1.0","time_elapsed":317594,"subject_id":"89967","group":"Group2","full_date":"2025-11-09T20:51:19.611Z","date":"2025-11-09","time":"20:51:19","cor_ans":true},{"trial_type":"html-keyboard-response","rt":null,"stimulus":"<p style=\"color: green; font-size: 50px; font-weight: bold;\">Correct</p>","response":null,"trial_index":138,"plugin_version":"2.1.0","time_elapsed":318094,"subject_id":"89967","group":"Group2","full_date":"2025-11-09T20:51:19.611Z","date":"2025-11-09","time":"20:51:19"},{"correct_response":"l","task":"test_phase","broad_category":"I","image_png":"I_Basalt_08.png","image_id":24,"category_name":"Basalt","category":2,"distinct_rating":2.31,"distinct_type":"Bottom","item_type":"Target","rt":840,"stimulus":"Stimuli_Rocks480/I_Basalt_08.png","response":"l","trial_type":"image-keyboard-response","trial_index":139,"plugin_version":"2.1.0","time_elapsed":318936,"subject_id":"89967","group":"Group2","full_date":"2025-11-09T20:51:19.611Z","date":"2025-11-09","time":"20:51:19","cor_ans":true},{"trial_type":"html-keyboard-response","rt":null,"stimulus":"<p style=\"color: green; font-size: 50px; font-weight: bold;\">Correct</p>","response":null,"trial_index":140,"plugin_version":"2.1.0","time_elapsed":319438,"subject_id":"89967","group":"Group2","full_date":"2025-11-09T20:51:19.611Z","date":"2025-11-09","time":"20:51:19"},{"correct_response":"l","task":"test_phase","broad_category":"S","image_png":"S_Rock Salt_13.png","image_id":445,"category_name":"Rock Salt","category":28,"distinct_rating":7.58,"distinct_type":"Top","item_type":"Target","rt":1504,"stimulus":"Stimuli_Rocks480/S_Rock Salt_13.png","response":"l","trial_type":"image-keyboard-response","trial_index":141,"plugin_version":"2.1.0","time_elapsed":320943,"subject_id":"89967","group":"Group2","full_date":"2025-11-09T20:51:19.611Z","date":"2025-11-09","time":"20:51:19","cor_ans":true},{"trial_type":"html-keyboard-response","rt":null,"stimulus":"<p style=\"color: green; font-size: 50px; font-weight: bold;\">Correct</p>","response":null,"trial_index":142,"plugin_version":"2.1.0","time_elapsed":321444,"subject_id":"89967","group":"Group2","full_date":"2025-11-09T20:51:19.611Z","date":"2025-11-09","time":"20:51:19"},{"correct_response":"l","task":"test_phase","broad_category":"S","image_png":"S_Chert_13.png","image_id":365,"category_name":"Chert","category":23,"distinct_rating":6.57,"distinct_type":"Top","item_type":"Target","rt":653,"stimulus":"Stimuli_Rocks480/S_Chert_13.png","response":"l","trial_type":"image-keyboard-response","trial_index":143,"plugin_version":"2.1.0","time_elapsed":322099,"subject_id":"89967","group":"Group2","full_date":"2025-11-09T20:51:19.611Z","date":"2025-11-09","time":"20:51:19","cor_ans":true},{"trial_type":"html-keyboard-response","rt":null,"stimulus":"<p style=\"color: green; font-size: 50px; font-weight: bold;\">Correct</p>","response":null,"trial_index":144,"plugin_version":"2.1.0","time_elapsed":322600,"subject_id":"89967","group":"Group2","full_date":"2025-11-09T20:51:19.611Z","date":"2025-11-09","time":"20:51:19"},{"correct_response":"l","task":"test_phase","broad_category":"I","image_png":"I_Andesite_09.png","image_id":9,"category_name":"Andesite","category":1,"distinct_rating":2.49,"distinct_type":"Bottom","item_type":"Target","rt":1666,"stimulus":"Stimuli_Rocks480/I_Andesite_09.png","response":"l","trial_type":"image-keyboard-response","trial_index":145,"plugin_version":"2.1.0","time_elapsed":324268,"subject_id":"89967","group":"Group2","full_date":"2025-11-09T20:51:19.611Z","date":"2025-11-09","time":"20:51:19","cor_ans":true},{"trial_type":"html-keyboard-response","rt":null,"stimulus":"<p style=\"color: green; font-size: 50px; font-weight: bold;\">Correct</p>","response":null,"trial_index":146,"plugin_version":"2.1.0","time_elapsed":324769,"subject_id":"89967","group":"Group2","full_date":"2025-11-09T20:51:19.611Z","date":"2025-11-09","time":"20:51:19"},{"correct_response":"a","task":"test_phase","broad_category":"I","image_png":"I_Gabbro_11.png","image_id":59,"category_name":"Gabbro","category":4,"distinct_rating":1.99,"distinct_type":"Bottom","item_type":"Foil","rt":1670,"stimulus":"Stimuli_Rocks480/I_Gabbro_11.png","response":"l","trial_type":"image-keyboard-response","trial_index":147,"plugin_version":"2.1.0","time_elapsed":326441,"subject_id":"89967","group":"Group2","full_date":"2025-11-09T20:51:19.611Z","date":"2025-11-09","time":"20:51:19","cor_ans":false},{"trial_type":"html-keyboard-response","rt":null,"stimulus":"<p style=\"color: red; font-size: 50px; font-weight: bold;\">Incorrect</p>","response":null,"trial_index":148,"plugin_version":"2.1.0","time_elapsed":326942,"subject_id":"89967","group":"Group2","full_date":"2025-11-09T20:51:19.611Z","date":"2025-11-09","time":"20:51:19"},{"correct_response":"a","task":"test_phase","broad_category":"I","image_png":"I_Diorite_04.png","image_id":36,"category_name":"Diorite","category":3,"distinct_rating":2.98,"distinct_type":"Bottom","item_type":"Foil","rt":1414,"stimulus":"Stimuli_Rocks480/I_Diorite_04.png","response":"l","trial_type":"image-keyboard-response","trial_index":149,"plugin_version":"2.1.0","time_elapsed":328357,"subject_id":"89967","group":"Group2","full_date":"2025-11-09T20:51:19.611Z","date":"2025-11-09","time":"20:51:19","cor_ans":false},{"trial_type":"html-keyboard-response","rt":null,"stimulus":"<p style=\"color: red; font-size: 50px; font-weight: bold;\">Incorrect</p>","response":null,"trial_index":150,"plugin_version":"2.1.0","time_elapsed":328858,"subject_id":"89967","group":"Group2","full_date":"2025-11-09T20:51:19.611Z","date":"2025-11-09","time":"20:51:19"},{"correct_response":"l","task":"test_phase","broad_category":"S","image_png":"S_Sandstone_11.png","image_id":459,"category_name":"Sandstone","category":29,"distinct_rating":1.82,"distinct_type":"Bottom","item_type":"Target","rt":990,"stimulus":"Stimuli_Rocks480/S_Sandstone_11.png","response":"l","trial_type":"image-keyboard-response","trial_index":151,"plugin_version":"2.1.0","time_elapsed":329850,"subject_id":"89967","group":"Group2","full_date":"2025-11-09T20:51:19.611Z","date":"2025-11-09","time":"20:51:19","cor_ans":true},{"trial_type":"html-keyboard-response","rt":null,"stimulus":"<p style=\"color: green; font-size: 50px; font-weight: bold;\">Correct</p>","response":null,"trial_index":152,"plugin_version":"2.1.0","time_elapsed":330351,"subject_id":"89967","group":"Group2","full_date":"2025-11-09T20:51:19.611Z","date":"2025-11-09","time":"20:51:19"},{"correct_response":"l","task":"test_phase","broad_category":"M","image_png":"M_Quartzite_15.png","image_id":287,"category_name":"Quartzite","category":18,"distinct_rating":2.19,"distinct_type":"Bottom","item_type":"Target","rt":848,"stimulus":"Stimuli_Rocks480/M_Quartzite_15.png","response":"l","trial_type":"image-keyboard-response","trial_index":153,"plugin_version":"2.1.0","time_elapsed":331201,"subject_id":"89967","group":"Group2","full_date":"2025-11-09T20:51:19.611Z","date":"2025-11-09","time":"20:51:19","cor_ans":true},{"trial_type":"html-keyboard-response","rt":null,"stimulus":"<p style=\"color: green; font-size: 50px; font-weight: bold;\">Correct</p>","response":null,"trial_index":154,"plugin_version":"2.1.0","time_elapsed":331703,"subject_id":"89967","group":"Group2","full_date":"2025-11-09T20:51:19.611Z","date":"2025-11-09","time":"20:51:19"},{"correct_response":"l","task":"test_phase","broad_category":"M","image_png":"M_Marble_02.png","image_id":226,"category_name":"Marble","category":15,"distinct_rating":3.2,"distinct_type":"Bottom","item_type":"Target","rt":804,"stimulus":"Stimuli_Rocks480/M_Marble_02.png","response":"l","trial_type":"image-keyboard-response","trial_index":155,"plugin_version":"2.1.0","time_elapsed":332508,"subject_id":"89967","group":"Group2","full_date":"2025-11-09T20:51:19.611Z","date":"2025-11-09","time":"20:51:19","cor_ans":true},{"trial_type":"html-keyboard-response","rt":null,"stimulus":"<p style=\"color: green; font-size: 50px; font-weight: bold;\">Correct</p>","response":null,"trial_index":156,"plugin_version":"2.1.0","time_elapsed":333009,"subject_id":"89967","group":"Group2","full_date":"2025-11-09T20:51:19.611Z","date":"2025-11-09","time":"20:51:19"},{"correct_response":"a","task":"test_phase","broad_category":"S","image_png":"S_Shale_08.png","image_id":472,"category_name":"Shale","category":30,"distinct_rating":2.55,"distinct_type":"Bottom","item_type":"Foil","rt":849,"stimulus":"Stimuli_Rocks480/S_Shale_08.png","response":"l","trial_type":"image-keyboard-response","trial_index":157,"plugin_version":"2.1.0","time_elapsed":333860,"subject_id":"89967","group":"Group2","full_date":"2025-11-09T20:51:19.611Z","date":"2025-11-09","time":"20:51:19","cor_ans":false},{"trial_type":"html-keyboard-response","rt":null,"stimulus":"<p style=\"color: red; font-size: 50px; font-weight: bold;\">Incorrect</p>","response":null,"trial_index":158,"plugin_version":"2.1.0","time_elapsed":334362,"subject_id":"89967","group":"Group2","full_date":"2025-11-09T20:51:19.611Z","date":"2025-11-09","time":"20:51:19"},{"correct_response":"a","task":"test_phase","broad_category":"I","image_png":"I_Pegmatite_16.png","image_id":112,"category_name":"Pegmatite","category":7,"distinct_rating":7.03,"distinct_type":"Top","item_type":"Foil","rt":888,"stimulus":"Stimuli_Rocks480/I_Pegmatite_16.png","response":"a","trial_type":"image-keyboard-response","trial_index":159,"plugin_version":"2.1.0","time_elapsed":335252,"subject_id":"89967","group":"Group2","full_date":"2025-11-09T20:51:19.611Z","date":"2025-11-09","time":"20:51:19","cor_ans":true},{"trial_type":"html-keyboard-response","rt":null,"stimulus":"<p style=\"color: green; font-size: 50px; font-weight: bold;\">Correct</p>","response":null,"trial_index":160,"plugin_version":"2.1.0","time_elapsed":335754,"subject_id":"89967","group":"Group2","full_date":"2025-11-09T20:51:19.611Z","date":"2025-11-09","time":"20:51:19"},{"correct_response":"a","task":"test_phase","broad_category":"I","image_png":"I_Andesite_08.png","image_id":8,"category_name":"Andesite","category":1,"distinct_rating":1.95,"distinct_type":"Bottom","item_type":"Foil","rt":784,"stimulus":"Stimuli_Rocks480/I_Andesite_08.png","response":"l","trial_type":"image-keyboard-response","trial_index":161,"plugin_version":"2.1.0","time_elapsed":336540,"subject_id":"89967","group":"Group2","full_date":"2025-11-09T20:51:19.611Z","date":"2025-11-09","time":"20:51:19","cor_ans":false},{"trial_type":"html-keyboard-response","rt":null,"stimulus":"<p style=\"color: red; font-size: 50px; font-weight: bold;\">Incorrect</p>","response":null,"trial_index":162,"plugin_version":"2.1.0","time_elapsed":337041,"subject_id":"89967","group":"Group2","full_date":"2025-11-09T20:51:19.611Z","date":"2025-11-09","time":"20:51:19"},{"correct_response":"a","task":"test_phase","broad_category":"S","image_png":"S_Conglomerate_05.png","image_id":373,"category_name":"Conglomerate","category":24,"distinct_rating":7.32,"distinct_type":"Top","item_type":"Foil","rt":906,"stimulus":"Stimuli_Rocks480/S_Conglomerate_05.png","response":"a","trial_type":"image-keyboard-response","trial_index":163,"plugin_version":"2.1.0","time_elapsed":337948,"subject_id":"89967","group":"Group2","full_date":"2025-11-09T20:51:19.611Z","date":"2025-11-09","time":"20:51:19","cor_ans":true},{"trial_type":"html-keyboard-response","rt":null,"stimulus":"<p style=\"color: green; font-size: 50px; font-weight: bold;\">Correct</p>","response":null,"trial_index":164,"plugin_version":"2.1.0","time_elapsed":338449,"subject_id":"89967","group":"Group2","full_date":"2025-11-09T20:51:19.611Z","date":"2025-11-09","time":"20:51:19"},{"correct_response":"l","task":"test_phase","broad_category":"I","image_png":"I_Rhyolite_08.png","image_id":152,"category_name":"Rhyolite","category":10,"distinct_rating":1.38,"distinct_type":"Bottom","item_type":"Target","rt":1328,"stimulus":"Stimuli_Rocks480/I_Rhyolite_08.png","response":"a","trial_type":"image-keyboard-response","trial_index":165,"plugin_version":"2.1.0","time_elapsed":339779,"subject_id":"89967","group":"Group2","full_date":"2025-11-09T20:51:19.611Z","date":"2025-11-09","time":"20:51:19","cor_ans":false},{"trial_type":"html-keyboard-response","rt":null,"stimulus":"<p style=\"color: red; font-size: 50px; font-weight: bold;\">Incorrect</p>","response":null,"trial_index":166,"plugin_version":"2.1.0","time_elapsed":340280,"subject_id":"89967","group":"Group2","full_date":"2025-11-09T20:51:19.611Z","date":"2025-11-09","time":"20:51:19"},{"correct_response":"l","task":"test_phase","broad_category":"S","image_png":"S_Shale_07.png","image_id":471,"category_name":"Shale","category":30,"distinct_rating":2.73,"distinct_type":"Bottom","item_type":"Target","rt":1323,"stimulus":"Stimuli_Rocks480/S_Shale_07.png","response":"l","trial_type":"image-keyboard-response","trial_index":167,"plugin_version":"2.1.0","time_elapsed":341604,"subject_id":"89967","group":"Group2","full_date":"2025-11-09T20:51:19.611Z","date":"2025-11-09","time":"20:51:19","cor_ans":true},{"trial_type":"html-keyboard-response","rt":null,"stimulus":"<p style=\"color: green; font-size: 50px; font-weight: bold;\">Correct</p>","response":null,"trial_index":168,"plugin_version":"2.1.0","time_elapsed":342106,"subject_id":"89967","group":"Group2","full_date":"2025-11-09T20:51:19.611Z","date":"2025-11-09","time":"20:51:19"},{"correct_response":"a","task":"test_phase","broad_category":"I","image_png":"I_Gabbro_08.png","image_id":56,"category_name":"Gabbro","category":4,"distinct_rating":3.02,"distinct_type":"Bottom","item_type":"Foil","rt":654,"stimulus":"Stimuli_Rocks480/I_Gabbro_08.png","response":"l","trial_type":"image-keyboard-response","trial_index":169,"plugin_version":"2.1.0","time_elapsed":342762,"subject_id":"89967","group":"Group2","full_date":"2025-11-09T20:51:19.611Z","date":"2025-11-09","time":"20:51:19","cor_ans":false},{"trial_type":"html-keyboard-response","rt":null,"stimulus":"<p style=\"color: red; font-size: 50px; font-weight: bold;\">Incorrect</p>","response":null,"trial_index":170,"plugin_version":"2.1.0","time_elapsed":343264,"subject_id":"89967","group":"Group2","full_date":"2025-11-09T20:51:19.611Z","date":"2025-11-09","time":"20:51:19"},{"correct_response":"l","task":"test_phase","broad_category":"I","image_png":"I_Pumice_13.png","image_id":141,"category_name":"Pumice","category":9,"distinct_rating":3.12,"distinct_type":"Bottom","item_type":"Target","rt":767,"stimulus":"Stimuli_Rocks480/I_Pumice_13.png","response":"l","trial_type":"image-keyboard-response","trial_index":171,"plugin_version":"2.1.0","time_elapsed":344033,"subject_id":"89967","group":"Group2","full_date":"2025-11-09T20:51:19.611Z","date":"2025-11-09","time":"20:51:19","cor_ans":true},{"trial_type":"html-keyboard-response","rt":null,"stimulus":"<p style=\"color: green; font-size: 50px; font-weight: bold;\">Correct</p>","response":null,"trial_index":172,"plugin_version":"2.1.0","time_elapsed":344534,"subject_id":"89967","group":"Group2","full_date":"2025-11-09T20:51:19.611Z","date":"2025-11-09","time":"20:51:19"},{"correct_response":"l","task":"test_phase","broad_category":"I","image_png":"I_Basalt_13.png","image_id":29,"category_name":"Basalt","category":2,"distinct_rating":2.68,"distinct_type":"Bottom","item_type":"Target","rt":1003,"stimulus":"Stimuli_Rocks480/I_Basalt_13.png","response":"l","trial_type":"image-keyboard-response","trial_index":173,"plugin_version":"2.1.0","time_elapsed":345539,"subject_id":"89967","group":"Group2","full_date":"2025-11-09T20:51:19.611Z","date":"2025-11-09","time":"20:51:19","cor_ans":true},{"trial_type":"html-keyboard-response","rt":null,"stimulus":"<p style=\"color: green; font-size: 50px; font-weight: bold;\">Correct</p>","response":null,"trial_index":174,"plugin_version":"2.1.0","time_elapsed":346041,"subject_id":"89967","group":"Group2","full_date":"2025-11-09T20:51:19.611Z","date":"2025-11-09","time":"20:51:19"},{"correct_response":"l","task":"test_phase","broad_category":"M","image_png":"M_Quartzite_12.png","image_id":284,"category_name":"Quartzite","category":18,"distinct_rating":1.92,"distinct_type":"Bottom","item_type":"Target","rt":973,"stimulus":"Stimuli_Rocks480/M_Quartzite_12.png","response":"l","trial_type":"image-keyboard-response","trial_index":175,"plugin_version":"2.1.0","time_elapsed":347016,"subject_id":"89967","group":"Group2","full_date":"2025-11-09T20:51:19.611Z","date":"2025-11-09","time":"20:51:19","cor_ans":true},{"trial_type":"html-keyboard-response","rt":null,"stimulus":"<p style=\"color: green; font-size: 50px; font-weight: bold;\">Correct</p>","response":null,"trial_index":176,"plugin_version":"2.1.0","time_elapsed":347518,"subject_id":"89967","group":"Group2","full_date":"2025-11-09T20:51:19.611Z","date":"2025-11-09","time":"20:51:19"},{"correct_response":"a","task":"test_phase","broad_category":"S","image_png":"S_Dolomite_13.png","image_id":397,"category_name":"Dolomite","category":25,"distinct_rating":1.77,"distinct_type":"Bottom","item_type":"Foil","rt":708,"stimulus":"Stimuli_Rocks480/S_Dolomite_13.png","response":"l","trial_type":"image-keyboard-response","trial_index":177,"plugin_version":"2.1.0","time_elapsed":348227,"subject_id":"89967","group":"Group2","full_date":"2025-11-09T20:51:19.611Z","date":"2025-11-09","time":"20:51:19","cor_ans":false},{"trial_type":"html-keyboard-response","rt":null,"stimulus":"<p style=\"color: red; font-size: 50px; font-weight: bold;\">Incorrect</p>","response":null,"trial_index":178,"plugin_version":"2.1.0","time_elapsed":348728,"subject_id":"89967","group":"Group2","full_date":"2025-11-09T20:51:19.611Z","date":"2025-11-09","time":"20:51:19"},{"correct_response":"a","task":"test_phase","broad_category":"S","image_png":"S_Sandstone_03.png","image_id":451,"category_name":"Sandstone","category":29,"distinct_rating":1.86,"distinct_type":"Bottom","item_type":"Foil","rt":1402,"stimulus":"Stimuli_Rocks480/S_Sandstone_03.png","response":"a","trial_type":"image-keyboard-response","trial_index":179,"plugin_version":"2.1.0","time_elapsed":350131,"subject_id":"89967","group":"Group2","full_date":"2025-11-09T20:51:19.611Z","date":"2025-11-09","time":"20:51:19","cor_ans":true},{"trial_type":"html-keyboard-response","rt":null,"stimulus":"<p style=\"color: green; font-size: 50px; font-weight: bold;\">Correct</p>","response":null,"trial_index":180,"plugin_version":"2.1.0","time_elapsed":350632,"subject_id":"89967","group":"Group2","full_date":"2025-11-09T20:51:19.611Z","date":"2025-11-09","time":"20:51:19"},{"correct_response":"a","task":"test_phase","broad_category":"I","image_png":"I_Basalt_01.png","image_id":17,"category_name":"Basalt","category":2,"distinct_rating":1.92,"distinct_type":"Bottom","item_type":"Foil","rt":901,"stimulus":"Stimuli_Rocks480/I_Basalt_01.png","response":"l","trial_type":"image-keyboard-response","trial_index":181,"plugin_version":"2.1.0","time_elapsed":351535,"subject_id":"89967","group":"Group2","full_date":"2025-11-09T20:51:19.611Z","date":"2025-11-09","time":"20:51:19","cor_ans":false},{"trial_type":"html-keyboard-response","rt":null,"stimulus":"<p style=\"color: red; font-size: 50px; font-weight: bold;\">Incorrect</p>","response":null,"trial_index":182,"plugin_version":"2.1.0","time_elapsed":352037,"subject_id":"89967","group":"Group2","full_date":"2025-11-09T20:51:19.611Z","date":"2025-11-09","time":"20:51:19"},{"correct_response":"l","task":"test_phase","broad_category":"I","image_png":"I_Diorite_15.png","image_id":47,"category_name":"Diorite","category":3,"distinct_rating":3.05,"distinct_type":"Bottom","item_type":"Target","rt":804,"stimulus":"Stimuli_Rocks480/I_Diorite_15.png","response":"l","trial_type":"image-keyboard-response","trial_index":183,"plugin_version":"2.1.0","time_elapsed":352843,"subject_id":"89967","group":"Group2","full_date":"2025-11-09T20:51:19.611Z","date":"2025-11-09","time":"20:51:19","cor_ans":true},{"trial_type":"html-keyboard-response","rt":null,"stimulus":"<p style=\"color: green; font-size: 50px; font-weight: bold;\">Correct</p>","response":null,"trial_index":184,"plugin_version":"2.1.0","time_elapsed":353344,"subject_id":"89967","group":"Group2","full_date":"2025-11-09T20:51:19.611Z","date":"2025-11-09","time":"20:51:19"},{"correct_response":"l","task":"test_phase","broad_category":"I","image_png":"I_Rhyolite_05.png","image_id":149,"category_name":"Rhyolite","category":10,"distinct_rating":3.02,"distinct_type":"Bottom","item_type":"Target","rt":1373,"stimulus":"Stimuli_Rocks480/I_Rhyolite_05.png","response":"a","trial_type":"image-keyboard-response","trial_index":185,"plugin_version":"2.1.0","time_elapsed":354718,"subject_id":"89967","group":"Group2","full_date":"2025-11-09T20:51:19.611Z","date":"2025-11-09","time":"20:51:19","cor_ans":false},{"trial_type":"html-keyboard-response","rt":null,"stimulus":"<p style=\"color: red; font-size: 50px; font-weight: bold;\">Incorrect</p>","response":null,"trial_index":186,"plugin_version":"2.1.0","time_elapsed":355220,"subject_id":"89967","group":"Group2","full_date":"2025-11-09T20:51:19.611Z","date":"2025-11-09","time":"20:51:19"},{"correct_response":"l","task":"test_phase","broad_category":"I","image_png":"I_Pegmatite_11.png","image_id":107,"category_name":"Pegmatite","category":7,"distinct_rating":7.11,"distinct_type":"Top","item_type":"Target","rt":954,"stimulus":"Stimuli_Rocks480/I_Pegmatite_11.png","response":"l","trial_type":"image-keyboard-response","trial_index":187,"plugin_version":"2.1.0","time_elapsed":356175,"subject_id":"89967","group":"Group2","full_date":"2025-11-09T20:51:19.611Z","date":"2025-11-09","time":"20:51:19","cor_ans":true},{"trial_type":"html-keyboard-response","rt":null,"stimulus":"<p style=\"color: green; font-size: 50px; font-weight: bold;\">Correct</p>","response":null,"trial_index":188,"plugin_version":"2.1.0","time_elapsed":356677,"subject_id":"89967","group":"Group2","full_date":"2025-11-09T20:51:19.611Z","date":"2025-11-09","time":"20:51:19"},{"correct_response":"a","task":"test_phase","broad_category":"I","image_png":"I_Diorite_05.png","image_id":37,"category_name":"Diorite","category":3,"distinct_rating":3.08,"distinct_type":"Bottom","item_type":"Foil","rt":662,"stimulus":"Stimuli_Rocks480/I_Diorite_05.png","response":"l","trial_type":"image-keyboard-response","trial_index":189,"plugin_version":"2.1.0","time_elapsed":357340,"subject_id":"89967","group":"Group2","full_date":"2025-11-09T20:51:19.611Z","date":"2025-11-09","time":"20:51:19","cor_ans":false},{"trial_type":"html-keyboard-response","rt":null,"stimulus":"<p style=\"color: red; font-size: 50px; font-weight: bold;\">Incorrect</p>","response":null,"trial_index":190,"plugin_version":"2.1.0","time_elapsed":357841,"subject_id":"89967","group":"Group2","full_date":"2025-11-09T20:51:19.611Z","date":"2025-11-09","time":"20:51:19"},{"correct_response":"a","task":"test_phase","broad_category":"I","image_png":"I_Pumice_12.png","image_id":140,"category_name":"Pumice","category":9,"distinct_rating":2.97,"distinct_type":"Bottom","item_type":"Foil","rt":1475,"stimulus":"Stimuli_Rocks480/I_Pumice_12.png","response":"a","trial_type":"image-keyboard-response","trial_index":191,"plugin_version":"2.1.0","time_elapsed":359318,"subject_id":"89967","group":"Group2","full_date":"2025-11-09T20:51:19.611Z","date":"2025-11-09","time":"20:51:19","cor_ans":true},{"trial_type":"html-keyboard-response","rt":null,"stimulus":"<p style=\"color: green; font-size: 50px; font-weight: bold;\">Correct</p>","response":null,"trial_index":192,"plugin_version":"2.1.0","time_elapsed":359819,"subject_id":"89967","group":"Group2","full_date":"2025-11-09T20:51:19.611Z","date":"2025-11-09","time":"20:51:19"},{"correct_response":"l","task":"test_phase","broad_category":"M","image_png":"M_Gneiss_14.png","image_id":206,"category_name":"Gneiss","category":13,"distinct_rating":3.41,"distinct_type":"Bottom","item_type":"Target","rt":693,"stimulus":"Stimuli_Rocks480/M_Gneiss_14.png","response":"l","trial_type":"image-keyboard-response","trial_index":193,"plugin_version":"2.1.0","time_elapsed":360513,"subject_id":"89967","group":"Group2","full_date":"2025-11-09T20:51:19.611Z","date":"2025-11-09","time":"20:51:19","cor_ans":true},{"trial_type":"html-keyboard-response","rt":null,"stimulus":"<p style=\"color: green; font-size: 50px; font-weight: bold;\">Correct</p>","response":null,"trial_index":194,"plugin_version":"2.1.0","time_elapsed":361015,"subject_id":"89967","group":"Group2","full_date":"2025-11-09T20:51:19.611Z","date":"2025-11-09","time":"20:51:19"},{"correct_response":"a","task":"test_phase","broad_category":"M","image_png":"M_Phyllite_07.png","image_id":263,"category_name":"Phyllite","category":17,"distinct_rating":2.59,"distinct_type":"Bottom","item_type":"Foil","rt":866,"stimulus":"Stimuli_Rocks480/M_Phyllite_07.png","response":"l","trial_type":"image-keyboard-response","trial_index":195,"plugin_version":"2.1.0","time_elapsed":361882,"subject_id":"89967","group":"Group2","full_date":"2025-11-09T20:51:19.611Z","date":"2025-11-09","time":"20:51:19","cor_ans":false},{"trial_type":"html-keyboard-response","rt":null,"stimulus":"<p style=\"color: red; font-size: 50px; font-weight: bold;\">Incorrect</p>","response":null,"trial_index":196,"plugin_version":"2.1.0","time_elapsed":362383,"subject_id":"89967","group":"Group2","full_date":"2025-11-09T20:51:19.611Z","date":"2025-11-09","time":"20:51:19"},{"correct_response":"a","task":"test_phase","broad_category":"M","image_png":"M_Phyllite_03.png","image_id":259,"category_name":"Phyllite","category":17,"distinct_rating":2.5,"distinct_type":"Bottom","item_type":"Foil","rt":1602,"stimulus":"Stimuli_Rocks480/M_Phyllite_03.png","response":"l","trial_type":"image-keyboard-response","trial_index":197,"plugin_version":"2.1.0","time_elapsed":363987,"subject_id":"89967","group":"Group2","full_date":"2025-11-09T20:51:19.611Z","date":"2025-11-09","time":"20:51:19","cor_ans":false},{"trial_type":"html-keyboard-response","rt":null,"stimulus":"<p style=\"color: red; font-size: 50px; font-weight: bold;\">Incorrect</p>","response":null,"trial_index":198,"plugin_version":"2.1.0","time_elapsed":364488,"subject_id":"89967","group":"Group2","full_date":"2025-11-09T20:51:19.611Z","date":"2025-11-09","time":"20:51:19"},{"correct_response":"a","task":"test_phase","broad_category":"M","image_png":"M_Gneiss_05.png","image_id":197,"category_name":"Gneiss","category":13,"distinct_rating":2.97,"distinct_type":"Bottom","item_type":"Foil","rt":875,"stimulus":"Stimuli_Rocks480/M_Gneiss_05.png","response":"l","trial_type":"image-keyboard-response","trial_index":199,"plugin_version":"2.1.0","time_elapsed":365364,"subject_id":"89967","group":"Group2","full_date":"2025-11-09T20:51:19.611Z","date":"2025-11-09","time":"20:51:19","cor_ans":false},{"trial_type":"html-keyboard-response","rt":null,"stimulus":"<p style=\"color: red; font-size: 50px; font-weight: bold;\">Incorrect</p>","response":null,"trial_index":200,"plugin_version":"2.1.0","time_elapsed":365865,"subject_id":"89967","group":"Group2","full_date":"2025-11-09T20:51:19.611Z","date":"2025-11-09","time":"20:51:19"},{"correct_response":"a","task":"test_phase","broad_category":"I","image_png":"I_Basalt_02.png","image_id":18,"category_name":"Basalt","category":2,"distinct_rating":1.84,"distinct_type":"Bottom","item_type":"Foil","rt":983,"stimulus":"Stimuli_Rocks480/I_Basalt_02.png","response":"l","trial_type":"image-keyboard-response","trial_index":201,"plugin_version":"2.1.0","time_elapsed":366850,"subject_id":"89967","group":"Group2","full_date":"2025-11-09T20:51:19.611Z","date":"2025-11-09","time":"20:51:19","cor_ans":false},{"trial_type":"html-keyboard-response","rt":null,"stimulus":"<p style=\"color: red; font-size: 50px; font-weight: bold;\">Incorrect</p>","response":null,"trial_index":202,"plugin_version":"2.1.0","time_elapsed":367352,"subject_id":"89967","group":"Group2","full_date":"2025-11-09T20:51:19.611Z","date":"2025-11-09","time":"20:51:19"},{"correct_response":"l","task":"test_phase","broad_category":"I","image_png":"I_Pegmatite_03.png","image_id":99,"category_name":"Pegmatite","category":7,"distinct_rating":7.24,"distinct_type":"Top","item_type":"Target","rt":886,"stimulus":"Stimuli_Rocks480/I_Pegmatite_03.png","response":"a","trial_type":"image-keyboard-response","trial_index":203,"plugin_version":"2.1.0","time_elapsed":368239,"subject_id":"89967","group":"Group2","full_date":"2025-11-09T20:51:19.611Z","date":"2025-11-09","time":"20:51:19","cor_ans":false},{"trial_type":"html-keyboard-response","rt":null,"stimulus":"<p style=\"color: red; font-size: 50px; font-weight: bold;\">Incorrect</p>","response":null,"trial_index":204,"plugin_version":"2.1.0","time_elapsed":368741,"subject_id":"89967","group":"Group2","full_date":"2025-11-09T20:51:19.611Z","date":"2025-11-09","time":"20:51:19"},{"correct_response":"a","task":"test_phase","broad_category":"S","image_png":"S_Dolomite_12.png","image_id":396,"category_name":"Dolomite","category":25,"distinct_rating":1.85,"distinct_type":"Bottom","item_type":"Foil","rt":2099,"stimulus":"Stimuli_Rocks480/S_Dolomite_12.png","response":"l","trial_type":"image-keyboard-response","trial_index":205,"plugin_version":"2.1.0","time_elapsed":370841,"subject_id":"89967","group":"Group2","full_date":"2025-11-09T20:51:19.611Z","date":"2025-11-09","time":"20:51:19","cor_ans":false},{"trial_type":"html-keyboard-response","rt":null,"stimulus":"<p style=\"color: red; font-size: 50px; font-weight: bold;\">Incorrect</p>","response":null,"trial_index":206,"plugin_version":"2.1.0","time_elapsed":371343,"subject_id":"89967","group":"Group2","full_date":"2025-11-09T20:51:19.611Z","date":"2025-11-09","time":"20:51:19"},{"correct_response":"a","task":"test_phase","broad_category":"I","image_png":"I_Pumice_11.png","image_id":139,"category_name":"Pumice","category":9,"distinct_rating":1.74,"distinct_type":"Bottom","item_type":"Foil","rt":992,"stimulus":"Stimuli_Rocks480/I_Pumice_11.png","response":"l","trial_type":"image-keyboard-response","trial_index":207,"plugin_version":"2.1.0","time_elapsed":372337,"subject_id":"89967","group":"Group2","full_date":"2025-11-09T20:51:19.611Z","date":"2025-11-09","time":"20:51:19","cor_ans":false},{"trial_type":"html-keyboard-response","rt":null,"stimulus":"<p style=\"color: red; font-size: 50px; font-weight: bold;\">Incorrect</p>","response":null,"trial_index":208,"plugin_version":"2.1.0","time_elapsed":372838,"subject_id":"89967","group":"Group2","full_date":"2025-11-09T20:51:19.611Z","date":"2025-11-09","time":"20:51:19"},{"correct_response":"a","task":"test_phase","broad_category":"S","image_png":"S_Dolomite_14.png","image_id":398,"category_name":"Dolomite","category":25,"distinct_rating":1.43,"distinct_type":"Bottom","item_type":"Foil","rt":2813,"stimulus":"Stimuli_Rocks480/S_Dolomite_14.png","response":"l","trial_type":"image-keyboard-response","trial_index":209,"plugin_version":"2.1.0","time_elapsed":375652,"subject_id":"89967","group":"Group2","full_date":"2025-11-09T20:51:19.611Z","date":"2025-11-09","time":"20:51:19","cor_ans":false},{"trial_type":"html-keyboard-response","rt":null,"stimulus":"<p style=\"color: red; font-size: 50px; font-weight: bold;\">Incorrect</p>","response":null,"trial_index":210,"plugin_version":"2.1.0","time_elapsed":376154,"subject_id":"89967","group":"Group2","full_date":"2025-11-09T20:51:19.611Z","date":"2025-11-09","time":"20:51:19"},{"correct_response":"a","task":"test_phase","broad_category":"S","image_png":"S_Sandstone_16.png","image_id":464,"category_name":"Sandstone","category":29,"distinct_rating":1.93,"distinct_type":"Bottom","item_type":"Foil","rt":1583,"stimulus":"Stimuli_Rocks480/S_Sandstone_16.png","response":"a","trial_type":"image-keyboard-response","trial_index":211,"plugin_version":"2.1.0","time_elapsed":377737,"subject_id":"89967","group":"Group2","full_date":"2025-11-09T20:51:19.611Z","date":"2025-11-09","time":"20:51:19","cor_ans":true},{"trial_type":"html-keyboard-response","rt":null,"stimulus":"<p style=\"color: green; font-size: 50px; font-weight: bold;\">Correct</p>","response":null,"trial_index":212,"plugin_version":"2.1.0","time_elapsed":378239,"subject_id":"89967","group":"Group2","full_date":"2025-11-09T20:51:19.611Z","date":"2025-11-09","time":"20:51:19"},{"correct_response":"l","task":"test_phase","broad_category":"M","image_png":"M_Phyllite_02.png","image_id":258,"category_name":"Phyllite","category":17,"distinct_rating":2.89,"distinct_type":"Bottom","item_type":"Target","rt":929,"stimulus":"Stimuli_Rocks480/M_Phyllite_02.png","response":"a","trial_type":"image-keyboard-response","trial_index":213,"plugin_version":"2.1.0","time_elapsed":379169,"subject_id":"89967","group":"Group2","full_date":"2025-11-09T20:51:19.611Z","date":"2025-11-09","time":"20:51:19","cor_ans":false},{"trial_type":"html-keyboard-response","rt":null,"stimulus":"<p style=\"color: red; font-size: 50px; font-weight: bold;\">Incorrect</p>","response":null,"trial_index":214,"plugin_version":"2.1.0","time_elapsed":379671,"subject_id":"89967","group":"Group2","full_date":"2025-11-09T20:51:19.611Z","date":"2025-11-09","time":"20:51:19"},{"correct_response":"l","task":"test_phase","broad_category":"S","image_png":"S_Shale_02.png","image_id":466,"category_name":"Shale","category":30,"distinct_rating":2.9,"distinct_type":"Bottom","item_type":"Target","rt":1213,"stimulus":"Stimuli_Rocks480/S_Shale_02.png","response":"a","trial_type":"image-keyboard-response","trial_index":215,"plugin_version":"2.1.0","time_elapsed":380885,"subject_id":"89967","group":"Group2","full_date":"2025-11-09T20:51:19.611Z","date":"2025-11-09","time":"20:51:19","cor_ans":false},{"trial_type":"html-keyboard-response","rt":null,"stimulus":"<p style=\"color: red; font-size: 50px; font-weight: bold;\">Incorrect</p>","response":null,"trial_index":216,"plugin_version":"2.1.0","time_elapsed":381387,"subject_id":"89967","group":"Group2","full_date":"2025-11-09T20:51:19.611Z","date":"2025-11-09","time":"20:51:19"},{"correct_response":"a","task":"test_phase","broad_category":"M","image_png":"M_Quartzite_13.png","image_id":285,"category_name":"Quartzite","category":18,"distinct_rating":2.27,"distinct_type":"Bottom","item_type":"Foil","rt":6177,"stimulus":"Stimuli_Rocks480/M_Quartzite_13.png","response":"a","trial_type":"image-keyboard-response","trial_index":217,"plugin_version":"2.1.0","time_elapsed":387565,"subject_id":"89967","group":"Group2","full_date":"2025-11-09T20:51:19.611Z","date":"2025-11-09","time":"20:51:19","cor_ans":true},{"trial_type":"html-keyboard-response","rt":null,"stimulus":"<p style=\"color: green; font-size: 50px; font-weight: bold;\">Correct</p>","response":null,"trial_index":218,"plugin_version":"2.1.0","time_elapsed":388066,"subject_id":"89967","group":"Group2","full_date":"2025-11-09T20:51:19.611Z","date":"2025-11-09","time":"20:51:19"},{"correct_response":"l","task":"test_phase","broad_category":"M","image_png":"M_Gneiss_10.png","image_id":202,"category_name":"Gneiss","category":13,"distinct_rating":3.09,"distinct_type":"Bottom","item_type":"Target","rt":951,"stimulus":"Stimuli_Rocks480/M_Gneiss_10.png","response":"l","trial_type":"image-keyboard-response","trial_index":219,"plugin_version":"2.1.0","time_elapsed":389019,"subject_id":"89967","group":"Group2","full_date":"2025-11-09T20:51:19.611Z","date":"2025-11-09","time":"20:51:19","cor_ans":true},{"trial_type":"html-keyboard-response","rt":null,"stimulus":"<p style=\"color: green; font-size: 50px; font-weight: bold;\">Correct</p>","response":null,"trial_index":220,"plugin_version":"2.1.0","time_elapsed":389520,"subject_id":"89967","group":"Group2","full_date":"2025-11-09T20:51:19.611Z","date":"2025-11-09","time":"20:51:19"},{"correct_response":"a","task":"test_phase","broad_category":"S","image_png":"S_Shale_01.png","image_id":465,"category_name":"Shale","category":30,"distinct_rating":2.7,"distinct_type":"Bottom","item_type":"Foil","rt":1173,"stimulus":"Stimuli_Rocks480/S_Shale_01.png","response":"l","trial_type":"image-keyboard-response","trial_index":221,"plugin_version":"2.1.0","time_elapsed":390694,"subject_id":"89967","group":"Group2","full_date":"2025-11-09T20:51:19.611Z","date":"2025-11-09","time":"20:51:19","cor_ans":false},{"trial_type":"html-keyboard-response","rt":null,"stimulus":"<p style=\"color: red; font-size: 50px; font-weight: bold;\">Incorrect</p>","response":null,"trial_index":222,"plugin_version":"2.1.0","time_elapsed":391195,"subject_id":"89967","group":"Group2","full_date":"2025-11-09T20:51:19.611Z","date":"2025-11-09","time":"20:51:19"},{"correct_response":"a","task":"test_phase","broad_category":"M","image_png":"M_Marble_06.png","image_id":230,"category_name":"Marble","category":15,"distinct_rating":3.4,"distinct_type":"Bottom","item_type":"Foil","rt":638,"stimulus":"Stimuli_Rocks480/M_Marble_06.png","response":"l","trial_type":"image-keyboard-response","trial_index":223,"plugin_version":"2.1.0","time_elapsed":391835,"subject_id":"89967","group":"Group2","full_date":"2025-11-09T20:51:19.611Z","date":"2025-11-09","time":"20:51:19","cor_ans":false},{"trial_type":"html-keyboard-response","rt":null,"stimulus":"<p style=\"color: red; font-size: 50px; font-weight: bold;\">Incorrect</p>","response":null,"trial_index":224,"plugin_version":"2.1.0","time_elapsed":392337,"subject_id":"89967","group":"Group2","full_date":"2025-11-09T20:51:19.611Z","date":"2025-11-09","time":"20:51:19"},{"correct_response":"a","task":"test_phase","broad_category":"I","image_png":"I_Rhyolite_11.png","image_id":155,"category_name":"Rhyolite","category":10,"distinct_rating":1.73,"distinct_type":"Bottom","item_type":"Foil","rt":1398,"stimulus":"Stimuli_Rocks480/I_Rhyolite_11.png","response":"l","trial_type":"image-keyboard-response","trial_index":225,"plugin_version":"2.1.0","time_elapsed":393737,"subject_id":"89967","group":"Group2","full_date":"2025-11-09T20:51:19.611Z","date":"2025-11-09","time":"20:51:19","cor_ans":false},{"trial_type":"html-keyboard-response","rt":null,"stimulus":"<p style=\"color: red; font-size: 50px; font-weight: bold;\">Incorrect</p>","response":null,"trial_index":226,"plugin_version":"2.1.0","time_elapsed":394238,"subject_id":"89967","group":"Group2","full_date":"2025-11-09T20:51:19.611Z","date":"2025-11-09","time":"20:51:19"},{"correct_response":"a","task":"test_phase","broad_category":"S","image_png":"S_Shale_12.png","image_id":476,"category_name":"Shale","category":30,"distinct_rating":2.48,"distinct_type":"Bottom","item_type":"Foil","rt":2098,"stimulus":"Stimuli_Rocks480/S_Shale_12.png","response":"a","trial_type":"image-keyboard-response","trial_index":227,"plugin_version":"2.1.0","time_elapsed":396338,"subject_id":"89967","group":"Group2","full_date":"2025-11-09T20:51:19.611Z","date":"2025-11-09","time":"20:51:19","cor_ans":true},{"trial_type":"html-keyboard-response","rt":null,"stimulus":"<p style=\"color: green; font-size: 50px; font-weight: bold;\">Correct</p>","response":null,"trial_index":228,"plugin_version":"2.1.0","time_elapsed":396839,"subject_id":"89967","group":"Group2","full_date":"2025-11-09T20:51:19.611Z","date":"2025-11-09","time":"20:51:19"},{"correct_response":"l","task":"test_phase","broad_category":"I","image_png":"I_Obsidian_06.png","image_id":86,"category_name":"Obsidian","category":6,"distinct_rating":8.01,"distinct_type":"Top","item_type":"Target","rt":877,"stimulus":"Stimuli_Rocks480/I_Obsidian_06.png","response":"l","trial_type":"image-keyboard-response","trial_index":229,"plugin_version":"2.1.0","time_elapsed":397717,"subject_id":"89967","group":"Group2","full_date":"2025-11-09T20:51:19.611Z","date":"2025-11-09","time":"20:51:19","cor_ans":true},{"trial_type":"html-keyboard-response","rt":null,"stimulus":"<p style=\"color: green; font-size: 50px; font-weight: bold;\">Correct</p>","response":null,"trial_index":230,"plugin_version":"2.1.0","time_elapsed":398218,"subject_id":"89967","group":"Group2","full_date":"2025-11-09T20:51:19.611Z","date":"2025-11-09","time":"20:51:19"},{"correct_response":"l","task":"test_phase","broad_category":"I","image_png":"I_Pumice_01.png","image_id":129,"category_name":"Pumice","category":9,"distinct_rating":3.25,"distinct_type":"Bottom","item_type":"Target","rt":1660,"stimulus":"Stimuli_Rocks480/I_Pumice_01.png","response":"l","trial_type":"image-keyboard-response","trial_index":231,"plugin_version":"2.1.0","time_elapsed":399880,"subject_id":"89967","group":"Group2","full_date":"2025-11-09T20:51:19.611Z","date":"2025-11-09","time":"20:51:19","cor_ans":true},{"trial_type":"html-keyboard-response","rt":null,"stimulus":"<p style=\"color: green; font-size: 50px; font-weight: bold;\">Correct</p>","response":null,"trial_index":232,"plugin_version":"2.1.0","time_elapsed":400382,"subject_id":"89967","group":"Group2","full_date":"2025-11-09T20:51:19.611Z","date":"2025-11-09","time":"20:51:19"},{"correct_response":"l","task":"test_phase","broad_category":"M","image_png":"M_Slate_14.png","image_id":318,"category_name":"Slate","category":20,"distinct_rating":2.58,"distinct_type":"Bottom","item_type":"Target","rt":1065,"stimulus":"Stimuli_Rocks480/M_Slate_14.png","response":"l","trial_type":"image-keyboard-response","trial_index":233,"plugin_version":"2.1.0","time_elapsed":401448,"subject_id":"89967","group":"Group2","full_date":"2025-11-09T20:51:19.611Z","date":"2025-11-09","time":"20:51:19","cor_ans":true},{"trial_type":"html-keyboard-response","rt":null,"stimulus":"<p style=\"color: green; font-size: 50px; font-weight: bold;\">Correct</p>","response":null,"trial_index":234,"plugin_version":"2.1.0","time_elapsed":401949,"subject_id":"89967","group":"Group2","full_date":"2025-11-09T20:51:19.611Z","date":"2025-11-09","time":"20:51:19"},{"correct_response":"l","task":"test_phase","broad_category":"I","image_png":"I_Pumice_14.png","image_id":142,"category_name":"Pumice","category":9,"distinct_rating":3.22,"distinct_type":"Bottom","item_type":"Target","rt":1064,"stimulus":"Stimuli_Rocks480/I_Pumice_14.png","response":"l","trial_type":"image-keyboard-response","trial_index":235,"plugin_version":"2.1.0","time_elapsed":403015,"subject_id":"89967","group":"Group2","full_date":"2025-11-09T20:51:19.611Z","date":"2025-11-09","time":"20:51:19","cor_ans":true},{"tria