[{"width":1536,"height":730,"webaudio":true,"browser":"chrome","browser_version":"141.0.0","mobile":false,"os":"Windows 10","fullscreen":true,"vsync_rate":60.37,"webcam":true,"microphone":true,"trial_type":"browser-check","trial_index":0,"plugin_version":"2.1.0","time_elapsed":1010,"subject_id":"86706","group":"Group1","full_date":"2025-11-09T01:24:44.698Z","date":"2025-11-09","time":"01:24:44"},{"success":true,"timeout":false,"failed_images":[],"failed_audio":[],"failed_video":[],"trial_type":"preload","trial_index":1,"plugin_version":"2.1.0","time_elapsed":3407,"subject_id":"86706","group":"Group1","full_date":"2025-11-09T01:24:44.698Z","date":"2025-11-09","time":"01:24:44"},{"rt":19055,"url":"SONA_consent_memorability.html","trial_type":"external-html","trial_index":2,"plugin_version":"2.1.0","time_elapsed":22526,"subject_id":"86706","group":"Group1","full_date":"2025-11-09T01:24:44.698Z","date":"2025-11-09","time":"01:24:44"},{"success":true,"rt":2677,"trial_type":"fullscreen","trial_index":3,"plugin_version":"2.1.0","time_elapsed":26292,"subject_id":"86706","group":"Group1","full_date":"2025-11-09T01:24:44.698Z","date":"2025-11-09","time":"01:24:44"},{"rt":26007,"stimulus":"<div style=\"max-width: 760px; margin: auto; font-size: 20px; line-height: 1.5;\">\n      <h1 style=\"text-align:center; font-size: 30px;\">Instructions</h1>\n      <p>\n        Welcome to the study on <b>visual memory</b>. This experiment consists of <b>two phases</b>: \n        a <b>study phase</b> and a <b>test phase</b>.\n      </p>\n      <p>\n        In the study phase, you will see a series of rock images along with their category labels.\n        The images will appear one at a time.\n        <b>Your task</b> is to learn the categories to which the rock images belong \n        and to remember each image as accurately as possible.\n      </p> \n      <p>\n        After the study phase, <b>your memory will be tested</b>. \n        Additional instructions for the test phase will be provided at that time.\n      </p>\n      <p>\n        If your computer has multiple <b>language settings</b> (e.g., English and another language),\n        please make sure it is set to English before starting.\n      </p>\n      <p>\n        You can track your progress using the <b>completion bar</b> at the top of the screen. \n        Please note that the bar will refresh when the test phase begins \n        to give you an accurate sense of your progress in both phases.\n      </p> \n      <p>\n        Press the button below when you are ready to begin.\n      </p>\n    </div>","response":0,"trial_type":"html-button-response","trial_index":4,"plugin_version":"2.1.0","time_elapsed":52304,"subject_id":"86706","group":"Group1","full_date":"2025-11-09T01:24:44.698Z","date":"2025-11-09","time":"01:24:44"},{"rt":null,"stimulus":"<p style=\"font-size: 50px; margin: 0; text-align: center;\">+</p>","response":null,"trial_type":"html-keyboard-response","trial_index":5,"plugin_version":"2.1.0","time_elapsed":53321,"subject_id":"86706","group":"Group1","full_date":"2025-11-09T01:24:44.698Z","date":"2025-11-09","time":"01:24:44"},{"task":"memory_phase","broad_category":"M","image_png":"M_Gneiss_06.png","image_id":198,"category_name":"Gneiss","category":13,"distinct_rating":2.65,"distinct_type":"Bottom","rt":null,"stimulus":"Stimuli_Rocks480/M_Gneiss_06.png","response":null,"trial_type":"image-keyboard-response","trial_index":6,"plugin_version":"2.1.0","time_elapsed":55845,"subject_id":"86706","group":"Group1","full_date":"2025-11-09T01:24:44.698Z","date":"2025-11-09","time":"01:24:44"},{"rt":null,"stimulus":"<p style=\"font-size: 50px; margin: 0; text-align: center;\">+</p>","response":null,"trial_type":"html-keyboard-response","trial_index":7,"plugin_version":"2.1.0","time_elapsed":56849,"subject_id":"86706","group":"Group1","full_date":"2025-11-09T01:24:44.698Z","date":"2025-11-09","time":"01:24:44"},{"task":"memory_phase","broad_category":"I","image_png":"I_Andesite_10.png","image_id":10,"category_name":"Andesite","category":1,"distinct_rating":3.15,"distinct_type":"Bottom","rt":null,"stimulus":"Stimuli_Rocks480/I_Andesite_10.png","response":null,"trial_type":"image-keyboard-response","trial_index":8,"plugin_version":"2.1.0","time_elapsed":59353,"subject_id":"86706","group":"Group1","full_date":"2025-11-09T01:24:44.698Z","date":"2025-11-09","time":"01:24:44"},{"rt":null,"stimulus":"<p style=\"font-size: 50px; margin: 0; text-align: center;\">+</p>","response":null,"trial_type":"html-keyboard-response","trial_index":9,"plugin_version":"2.1.0","time_elapsed":60367,"subject_id":"86706","group":"Group1","full_date":"2025-11-09T01:24:44.698Z","date":"2025-11-09","time":"01:24:44"},{"task":"memory_phase","broad_category":"M","image_png":"M_Slate_03.png","image_id":307,"category_name":"Slate","category":20,"distinct_rating":1.87,"distinct_type":"Bottom","rt":null,"stimulus":"Stimuli_Rocks480/M_Slate_03.png","response":null,"trial_type":"image-keyboard-response","trial_index":10,"plugin_version":"2.1.0","time_elapsed":62880,"subject_id":"86706","group":"Group1","full_date":"2025-11-09T01:24:44.698Z","date":"2025-11-09","time":"01:24:44"},{"rt":null,"stimulus":"<p style=\"font-size: 50px; margin: 0; text-align: center;\">+</p>","response":null,"trial_type":"html-keyboard-response","trial_index":11,"plugin_version":"2.1.0","time_elapsed":63892,"subject_id":"86706","group":"Group1","full_date":"2025-11-09T01:24:44.698Z","date":"2025-11-09","time":"01:24:44"},{"task":"memory_phase","broad_category":"M","image_png":"M_Phyllite_07.png","image_id":263,"category_name":"Phyllite","category":17,"distinct_rating":2.59,"distinct_type":"Bottom","rt":null,"stimulus":"Stimuli_Rocks480/M_Phyllite_07.png","response":null,"trial_type":"image-keyboard-response","trial_index":12,"plugin_version":"2.1.0","time_elapsed":66406,"subject_id":"86706","group":"Group1","full_date":"2025-11-09T01:24:44.698Z","date":"2025-11-09","time":"01:24:44"},{"rt":null,"stimulus":"<p style=\"font-size: 50px; margin: 0; text-align: center;\">+</p>","response":null,"trial_type":"html-keyboard-response","trial_index":13,"plugin_version":"2.1.0","time_elapsed":67416,"subject_id":"86706","group":"Group1","full_date":"2025-11-09T01:24:44.698Z","date":"2025-11-09","time":"01:24:44"},{"task":"memory_phase","broad_category":"M","image_png":"M_Marble_06.png","image_id":230,"category_name":"Marble","category":15,"distinct_rating":3.4,"distinct_type":"Bottom","rt":null,"stimulus":"Stimuli_Rocks480/M_Marble_06.png","response":null,"trial_type":"image-keyboard-response","trial_index":14,"plugin_version":"2.1.0","time_elapsed":69930,"subject_id":"86706","group":"Group1","full_date":"2025-11-09T01:24:44.698Z","date":"2025-11-09","time":"01:24:44"},{"rt":null,"stimulus":"<p style=\"font-size: 50px; margin: 0; text-align: center;\">+</p>","response":null,"trial_type":"html-keyboard-response","trial_index":15,"plugin_version":"2.1.0","time_elapsed":70944,"subject_id":"86706","group":"Group1","full_date":"2025-11-09T01:24:44.698Z","date":"2025-11-09","time":"01:24:44"},{"task":"memory_phase","broad_category":"M","image_png":"M_Quartzite_05.png","image_id":277,"category_name":"Quartzite","category":18,"distinct_rating":2.23,"distinct_type":"Bottom","rt":null,"stimulus":"Stimuli_Rocks480/M_Quartzite_05.png","response":null,"trial_type":"image-keyboard-response","trial_index":16,"plugin_version":"2.1.0","time_elapsed":73452,"subject_id":"86706","group":"Group1","full_date":"2025-11-09T01:24:44.698Z","date":"2025-11-09","time":"01:24:44"},{"rt":null,"stimulus":"<p style=\"font-size: 50px; margin: 0; text-align: center;\">+</p>","response":null,"trial_type":"html-keyboard-response","trial_index":17,"plugin_version":"2.1.0","time_elapsed":74467,"subject_id":"86706","group":"Group1","full_date":"2025-11-09T01:24:44.698Z","date":"2025-11-09","time":"01:24:44"},{"task":"memory_phase","broad_category":"S","image_png":"S_Shale_08.png","image_id":472,"category_name":"Shale","category":30,"distinct_rating":2.55,"distinct_type":"Bottom","rt":null,"stimulus":"Stimuli_Rocks480/S_Shale_08.png","response":null,"trial_type":"image-keyboard-response","trial_index":18,"plugin_version":"2.1.0","time_elapsed":76982,"subject_id":"86706","group":"Group1","full_date":"2025-11-09T01:24:44.698Z","date":"2025-11-09","time":"01:24:44"},{"rt":null,"stimulus":"<p style=\"font-size: 50px; margin: 0; text-align: center;\">+</p>","response":null,"trial_type":"html-keyboard-response","trial_index":19,"plugin_version":"2.1.0","time_elapsed":77997,"subject_id":"86706","group":"Group1","full_date":"2025-11-09T01:24:44.698Z","date":"2025-11-09","time":"01:24:44"},{"task":"memory_phase","broad_category":"S","image_png":"S_Dolomite_13.png","image_id":397,"category_name":"Dolomite","category":25,"distinct_rating":1.77,"distinct_type":"Bottom","rt":null,"stimulus":"Stimuli_Rocks480/S_Dolomite_13.png","response":null,"trial_type":"image-keyboard-response","trial_index":20,"plugin_version":"2.1.0","time_elapsed":80500,"subject_id":"86706","group":"Group1","full_date":"2025-11-09T01:24:44.698Z","date":"2025-11-09","time":"01:24:44"},{"rt":null,"stimulus":"<p style=\"font-size: 50px; margin: 0; text-align: center;\">+</p>","response":null,"trial_type":"html-keyboard-response","trial_index":21,"plugin_version":"2.1.0","time_elapsed":81512,"subject_id":"86706","group":"Group1","full_date":"2025-11-09T01:24:44.698Z","date":"2025-11-09","time":"01:24:44"},{"task":"memory_phase","broad_category":"I","image_png":"I_Pumice_12.png","image_id":140,"category_name":"Pumice","category":9,"distinct_rating":2.97,"distinct_type":"Bottom","rt":null,"stimulus":"Stimuli_Rocks480/I_Pumice_12.png","response":null,"trial_type":"image-keyboard-response","trial_index":22,"plugin_version":"2.1.0","time_elapsed":84028,"subject_id":"86706","group":"Group1","full_date":"2025-11-09T01:24:44.698Z","date":"2025-11-09","time":"01:24:44"},{"rt":null,"stimulus":"<p style=\"font-size: 50px; margin: 0; text-align: center;\">+</p>","response":null,"trial_type":"html-keyboard-response","trial_index":23,"plugin_version":"2.1.0","time_elapsed":85042,"subject_id":"86706","group":"Group1","full_date":"2025-11-09T01:24:44.698Z","date":"2025-11-09","time":"01:24:44"},{"task":"memory_phase","broad_category":"I","image_png":"I_Pumice_11.png","image_id":139,"category_name":"Pumice","category":9,"distinct_rating":1.74,"distinct_type":"Bottom","rt":null,"stimulus":"Stimuli_Rocks480/I_Pumice_11.png","response":null,"trial_type":"image-keyboard-response","trial_index":24,"plugin_version":"2.1.0","time_elapsed":87560,"subject_id":"86706","group":"Group1","full_date":"2025-11-09T01:24:44.698Z","date":"2025-11-09","time":"01:24:44"},{"rt":null,"stimulus":"<p style=\"font-size: 50px; margin: 0; text-align: center;\">+</p>","response":null,"trial_type":"html-keyboard-response","trial_index":25,"plugin_version":"2.1.0","time_elapsed":88568,"subject_id":"86706","group":"Group1","full_date":"2025-11-09T01:24:44.698Z","date":"2025-11-09","time":"01:24:44"},{"task":"memory_phase","broad_category":"I","image_png":"I_Obsidian_05.png","image_id":85,"category_name":"Obsidian","category":6,"distinct_rating":7.32,"distinct_type":"Top","rt":null,"stimulus":"Stimuli_Rocks480/I_Obsidian_05.png","response":null,"trial_type":"image-keyboard-response","trial_index":26,"plugin_version":"2.1.0","time_elapsed":91087,"subject_id":"86706","group":"Group1","full_date":"2025-11-09T01:24:44.698Z","date":"2025-11-09","time":"01:24:44"},{"rt":null,"stimulus":"<p style=\"font-size: 50px; margin: 0; text-align: center;\">+</p>","response":null,"trial_type":"html-keyboard-response","trial_index":27,"plugin_version":"2.1.0","time_elapsed":92102,"subject_id":"86706","group":"Group1","full_date":"2025-11-09T01:24:44.698Z","date":"2025-11-09","time":"01:24:44"},{"task":"memory_phase","broad_category":"M","image_png":"M_Phyllite_10.png","image_id":266,"category_name":"Phyllite","category":17,"distinct_rating":2.6,"distinct_type":"Bottom","rt":null,"stimulus":"Stimuli_Rocks480/M_Phyllite_10.png","response":null,"trial_type":"image-keyboard-response","trial_index":28,"plugin_version":"2.1.0","time_elapsed":94612,"subject_id":"86706","group":"Group1","full_date":"2025-11-09T01:24:44.698Z","date":"2025-11-09","time":"01:24:44"},{"rt":null,"stimulus":"<p style=\"font-size: 50px; margin: 0; text-align: center;\">+</p>","response":null,"trial_type":"html-keyboard-response","trial_index":29,"plugin_version":"2.1.0","time_elapsed":95617,"subject_id":"86706","group":"Group1","full_date":"2025-11-09T01:24:44.698Z","date":"2025-11-09","time":"01:24:44"},{"task":"memory_phase","broad_category":"M","image_png":"M_Quartzite_13.png","image_id":285,"category_name":"Quartzite","category":18,"distinct_rating":2.27,"distinct_type":"Bottom","rt":null,"stimulus":"Stimuli_Rocks480/M_Quartzite_13.png","response":null,"trial_type":"image-keyboard-response","trial_index":30,"plugin_version":"2.1.0","time_elapsed":98132,"subject_id":"86706","group":"Group1","full_date":"2025-11-09T01:24:44.698Z","date":"2025-11-09","time":"01:24:44"},{"rt":null,"stimulus":"<p style=\"font-size: 50px; margin: 0; text-align: center;\">+</p>","response":null,"trial_type":"html-keyboard-response","trial_index":31,"plugin_version":"2.1.0","time_elapsed":99148,"subject_id":"86706","group":"Group1","full_date":"2025-11-09T01:24:44.698Z","date":"2025-11-09","time":"01:24:44"},{"task":"memory_phase","broad_category":"I","image_png":"I_Diorite_05.png","image_id":37,"category_name":"Diorite","category":3,"distinct_rating":3.08,"distinct_type":"Bottom","rt":null,"stimulus":"Stimuli_Rocks480/I_Diorite_05.png","response":null,"trial_type":"image-keyboard-response","trial_index":32,"plugin_version":"2.1.0","time_elapsed":101668,"subject_id":"86706","group":"Group1","full_date":"2025-11-09T01:24:44.698Z","date":"2025-11-09","time":"01:24:44"},{"rt":null,"stimulus":"<p style=\"font-size: 50px; margin: 0; text-align: center;\">+</p>","response":null,"trial_type":"html-keyboard-response","trial_index":33,"plugin_version":"2.1.0","time_elapsed":102677,"subject_id":"86706","group":"Group1","full_date":"2025-11-09T01:24:44.698Z","date":"2025-11-09","time":"01:24:44"},{"task":"memory_phase","broad_category":"I","image_png":"I_Diorite_04.png","image_id":36,"category_name":"Diorite","category":3,"distinct_rating":2.98,"distinct_type":"Bottom","rt":null,"stimulus":"Stimuli_Rocks480/I_Diorite_04.png","response":null,"trial_type":"image-keyboard-response","trial_index":34,"plugin_version":"2.1.0","time_elapsed":105181,"subject_id":"86706","group":"Group1","full_date":"2025-11-09T01:24:44.698Z","date":"2025-11-09","time":"01:24:44"},{"rt":null,"stimulus":"<p style=\"font-size: 50px; margin: 0; text-align: center;\">+</p>","response":null,"trial_type":"html-keyboard-response","trial_index":35,"plugin_version":"2.1.0","time_elapsed":106199,"subject_id":"86706","group":"Group1","full_date":"2025-11-09T01:24:44.698Z","date":"2025-11-09","time":"01:24:44"},{"task":"memory_phase","broad_category":"M","image_png":"M_Slate_15.png","image_id":319,"category_name":"Slate","category":20,"distinct_rating":2.13,"distinct_type":"Bottom","rt":null,"stimulus":"Stimuli_Rocks480/M_Slate_15.png","response":null,"trial_type":"image-keyboard-response","trial_index":36,"plugin_version":"2.1.0","time_elapsed":108716,"subject_id":"86706","group":"Group1","full_date":"2025-11-09T01:24:44.698Z","date":"2025-11-09","time":"01:24:44"},{"rt":null,"stimulus":"<p style=\"font-size: 50px; margin: 0; text-align: center;\">+</p>","response":null,"trial_type":"html-keyboard-response","trial_index":37,"plugin_version":"2.1.0","time_elapsed":109732,"subject_id":"86706","group":"Group1","full_date":"2025-11-09T01:24:44.698Z","date":"2025-11-09","time":"01:24:44"},{"task":"memory_phase","broad_category":"I","image_png":"I_Gabbro_11.png","image_id":59,"category_name":"Gabbro","category":4,"distinct_rating":1.99,"distinct_type":"Bottom","rt":null,"stimulus":"Stimuli_Rocks480/I_Gabbro_11.png","response":null,"trial_type":"image-keyboard-response","trial_index":38,"plugin_version":"2.1.0","time_elapsed":112250,"subject_id":"86706","group":"Group1","full_date":"2025-11-09T01:24:44.698Z","date":"2025-11-09","time":"01:24:44"},{"rt":null,"stimulus":"<p style=\"font-size: 50px; margin: 0; text-align: center;\">+</p>","response":null,"trial_type":"html-keyboard-response","trial_index":39,"plugin_version":"2.1.0","time_elapsed":113268,"subject_id":"86706","group":"Group1","full_date":"2025-11-09T01:24:44.698Z","date":"2025-11-09","time":"01:24:44"},{"task":"memory_phase","broad_category":"S","image_png":"S_Chert_10.png","image_id":362,"category_name":"Chert","category":23,"distinct_rating":7.17,"distinct_type":"Top","rt":null,"stimulus":"Stimuli_Rocks480/S_Chert_10.png","response":null,"trial_type":"image-keyboard-response","trial_index":40,"plugin_version":"2.1.0","time_elapsed":115782,"subject_id":"86706","group":"Group1","full_date":"2025-11-09T01:24:44.698Z","date":"2025-11-09","time":"01:24:44"},{"rt":null,"stimulus":"<p style=\"font-size: 50px; margin: 0; text-align: center;\">+</p>","response":null,"trial_type":"html-keyboard-response","trial_index":41,"plugin_version":"2.1.0","time_elapsed":116784,"subject_id":"86706","group":"Group1","full_date":"2025-11-09T01:24:44.698Z","date":"2025-11-09","time":"01:24:44"},{"task":"memory_phase","broad_category":"I","image_png":"I_Rhyolite_11.png","image_id":155,"category_name":"Rhyolite","category":10,"distinct_rating":1.73,"distinct_type":"Bottom","rt":null,"stimulus":"Stimuli_Rocks480/I_Rhyolite_11.png","response":null,"trial_type":"image-keyboard-response","trial_index":42,"plugin_version":"2.1.0","time_elapsed":119291,"subject_id":"86706","group":"Group1","full_date":"2025-11-09T01:24:44.698Z","date":"2025-11-09","time":"01:24:44"},{"rt":null,"stimulus":"<p style=\"font-size: 50px; margin: 0; text-align: center;\">+</p>","response":null,"trial_type":"html-keyboard-response","trial_index":43,"plugin_version":"2.1.0","time_elapsed":120294,"subject_id":"86706","group":"Group1","full_date":"2025-11-09T01:24:44.698Z","date":"2025-11-09","time":"01:24:44"},{"task":"memory_phase","broad_category":"I","image_png":"I_Rhyolite_16.png","image_id":160,"category_name":"Rhyolite","category":10,"distinct_rating":2.19,"distinct_type":"Bottom","rt":null,"stimulus":"Stimuli_Rocks480/I_Rhyolite_16.png","response":null,"trial_type":"image-keyboard-response","trial_index":44,"plugin_version":"2.1.0","time_elapsed":122813,"subject_id":"86706","group":"Group1","full_date":"2025-11-09T01:24:44.698Z","date":"2025-11-09","time":"01:24:44"},{"rt":null,"stimulus":"<p style=\"font-size: 50px; margin: 0; text-align: center;\">+</p>","response":null,"trial_type":"html-keyboard-response","trial_index":45,"plugin_version":"2.1.0","time_elapsed":123816,"subject_id":"86706","group":"Group1","full_date":"2025-11-09T01:24:44.698Z","date":"2025-11-09","time":"01:24:44"},{"task":"memory_phase","broad_category":"I","image_png":"I_Basalt_02.png","image_id":18,"category_name":"Basalt","category":2,"distinct_rating":1.84,"distinct_type":"Bottom","rt":null,"stimulus":"Stimuli_Rocks480/I_Basalt_02.png","response":null,"trial_type":"image-keyboard-response","trial_index":46,"plugin_version":"2.1.0","time_elapsed":126330,"subject_id":"86706","group":"Group1","full_date":"2025-11-09T01:24:44.698Z","date":"2025-11-09","time":"01:24:44"},{"rt":null,"stimulus":"<p style=\"font-size: 50px; margin: 0; text-align: center;\">+</p>","response":null,"trial_type":"html-keyboard-response","trial_index":47,"plugin_version":"2.1.0","time_elapsed":127343,"subject_id":"86706","group":"Group1","full_date":"2025-11-09T01:24:44.698Z","date":"2025-11-09","time":"01:24:44"},{"task":"memory_phase","broad_category":"S","image_png":"S_Sandstone_03.png","image_id":451,"category_name":"Sandstone","category":29,"distinct_rating":1.86,"distinct_type":"Bottom","rt":null,"stimulus":"Stimuli_Rocks480/S_Sandstone_03.png","response":null,"trial_type":"image-keyboard-response","trial_index":48,"plugin_version":"2.1.0","time_elapsed":129850,"subject_id":"86706","group":"Group1","full_date":"2025-11-09T01:24:44.698Z","date":"2025-11-09","time":"01:24:44"},{"rt":null,"stimulus":"<p style=\"font-size: 50px; margin: 0; text-align: center;\">+</p>","response":null,"trial_type":"html-keyboard-response","trial_index":49,"plugin_version":"2.1.0","time_elapsed":130853,"subject_id":"86706","group":"Group1","full_date":"2025-11-09T01:24:44.698Z","date":"2025-11-09","time":"01:24:44"},{"task":"memory_phase","broad_category":"M","image_png":"M_Slate_11.png","image_id":315,"category_name":"Slate","category":20,"distinct_rating":2.75,"distinct_type":"Bottom","rt":null,"stimulus":"Stimuli_Rocks480/M_Slate_11.png","response":null,"trial_type":"image-keyboard-response","trial_index":50,"plugin_version":"2.1.0","time_elapsed":133362,"subject_id":"86706","group":"Group1","full_date":"2025-11-09T01:24:44.698Z","date":"2025-11-09","time":"01:24:44"},{"rt":null,"stimulus":"<p style=\"font-size: 50px; margin: 0; text-align: center;\">+</p>","response":null,"trial_type":"html-keyboard-response","trial_index":51,"plugin_version":"2.1.0","time_elapsed":134377,"subject_id":"86706","group":"Group1","full_date":"2025-11-09T01:24:44.698Z","date":"2025-11-09","time":"01:24:44"},{"task":"memory_phase","broad_category":"S","image_png":"S_Conglomerate_05.png","image_id":373,"category_name":"Conglomerate","category":24,"distinct_rating":7.32,"distinct_type":"Top","rt":null,"stimulus":"Stimuli_Rocks480/S_Conglomerate_05.png","response":null,"trial_type":"image-keyboard-response","trial_index":52,"plugin_version":"2.1.0","time_elapsed":136881,"subject_id":"86706","group":"Group1","full_date":"2025-11-09T01:24:44.698Z","date":"2025-11-09","time":"01:24:44"},{"rt":null,"stimulus":"<p style=\"font-size: 50px; margin: 0; text-align: center;\">+</p>","response":null,"trial_type":"html-keyboard-response","trial_index":53,"plugin_version":"2.1.0","time_elapsed":137897,"subject_id":"86706","group":"Group1","full_date":"2025-11-09T01:24:44.698Z","date":"2025-11-09","time":"01:24:44"},{"task":"memory_phase","broad_category":"I","image_png":"I_Andesite_08.png","image_id":8,"category_name":"Andesite","category":1,"distinct_rating":1.95,"distinct_type":"Bottom","rt":null,"stimulus":"Stimuli_Rocks480/I_Andesite_08.png","response":null,"trial_type":"image-keyboard-response","trial_index":54,"plugin_version":"2.1.0","time_elapsed":140408,"subject_id":"86706","group":"Group1","full_date":"2025-11-09T01:24:44.698Z","date":"2025-11-09","time":"01:24:44"},{"rt":4354,"stimulus":"<p style=\"font-size: 35px;\">Press SPACE to continue study phase</p>","response":" ","trial_type":"html-keyboard-response","trial_index":55,"plugin_version":"2.1.0","time_elapsed":144763,"subject_id":"86706","group":"Group1","full_date":"2025-11-09T01:24:44.698Z","date":"2025-11-09","time":"01:24:44"},{"rt":null,"stimulus":"<p style=\"font-size: 50px; margin: 0; text-align: center;\">+</p>","response":null,"trial_type":"html-keyboard-response","trial_index":56,"plugin_version":"2.1.0","time_elapsed":145775,"subject_id":"86706","group":"Group1","full_date":"2025-11-09T01:24:44.698Z","date":"2025-11-09","time":"01:24:44"},{"task":"memory_phase","broad_category":"I","image_png":"I_Pumice_08.png","image_id":136,"category_name":"Pumice","category":9,"distinct_rating":3.1,"distinct_type":"Bottom","rt":null,"stimulus":"Stimuli_Rocks480/I_Pumice_08.png","response":null,"trial_type":"image-keyboard-response","trial_index":57,"plugin_version":"2.1.0","time_elapsed":148288,"subject_id":"86706","group":"Group1","full_date":"2025-11-09T01:24:44.698Z","date":"2025-11-09","time":"01:24:44"},{"rt":null,"stimulus":"<p style=\"font-size: 50px; margin: 0; text-align: center;\">+</p>","response":null,"trial_type":"html-keyboard-response","trial_index":58,"plugin_version":"2.1.0","time_elapsed":149297,"subject_id":"86706","group":"Group1","full_date":"2025-11-09T01:24:44.698Z","date":"2025-11-09","time":"01:24:44"},{"task":"memory_phase","broad_category":"I","image_png":"I_Diorite_03.png","image_id":35,"category_name":"Diorite","category":3,"distinct_rating":3.14,"distinct_type":"Bottom","rt":null,"stimulus":"Stimuli_Rocks480/I_Diorite_03.png","response":null,"trial_type":"image-keyboard-response","trial_index":59,"plugin_version":"2.1.0","time_elapsed":151808,"subject_id":"86706","group":"Group1","full_date":"2025-11-09T01:24:44.698Z","date":"2025-11-09","time":"01:24:44"},{"rt":null,"stimulus":"<p style=\"font-size: 50px; margin: 0; text-align: center;\">+</p>","response":null,"trial_type":"html-keyboard-response","trial_index":60,"plugin_version":"2.1.0","time_elapsed":152813,"subject_id":"86706","group":"Group1","full_date":"2025-11-09T01:24:44.698Z","date":"2025-11-09","time":"01:24:44"},{"task":"memory_phase","broad_category":"S","image_png":"S_Dolomite_14.png","image_id":398,"category_name":"Dolomite","category":25,"distinct_rating":1.43,"distinct_type":"Bottom","rt":null,"stimulus":"Stimuli_Rocks480/S_Dolomite_14.png","response":null,"trial_type":"image-keyboard-response","trial_index":61,"plugin_version":"2.1.0","time_elapsed":155326,"subject_id":"86706","group":"Group1","full_date":"2025-11-09T01:24:44.698Z","date":"2025-11-09","time":"01:24:44"},{"rt":null,"stimulus":"<p style=\"font-size: 50px; margin: 0; text-align: center;\">+</p>","response":null,"trial_type":"html-keyboard-response","trial_index":62,"plugin_version":"2.1.0","time_elapsed":156333,"subject_id":"86706","group":"Group1","full_date":"2025-11-09T01:24:44.698Z","date":"2025-11-09","time":"01:24:44"},{"task":"memory_phase","broad_category":"M","image_png":"M_Marble_04.png","image_id":228,"category_name":"Marble","category":15,"distinct_rating":3.15,"distinct_type":"Bottom","rt":null,"stimulus":"Stimuli_Rocks480/M_Marble_04.png","response":null,"trial_type":"image-keyboard-response","trial_index":63,"plugin_version":"2.1.0","time_elapsed":158843,"subject_id":"86706","group":"Group1","full_date":"2025-11-09T01:24:44.698Z","date":"2025-11-09","time":"01:24:44"},{"rt":null,"stimulus":"<p style=\"font-size: 50px; margin: 0; text-align: center;\">+</p>","response":null,"trial_type":"html-keyboard-response","trial_index":64,"plugin_version":"2.1.0","time_elapsed":159851,"subject_id":"86706","group":"Group1","full_date":"2025-11-09T01:24:44.698Z","date":"2025-11-09","time":"01:24:44"},{"task":"memory_phase","broad_category":"S","image_png":"S_Dolomite_12.png","image_id":396,"category_name":"Dolomite","category":25,"distinct_rating":1.85,"distinct_type":"Bottom","rt":null,"stimulus":"Stimuli_Rocks480/S_Dolomite_12.png","response":null,"trial_type":"image-keyboard-response","trial_index":65,"plugin_version":"2.1.0","time_elapsed":162355,"subject_id":"86706","group":"Group1","full_date":"2025-11-09T01:24:44.698Z","date":"2025-11-09","time":"01:24:44"},{"rt":null,"stimulus":"<p style=\"font-size: 50px; margin: 0; text-align: center;\">+</p>","response":null,"trial_type":"html-keyboard-response","trial_index":66,"plugin_version":"2.1.0","time_elapsed":163372,"subject_id":"86706","group":"Group1","full_date":"2025-11-09T01:24:44.698Z","date":"2025-11-09","time":"01:24:44"},{"task":"memory_phase","broad_category":"M","image_png":"M_Gneiss_13.png","image_id":205,"category_name":"Gneiss","category":13,"distinct_rating":3.26,"distinct_type":"Bottom","rt":null,"stimulus":"Stimuli_Rocks480/M_Gneiss_13.png","response":null,"trial_type":"image-keyboard-response","trial_index":67,"plugin_version":"2.1.0","time_elapsed":165885,"subject_id":"86706","group":"Group1","full_date":"2025-11-09T01:24:44.698Z","date":"2025-11-09","time":"01:24:44"},{"rt":null,"stimulus":"<p style=\"font-size: 50px; margin: 0; text-align: center;\">+</p>","response":null,"trial_type":"html-keyboard-response","trial_index":68,"plugin_version":"2.1.0","time_elapsed":166893,"subject_id":"86706","group":"Group1","full_date":"2025-11-09T01:24:44.698Z","date":"2025-11-09","time":"01:24:44"},{"task":"memory_phase","broad_category":"I","image_png":"I_Pegmatite_10.png","image_id":106,"category_name":"Pegmatite","category":7,"distinct_rating":7.66,"distinct_type":"Top","rt":null,"stimulus":"Stimuli_Rocks480/I_Pegmatite_10.png","response":null,"trial_type":"image-keyboard-response","trial_index":69,"plugin_version":"2.1.0","time_elapsed":169403,"subject_id":"86706","group":"Group1","full_date":"2025-11-09T01:24:44.698Z","date":"2025-11-09","time":"01:24:44"},{"rt":null,"stimulus":"<p style=\"font-size: 50px; margin: 0; text-align: center;\">+</p>","response":null,"trial_type":"html-keyboard-response","trial_index":70,"plugin_version":"2.1.0","time_elapsed":170410,"subject_id":"86706","group":"Group1","full_date":"2025-11-09T01:24:44.698Z","date":"2025-11-09","time":"01:24:44"},{"task":"memory_phase","broad_category":"S","image_png":"S_Rock Gypsum_04.png","image_id":420,"category_name":"Rock Gypsum","category":27,"distinct_rating":7.61,"distinct_type":"Top","rt":null,"stimulus":"Stimuli_Rocks480/S_Rock Gypsum_04.png","response":null,"trial_type":"image-keyboard-response","trial_index":71,"plugin_version":"2.1.0","time_elapsed":172917,"subject_id":"86706","group":"Group1","full_date":"2025-11-09T01:24:44.698Z","date":"2025-11-09","time":"01:24:44"},{"rt":null,"stimulus":"<p style=\"font-size: 50px; margin: 0; text-align: center;\">+</p>","response":null,"trial_type":"html-keyboard-response","trial_index":72,"plugin_version":"2.1.0","time_elapsed":173922,"subject_id":"86706","group":"Group1","full_date":"2025-11-09T01:24:44.698Z","date":"2025-11-09","time":"01:24:44"},{"task":"memory_phase","broad_category":"S","image_png":"S_Shale_01.png","image_id":465,"category_name":"Shale","category":30,"distinct_rating":2.7,"distinct_type":"Bottom","rt":null,"stimulus":"Stimuli_Rocks480/S_Shale_01.png","response":null,"trial_type":"image-keyboard-response","trial_index":73,"plugin_version":"2.1.0","time_elapsed":176438,"subject_id":"86706","group":"Group1","full_date":"2025-11-09T01:24:44.698Z","date":"2025-11-09","time":"01:24:44"},{"rt":null,"stimulus":"<p style=\"font-size: 50px; margin: 0; text-align: center;\">+</p>","response":null,"trial_type":"html-keyboard-response","trial_index":74,"plugin_version":"2.1.0","time_elapsed":177448,"subject_id":"86706","group":"Group1","full_date":"2025-11-09T01:24:44.698Z","date":"2025-11-09","time":"01:24:44"},{"task":"memory_phase","broad_category":"S","image_png":"S_Rock Salt_01.png","image_id":433,"category_name":"Rock Salt","category":28,"distinct_rating":7.18,"distinct_type":"Top","rt":null,"stimulus":"Stimuli_Rocks480/S_Rock Salt_01.png","response":null,"trial_type":"image-keyboard-response","trial_index":75,"plugin_version":"2.1.0","time_elapsed":179958,"subject_id":"86706","group":"Group1","full_date":"2025-11-09T01:24:44.698Z","date":"2025-11-09","time":"01:24:44"},{"rt":null,"stimulus":"<p style=\"font-size: 50px; margin: 0; text-align: center;\">+</p>","response":null,"trial_type":"html-keyboard-response","trial_index":76,"plugin_version":"2.1.0","time_elapsed":180963,"subject_id":"86706","group":"Group1","full_date":"2025-11-09T01:24:44.698Z","date":"2025-11-09","time":"01:24:44"},{"task":"memory_phase","broad_category":"I","image_png":"I_Pegmatite_16.png","image_id":112,"category_name":"Pegmatite","category":7,"distinct_rating":7.03,"distinct_type":"Top","rt":null,"stimulus":"Stimuli_Rocks480/I_Pegmatite_16.png","response":null,"trial_type":"image-keyboard-response","trial_index":77,"plugin_version":"2.1.0","time_elapsed":183475,"subject_id":"86706","group":"Group1","full_date":"2025-11-09T01:24:44.698Z","date":"2025-11-09","time":"01:24:44"},{"rt":null,"stimulus":"<p style=\"font-size: 50px; margin: 0; text-align: center;\">+</p>","response":null,"trial_type":"html-keyboard-response","trial_index":78,"plugin_version":"2.1.0","time_elapsed":184493,"subject_id":"86706","group":"Group1","full_date":"2025-11-09T01:24:44.698Z","date":"2025-11-09","time":"01:24:44"},{"task":"memory_phase","broad_category":"S","image_png":"S_Sandstone_16.png","image_id":464,"category_name":"Sandstone","category":29,"distinct_rating":1.93,"distinct_type":"Bottom","rt":null,"stimulus":"Stimuli_Rocks480/S_Sandstone_16.png","response":null,"trial_type":"image-keyboard-response","trial_index":79,"plugin_version":"2.1.0","time_elapsed":187006,"subject_id":"86706","group":"Group1","full_date":"2025-11-09T01:24:44.698Z","date":"2025-11-09","time":"01:24:44"},{"rt":null,"stimulus":"<p style=\"font-size: 50px; margin: 0; text-align: center;\">+</p>","response":null,"trial_type":"html-keyboard-response","trial_index":80,"plugin_version":"2.1.0","time_elapsed":188014,"subject_id":"86706","group":"Group1","full_date":"2025-11-09T01:24:44.698Z","date":"2025-11-09","time":"01:24:44"},{"task":"memory_phase","broad_category":"I","image_png":"I_Gabbro_16.png","image_id":64,"category_name":"Gabbro","category":4,"distinct_rating":2.52,"distinct_type":"Bottom","rt":null,"stimulus":"Stimuli_Rocks480/I_Gabbro_16.png","response":null,"trial_type":"image-keyboard-response","trial_index":81,"plugin_version":"2.1.0","time_elapsed":190519,"subject_id":"86706","group":"Group1","full_date":"2025-11-09T01:24:44.698Z","date":"2025-11-09","time":"01:24:44"},{"rt":null,"stimulus":"<p style=\"font-size: 50px; margin: 0; text-align: center;\">+</p>","response":null,"trial_type":"html-keyboard-response","trial_index":82,"plugin_version":"2.1.0","time_elapsed":191535,"subject_id":"86706","group":"Group1","full_date":"2025-11-09T01:24:44.698Z","date":"2025-11-09","time":"01:24:44"},{"task":"memory_phase","broad_category":"S","image_png":"S_Shale_12.png","image_id":476,"category_name":"Shale","category":30,"distinct_rating":2.48,"distinct_type":"Bottom","rt":null,"stimulus":"Stimuli_Rocks480/S_Shale_12.png","response":null,"trial_type":"image-keyboard-response","trial_index":83,"plugin_version":"2.1.0","time_elapsed":194049,"subject_id":"86706","group":"Group1","full_date":"2025-11-09T01:24:44.698Z","date":"2025-11-09","time":"01:24:44"},{"rt":null,"stimulus":"<p style=\"font-size: 50px; margin: 0; text-align: center;\">+</p>","response":null,"trial_type":"html-keyboard-response","trial_index":84,"plugin_version":"2.1.0","time_elapsed":195064,"subject_id":"86706","group":"Group1","full_date":"2025-11-09T01:24:44.698Z","date":"2025-11-09","time":"01:24:44"},{"task":"memory_phase","broad_category":"I","image_png":"I_Basalt_09.png","image_id":25,"category_name":"Basalt","category":2,"distinct_rating":1.89,"distinct_type":"Bottom","rt":null,"stimulus":"Stimuli_Rocks480/I_Basalt_09.png","response":null,"trial_type":"image-keyboard-response","trial_index":85,"plugin_version":"2.1.0","time_elapsed":197570,"subject_id":"86706","group":"Group1","full_date":"2025-11-09T01:24:44.698Z","date":"2025-11-09","time":"01:24:44"},{"rt":null,"stimulus":"<p style=\"font-size: 50px; margin: 0; text-align: center;\">+</p>","response":null,"trial_type":"html-keyboard-response","trial_index":86,"plugin_version":"2.1.0","time_elapsed":198580,"subject_id":"86706","group":"Group1","full_date":"2025-11-09T01:24:44.698Z","date":"2025-11-09","time":"01:24:44"},{"task":"memory_phase","broad_category":"S","image_png":"S_Breccia_11.png","image_id":347,"category_name":"Breccia","category":22,"distinct_rating":6.7,"distinct_type":"Top","rt":null,"stimulus":"Stimuli_Rocks480/S_Breccia_11.png","response":null,"trial_type":"image-keyboard-response","trial_index":87,"plugin_version":"2.1.0","time_elapsed":201094,"subject_id":"86706","group":"Group1","full_date":"2025-11-09T01:24:44.698Z","date":"2025-11-09","time":"01:24:44"},{"rt":null,"stimulus":"<p style=\"font-size: 50px; margin: 0; text-align: center;\">+</p>","response":null,"trial_type":"html-keyboard-response","trial_index":88,"plugin_version":"2.1.0","time_elapsed":202111,"subject_id":"86706","group":"Group1","full_date":"2025-11-09T01:24:44.698Z","date":"2025-11-09","time":"01:24:44"},{"task":"memory_phase","broad_category":"S","image_png":"S_Sandstone_15.png","image_id":463,"category_name":"Sandstone","category":29,"distinct_rating":2,"distinct_type":"Bottom","rt":null,"stimulus":"Stimuli_Rocks480/S_Sandstone_15.png","response":null,"trial_type":"image-keyboard-response","trial_index":89,"plugin_version":"2.1.0","time_elapsed":204627,"subject_id":"86706","group":"Group1","full_date":"2025-11-09T01:24:44.698Z","date":"2025-11-09","time":"01:24:44"},{"rt":null,"stimulus":"<p style=\"font-size: 50px; margin: 0; text-align: center;\">+</p>","response":null,"trial_type":"html-keyboard-response","trial_index":90,"plugin_version":"2.1.0","time_elapsed":205639,"subject_id":"86706","group":"Group1","full_date":"2025-11-09T01:24:44.698Z","date":"2025-11-09","time":"01:24:44"},{"task":"memory_phase","broad_category":"I","image_png":"I_Rhyolite_14.png","image_id":158,"category_name":"Rhyolite","category":10,"distinct_rating":2.59,"distinct_type":"Bottom","rt":null,"stimulus":"Stimuli_Rocks480/I_Rhyolite_14.png","response":null,"trial_type":"image-keyboard-response","trial_index":91,"plugin_version":"2.1.0","time_elapsed":208159,"subject_id":"86706","group":"Group1","full_date":"2025-11-09T01:24:44.698Z","date":"2025-11-09","time":"01:24:44"},{"rt":null,"stimulus":"<p style=\"font-size: 50px; margin: 0; text-align: center;\">+</p>","response":null,"trial_type":"html-keyboard-response","trial_index":92,"plugin_version":"2.1.0","time_elapsed":209176,"subject_id":"86706","group":"Group1","full_date":"2025-11-09T01:24:44.698Z","date":"2025-11-09","time":"01:24:44"},{"task":"memory_phase","broad_category":"M","image_png":"M_Phyllite_03.png","image_id":259,"category_name":"Phyllite","category":17,"distinct_rating":2.5,"distinct_type":"Bottom","rt":null,"stimulus":"Stimuli_Rocks480/M_Phyllite_03.png","response":null,"trial_type":"image-keyboard-response","trial_index":93,"plugin_version":"2.1.0","time_elapsed":211680,"subject_id":"86706","group":"Group1","full_date":"2025-11-09T01:24:44.698Z","date":"2025-11-09","time":"01:24:44"},{"rt":null,"stimulus":"<p style=\"font-size: 50px; margin: 0; text-align: center;\">+</p>","response":null,"trial_type":"html-keyboard-response","trial_index":94,"plugin_version":"2.1.0","time_elapsed":212686,"subject_id":"86706","group":"Group1","full_date":"2025-11-09T01:24:44.698Z","date":"2025-11-09","time":"01:24:44"},{"task":"memory_phase","broad_category":"M","image_png":"M_Marble_16.png","image_id":240,"category_name":"Marble","category":15,"distinct_rating":2.57,"distinct_type":"Bottom","rt":null,"stimulus":"Stimuli_Rocks480/M_Marble_16.png","response":null,"trial_type":"image-keyboard-response","trial_index":95,"plugin_version":"2.1.0","time_elapsed":215191,"subject_id":"86706","group":"Group1","full_date":"2025-11-09T01:24:44.698Z","date":"2025-11-09","time":"01:24:44"},{"rt":null,"stimulus":"<p style=\"font-size: 50px; margin: 0; text-align: center;\">+</p>","response":null,"trial_type":"html-keyboard-response","trial_index":96,"plugin_version":"2.1.0","time_elapsed":216194,"subject_id":"86706","group":"Group1","full_date":"2025-11-09T01:24:44.698Z","date":"2025-11-09","time":"01:24:44"},{"task":"memory_phase","broad_category":"I","image_png":"I_Andesite_06.png","image_id":6,"category_name":"Andesite","category":1,"distinct_rating":3.17,"distinct_type":"Bottom","rt":null,"stimulus":"Stimuli_Rocks480/I_Andesite_06.png","response":null,"trial_type":"image-keyboard-response","trial_index":97,"plugin_version":"2.1.0","time_elapsed":218709,"subject_id":"86706","group":"Group1","full_date":"2025-11-09T01:24:44.698Z","date":"2025-11-09","time":"01:24:44"},{"rt":null,"stimulus":"<p style=\"font-size: 50px; margin: 0; text-align: center;\">+</p>","response":null,"trial_type":"html-keyboard-response","trial_index":98,"plugin_version":"2.1.0","time_elapsed":219725,"subject_id":"86706","group":"Group1","full_date":"2025-11-09T01:24:44.698Z","date":"2025-11-09","time":"01:24:44"},{"task":"memory_phase","broad_category":"M","image_png":"M_Gneiss_05.png","image_id":197,"category_name":"Gneiss","category":13,"distinct_rating":2.97,"distinct_type":"Bottom","rt":null,"stimulus":"Stimuli_Rocks480/M_Gneiss_05.png","response":null,"trial_type":"image-keyboard-response","trial_index":99,"plugin_version":"2.1.0","time_elapsed":222246,"subject_id":"86706","group":"Group1","full_date":"2025-11-09T01:24:44.698Z","date":"2025-11-09","time":"01:24:44"},{"rt":null,"stimulus":"<p style=\"font-size: 50px; margin: 0; text-align: center;\">+</p>","response":null,"trial_type":"html-keyboard-response","trial_index":100,"plugin_version":"2.1.0","time_elapsed":223266,"subject_id":"86706","group":"Group1","full_date":"2025-11-09T01:24:44.698Z","date":"2025-11-09","time":"01:24:44"},{"task":"memory_phase","broad_category":"I","image_png":"I_Gabbro_08.png","image_id":56,"category_name":"Gabbro","category":4,"distinct_rating":3.02,"distinct_type":"Bottom","rt":null,"stimulus":"Stimuli_Rocks480/I_Gabbro_08.png","response":null,"trial_type":"image-keyboard-response","trial_index":101,"plugin_version":"2.1.0","time_elapsed":225781,"subject_id":"86706","group":"Group1","full_date":"2025-11-09T01:24:44.698Z","date":"2025-11-09","time":"01:24:44"},{"rt":null,"stimulus":"<p style=\"font-size: 50px; margin: 0; text-align: center;\">+</p>","response":null,"trial_type":"html-keyboard-response","trial_index":102,"plugin_version":"2.1.0","time_elapsed":226783,"subject_id":"86706","group":"Group1","full_date":"2025-11-09T01:24:44.698Z","date":"2025-11-09","time":"01:24:44"},{"task":"memory_phase","broad_category":"M","image_png":"M_Quartzite_08.png","image_id":280,"category_name":"Quartzite","category":18,"distinct_rating":2.15,"distinct_type":"Bottom","rt":null,"stimulus":"Stimuli_Rocks480/M_Quartzite_08.png","response":null,"trial_type":"image-keyboard-response","trial_index":103,"plugin_version":"2.1.0","time_elapsed":229293,"subject_id":"86706","group":"Group1","full_date":"2025-11-09T01:24:44.698Z","date":"2025-11-09","time":"01:24:44"},{"rt":null,"stimulus":"<p style=\"font-size: 50px; margin: 0; text-align: center;\">+</p>","response":null,"trial_type":"html-keyboard-response","trial_index":104,"plugin_version":"2.1.0","time_elapsed":230308,"subject_id":"86706","group":"Group1","full_date":"2025-11-09T01:24:44.698Z","date":"2025-11-09","time":"01:24:44"},{"task":"memory_phase","broad_category":"I","image_png":"I_Basalt_01.png","image_id":17,"category_name":"Basalt","category":2,"distinct_rating":1.92,"distinct_type":"Bottom","rt":null,"stimulus":"Stimuli_Rocks480/I_Basalt_01.png","response":null,"trial_type":"image-keyboard-response","trial_index":105,"plugin_version":"2.1.0","time_elapsed":232826,"subject_id":"86706","group":"Group1","full_date":"2025-11-09T01:24:44.698Z","date":"2025-11-09","time":"01:24:44"},{"rt":32374,"stimulus":"<div style=\"max-width: 760px; margin: auto; font-size: 20px; line-height: 1.5;\">\n      <h1 style=\"text-align:center; font-size: 30px;\">Instructions for the Test Phase</h1>\n      <p>\n        The study phase is now complete.\n      </p>\n      <p>\n        In the test phase, you will again see a series of rock images. \n        Some will be ones you saw before - during the study phase, while others will be new.  \n        <b>Your task</b> is to decide whether you have seen each image before by pressing the corresponding key on your keyboard:<br><br>\n          <b>A</b> - NO (you did not see this image before)<br>\n          <b>L</b> - YES (you saw this image before)<br><br>\n        The test will proceed at your own pace. You will receive feedback after each response.  \n        Please try to respond <b>as accurately as possible</b>.\n      </p>\n      <p>\n        <b>Reminder:</b> If your computer has multiple language settings (e.g., English and another language),\n        please ensure it is set to English during the test phase.\n      </p>\n      <p>\n        You can track your progress using the <b>completion bar</b> at the top of the screen.  \n        Note that it has been refreshed to reflect your progress during this final phase.\n      </p>\n      <p>\n        Press the button below when you are ready to continue.\n      </p>\n    </div>","response":0,"trial_type":"html-button-response","trial_index":106,"plugin_version":"2.1.0","time_elapsed":265202,"subject_id":"86706","group":"Group1","full_date":"2025-11-09T01:24:44.698Z","date":"2025-11-09","time":"01:24:44"},{"correct_response":"l","task":"test_phase","broad_category":"M","image_png":"M_Marble_06.png","image_id":230,"category_name":"Marble","category":15,"distinct_rating":3.4,"distinct_type":"Bottom","item_type":"Target","rt":6090,"stimulus":"Stimuli_Rocks480/M_Marble_06.png","response":"l","trial_type":"image-keyboard-response","trial_index":107,"plugin_version":"2.1.0","time_elapsed":271294,"subject_id":"86706","group":"Group1","full_date":"2025-11-09T01:24:44.698Z","date":"2025-11-09","time":"01:24:44","cor_ans":true},{"trial_type":"html-keyboard-response","rt":null,"stimulus":"<p style=\"color: green; font-size: 50px; font-weight: bold;\">Correct</p>","response":null,"trial_index":108,"plugin_version":"2.1.0","time_elapsed":271801,"subject_id":"86706","group":"Group1","full_date":"2025-11-09T01:24:44.698Z","date":"2025-11-09","time":"01:24:44"},{"correct_response":"l","task":"test_phase","broad_category":"S","image_png":"S_Sandstone_16.png","image_id":464,"category_name":"Sandstone","category":29,"distinct_rating":1.93,"distinct_type":"Bottom","item_type":"Target","rt":1512,"stimulus":"Stimuli_Rocks480/S_Sandstone_16.png","response":"l","trial_type":"image-keyboard-response","trial_index":109,"plugin_version":"2.1.0","time_elapsed":273315,"subject_id":"86706","group":"Group1","full_date":"2025-11-09T01:24:44.698Z","date":"2025-11-09","time":"01:24:44","cor_ans":true},{"trial_type":"html-keyboard-response","rt":null,"stimulus":"<p style=\"color: green; font-size: 50px; font-weight: bold;\">Correct</p>","response":null,"trial_index":110,"plugin_version":"2.1.0","time_elapsed":273831,"subject_id":"86706","group":"Group1","full_date":"2025-11-09T01:24:44.698Z","date":"2025-11-09","time":"01:24:44"},{"correct_response":"l","task":"test_phase","broad_category":"I","image_png":"I_Pumice_11.png","image_id":139,"category_name":"Pumice","category":9,"distinct_rating":1.74,"distinct_type":"Bottom","item_type":"Target","rt":2023,"stimulus":"Stimuli_Rocks480/I_Pumice_11.png","response":"a","trial_type":"image-keyboard-response","trial_index":111,"plugin_version":"2.1.0","time_elapsed":275855,"subject_id":"86706","group":"Group1","full_date":"2025-11-09T01:24:44.698Z","date":"2025-11-09","time":"01:24:44","cor_ans":false},{"trial_type":"html-keyboard-response","rt":null,"stimulus":"<p style=\"color: red; font-size: 50px; font-weight: bold;\">Incorrect</p>","response":null,"trial_index":112,"plugin_version":"2.1.0","time_elapsed":276358,"subject_id":"86706","group":"Group1","full_date":"2025-11-09T01:24:44.698Z","date":"2025-11-09","time":"01:24:44"},{"correct_response":"a","task":"test_phase","broad_category":"S","image_png":"S_Dolomite_07.png","image_id":391,"category_name":"Dolomite","category":25,"distinct_rating":1.73,"distinct_type":"Bottom","item_type":"Foil","rt":1405,"stimulus":"Stimuli_Rocks480/S_Dolomite_07.png","response":"a","trial_type":"image-keyboard-response","trial_index":113,"plugin_version":"2.1.0","time_elapsed":277764,"subject_id":"86706","group":"Group1","full_date":"2025-11-09T01:24:44.698Z","date":"2025-11-09","time":"01:24:44","cor_ans":true},{"trial_type":"html-keyboard-response","rt":null,"stimulus":"<p style=\"color: green; font-size: 50px; font-weight: bold;\">Correct</p>","response":null,"trial_index":114,"plugin_version":"2.1.0","time_elapsed":278279,"subject_id":"86706","group":"Group1","full_date":"2025-11-09T01:24:44.698Z","date":"2025-11-09","time":"01:24:44"},{"correct_response":"a","task":"test_phase","broad_category":"M","image_png":"M_Slate_14.png","image_id":318,"category_name":"Slate","category":20,"distinct_rating":2.58,"distinct_type":"Bottom","item_type":"Foil","rt":2187,"stimulus":"Stimuli_Rocks480/M_Slate_14.png","response":"l","trial_type":"image-keyboard-response","trial_index":115,"plugin_version":"2.1.0","time_elapsed":280468,"subject_id":"86706","group":"Group1","full_date":"2025-11-09T01:24:44.698Z","date":"2025-11-09","time":"01:24:44","cor_ans":false},{"trial_type":"html-keyboard-response","rt":null,"stimulus":"<p style=\"color: red; font-size: 50px; font-weight: bold;\">Incorrect</p>","response":null,"trial_index":116,"plugin_version":"2.1.0","time_elapsed":280985,"subject_id":"86706","group":"Group1","full_date":"2025-11-09T01:24:44.698Z","date":"2025-11-09","time":"01:24:44"},{"correct_response":"a","task":"test_phase","broad_category":"I","image_png":"I_Pegmatite_03.png","image_id":99,"category_name":"Pegmatite","category":7,"distinct_rating":7.24,"distinct_type":"Top","item_type":"Foil","rt":1316,"stimulus":"Stimuli_Rocks480/I_Pegmatite_03.png","response":"a","trial_type":"image-keyboard-response","trial_index":117,"plugin_version":"2.1.0","time_elapsed":282303,"subject_id":"86706","group":"Group1","full_date":"2025-11-09T01:24:44.698Z","date":"2025-11-09","time":"01:24:44","cor_ans":true},{"trial_type":"html-keyboard-response","rt":null,"stimulus":"<p style=\"color: green; font-size: 50px; font-weight: bold;\">Correct</p>","response":null,"trial_index":118,"plugin_version":"2.1.0","time_elapsed":282809,"subject_id":"86706","group":"Group1","full_date":"2025-11-09T01:24:44.698Z","date":"2025-11-09","time":"01:24:44"},{"correct_response":"l","task":"test_phase","broad_category":"M","image_png":"M_Phyllite_07.png","image_id":263,"category_name":"Phyllite","category":17,"distinct_rating":2.59,"distinct_type":"Bottom","item_type":"Target","rt":1112,"stimulus":"Stimuli_Rocks480/M_Phyllite_07.png","response":"l","trial_type":"image-keyboard-response","trial_index":119,"plugin_version":"2.1.0","time_elapsed":283923,"subject_id":"86706","group":"Group1","full_date":"2025-11-09T01:24:44.698Z","date":"2025-11-09","time":"01:24:44","cor_ans":true},{"trial_type":"html-keyboard-response","rt":null,"stimulus":"<p style=\"color: green; font-size: 50px; font-weight: bold;\">Correct</p>","response":null,"trial_index":120,"plugin_version":"2.1.0","time_elapsed":284433,"subject_id":"86706","group":"Group1","full_date":"2025-11-09T01:24:44.698Z","date":"2025-11-09","time":"01:24:44"},{"correct_response":"l","task":"test_phase","broad_category":"M","image_png":"M_Quartzite_08.png","image_id":280,"category_name":"Quartzite","category":18,"distinct_rating":2.15,"distinct_type":"Bottom","item_type":"Target","rt":791,"stimulus":"Stimuli_Rocks480/M_Quartzite_08.png","response":"l","trial_type":"image-keyboard-response","trial_index":121,"plugin_version":"2.1.0","time_elapsed":285225,"subject_id":"86706","group":"Group1","full_date":"2025-11-09T01:24:44.698Z","date":"2025-11-09","time":"01:24:44","cor_ans":true},{"trial_type":"html-keyboard-response","rt":null,"stimulus":"<p style=\"color: green; font-size: 50px; font-weight: bold;\">Correct</p>","response":null,"trial_index":122,"plugin_version":"2.1.0","time_elapsed":285737,"subject_id":"86706","group":"Group1","full_date":"2025-11-09T01:24:44.698Z","date":"2025-11-09","time":"01:24:44"},{"correct_response":"a","task":"test_phase","broad_category":"I","image_png":"I_Basalt_08.png","image_id":24,"category_name":"Basalt","category":2,"distinct_rating":2.31,"distinct_type":"Bottom","item_type":"Foil","rt":886,"stimulus":"Stimuli_Rocks480/I_Basalt_08.png","response":"a","trial_type":"image-keyboard-response","trial_index":123,"plugin_version":"2.1.0","time_elapsed":286634,"subject_id":"86706","group":"Group1","full_date":"2025-11-09T01:24:44.698Z","date":"2025-11-09","time":"01:24:44","cor_ans":true},{"trial_type":"html-keyboard-response","rt":null,"stimulus":"<p style=\"color: green; font-size: 50px; font-weight: bold;\">Correct</p>","response":null,"trial_index":124,"plugin_version":"2.1.0","time_elapsed":287143,"subject_id":"86706","group":"Group1","full_date":"2025-11-09T01:24:44.698Z","date":"2025-11-09","time":"01:24:44"},{"correct_response":"l","task":"test_phase","broad_category":"I","image_png":"I_Diorite_04.png","image_id":36,"category_name":"Diorite","category":3,"distinct_rating":2.98,"distinct_type":"Bottom","item_type":"Target","rt":902,"stimulus":"Stimuli_Rocks480/I_Diorite_04.png","response":"l","trial_type":"image-keyboard-response","trial_index":125,"plugin_version":"2.1.0","time_elapsed":288047,"subject_id":"86706","group":"Group1","full_date":"2025-11-09T01:24:44.698Z","date":"2025-11-09","time":"01:24:44","cor_ans":true},{"trial_type":"html-keyboard-response","rt":null,"stimulus":"<p style=\"color: green; font-size: 50px; font-weight: bold;\">Correct</p>","response":null,"trial_index":126,"plugin_version":"2.1.0","time_elapsed":288559,"subject_id":"86706","group":"Group1","full_date":"2025-11-09T01:24:44.698Z","date":"2025-11-09","time":"01:24:44"},{"correct_response":"a","task":"test_phase","broad_category":"M","image_png":"M_Phyllite_13.png","image_id":269,"category_name":"Phyllite","category":17,"distinct_rating":2.8,"distinct_type":"Bottom","item_type":"Foil","rt":800,"stimulus":"Stimuli_Rocks480/M_Phyllite_13.png","response":"l","trial_type":"image-keyboard-response","trial_index":127,"plugin_version":"2.1.0","time_elapsed":289361,"subject_id":"86706","group":"Group1","full_date":"2025-11-09T01:24:44.698Z","date":"2025-11-09","time":"01:24:44","cor_ans":false},{"trial_type":"html-keyboard-response","rt":null,"stimulus":"<p style=\"color: red; font-size: 50px; font-weight: bold;\">Incorrect</p>","response":null,"trial_index":128,"plugin_version":"2.1.0","time_elapsed":289876,"subject_id":"86706","group":"Group1","full_date":"2025-11-09T01:24:44.698Z","date":"2025-11-09","time":"01:24:44"},{"correct_response":"l","task":"test_phase","broad_category":"I","image_png":"I_Basalt_09.png","image_id":25,"category_name":"Basalt","category":2,"distinct_rating":1.89,"distinct_type":"Bottom","item_type":"Target","rt":702,"stimulus":"Stimuli_Rocks480/I_Basalt_09.png","response":"l","trial_type":"image-keyboard-response","trial_index":129,"plugin_version":"2.1.0","time_elapsed":290579,"subject_id":"86706","group":"Group1","full_date":"2025-11-09T01:24:44.698Z","date":"2025-11-09","time":"01:24:44","cor_ans":true},{"trial_type":"html-keyboard-response","rt":null,"stimulus":"<p style=\"color: green; font-size: 50px; font-weight: bold;\">Correct</p>","response":null,"trial_index":130,"plugin_version":"2.1.0","time_elapsed":291093,"subject_id":"86706","group":"Group1","full_date":"2025-11-09T01:24:44.698Z","date":"2025-11-09","time":"01:24:44"},{"correct_response":"a","task":"test_phase","broad_category":"S","image_png":"S_Sandstone_04.png","image_id":452,"category_name":"Sandstone","category":29,"distinct_rating":1.8,"distinct_type":"Bottom","item_type":"Foil","rt":878,"stimulus":"Stimuli_Rocks480/S_Sandstone_04.png","response":"l","trial_type":"image-keyboard-response","trial_index":131,"plugin_version":"2.1.0","time_elapsed":291972,"subject_id":"86706","group":"Group1","full_date":"2025-11-09T01:24:44.698Z","date":"2025-11-09","time":"01:24:44","cor_ans":false},{"trial_type":"html-keyboard-response","rt":null,"stimulus":"<p style=\"color: red; font-size: 50px; font-weight: bold;\">Incorrect</p>","response":null,"trial_index":132,"plugin_version":"2.1.0","time_elapsed":292484,"subject_id":"86706","group":"Group1","full_date":"2025-11-09T01:24:44.698Z","date":"2025-11-09","time":"01:24:44"},{"correct_response":"a","task":"test_phase","broad_category":"I","image_png":"I_Gabbro_02.png","image_id":50,"category_name":"Gabbro","category":4,"distinct_rating":2.73,"distinct_type":"Bottom","item_type":"Foil","rt":945,"stimulus":"Stimuli_Rocks480/I_Gabbro_02.png","response":"a","trial_type":"image-keyboard-response","trial_index":133,"plugin_version":"2.1.0","time_elapsed":293430,"subject_id":"86706","group":"Group1","full_date":"2025-11-09T01:24:44.698Z","date":"2025-11-09","time":"01:24:44","cor_ans":true},{"trial_type":"html-keyboard-response","rt":null,"stimulus":"<p style=\"color: green; font-size: 50px; font-weight: bold;\">Correct</p>","response":null,"trial_index":134,"plugin_version":"2.1.0","time_elapsed":293944,"subject_id":"86706","group":"Group1","full_date":"2025-11-09T01:24:44.698Z","date":"2025-11-09","time":"01:24:44"},{"correct_response":"a","task":"test_phase","broad_category":"I","image_png":"I_Andesite_03.png","image_id":3,"category_name":"Andesite","category":1,"distinct_rating":3.17,"distinct_type":"Bottom","item_type":"Foil","rt":1580,"stimulus":"Stimuli_Rocks480/I_Andesite_03.png","response":"a","trial_type":"image-keyboard-response","trial_index":135,"plugin_version":"2.1.0","time_elapsed":295525,"subject_id":"86706","group":"Group1","full_date":"2025-11-09T01:24:44.698Z","date":"2025-11-09","time":"01:24:44","cor_ans":true},{"trial_type":"html-keyboard-response","rt":null,"stimulus":"<p style=\"color: green; font-size: 50px; font-weight: bold;\">Correct</p>","response":null,"trial_index":136,"plugin_version":"2.1.0","time_elapsed":296042,"subject_id":"86706","group":"Group1","full_date":"2025-11-09T01:24:44.698Z","date":"2025-11-09","time":"01:24:44"},{"correct_response":"l","task":"test_phase","broad_category":"S","image_png":"S_Rock Gypsum_04.png","image_id":420,"category_name":"Rock Gypsum","category":27,"distinct_rating":7.61,"distinct_type":"Top","item_type":"Target","rt":1217,"stimulus":"Stimuli_Rocks480/S_Rock Gypsum_04.png","response":"a","trial_type":"image-keyboard-response","trial_index":137,"plugin_version":"2.1.0","time_elapsed":297261,"subject_id":"86706","group":"Group1","full_date":"2025-11-09T01:24:44.698Z","date":"2025-11-09","time":"01:24:44","cor_ans":false},{"trial_type":"html-keyboard-response","rt":null,"stimulus":"<p style=\"color: red; font-size: 50px; font-weight: bold;\">Incorrect</p>","response":null,"trial_index":138,"plugin_version":"2.1.0","time_elapsed":297778,"subject_id":"86706","group":"Group1","full_date":"2025-11-09T01:24:44.698Z","date":"2025-11-09","time":"01:24:44"},{"correct_response":"a","task":"test_phase","broad_category":"M","image_png":"M_Slate_10.png","image_id":314,"category_name":"Slate","category":20,"distinct_rating":1.94,"distinct_type":"Bottom","item_type":"Foil","rt":1262,"stimulus":"Stimuli_Rocks480/M_Slate_10.png","response":"a","trial_type":"image-keyboard-response","trial_index":139,"plugin_version":"2.1.0","time_elapsed":299042,"subject_id":"86706","group":"Group1","full_date":"2025-11-09T01:24:44.698Z","date":"2025-11-09","time":"01:24:44","cor_ans":true},{"trial_type":"html-keyboard-response","rt":null,"stimulus":"<p style=\"color: green; font-size: 50px; font-weight: bold;\">Correct</p>","response":null,"trial_index":140,"plugin_version":"2.1.0","time_elapsed":299552,"subject_id":"86706","group":"Group1","full_date":"2025-11-09T01:24:44.698Z","date":"2025-11-09","time":"01:24:44"},{"correct_response":"l","task":"test_phase","broad_category":"S","image_png":"S_Shale_01.png","image_id":465,"category_name":"Shale","category":30,"distinct_rating":2.7,"distinct_type":"Bottom","item_type":"Target","rt":1390,"stimulus":"Stimuli_Rocks480/S_Shale_01.png","response":"l","trial_type":"image-keyboard-response","trial_index":141,"plugin_version":"2.1.0","time_elapsed":300943,"subject_id":"86706","group":"Group1","full_date":"2025-11-09T01:24:44.698Z","date":"2025-11-09","time":"01:24:44","cor_ans":true},{"trial_type":"html-keyboard-response","rt":null,"stimulus":"<p style=\"color: green; font-size: 50px; font-weight: bold;\">Correct</p>","response":null,"trial_index":142,"plugin_version":"2.1.0","time_elapsed":301461,"subject_id":"86706","group":"Group1","full_date":"2025-11-09T01:24:44.698Z","date":"2025-11-09","time":"01:24:44"},{"correct_response":"a","task":"test_phase","broad_category":"M","image_png":"M_Phyllite_02.png","image_id":258,"category_name":"Phyllite","category":17,"distinct_rating":2.89,"distinct_type":"Bottom","item_type":"Foil","rt":1101,"stimulus":"Stimuli_Rocks480/M_Phyllite_02.png","response":"l","trial_type":"image-keyboard-response","trial_index":143,"plugin_version":"2.1.0","time_elapsed":302563,"subject_id":"86706","group":"Group1","full_date":"2025-11-09T01:24:44.698Z","date":"2025-11-09","time":"01:24:44","cor_ans":false},{"trial_type":"html-keyboard-response","rt":null,"stimulus":"<p style=\"color: red; font-size: 50px; font-weight: bold;\">Incorrect</p>","response":null,"trial_index":144,"plugin_version":"2.1.0","time_elapsed":303067,"subject_id":"86706","group":"Group1","full_date":"2025-11-09T01:24:44.698Z","date":"2025-11-09","time":"01:24:44"},{"correct_response":"l","task":"test_phase","broad_category":"I","image_png":"I_Andesite_10.png","image_id":10,"category_name":"Andesite","category":1,"distinct_rating":3.15,"distinct_type":"Bottom","item_type":"Target","rt":1297,"stimulus":"Stimuli_Rocks480/I_Andesite_10.png","response":"l","trial_type":"image-keyboard-response","trial_index":145,"plugin_version":"2.1.0","time_elapsed":304366,"subject_id":"86706","group":"Group1","full_date":"2025-11-09T01:24:44.698Z","date":"2025-11-09","time":"01:24:44","cor_ans":true},{"trial_type":"html-keyboard-response","rt":null,"stimulus":"<p style=\"color: green; font-size: 50px; font-weight: bold;\">Correct</p>","response":null,"trial_index":146,"plugin_version":"2.1.0","time_elapsed":304876,"subject_id":"86706","group":"Group1","full_date":"2025-11-09T01:24:44.698Z","date":"2025-11-09","time":"01:24:44"},{"correct_response":"a","task":"test_phase","broad_category":"S","image_png":"S_Shale_03.png","image_id":467,"category_name":"Shale","category":30,"distinct_rating":1.95,"distinct_type":"Bottom","item_type":"Foil","rt":2093,"stimulus":"Stimuli_Rocks480/S_Shale_03.png","response":"a","trial_type":"image-keyboard-response","trial_index":147,"plugin_version":"2.1.0","time_elapsed":306971,"subject_id":"86706","group":"Group1","full_date":"2025-11-09T01:24:44.698Z","date":"2025-11-09","time":"01:24:44","cor_ans":true},{"trial_type":"html-keyboard-response","rt":null,"stimulus":"<p style=\"color: green; font-size: 50px; font-weight: bold;\">Correct</p>","response":null,"trial_index":148,"plugin_version":"2.1.0","time_elapsed":307481,"subject_id":"86706","group":"Group1","full_date":"2025-11-09T01:24:44.698Z","date":"2025-11-09","time":"01:24:44"},{"correct_response":"l","task":"test_phase","broad_category":"I","image_png":"I_Pegmatite_16.png","image_id":112,"category_name":"Pegmatite","category":7,"distinct_rating":7.03,"distinct_type":"Top","item_type":"Target","rt":1035,"stimulus":"Stimuli_Rocks480/I_Pegmatite_16.png","response":"l","trial_type":"image-keyboard-response","trial_index":149,"plugin_version":"2.1.0","time_elapsed":308517,"subject_id":"86706","group":"Group1","full_date":"2025-11-09T01:24:44.698Z","date":"2025-11-09","time":"01:24:44","cor_ans":true},{"trial_type":"html-keyboard-response","rt":null,"stimulus":"<p style=\"color: green; font-size: 50px; font-weight: bold;\">Correct</p>","response":null,"trial_index":150,"plugin_version":"2.1.0","time_elapsed":309029,"subject_id":"86706","group":"Group1","full_date":"2025-11-09T01:24:44.698Z","date":"2025-11-09","time":"01:24:44"},{"correct_response":"l","task":"test_phase","broad_category":"I","image_png":"I_Pegmatite_10.png","image_id":106,"category_name":"Pegmatite","category":7,"distinct_rating":7.66,"distinct_type":"Top","item_type":"Target","rt":966,"stimulus":"Stimuli_Rocks480/I_Pegmatite_10.png","response":"l","trial_type":"image-keyboard-response","trial_index":151,"plugin_version":"2.1.0","time_elapsed":309996,"subject_id":"86706","group":"Group1","full_date":"2025-11-09T01:24:44.698Z","date":"2025-11-09","time":"01:24:44","cor_ans":true},{"trial_type":"html-keyboard-response","rt":null,"stimulus":"<p style=\"color: green; font-size: 50px; font-weight: bold;\">Correct</p>","response":null,"trial_index":152,"plugin_version":"2.1.0","time_elapsed":310499,"subject_id":"86706","group":"Group1","full_date":"2025-11-09T01:24:44.698Z","date":"2025-11-09","time":"01:24:44"},{"correct_response":"a","task":"test_phase","broad_category":"I","image_png":"I_Pegmatite_11.png","image_id":107,"category_name":"Pegmatite","category":7,"distinct_rating":7.11,"distinct_type":"Top","item_type":"Foil","rt":731,"stimulus":"Stimuli_Rocks480/I_Pegmatite_11.png","response":"l","trial_type":"image-keyboard-response","trial_index":153,"plugin_version":"2.1.0","time_elapsed":311232,"subject_id":"86706","group":"Group1","full_date":"2025-11-09T01:24:44.698Z","date":"2025-11-09","time":"01:24:44","cor_ans":false},{"trial_type":"html-keyboard-response","rt":null,"stimulus":"<p style=\"color: red; font-size: 50px; font-weight: bold;\">Incorrect</p>","response":null,"trial_index":154,"plugin_version":"2.1.0","time_elapsed":311747,"subject_id":"86706","group":"Group1","full_date":"2025-11-09T01:24:44.698Z","date":"2025-11-09","time":"01:24:44"},{"correct_response":"a","task":"test_phase","broad_category":"S","image_png":"S_Dolomite_01.png","image_id":385,"category_name":"Dolomite","category":25,"distinct_rating":1.43,"distinct_type":"Bottom","item_type":"Foil","rt":965,"stimulus":"Stimuli_Rocks480/S_Dolomite_01.png","response":"l","trial_type":"image-keyboard-response","trial_index":155,"plugin_version":"2.1.0","time_elapsed":312713,"subject_id":"86706","group":"Group1","full_date":"2025-11-09T01:24:44.698Z","date":"2025-11-09","time":"01:24:44","cor_ans":false},{"trial_type":"html-keyboard-response","rt":null,"stimulus":"<p style=\"color: red; font-size: 50px; font-weight: bold;\">Incorrect</p>","response":null,"trial_index":156,"plugin_version":"2.1.0","time_elapsed":313227,"subject_id":"86706","group":"Group1","full_date":"2025-11-09T01:24:44.698Z","date":"2025-11-09","time":"01:24:44"},{"correct_response":"a","task":"test_phase","broad_category":"S","image_png":"S_Shale_07.png","image_id":471,"category_name":"Shale","category":30,"distinct_rating":2.73,"distinct_type":"Bottom","item_type":"Foil","rt":1172,"stimulus":"Stimuli_Rocks480/S_Shale_07.png","response":"a","trial_type":"image-keyboard-response","trial_index":157,"plugin_version":"2.1.0","time_elapsed":314401,"subject_id":"86706","group":"Group1","full_date":"2025-11-09T01:24:44.698Z","date":"2025-11-09","time":"01:24:44","cor_ans":true},{"trial_type":"html-keyboard-response","rt":null,"stimulus":"<p style=\"color: green; font-size: 50px; font-weight: bold;\">Correct</p>","response":null,"trial_index":158,"plugin_version":"2.1.0","time_elapsed":314914,"subject_id":"86706","group":"Group1","full_date":"2025-11-09T01:24:44.698Z","date":"2025-11-09","time":"01:24:44"},{"correct_response":"a","task":"test_phase","broad_category":"I","image_png":"I_Pumice_13.png","image_id":141,"category_name":"Pumice","category":9,"distinct_rating":3.12,"distinct_type":"Bottom","item_type":"Foil","rt":1727,"stimulus":"Stimuli_Rocks480/I_Pumice_13.png","response":"a","trial_type":"image-keyboard-response","trial_index":159,"plugin_version":"2.1.0","time_elapsed":316642,"subject_id":"86706","group":"Group1","full_date":"2025-11-09T01:24:44.698Z","date":"2025-11-09","time":"01:24:44","cor_ans":true},{"trial_type":"html-keyboard-response","rt":null,"stimulus":"<p style=\"color: green; font-size: 50px; font-weight: bold;\">Correct</p>","response":null,"trial_index":160,"plugin_version":"2.1.0","time_elapsed":317145,"subject_id":"86706","group":"Group1","full_date":"2025-11-09T01:24:44.698Z","date":"2025-11-09","time":"01:24:44"},{"correct_response":"a","task":"test_phase","broad_category":"I","image_png":"I_Peridotite_13.png","image_id":125,"category_name":"Peridotite","category":8,"distinct_rating":7.28,"distinct_type":"Top","item_type":"Foil","rt":1012,"stimulus":"Stimuli_Rocks480/I_Peridotite_13.png","response":"a","trial_type":"image-keyboard-response","trial_index":161,"plugin_version":"2.1.0","time_elapsed":318158,"subject_id":"86706","group":"Group1","full_date":"2025-11-09T01:24:44.698Z","date":"2025-11-09","time":"01:24:44","cor_ans":true},{"trial_type":"html-keyboard-response","rt":null,"stimulus":"<p style=\"color: green; font-size: 50px; font-weight: bold;\">Correct</p>","response":null,"trial_index":162,"plugin_version":"2.1.0","time_elapsed":318676,"subject_id":"86706","group":"Group1","full_date":"2025-11-09T01:24:44.698Z","date":"2025-11-09","time":"01:24:44"},{"correct_response":"l","task":"test_phase","broad_category":"I","image_png":"I_Diorite_05.png","image_id":37,"category_name":"Diorite","category":3,"distinct_rating":3.08,"distinct_type":"Bottom","item_type":"Target","rt":906,"stimulus":"Stimuli_Rocks480/I_Diorite_05.png","response":"l","trial_type":"image-keyboard-response","trial_index":163,"plugin_version":"2.1.0","time_elapsed":319584,"subject_id":"86706","group":"Group1","full_date":"2025-11-09T01:24:44.698Z","date":"2025-11-09","time":"01:24:44","cor_ans":true},{"trial_type":"html-keyboard-response","rt":null,"stimulus":"<p style=\"color: green; font-size: 50px; font-weight: bold;\">Correct</p>","response":null,"trial_index":164,"plugin_version":"2.1.0","time_elapsed":320100,"subject_id":"86706","group":"Group1","full_date":"2025-11-09T01:24:44.698Z","date":"2025-11-09","time":"01:24:44"},{"correct_response":"l","task":"test_phase","broad_category":"I","image_png":"I_Basalt_01.png","image_id":17,"category_name":"Basalt","category":2,"distinct_rating":1.92,"distinct_type":"Bottom","item_type":"Target","rt":985,"stimulus":"Stimuli_Rocks480/I_Basalt_01.png","response":"l","trial_type":"image-keyboard-response","trial_index":165,"plugin_version":"2.1.0","time_elapsed":321086,"subject_id":"86706","group":"Group1","full_date":"2025-11-09T01:24:44.698Z","date":"2025-11-09","time":"01:24:44","cor_ans":true},{"trial_type":"html-keyboard-response","rt":null,"stimulus":"<p style=\"color: green; font-size: 50px; font-weight: bold;\">Correct</p>","response":null,"trial_index":166,"plugin_version":"2.1.0","time_elapsed":321603,"subject_id":"86706","group":"Group1","full_date":"2025-11-09T01:24:44.698Z","date":"2025-11-09","time":"01:24:44"},{"correct_response":"a","task":"test_phase","broad_category":"S","image_png":"S_Dolomite_16.png","image_id":400,"category_name":"Dolomite","category":25,"distinct_rating":1.71,"distinct_type":"Bottom","item_type":"Foil","rt":3268,"stimulus":"Stimuli_Rocks480/S_Dolomite_16.png","response":"a","trial_type":"image-keyboard-response","trial_index":167,"plugin_version":"2.1.0","time_elapsed":324872,"subject_id":"86706","group":"Group1","full_date":"2025-11-09T01:24:44.698Z","date":"2025-11-09","time":"01:24:44","cor_ans":true},{"trial_type":"html-keyboard-response","rt":null,"stimulus":"<p style=\"color: green; font-size: 50px; font-weight: bold;\">Correct</p>","response":null,"trial_index":168,"plugin_version":"2.1.0","time_elapsed":325380,"subject_id":"86706","group":"Group1","full_date":"2025-11-09T01:24:44.698Z","date":"2025-11-09","time":"01:24:44"},{"correct_response":"a","task":"test_phase","broad_category":"M","image_png":"M_Marble_02.png","image_id":226,"category_name":"Marble","category":15,"distinct_rating":3.2,"distinct_type":"Bottom","item_type":"Foil","rt":1481,"stimulus":"Stimuli_Rocks480/M_Marble_02.png","response":"a","trial_type":"image-keyboard-response","trial_index":169,"plugin_version":"2.1.0","time_elapsed":326863,"subject_id":"86706","group":"Group1","full_date":"2025-11-09T01:24:44.698Z","date":"2025-11-09","time":"01:24:44","cor_ans":true},{"trial_type":"html-keyboard-response","rt":null,"stimulus":"<p style=\"color: green; font-size: 50px; font-weight: bold;\">Correct</p>","response":null,"trial_index":170,"plugin_version":"2.1.0","time_elapsed":327366,"subject_id":"86706","group":"Group1","full_date":"2025-11-09T01:24:44.698Z","date":"2025-11-09","time":"01:24:44"},{"correct_response":"l","task":"test_phase","broad_category":"I","image_png":"I_Andesite_06.png","image_id":6,"category_name":"Andesite","category":1,"distinct_rating":3.17,"distinct_type":"Bottom","item_type":"Target","rt":928,"stimulus":"Stimuli_Rocks480/I_Andesite_06.png","response":"l","trial_type":"image-keyboard-response","trial_index":171,"plugin_version":"2.1.0","time_elapsed":328296,"subject_id":"86706","group":"Group1","full_date":"2025-11-09T01:24:44.698Z","date":"2025-11-09","time":"01:24:44","cor_ans":true},{"trial_type":"html-keyboard-response","rt":null,"stimulus":"<p style=\"color: green; font-size: 50px; font-weight: bold;\">Correct</p>","response":null,"trial_index":172,"plugin_version":"2.1.0","time_elapsed":328809,"subject_id":"86706","group":"Group1","full_date":"2025-11-09T01:24:44.698Z","date":"2025-11-09","time":"01:24:44"},{"correct_response":"a","task":"test_phase","broad_category":"I","image_png":"I_Obsidian_06.png","image_id":86,"category_name":"Obsidian","category":6,"distinct_rating":8.01,"distinct_type":"Top","item_type":"Foil","rt":1069,"stimulus":"Stimuli_Rocks480/I_Obsidian_06.png","response":"a","trial_type":"image-keyboard-response","trial_index":173,"plugin_version":"2.1.0","time_elapsed":329881,"subject_id":"86706","group":"Group1","full_date":"2025-11-09T01:24:44.698Z","date":"2025-11-09","time":"01:24:44","cor_ans":true},{"trial_type":"html-keyboard-response","rt":null,"stimulus":"<p style=\"color: green; font-size: 50px; font-weight: bold;\">Correct</p>","response":null,"trial_index":174,"plugin_version":"2.1.0","time_elapsed":330393,"subject_id":"86706","group":"Group1","full_date":"2025-11-09T01:24:44.698Z","date":"2025-11-09","time":"01:24:44"},{"correct_response":"l","task":"test_phase","broad_category":"S","image_png":"S_Conglomerate_05.png","image_id":373,"category_name":"Conglomerate","category":24,"distinct_rating":7.32,"distinct_type":"Top","item_type":"Target","rt":949,"stimulus":"Stimuli_Rocks480/S_Conglomerate_05.png","response":"l","trial_type":"image-keyboard-response","trial_index":175,"plugin_version":"2.1.0","time_elapsed":331344,"subject_id":"86706","group":"Group1","full_date":"2025-11-09T01:24:44.698Z","date":"2025-11-09","time":"01:24:44","cor_ans":true},{"trial_type":"html-keyboard-response","rt":null,"stimulus":"<p style=\"color: green; font-size: 50px; font-weight: bold;\">Correct</p>","response":null,"trial_index":176,"plugin_version":"2.1.0","time_elapsed":331858,"subject_id":"86706","group":"Group1","full_date":"2025-11-09T01:24:44.698Z","date":"2025-11-09","time":"01:24:44"},{"correct_response":"a","task":"test_phase","broad_category":"S","image_png":"S_Conglomerate_14.png","image_id":382,"category_name":"Conglomerate","category":24,"distinct_rating":6.86,"distinct_type":"Top","item_type":"Foil","rt":1420,"stimulus":"Stimuli_Rocks480/S_Conglomerate_14.png","response":"a","trial_type":"image-keyboard-response","trial_index":177,"plugin_version":"2.1.0","time_elapsed":333280,"subject_id":"86706","group":"Group1","full_date":"2025-11-09T01:24:44.698Z","date":"2025-11-09","time":"01:24:44","cor_ans":true},{"trial_type":"html-keyboard-response","rt":null,"stimulus":"<p style=\"color: green; font-size: 50px; font-weight: bold;\">Correct</p>","response":null,"trial_index":178,"plugin_version":"2.1.0","time_elapsed":333783,"subject_id":"86706","group":"Group1","full_date":"2025-11-09T01:24:44.698Z","date":"2025-11-09","time":"01:24:44"},{"correct_response":"a","task":"test_phase","broad_category":"M","image_png":"M_Slate_04.png","image_id":308,"category_name":"Slate","category":20,"distinct_rating":2.2,"distinct_type":"Bottom","item_type":"Foil","rt":891,"stimulus":"Stimuli_Rocks480/M_Slate_04.png","response":"l","trial_type":"image-keyboard-response","trial_index":179,"plugin_version":"2.1.0","time_elapsed":334676,"subject_id":"86706","group":"Group1","full_date":"2025-11-09T01:24:44.698Z","date":"2025-11-09","time":"01:24:44","cor_ans":false},{"trial_type":"html-keyboard-response","rt":null,"stimulus":"<p style=\"color: red; font-size: 50px; font-weight: bold;\">Incorrect</p>","response":null,"trial_index":180,"plugin_version":"2.1.0","time_elapsed":335177,"subject_id":"86706","group":"Group1","full_date":"2025-11-09T01:24:44.698Z","date":"2025-11-09","time":"01:24:44"},{"correct_response":"l","task":"test_phase","broad_category":"M","image_png":"M_Slate_15.png","image_id":319,"category_name":"Slate","category":20,"distinct_rating":2.13,"distinct_type":"Bottom","item_type":"Target","rt":817,"stimulus":"Stimuli_Rocks480/M_Slate_15.png","response":"l","trial_type":"image-keyboard-response","trial_index":181,"plugin_version":"2.1.0","time_elapsed":335996,"subject_id":"86706","group":"Group1","full_date":"2025-11-09T01:24:44.698Z","date":"2025-11-09","time":"01:24:44","cor_ans":true},{"trial_type":"html-keyboard-response","rt":null,"stimulus":"<p style=\"color: green; font-size: 50px; font-weight: bold;\">Correct</p>","response":null,"trial_index":182,"plugin_version":"2.1.0","time_elapsed":336501,"subject_id":"86706","group":"Group1","full_date":"2025-11-09T01:24:44.698Z","date":"2025-11-09","time":"01:24:44"},{"correct_response":"l","task":"test_phase","broad_category":"I","image_png":"I_Pumice_12.png","image_id":140,"category_name":"Pumice","category":9,"distinct_rating":2.97,"distinct_type":"Bottom","item_type":"Target","rt":1178,"stimulus":"Stimuli_Rocks480/I_Pumice_12.png","response":"a","trial_type":"image-keyboard-response","trial_index":183,"plugin_version":"2.1.0","time_elapsed":337680,"subject_id":"86706","group":"Group1","full_date":"2025-11-09T01:24:44.698Z","date":"2025-11-09","time":"01:24:44","cor_ans":false},{"trial_type":"html-keyboard-response","rt":null,"stimulus":"<p style=\"color: red; font-size: 50px; font-weight: bold;\">Incorrect</p>","response":null,"trial_index":184,"plugin_version":"2.1.0","time_elapsed":338193,"subject_id":"86706","group":"Group1","full_date":"2025-11-09T01:24:44.698Z","date":"2025-11-09","time":"01:24:44"},{"correct_response":"l","task":"test_phase","broad_category":"I","image_png":"I_Andesite_08.png","image_id":8,"category_name":"Andesite","category":1,"distinct_rating":1.95,"distinct_type":"Bottom","item_type":"Target","rt":1653,"stimulus":"Stimuli_Rocks480/I_Andesite_08.png","response":"l","trial_type":"image-keyboard-response","trial_index":185,"plugin_version":"2.1.0","time_elapsed":339847,"subject_id":"86706","group":"Group1","full_date":"2025-11-09T01:24:44.698Z","date":"2025-11-09","time":"01:24:44","cor_ans":true},{"trial_type":"html-keyboard-response","rt":null,"stimulus":"<p style=\"color: green; font-size: 50px; font-weight: bold;\">Correct</p>","response":null,"trial_index":186,"plugin_version":"2.1.0","time_elapsed":340364,"subject_id":"86706","group":"Group1","full_date":"2025-11-09T01:24:44.698Z","date":"2025-11-09","time":"01:24:44"},{"correct_response":"a","task":"test_phase","broad_category":"I","image_png":"I_Andesite_09.png","image_id":9,"category_name":"Andesite","category":1,"distinct_rating":2.49,"distinct_type":"Bottom","item_type":"Foil","rt":1529,"stimulus":"Stimuli_Rocks480/I_Andesite_09.png","response":"l","trial_type":"image-keyboard-response","trial_index":187,"plugin_version":"2.1.0","time_elapsed":341894,"subject_id":"86706","group":"Group1","full_date":"2025-11-09T01:24:44.698Z","date":"2025-11-09","time":"01:24:44","cor_ans":false},{"trial_type":"html-keyboard-response","rt":null,"stimulus":"<p style=\"color: red; font-size: 50px; font-weight: bold;\">Incorrect</p>","response":null,"trial_index":188,"plugin_version":"2.1.0","time_elapsed":342398,"subject_id":"86706","group":"Group1","full_date":"2025-11-09T01:24:44.698Z","date":"2025-11-09","time":"01:24:44"},{"correct_response":"l","task":"test_phase","broad_category":"I","image_png":"I_Obsidian_05.png","image_id":85,"category_name":"Obsidian","category":6,"distinct_rating":7.32,"distinct_type":"Top","item_type":"Target","rt":1193,"stimulus":"Stimuli_Rocks480/I_Obsidian_05.png","response":"l","trial_type":"image-keyboard-response","trial_index":189,"plugin_version":"2.1.0","time_elapsed":343593,"subject_id":"86706","group":"Group1","full_date":"2025-11-09T01:24:44.698Z","date":"2025-11-09","time":"01:24:44","cor_ans":true},{"trial_type":"html-keyboard-response","rt":null,"stimulus":"<p style=\"color: green; font-size: 50px; font-weight: bold;\">Correct</p>","response":null,"trial_index":190,"plugin_version":"2.1.0","time_elapsed":344100,"subject_id":"86706","group":"Group1","full_date":"2025-11-09T01:24:44.698Z","date":"2025-11-09","time":"01:24:44"},{"correct_response":"a","task":"test_phase","broad_category":"I","image_png":"I_Andesite_04.png","image_id":4,"category_name":"Andesite","category":1,"distinct_rating":3.18,"distinct_type":"Bottom","item_type":"Foil","rt":2394,"stimulus":"Stimuli_Rocks480/I_Andesite_04.png","response":"a","trial_type":"image-keyboard-response","trial_index":191,"plugin_version":"2.1.0","time_elapsed":346496,"subject_id":"86706","group":"Group1","full_date":"2025-11-09T01:24:44.698Z","date":"2025-11-09","time":"01:24:44","cor_ans":true},{"trial_type":"html-keyboard-response","rt":null,"stimulus":"<p style=\"color: green; font-size: 50px; font-weight: bold;\">Correct</p>","response":null,"trial_index":192,"plugin_version":"2.1.0","time_elapsed":347000,"subject_id":"86706","group":"Group1","full_date":"2025-11-09T01:24:44.698Z","date":"2025-11-09","time":"01:24:44"},{"correct_response":"l","task":"test_phase","broad_category":"S","image_png":"S_Chert_10.png","image_id":362,"category_name":"Chert","category":23,"distinct_rating":7.17,"distinct_type":"Top","item_type":"Target","rt":1110,"stimulus":"Stimuli_Rocks480/S_Chert_10.png","response":"l","trial_type":"image-keyboard-response","trial_index":193,"plugin_version":"2.1.0","time_elapsed":348111,"subject_id":"86706","group":"Group1","full_date":"2025-11-09T01:24:44.698Z","date":"2025-11-09","time":"01:24:44","cor_ans":true},{"trial_type":"html-keyboard-response","rt":null,"stimulus":"<p style=\"color: green; font-size: 50px; font-weight: bold;\">Correct</p>","response":null,"trial_index":194,"plugin_version":"2.1.0","time_elapsed":348614,"subject_id":"86706","group":"Group1","full_date":"2025-11-09T01:24:44.698Z","date":"2025-11-09","time":"01:24:44"},{"correct_response":"l","task":"test_phase","broad_category":"I","image_png":"I_Basalt_02.png","image_id":18,"category_name":"Basalt","category":2,"distinct_rating":1.84,"distinct_type":"Bottom","item_type":"Target","rt":3062,"stimulus":"Stimuli_Rocks480/I_Basalt_02.png","response":"l","trial_type":"image-keyboard-response","trial_index":195,"plugin_version":"2.1.0","time_elapsed":351677,"subject_id":"86706","group":"Group1","full_date":"2025-11-09T01:24:44.698Z","date":"2025-11-09","time":"01:24:44","cor_ans":true},{"trial_type":"html-keyboard-response","rt":null,"stimulus":"<p style=\"color: green; font-size: 50px; font-weight: bold;\">Correct</p>","response":null,"trial_index":196,"plugin_version":"2.1.0","time_elapsed":352182,"subject_id":"86706","group":"Group1","full_date":"2025-11-09T01:24:44.698Z","date":"2025-11-09","time":"01:24:44"},{"correct_response":"l","task":"test_phase","broad_category":"S","image_png":"S_Sandstone_03.png","image_id":451,"category_name":"Sandstone","category":29,"distinct_rating":1.86,"distinct_type":"Bottom","item_type":"Target","rt":769,"stimulus":"Stimuli_Rocks480/S_Sandstone_03.png","response":"l","trial_type":"image-keyboard-response","trial_index":197,"plugin_version":"2.1.0","time_elapsed":352953,"subject_id":"86706","group":"Group1","full_date":"2025-11-09T01:24:44.698Z","date":"2025-11-09","time":"01:24:44","cor_ans":true},{"trial_type":"html-keyboard-response","rt":null,"stimulus":"<p style=\"color: green; font-size: 50px; font-weight: bold;\">Correct</p>","response":null,"trial_index":198,"plugin_version":"2.1.0","time_elapsed":353466,"subject_id":"86706","group":"Group1","full_date":"2025-11-09T01:24:44.698Z","date":"2025-11-09","time":"01:24:44"},{"correct_response":"l","task":"test_phase","broad_category":"M","image_png":"M_Gneiss_05.png","image_id":197,"category_name":"Gneiss","category":13,"distinct_rating":2.97,"distinct_type":"Bottom","item_type":"Target","rt":1039,"stimulus":"Stimuli_Rocks480/M_Gneiss_05.png","response":"l","trial_type":"image-keyboard-response","trial_index":199,"plugin_version":"2.1.0","time_elapsed":354507,"subject_id":"86706","group":"Group1","full_date":"2025-11-09T01:24:44.698Z","date":"2025-11-09","time":"01:24:44","cor_ans":true},{"trial_type":"html-keyboard-response","rt":null,"stimulus":"<p style=\"color: green; font-size: 50px; font-weight: bold;\">Correct</p>","response":null,"trial_index":200,"plugin_version":"2.1.0","time_elapsed":355020,"subject_id":"86706","group":"Group1","full_date":"2025-11-09T01:24:44.698Z","date":"2025-11-09","time":"01:24:44"},{"correct_response":"a","task":"test_phase","broad_category":"I","image_png":"I_Basalt_13.png","image_id":29,"category_name":"Basalt","category":2,"distinct_rating":2.68,"distinct_type":"Bottom","item_type":"Foil","rt":1004,"stimulus":"Stimuli_Rocks480/I_Basalt_13.png","response":"a","trial_type":"image-keyboard-response","trial_index":201,"plugin_version":"2.1.0","time_elapsed":356025,"subject_id":"86706","group":"Group1","full_date":"2025-11-09T01:24:44.698Z","date":"2025-11-09","time":"01:24:44","cor_ans":true},{"trial_type":"html-keyboard-response","rt":null,"stimulus":"<p style=\"color: green; font-size: 50px; font-weight: bold;\">Correct</p>","response":null,"trial_index":202,"plugin_version":"2.1.0","time_elapsed":356527,"subject_id":"86706","group":"Group1","full_date":"2025-11-09T01:24:44.698Z","date":"2025-11-09","time":"01:24:44"},{"correct_response":"l","task":"test_phase","broad_category":"M","image_png":"M_Quartzite_05.png","image_id":277,"category_name":"Quartzite","category":18,"distinct_rating":2.23,"distinct_type":"Bottom","item_type":"Target","rt":1826,"stimulus":"Stimuli_Rocks480/M_Quartzite_05.png","response":"a","trial_type":"image-keyboard-response","trial_index":203,"plugin_version":"2.1.0","time_elapsed":358355,"subject_id":"86706","group":"Group1","full_date":"2025-11-09T01:24:44.698Z","date":"2025-11-09","time":"01:24:44","cor_ans":false},{"trial_type":"html-keyboard-response","rt":null,"stimulus":"<p style=\"color: red; font-size: 50px; font-weight: bold;\">Incorrect</p>","response":null,"trial_index":204,"plugin_version":"2.1.0","time_elapsed":358859,"subject_id":"86706","group":"Group1","full_date":"2025-11-09T01:24:44.698Z","date":"2025-11-09","time":"01:24:44"},{"correct_response":"a","task":"test_phase","broad_category":"I","image_png":"I_Gabbro_12.png","image_id":60,"category_name":"Gabbro","category":4,"distinct_rating":2.6,"distinct_type":"Bottom","item_type":"Foil","rt":910,"stimulus":"Stimuli_Rocks480/I_Gabbro_12.png","response":"a","trial_type":"image-keyboard-response","trial_index":205,"plugin_version":"2.1.0","time_elapsed":359771,"subject_id":"86706","group":"Group1","full_date":"2025-11-09T01:24:44.698Z","date":"2025-11-09","time":"01:24:44","cor_ans":true},{"trial_type":"html-keyboard-response","rt":null,"stimulus":"<p style=\"color: green; font-size: 50px; font-weight: bold;\">Correct</p>","response":null,"trial_index":206,"plugin_version":"2.1.0","time_elapsed":360277,"subject_id":"86706","group":"Group1","full_date":"2025-11-09T01:24:44.698Z","date":"2025-11-09","time":"01:24:44"},{"correct_response":"l","task":"test_phase","broad_category":"I","image_png":"I_Diorite_03.png","image_id":35,"category_name":"Diorite","category":3,"distinct_rating":3.14,"distinct_type":"Bottom","item_type":"Target","rt":764,"stimulus":"Stimuli_Rocks480/I_Diorite_03.png","response":"l","trial_type":"image-keyboard-response","trial_index":207,"plugin_version":"2.1.0","time_elapsed":361042,"subject_id":"86706","group":"Group1","full_date":"2025-11-09T01:24:44.698Z","date":"2025-11-09","time":"01:24:44","cor_ans":true},{"trial_type":"html-keyboard-response","rt":null,"stimulus":"<p style=\"color: green; font-size: 50px; font-weight: bold;\">Correct</p>","response":null,"trial_index":208,"plugin_version":"2.1.0","time_elapsed":361551,"subject_id":"86706","group":"Group1","full_date":"2025-11-09T01:24:44.698Z","date":"2025-11-09","time":"01:24:44"},{"correct_response":"l","task":"test_phase","broad_category":"M","image_png":"M_Slate_03.png","image_id":307,"category_name":"Slate","category":20,"distinct_rating":1.87,"distinct_type":"Bottom","item_type":"Target","rt":1159,"stimulus":"Stimuli_Rocks480/M_Slate_03.png","response":"l","trial_type":"image-keyboard-response","trial_index":209,"plugin_version":"2.1.0","time_elapsed":362713,"subject_id":"86706","group":"Group1","full_date":"2025-11-09T01:24:44.698Z","date":"2025-11-09","time":"01:24:44","cor_ans":true},{"trial_type":"html-keyboard-response","rt":null,"stimulus":"<p style=\"color: green; font-size: 50px; font-weight: bold;\">Correct</p>","response":null,"trial_index":210,"plugin_version":"2.1.0","time_elapsed":363216,"subject_id":"86706","group":"Group1","full_date":"2025-11-09T01:24:44.698Z","date":"2025-11-09","time":"01:24:44"},{"correct_response":"l","task":"test_phase","broad_category":"I","image_png":"I_Rhyolite_11.png","image_id":155,"category_name":"Rhyolite","category":10,"distinct_rating":1.73,"distinct_type":"Bottom","item_type":"Target","rt":1212,"stimulus":"Stimuli_Rocks480/I_Rhyolite_11.png","response":"l","trial_type":"image-keyboard-response","trial_index":211,"plugin_version":"2.1.0","time_elapsed":364430,"subject_id":"86706","group":"Group1","full_date":"2025-11-09T01:24:44.698Z","date":"2025-11-09","time":"01:24:44","cor_ans":true},{"trial_type":"html-keyboard-response","rt":null,"stimulus":"<p style=\"color: green; font-size: 50px; font-weight: bold;\">Correct</p>","response":null,"trial_index":212,"plugin_version":"2.1.0","time_elapsed":364943,"subject_id":"86706","group":"Group1","full_date":"2025-11-09T01:24:44.698Z","date":"2025-11-09","time":"01:24:44"},{"correct_response":"a","task":"test_phase","broad_category":"S","image_png":"S_Shale_02.png","image_id":466,"category_name":"Shale","category":30,"distinct_rating":2.9,"distinct_type":"Bottom","item_type":"Foil","rt":1201,"stimulus":"Stimuli_Rocks480/S_Shale_02.png","response":"a","trial_type":"image-keyboard-response","trial_index":213,"plugin_version":"2.1.0","time_elapsed":366146,"subject_id":"86706","group":"Group1","full_date":"2025-11-09T01:24:44.698Z","date":"2025-11-09","time":"01:24:44","cor_ans":true},{"trial_type":"html-keyboard-response","rt":null,"stimulus":"<p style=\"color: green; font-size: 50px; font-weight: bold;\">Correct</p>","response":null,"trial_index":214,"plugin_version":"2.1.0","time_elapsed":366666,"subject_id":"86706","group":"Group1","full_date":"2025-11-09T01:24:44.698Z","date":"2025-11-09","time":"01:24:44"},{"correct_response":"l","task":"test_phase","broad_category":"M","image_png":"M_Gneiss_06.png","image_id":198,"category_name":"Gneiss","category":13,"distinct_rating":2.65,"distinct_type":"Bottom","item_type":"Target","rt":1662,"stimulus":"Stimuli_Rocks480/M_Gneiss_06.png","response":"l","trial_type":"image-keyboard-response","trial_index":215,"plugin_version":"2.1.0","time_elapsed":368329,"subject_id":"86706","group":"Group1","full_date":"2025-11-09T01:24:44.698Z","date":"2025-11-09","time":"01:24:44","cor_ans":true},{"trial_type":"html-keyboard-response","rt":null,"stimulus":"<p style=\"color: green; font-size: 50px; font-weight: bold;\">Correct</p>","response":null,"trial_index":216,"plugin_version":"2.1.0","time_elapsed":368833,"subject_id":"86706","group":"Group1","full_date":"2025-11-09T01:24:44.698Z","date":"2025-11-09","time":"01:24:44"},{"correct_response":"a","task":"test_phase","broad_category":"M","image_png":"M_Quartzite_07.png","image_id":279,"category_name":"Quartzite","category":18,"distinct_rating":1.97,"distinct_type":"Bottom","item_type":"Foil","rt":1463,"stimulus":"Stimuli_Rocks480/M_Quartzite_07.png","response":"a","trial_type":"image-keyboard-response","trial_index":217,"plugin_version":"2.1.0","time_elapsed":370297,"subject_id":"86706","group":"Group1","full_date":"2025-11-09T01:24:44.698Z","date":"2025-11-09","time":"01:24:44","cor_ans":true},{"trial_type":"html-keyboard-response","rt":null,"stimulus":"<p style=\"color: green; font-size: 50px; font-weight: bold;\">Correct</p>","response":null,"trial_index":218,"plugin_version":"2.1.0","time_elapsed":370803,"subject_id":"86706","group":"Group1","full_date":"2025-11-09T01:24:44.698Z","date":"2025-11-09","time":"01:24:44"},{"correct_response":"l","task":"test_phase","broad_category":"I","image_png":"I_Gabbro_08.png","image_id":56,"category_name":"Gabbro","category":4,"distinct_rating":3.02,"distinct_type":"Bottom","item_type":"Target","rt":3367,"stimulus":"Stimuli_Rocks480/I_Gabbro_08.png","response":"a","trial_type":"image-keyboard-response","trial_index":219,"plugin_version":"2.1.0","time_elapsed":374180,"subject_id":"86706","group":"Group1","full_date":"2025-11-09T01:24:44.698Z","date":"2025-11-09","time":"01:24:44","cor_ans":false},{"trial_type":"html-keyboard-response","rt":null,"stimulus":"<p style=\"color: red; font-size: 50px; font-weight: bold;\">Incorrect</p>","response":null,"trial_index":220,"plugin_version":"2.1.0","time_elapsed":374694,"subject_id":"86706","group":"Group1","full_date":"2025-11-09T01:24:44.698Z","date":"2025-11-09","time":"01:24:44"},{"correct_response":"a","task":"test_phase","broad_category":"M","image_png":"M_Gneiss_15.png","image_id":207,"category_name":"Gneiss","category":13,"distinct_rating":3.11,"distinct_type":"Bottom","item_type":"Foil","rt":705,"stimulus":"Stimuli_Rocks480/M_Gneiss_15.png","response":"l","trial_type":"image-keyboard-response","trial_index":221,"plugin_version":"2.1.0","time_elapsed":375401,"subject_id":"86706","group":"Group1","full_date":"2025-11-09T01:24:44.698Z","date":"2025-11-09","time":"01:24:44","cor_ans":false},{"trial_type":"html-keyboard-response","rt":null,"stimulus":"<p style=\"color: red; font-size: 50px; font-weight: bold;\">Incorrect</p>","response":null,"trial_index":222,"plugin_version":"2.1.0","time_elapsed":375913,"subject_id":"86706","group":"Group1","full_date":"2025-11-09T01:24:44.698Z","date":"2025-11-09","time":"01:24:44"},{"correct_response":"l","task":"test_phase","broad_category":"S","image_png":"S_Dolomite_14.png","image_id":398,"category_name":"Dolomite","category":25,"distinct_rating":1.43,"distinct_type":"Bottom","item_type":"Target","rt":2058,"stimulus":"Stimuli_Rocks480/S_Dolomite_14.png","response":"l","trial_type":"image-keyboard-response","trial_index":223,"plugin_version":"2.1.0","time_elapsed":377973,"subject_id":"86706","group":"Group1","full_date":"2025-11-09T01:24:44.698Z","date":"2025-11-09","time":"01:24:44","cor_ans":true},{"trial_type":"html-keyboard-response","rt":null,"stimulus":"<p style=\"color: green; font-size: 50px; font-weight: bold;\">Correct</p>","response":null,"trial_index":224,"plugin_version":"2.1.0","time_elapsed":378483,"subject_id":"86706","group":"Group1","full_date":"2025-11-09T01:24:44.698Z","date":"2025-11-09","time":"01:24:44"},{"correct_response":"a","task":"test_phase","broad_category":"I","image_png":"I_Rhyolite_05.png","image_id":149,"category_name":"Rhyolite","category":10,"distinct_rating":3.02,"distinct_type":"Bottom","item_type":"Foil","rt":1013,"stimulus":"Stimuli_Rocks480/I_Rhyolite_05.png","response":"a","trial_type":"image-keyboard-response","trial_index":225,"plugin_version":"2.1.0","time_elapsed":379497,"subject_id":"86706","group":"Group1","full_date":"2025-11-09T01:24:44.698Z","date":"2025-11-09","time":"01:24:44","cor_ans":true},{"trial_type":"html-keyboard-response","rt":null,"stimulus":"<p style=\"color: green; font-size: 50px; font-weight: bold;\">Correct</p>","response":null,"trial_index":226,"plugin_version":"2.1.0","time_elapsed":380006,"subject_id":"86706","group":"Group1","full_date":"2025-11-09T01:24:44.698Z","date":"2025-11-09","time":"01:24:44"},{"correct_response":"l","task":"test_phase","broad_category":"S","image_png":"S_Sandstone_15.png","image_id":463,"category_name":"Sandstone","category":29,"distinct_rating":2,"distinct_type":"Bottom","item_type":"Target","rt":997,"stimulus":"Stimuli_Rocks480/S_Sandstone_15.png","response":"l","trial_type":"image-keyboard-response","trial_index":227,"plugin_version":"2.1.0","time_elapsed":381005,"subject_id":"86706","group":"Group1","full_date":"2025-11-09T01:24:44.698Z","date":"2025-11-09","time":"01:24:44","cor_ans":true},{"trial_type":"html-keyboard-response","rt":null,"stimulus":"<p style=\"color: green; font-size: 50px; font-weight: bold;\">Correct</p>","response":null,"trial_index":228,"plugin_version":"2.1.0","time_elapsed":381512,"subject_id":"86706","group":"Group1","full_date":"2025-11-09T01:24:44.698Z","date":"2025-11-09","time":"01:24:44"},{"correct_response":"a","task":"test_phase","broad_category":"S","image_png":"S_Rock Salt_15.png","image_id":447,"category_name":"Rock Salt","category":28,"distinct_rating":7.79,"distinct_type":"Top","item_type":"Foil","rt":1316,"stimulus":"Stimuli_Rocks480/S_Rock Salt_15.png","response":"a","trial_type":"image-keyboard-response","trial_index":229,"plugin_version":"2.1.0","time_elapsed":382829,"subject_id":"86706","group":"Group1","full_date":"2025-11-09T01:24:44.698Z","date":"2025-11-09","time":"01:24:44","cor_ans":true},{"trial_type":"html-keyboard-response","rt":null,"stimulus":"<p style=\"color: green; font-size: 50px; font-weight: bold;\">Correct</p>","response":null,"trial_index":230,"plugin_version":"2.1.0","time_elapsed":383333,"subject_id":"86706","group":"Group1","full_date":"2025-11-09T01:24:44.698Z","date":"2025-11-09","time":"01:24:44"},{"correct_response":"a","task":"test_phase","broad_category":"I","image_png":"I_Diorite_15.png","image_id":47,"category_name":"Diorite","category":3,"distinct_rating":3.05,"distinct_type":"Bottom","item_type":"Foil","rt":821,"stimulus":"Stimuli_Rocks480/I_Diorite_15.png","response":"l","trial_type":"image-keyboard-response","trial_index":231,"plugin_version":"2.1.0","time_elapsed":384155,"subject_id":"86706","group":"Group1","full_date":"2025-11-09T01:24:44.698Z","date":"2025-11-09","time":"01:24:44","cor_ans":false},{"trial_type":"html-keyboard-response","rt":null,"stimulus":"<p style=\"color: red; font-size: 50px; font-weight: bold;\">Incorrect</p>","response":null,"trial_index":232,"plugin_version":"2.1.0","time_elapsed":384667,"subject_id":"86706","group":"Group1","full_date":"2025-11-09T01:24:44.698Z","date":"2025-11-09","time":"01:24:44"},{"correct_response":"a","task":"test_phase","broad_category":"M","image_png":"M_Quartzite_15.png","image_id":287,"category_name":"Quartzite","category":18,"distinct_rating":2.19,"distinct_type":"Bottom","item_type":"Foil","rt":649,"stimulus":"Stimuli_Rocks480/M_Quartzite_15.png","response":"l","trial_type":"image-keyboard-response","trial_index":233,"plugin_version":"2.1.0","time_elapsed":385318,"subject_id":"86706","group":"Group1","full_date":"2025-11-09T01:24:44.698Z","date":"2025-11-09","time":"01:24:44","cor_ans":false},{"trial_type":"html-keyboard-response","rt":null,"stimulus":"<p style=\"color: red; font-size: 50px; font-weight: bold;\">Incorrect</p>","response":null,"trial_index":234,"plugin_version":"2.1.0","time_elapsed":385834,"subject_id":"86706","group":"Group1","full_date":"2025-11-09T01:24:44.698Z","date":"2025-11-09","time":"01:24:44"},{"correct_response":"a","task":"test_phase","broad_category":"S","image_png":"S_Chert_13.png","image_id":365,"category_name":"Chert","category":23,"distinct_rating":6.57,"distinct_type":"Top","item_type":"Foil","rt":857,"stimulus":"Stimuli_Rocks480/S_Chert_13.png","response":"a","trial_type":"image-keyboard-response","trial_index":235,"plugin_version":"2.1.0","time_elapsed":386692,"subject_id":"86706","group":"Group1","full_date":"2025-11-09T01:24:44.698Z","date":"2025-11-09","time":"01:24:44","cor_ans":true},{"trial_type":"html-ke