[{"width":1470,"height":831,"webaudio":true,"browser":"chrome","browser_version":"140.0.0","mobile":false,"os":"Mac OS","fullscreen":true,"vsync_rate":60.47,"webcam":true,"microphone":true,"trial_type":"browser-check","trial_index":0,"plugin_version":"2.1.0","time_elapsed":1005,"subject_id":"87768","group":"Group1","full_date":"2025-11-09T02:39:40.475Z","date":"2025-11-09","time":"02:39:40"},{"success":true,"timeout":false,"failed_images":[],"failed_audio":[],"failed_video":[],"trial_type":"preload","trial_index":1,"plugin_version":"2.1.0","time_elapsed":2428,"subject_id":"87768","group":"Group1","full_date":"2025-11-09T02:39:40.475Z","date":"2025-11-09","time":"02:39:40"},{"rt":3422,"url":"SONA_consent_memorability.html","trial_type":"external-html","trial_index":2,"plugin_version":"2.1.0","time_elapsed":5901,"subject_id":"87768","group":"Group1","full_date":"2025-11-09T02:39:40.475Z","date":"2025-11-09","time":"02:39:40"},{"success":true,"rt":1316,"trial_type":"fullscreen","trial_index":3,"plugin_version":"2.1.0","time_elapsed":8220,"subject_id":"87768","group":"Group1","full_date":"2025-11-09T02:39:40.475Z","date":"2025-11-09","time":"02:39:40"},{"rt":1563,"stimulus":"<div style=\"max-width: 760px; margin: auto; font-size: 20px; line-height: 1.5;\">\n      <h1 style=\"text-align:center; font-size: 30px;\">Instructions</h1>\n      <p>\n        Welcome to the study on <b>visual memory</b>. This experiment consists of <b>two phases</b>: \n        a <b>study phase</b> and a <b>test phase</b>.\n      </p>\n      <p>\n        In the study phase, you will see a series of rock images along with their category labels.\n        The images will appear one at a time.\n        <b>Your task</b> is to learn the categories to which the rock images belong \n        and to remember each image as accurately as possible.\n      </p> \n      <p>\n        After the study phase, <b>your memory will be tested</b>. \n        Additional instructions for the test phase will be provided at that time.\n      </p>\n      <p>\n        If your computer has multiple <b>language settings</b> (e.g., English and another language),\n        please make sure it is set to English before starting.\n      </p>\n      <p>\n        You can track your progress using the <b>completion bar</b> at the top of the screen. \n        Please note that the bar will refresh when the test phase begins \n        to give you an accurate sense of your progress in both phases.\n      </p> \n      <p>\n        Press the button below when you are ready to begin.\n      </p>\n    </div>","response":0,"trial_type":"html-button-response","trial_index":4,"plugin_version":"2.1.0","time_elapsed":9784,"subject_id":"87768","group":"Group1","full_date":"2025-11-09T02:39:40.475Z","date":"2025-11-09","time":"02:39:40"},{"rt":null,"stimulus":"<p style=\"font-size: 50px; margin: 0; text-align: center;\">+</p>","response":null,"trial_type":"html-keyboard-response","trial_index":5,"plugin_version":"2.1.0","time_elapsed":10786,"subject_id":"87768","group":"Group1","full_date":"2025-11-09T02:39:40.475Z","date":"2025-11-09","time":"02:39:40"},{"task":"memory_phase","broad_category":"I","image_png":"I_Basalt_02.png","image_id":18,"category_name":"Basalt","category":2,"distinct_rating":1.84,"distinct_type":"Bottom","rt":null,"stimulus":"Stimuli_Rocks480/I_Basalt_02.png","response":null,"trial_type":"image-keyboard-response","trial_index":6,"plugin_version":"2.1.0","time_elapsed":13291,"subject_id":"87768","group":"Group1","full_date":"2025-11-09T02:39:40.475Z","date":"2025-11-09","time":"02:39:40"},{"rt":null,"stimulus":"<p style=\"font-size: 50px; margin: 0; text-align: center;\">+</p>","response":null,"trial_type":"html-keyboard-response","trial_index":7,"plugin_version":"2.1.0","time_elapsed":14294,"subject_id":"87768","group":"Group1","full_date":"2025-11-09T02:39:40.475Z","date":"2025-11-09","time":"02:39:40"},{"task":"memory_phase","broad_category":"I","image_png":"I_Pumice_08.png","image_id":136,"category_name":"Pumice","category":9,"distinct_rating":3.1,"distinct_type":"Bottom","rt":null,"stimulus":"Stimuli_Rocks480/I_Pumice_08.png","response":null,"trial_type":"image-keyboard-response","trial_index":8,"plugin_version":"2.1.0","time_elapsed":16797,"subject_id":"87768","group":"Group1","full_date":"2025-11-09T02:39:40.475Z","date":"2025-11-09","time":"02:39:40"},{"rt":null,"stimulus":"<p style=\"font-size: 50px; margin: 0; text-align: center;\">+</p>","response":null,"trial_type":"html-keyboard-response","trial_index":9,"plugin_version":"2.1.0","time_elapsed":17800,"subject_id":"87768","group":"Group1","full_date":"2025-11-09T02:39:40.475Z","date":"2025-11-09","time":"02:39:40"},{"task":"memory_phase","broad_category":"S","image_png":"S_Sandstone_03.png","image_id":451,"category_name":"Sandstone","category":29,"distinct_rating":1.86,"distinct_type":"Bottom","rt":null,"stimulus":"Stimuli_Rocks480/S_Sandstone_03.png","response":null,"trial_type":"image-keyboard-response","trial_index":10,"plugin_version":"2.1.0","time_elapsed":20304,"subject_id":"87768","group":"Group1","full_date":"2025-11-09T02:39:40.475Z","date":"2025-11-09","time":"02:39:40"},{"rt":null,"stimulus":"<p style=\"font-size: 50px; margin: 0; text-align: center;\">+</p>","response":null,"trial_type":"html-keyboard-response","trial_index":11,"plugin_version":"2.1.0","time_elapsed":21306,"subject_id":"87768","group":"Group1","full_date":"2025-11-09T02:39:40.475Z","date":"2025-11-09","time":"02:39:40"},{"task":"memory_phase","broad_category":"I","image_png":"I_Gabbro_08.png","image_id":56,"category_name":"Gabbro","category":4,"distinct_rating":3.02,"distinct_type":"Bottom","rt":null,"stimulus":"Stimuli_Rocks480/I_Gabbro_08.png","response":null,"trial_type":"image-keyboard-response","trial_index":12,"plugin_version":"2.1.0","time_elapsed":23809,"subject_id":"87768","group":"Group1","full_date":"2025-11-09T02:39:40.475Z","date":"2025-11-09","time":"02:39:40"},{"rt":null,"stimulus":"<p style=\"font-size: 50px; margin: 0; text-align: center;\">+</p>","response":null,"trial_type":"html-keyboard-response","trial_index":13,"plugin_version":"2.1.0","time_elapsed":24811,"subject_id":"87768","group":"Group1","full_date":"2025-11-09T02:39:40.475Z","date":"2025-11-09","time":"02:39:40"},{"task":"memory_phase","broad_category":"S","image_png":"S_Chert_10.png","image_id":362,"category_name":"Chert","category":23,"distinct_rating":7.17,"distinct_type":"Top","rt":null,"stimulus":"Stimuli_Rocks480/S_Chert_10.png","response":null,"trial_type":"image-keyboard-response","trial_index":14,"plugin_version":"2.1.0","time_elapsed":27314,"subject_id":"87768","group":"Group1","full_date":"2025-11-09T02:39:40.475Z","date":"2025-11-09","time":"02:39:40"},{"rt":null,"stimulus":"<p style=\"font-size: 50px; margin: 0; text-align: center;\">+</p>","response":null,"trial_type":"html-keyboard-response","trial_index":15,"plugin_version":"2.1.0","time_elapsed":28317,"subject_id":"87768","group":"Group1","full_date":"2025-11-09T02:39:40.475Z","date":"2025-11-09","time":"02:39:40"},{"task":"memory_phase","broad_category":"I","image_png":"I_Basalt_09.png","image_id":25,"category_name":"Basalt","category":2,"distinct_rating":1.89,"distinct_type":"Bottom","rt":null,"stimulus":"Stimuli_Rocks480/I_Basalt_09.png","response":null,"trial_type":"image-keyboard-response","trial_index":16,"plugin_version":"2.1.0","time_elapsed":30820,"subject_id":"87768","group":"Group1","full_date":"2025-11-09T02:39:40.475Z","date":"2025-11-09","time":"02:39:40"},{"rt":null,"stimulus":"<p style=\"font-size: 50px; margin: 0; text-align: center;\">+</p>","response":null,"trial_type":"html-keyboard-response","trial_index":17,"plugin_version":"2.1.0","time_elapsed":31822,"subject_id":"87768","group":"Group1","full_date":"2025-11-09T02:39:40.475Z","date":"2025-11-09","time":"02:39:40"},{"task":"memory_phase","broad_category":"S","image_png":"S_Sandstone_16.png","image_id":464,"category_name":"Sandstone","category":29,"distinct_rating":1.93,"distinct_type":"Bottom","rt":null,"stimulus":"Stimuli_Rocks480/S_Sandstone_16.png","response":null,"trial_type":"image-keyboard-response","trial_index":18,"plugin_version":"2.1.0","time_elapsed":34325,"subject_id":"87768","group":"Group1","full_date":"2025-11-09T02:39:40.475Z","date":"2025-11-09","time":"02:39:40"},{"rt":null,"stimulus":"<p style=\"font-size: 50px; margin: 0; text-align: center;\">+</p>","response":null,"trial_type":"html-keyboard-response","trial_index":19,"plugin_version":"2.1.0","time_elapsed":35328,"subject_id":"87768","group":"Group1","full_date":"2025-11-09T02:39:40.475Z","date":"2025-11-09","time":"02:39:40"},{"task":"memory_phase","broad_category":"M","image_png":"M_Marble_06.png","image_id":230,"category_name":"Marble","category":15,"distinct_rating":3.4,"distinct_type":"Bottom","rt":null,"stimulus":"Stimuli_Rocks480/M_Marble_06.png","response":null,"trial_type":"image-keyboard-response","trial_index":20,"plugin_version":"2.1.0","time_elapsed":37830,"subject_id":"87768","group":"Group1","full_date":"2025-11-09T02:39:40.475Z","date":"2025-11-09","time":"02:39:40"},{"rt":null,"stimulus":"<p style=\"font-size: 50px; margin: 0; text-align: center;\">+</p>","response":null,"trial_type":"html-keyboard-response","trial_index":21,"plugin_version":"2.1.0","time_elapsed":38833,"subject_id":"87768","group":"Group1","full_date":"2025-11-09T02:39:40.475Z","date":"2025-11-09","time":"02:39:40"},{"task":"memory_phase","broad_category":"I","image_png":"I_Diorite_04.png","image_id":36,"category_name":"Diorite","category":3,"distinct_rating":2.98,"distinct_type":"Bottom","rt":null,"stimulus":"Stimuli_Rocks480/I_Diorite_04.png","response":null,"trial_type":"image-keyboard-response","trial_index":22,"plugin_version":"2.1.0","time_elapsed":41336,"subject_id":"87768","group":"Group1","full_date":"2025-11-09T02:39:40.475Z","date":"2025-11-09","time":"02:39:40"},{"rt":null,"stimulus":"<p style=\"font-size: 50px; margin: 0; text-align: center;\">+</p>","response":null,"trial_type":"html-keyboard-response","trial_index":23,"plugin_version":"2.1.0","time_elapsed":42339,"subject_id":"87768","group":"Group1","full_date":"2025-11-09T02:39:40.475Z","date":"2025-11-09","time":"02:39:40"},{"task":"memory_phase","broad_category":"I","image_png":"I_Diorite_03.png","image_id":35,"category_name":"Diorite","category":3,"distinct_rating":3.14,"distinct_type":"Bottom","rt":null,"stimulus":"Stimuli_Rocks480/I_Diorite_03.png","response":null,"trial_type":"image-keyboard-response","trial_index":24,"plugin_version":"2.1.0","time_elapsed":44842,"subject_id":"87768","group":"Group1","full_date":"2025-11-09T02:39:40.475Z","date":"2025-11-09","time":"02:39:40"},{"rt":null,"stimulus":"<p style=\"font-size: 50px; margin: 0; text-align: center;\">+</p>","response":null,"trial_type":"html-keyboard-response","trial_index":25,"plugin_version":"2.1.0","time_elapsed":45844,"subject_id":"87768","group":"Group1","full_date":"2025-11-09T02:39:40.475Z","date":"2025-11-09","time":"02:39:40"},{"task":"memory_phase","broad_category":"M","image_png":"M_Marble_16.png","image_id":240,"category_name":"Marble","category":15,"distinct_rating":2.57,"distinct_type":"Bottom","rt":null,"stimulus":"Stimuli_Rocks480/M_Marble_16.png","response":null,"trial_type":"image-keyboard-response","trial_index":26,"plugin_version":"2.1.0","time_elapsed":48347,"subject_id":"87768","group":"Group1","full_date":"2025-11-09T02:39:40.475Z","date":"2025-11-09","time":"02:39:40"},{"rt":null,"stimulus":"<p style=\"font-size: 50px; margin: 0; text-align: center;\">+</p>","response":null,"trial_type":"html-keyboard-response","trial_index":27,"plugin_version":"2.1.0","time_elapsed":49349,"subject_id":"87768","group":"Group1","full_date":"2025-11-09T02:39:40.475Z","date":"2025-11-09","time":"02:39:40"},{"task":"memory_phase","broad_category":"M","image_png":"M_Slate_03.png","image_id":307,"category_name":"Slate","category":20,"distinct_rating":1.87,"distinct_type":"Bottom","rt":null,"stimulus":"Stimuli_Rocks480/M_Slate_03.png","response":null,"trial_type":"image-keyboard-response","trial_index":28,"plugin_version":"2.1.0","time_elapsed":51852,"subject_id":"87768","group":"Group1","full_date":"2025-11-09T02:39:40.475Z","date":"2025-11-09","time":"02:39:40"},{"rt":null,"stimulus":"<p style=\"font-size: 50px; margin: 0; text-align: center;\">+</p>","response":null,"trial_type":"html-keyboard-response","trial_index":29,"plugin_version":"2.1.0","time_elapsed":52854,"subject_id":"87768","group":"Group1","full_date":"2025-11-09T02:39:40.475Z","date":"2025-11-09","time":"02:39:40"},{"task":"memory_phase","broad_category":"I","image_png":"I_Pegmatite_10.png","image_id":106,"category_name":"Pegmatite","category":7,"distinct_rating":7.66,"distinct_type":"Top","rt":null,"stimulus":"Stimuli_Rocks480/I_Pegmatite_10.png","response":null,"trial_type":"image-keyboard-response","trial_index":30,"plugin_version":"2.1.0","time_elapsed":55357,"subject_id":"87768","group":"Group1","full_date":"2025-11-09T02:39:40.475Z","date":"2025-11-09","time":"02:39:40"},{"rt":null,"stimulus":"<p style=\"font-size: 50px; margin: 0; text-align: center;\">+</p>","response":null,"trial_type":"html-keyboard-response","trial_index":31,"plugin_version":"2.1.0","time_elapsed":56360,"subject_id":"87768","group":"Group1","full_date":"2025-11-09T02:39:40.475Z","date":"2025-11-09","time":"02:39:40"},{"task":"memory_phase","broad_category":"I","image_png":"I_Andesite_08.png","image_id":8,"category_name":"Andesite","category":1,"distinct_rating":1.95,"distinct_type":"Bottom","rt":null,"stimulus":"Stimuli_Rocks480/I_Andesite_08.png","response":null,"trial_type":"image-keyboard-response","trial_index":32,"plugin_version":"2.1.0","time_elapsed":58868,"subject_id":"87768","group":"Group1","full_date":"2025-11-09T02:39:40.475Z","date":"2025-11-09","time":"02:39:40"},{"rt":null,"stimulus":"<p style=\"font-size: 50px; margin: 0; text-align: center;\">+</p>","response":null,"trial_type":"html-keyboard-response","trial_index":33,"plugin_version":"2.1.0","time_elapsed":59870,"subject_id":"87768","group":"Group1","full_date":"2025-11-09T02:39:40.475Z","date":"2025-11-09","time":"02:39:40"},{"task":"memory_phase","broad_category":"M","image_png":"M_Gneiss_13.png","image_id":205,"category_name":"Gneiss","category":13,"distinct_rating":3.26,"distinct_type":"Bottom","rt":null,"stimulus":"Stimuli_Rocks480/M_Gneiss_13.png","response":null,"trial_type":"image-keyboard-response","trial_index":34,"plugin_version":"2.1.0","time_elapsed":62373,"subject_id":"87768","group":"Group1","full_date":"2025-11-09T02:39:40.475Z","date":"2025-11-09","time":"02:39:40"},{"rt":null,"stimulus":"<p style=\"font-size: 50px; margin: 0; text-align: center;\">+</p>","response":null,"trial_type":"html-keyboard-response","trial_index":35,"plugin_version":"2.1.0","time_elapsed":63375,"subject_id":"87768","group":"Group1","full_date":"2025-11-09T02:39:40.475Z","date":"2025-11-09","time":"02:39:40"},{"task":"memory_phase","broad_category":"I","image_png":"I_Andesite_06.png","image_id":6,"category_name":"Andesite","category":1,"distinct_rating":3.17,"distinct_type":"Bottom","rt":null,"stimulus":"Stimuli_Rocks480/I_Andesite_06.png","response":null,"trial_type":"image-keyboard-response","trial_index":36,"plugin_version":"2.1.0","time_elapsed":65877,"subject_id":"87768","group":"Group1","full_date":"2025-11-09T02:39:40.475Z","date":"2025-11-09","time":"02:39:40"},{"rt":null,"stimulus":"<p style=\"font-size: 50px; margin: 0; text-align: center;\">+</p>","response":null,"trial_type":"html-keyboard-response","trial_index":37,"plugin_version":"2.1.0","time_elapsed":66879,"subject_id":"87768","group":"Group1","full_date":"2025-11-09T02:39:40.475Z","date":"2025-11-09","time":"02:39:40"},{"task":"memory_phase","broad_category":"S","image_png":"S_Rock Salt_01.png","image_id":433,"category_name":"Rock Salt","category":28,"distinct_rating":7.18,"distinct_type":"Top","rt":null,"stimulus":"Stimuli_Rocks480/S_Rock Salt_01.png","response":null,"trial_type":"image-keyboard-response","trial_index":38,"plugin_version":"2.1.0","time_elapsed":69381,"subject_id":"87768","group":"Group1","full_date":"2025-11-09T02:39:40.475Z","date":"2025-11-09","time":"02:39:40"},{"rt":null,"stimulus":"<p style=\"font-size: 50px; margin: 0; text-align: center;\">+</p>","response":null,"trial_type":"html-keyboard-response","trial_index":39,"plugin_version":"2.1.0","time_elapsed":70384,"subject_id":"87768","group":"Group1","full_date":"2025-11-09T02:39:40.475Z","date":"2025-11-09","time":"02:39:40"},{"task":"memory_phase","broad_category":"M","image_png":"M_Slate_11.png","image_id":315,"category_name":"Slate","category":20,"distinct_rating":2.75,"distinct_type":"Bottom","rt":null,"stimulus":"Stimuli_Rocks480/M_Slate_11.png","response":null,"trial_type":"image-keyboard-response","trial_index":40,"plugin_version":"2.1.0","time_elapsed":72887,"subject_id":"87768","group":"Group1","full_date":"2025-11-09T02:39:40.475Z","date":"2025-11-09","time":"02:39:40"},{"rt":null,"stimulus":"<p style=\"font-size: 50px; margin: 0; text-align: center;\">+</p>","response":null,"trial_type":"html-keyboard-response","trial_index":41,"plugin_version":"2.1.0","time_elapsed":73889,"subject_id":"87768","group":"Group1","full_date":"2025-11-09T02:39:40.475Z","date":"2025-11-09","time":"02:39:40"},{"task":"memory_phase","broad_category":"M","image_png":"M_Quartzite_05.png","image_id":277,"category_name":"Quartzite","category":18,"distinct_rating":2.23,"distinct_type":"Bottom","rt":null,"stimulus":"Stimuli_Rocks480/M_Quartzite_05.png","response":null,"trial_type":"image-keyboard-response","trial_index":42,"plugin_version":"2.1.0","time_elapsed":76392,"subject_id":"87768","group":"Group1","full_date":"2025-11-09T02:39:40.475Z","date":"2025-11-09","time":"02:39:40"},{"rt":null,"stimulus":"<p style=\"font-size: 50px; margin: 0; text-align: center;\">+</p>","response":null,"trial_type":"html-keyboard-response","trial_index":43,"plugin_version":"2.1.0","time_elapsed":77394,"subject_id":"87768","group":"Group1","full_date":"2025-11-09T02:39:40.475Z","date":"2025-11-09","time":"02:39:40"},{"task":"memory_phase","broad_category":"I","image_png":"I_Rhyolite_16.png","image_id":160,"category_name":"Rhyolite","category":10,"distinct_rating":2.19,"distinct_type":"Bottom","rt":null,"stimulus":"Stimuli_Rocks480/I_Rhyolite_16.png","response":null,"trial_type":"image-keyboard-response","trial_index":44,"plugin_version":"2.1.0","time_elapsed":79897,"subject_id":"87768","group":"Group1","full_date":"2025-11-09T02:39:40.475Z","date":"2025-11-09","time":"02:39:40"},{"rt":null,"stimulus":"<p style=\"font-size: 50px; margin: 0; text-align: center;\">+</p>","response":null,"trial_type":"html-keyboard-response","trial_index":45,"plugin_version":"2.1.0","time_elapsed":80899,"subject_id":"87768","group":"Group1","full_date":"2025-11-09T02:39:40.475Z","date":"2025-11-09","time":"02:39:40"},{"task":"memory_phase","broad_category":"I","image_png":"I_Pegmatite_16.png","image_id":112,"category_name":"Pegmatite","category":7,"distinct_rating":7.03,"distinct_type":"Top","rt":null,"stimulus":"Stimuli_Rocks480/I_Pegmatite_16.png","response":null,"trial_type":"image-keyboard-response","trial_index":46,"plugin_version":"2.1.0","time_elapsed":83401,"subject_id":"87768","group":"Group1","full_date":"2025-11-09T02:39:40.475Z","date":"2025-11-09","time":"02:39:40"},{"rt":null,"stimulus":"<p style=\"font-size: 50px; margin: 0; text-align: center;\">+</p>","response":null,"trial_type":"html-keyboard-response","trial_index":47,"plugin_version":"2.1.0","time_elapsed":84404,"subject_id":"87768","group":"Group1","full_date":"2025-11-09T02:39:40.475Z","date":"2025-11-09","time":"02:39:40"},{"task":"memory_phase","broad_category":"I","image_png":"I_Pumice_11.png","image_id":139,"category_name":"Pumice","category":9,"distinct_rating":1.74,"distinct_type":"Bottom","rt":null,"stimulus":"Stimuli_Rocks480/I_Pumice_11.png","response":null,"trial_type":"image-keyboard-response","trial_index":48,"plugin_version":"2.1.0","time_elapsed":86907,"subject_id":"87768","group":"Group1","full_date":"2025-11-09T02:39:40.475Z","date":"2025-11-09","time":"02:39:40"},{"rt":null,"stimulus":"<p style=\"font-size: 50px; margin: 0; text-align: center;\">+</p>","response":null,"trial_type":"html-keyboard-response","trial_index":49,"plugin_version":"2.1.0","time_elapsed":87910,"subject_id":"87768","group":"Group1","full_date":"2025-11-09T02:39:40.475Z","date":"2025-11-09","time":"02:39:40"},{"task":"memory_phase","broad_category":"S","image_png":"S_Shale_12.png","image_id":476,"category_name":"Shale","category":30,"distinct_rating":2.48,"distinct_type":"Bottom","rt":null,"stimulus":"Stimuli_Rocks480/S_Shale_12.png","response":null,"trial_type":"image-keyboard-response","trial_index":50,"plugin_version":"2.1.0","time_elapsed":90413,"subject_id":"87768","group":"Group1","full_date":"2025-11-09T02:39:40.475Z","date":"2025-11-09","time":"02:39:40"},{"rt":null,"stimulus":"<p style=\"font-size: 50px; margin: 0; text-align: center;\">+</p>","response":null,"trial_type":"html-keyboard-response","trial_index":51,"plugin_version":"2.1.0","time_elapsed":91415,"subject_id":"87768","group":"Group1","full_date":"2025-11-09T02:39:40.475Z","date":"2025-11-09","time":"02:39:40"},{"task":"memory_phase","broad_category":"S","image_png":"S_Dolomite_14.png","image_id":398,"category_name":"Dolomite","category":25,"distinct_rating":1.43,"distinct_type":"Bottom","rt":null,"stimulus":"Stimuli_Rocks480/S_Dolomite_14.png","response":null,"trial_type":"image-keyboard-response","trial_index":52,"plugin_version":"2.1.0","time_elapsed":93917,"subject_id":"87768","group":"Group1","full_date":"2025-11-09T02:39:40.475Z","date":"2025-11-09","time":"02:39:40"},{"rt":null,"stimulus":"<p style=\"font-size: 50px; margin: 0; text-align: center;\">+</p>","response":null,"trial_type":"html-keyboard-response","trial_index":53,"plugin_version":"2.1.0","time_elapsed":94920,"subject_id":"87768","group":"Group1","full_date":"2025-11-09T02:39:40.475Z","date":"2025-11-09","time":"02:39:40"},{"task":"memory_phase","broad_category":"S","image_png":"S_Rock Gypsum_04.png","image_id":420,"category_name":"Rock Gypsum","category":27,"distinct_rating":7.61,"distinct_type":"Top","rt":null,"stimulus":"Stimuli_Rocks480/S_Rock Gypsum_04.png","response":null,"trial_type":"image-keyboard-response","trial_index":54,"plugin_version":"2.1.0","time_elapsed":97423,"subject_id":"87768","group":"Group1","full_date":"2025-11-09T02:39:40.475Z","date":"2025-11-09","time":"02:39:40"},{"rt":3587,"stimulus":"<p style=\"font-size: 35px;\">Press SPACE to continue study phase</p>","response":" ","trial_type":"html-keyboard-response","trial_index":55,"plugin_version":"2.1.0","time_elapsed":101011,"subject_id":"87768","group":"Group1","full_date":"2025-11-09T02:39:40.475Z","date":"2025-11-09","time":"02:39:40"},{"rt":null,"stimulus":"<p style=\"font-size: 50px; margin: 0; text-align: center;\">+</p>","response":null,"trial_type":"html-keyboard-response","trial_index":56,"plugin_version":"2.1.0","time_elapsed":102013,"subject_id":"87768","group":"Group1","full_date":"2025-11-09T02:39:40.475Z","date":"2025-11-09","time":"02:39:40"},{"task":"memory_phase","broad_category":"I","image_png":"I_Obsidian_05.png","image_id":85,"category_name":"Obsidian","category":6,"distinct_rating":7.32,"distinct_type":"Top","rt":null,"stimulus":"Stimuli_Rocks480/I_Obsidian_05.png","response":null,"trial_type":"image-keyboard-response","trial_index":57,"plugin_version":"2.1.0","time_elapsed":104515,"subject_id":"87768","group":"Group1","full_date":"2025-11-09T02:39:40.475Z","date":"2025-11-09","time":"02:39:40"},{"rt":null,"stimulus":"<p style=\"font-size: 50px; margin: 0; text-align: center;\">+</p>","response":null,"trial_type":"html-keyboard-response","trial_index":58,"plugin_version":"2.1.0","time_elapsed":105517,"subject_id":"87768","group":"Group1","full_date":"2025-11-09T02:39:40.475Z","date":"2025-11-09","time":"02:39:40"},{"task":"memory_phase","broad_category":"S","image_png":"S_Dolomite_12.png","image_id":396,"category_name":"Dolomite","category":25,"distinct_rating":1.85,"distinct_type":"Bottom","rt":null,"stimulus":"Stimuli_Rocks480/S_Dolomite_12.png","response":null,"trial_type":"image-keyboard-response","trial_index":59,"plugin_version":"2.1.0","time_elapsed":108021,"subject_id":"87768","group":"Group1","full_date":"2025-11-09T02:39:40.475Z","date":"2025-11-09","time":"02:39:40"},{"rt":null,"stimulus":"<p style=\"font-size: 50px; margin: 0; text-align: center;\">+</p>","response":null,"trial_type":"html-keyboard-response","trial_index":60,"plugin_version":"2.1.0","time_elapsed":109023,"subject_id":"87768","group":"Group1","full_date":"2025-11-09T02:39:40.475Z","date":"2025-11-09","time":"02:39:40"},{"task":"memory_phase","broad_category":"I","image_png":"I_Andesite_10.png","image_id":10,"category_name":"Andesite","category":1,"distinct_rating":3.15,"distinct_type":"Bottom","rt":null,"stimulus":"Stimuli_Rocks480/I_Andesite_10.png","response":null,"trial_type":"image-keyboard-response","trial_index":61,"plugin_version":"2.1.0","time_elapsed":111526,"subject_id":"87768","group":"Group1","full_date":"2025-11-09T02:39:40.475Z","date":"2025-11-09","time":"02:39:40"},{"rt":null,"stimulus":"<p style=\"font-size: 50px; margin: 0; text-align: center;\">+</p>","response":null,"trial_type":"html-keyboard-response","trial_index":62,"plugin_version":"2.1.0","time_elapsed":112528,"subject_id":"87768","group":"Group1","full_date":"2025-11-09T02:39:40.475Z","date":"2025-11-09","time":"02:39:40"},{"task":"memory_phase","broad_category":"S","image_png":"S_Conglomerate_05.png","image_id":373,"category_name":"Conglomerate","category":24,"distinct_rating":7.32,"distinct_type":"Top","rt":null,"stimulus":"Stimuli_Rocks480/S_Conglomerate_05.png","response":null,"trial_type":"image-keyboard-response","trial_index":63,"plugin_version":"2.1.0","time_elapsed":115032,"subject_id":"87768","group":"Group1","full_date":"2025-11-09T02:39:40.475Z","date":"2025-11-09","time":"02:39:40"},{"rt":null,"stimulus":"<p style=\"font-size: 50px; margin: 0; text-align: center;\">+</p>","response":null,"trial_type":"html-keyboard-response","trial_index":64,"plugin_version":"2.1.0","time_elapsed":116034,"subject_id":"87768","group":"Group1","full_date":"2025-11-09T02:39:40.475Z","date":"2025-11-09","time":"02:39:40"},{"task":"memory_phase","broad_category":"M","image_png":"M_Gneiss_05.png","image_id":197,"category_name":"Gneiss","category":13,"distinct_rating":2.97,"distinct_type":"Bottom","rt":null,"stimulus":"Stimuli_Rocks480/M_Gneiss_05.png","response":null,"trial_type":"image-keyboard-response","trial_index":65,"plugin_version":"2.1.0","time_elapsed":118537,"subject_id":"87768","group":"Group1","full_date":"2025-11-09T02:39:40.475Z","date":"2025-11-09","time":"02:39:40"},{"rt":null,"stimulus":"<p style=\"font-size: 50px; margin: 0; text-align: center;\">+</p>","response":null,"trial_type":"html-keyboard-response","trial_index":66,"plugin_version":"2.1.0","time_elapsed":119540,"subject_id":"87768","group":"Group1","full_date":"2025-11-09T02:39:40.475Z","date":"2025-11-09","time":"02:39:40"},{"task":"memory_phase","broad_category":"M","image_png":"M_Phyllite_07.png","image_id":263,"category_name":"Phyllite","category":17,"distinct_rating":2.59,"distinct_type":"Bottom","rt":null,"stimulus":"Stimuli_Rocks480/M_Phyllite_07.png","response":null,"trial_type":"image-keyboard-response","trial_index":67,"plugin_version":"2.1.0","time_elapsed":122043,"subject_id":"87768","group":"Group1","full_date":"2025-11-09T02:39:40.475Z","date":"2025-11-09","time":"02:39:40"},{"rt":null,"stimulus":"<p style=\"font-size: 50px; margin: 0; text-align: center;\">+</p>","response":null,"trial_type":"html-keyboard-response","trial_index":68,"plugin_version":"2.1.0","time_elapsed":123045,"subject_id":"87768","group":"Group1","full_date":"2025-11-09T02:39:40.475Z","date":"2025-11-09","time":"02:39:40"},{"task":"memory_phase","broad_category":"S","image_png":"S_Sandstone_15.png","image_id":463,"category_name":"Sandstone","category":29,"distinct_rating":2,"distinct_type":"Bottom","rt":null,"stimulus":"Stimuli_Rocks480/S_Sandstone_15.png","response":null,"trial_type":"image-keyboard-response","trial_index":69,"plugin_version":"2.1.0","time_elapsed":125549,"subject_id":"87768","group":"Group1","full_date":"2025-11-09T02:39:40.475Z","date":"2025-11-09","time":"02:39:40"},{"rt":null,"stimulus":"<p style=\"font-size: 50px; margin: 0; text-align: center;\">+</p>","response":null,"trial_type":"html-keyboard-response","trial_index":70,"plugin_version":"2.1.0","time_elapsed":126552,"subject_id":"87768","group":"Group1","full_date":"2025-11-09T02:39:40.475Z","date":"2025-11-09","time":"02:39:40"},{"task":"memory_phase","broad_category":"M","image_png":"M_Phyllite_10.png","image_id":266,"category_name":"Phyllite","category":17,"distinct_rating":2.6,"distinct_type":"Bottom","rt":null,"stimulus":"Stimuli_Rocks480/M_Phyllite_10.png","response":null,"trial_type":"image-keyboard-response","trial_index":71,"plugin_version":"2.1.0","time_elapsed":129055,"subject_id":"87768","group":"Group1","full_date":"2025-11-09T02:39:40.475Z","date":"2025-11-09","time":"02:39:40"},{"rt":null,"stimulus":"<p style=\"font-size: 50px; margin: 0; text-align: center;\">+</p>","response":null,"trial_type":"html-keyboard-response","trial_index":72,"plugin_version":"2.1.0","time_elapsed":130057,"subject_id":"87768","group":"Group1","full_date":"2025-11-09T02:39:40.475Z","date":"2025-11-09","time":"02:39:40"},{"task":"memory_phase","broad_category":"I","image_png":"I_Rhyolite_14.png","image_id":158,"category_name":"Rhyolite","category":10,"distinct_rating":2.59,"distinct_type":"Bottom","rt":null,"stimulus":"Stimuli_Rocks480/I_Rhyolite_14.png","response":null,"trial_type":"image-keyboard-response","trial_index":73,"plugin_version":"2.1.0","time_elapsed":132560,"subject_id":"87768","group":"Group1","full_date":"2025-11-09T02:39:40.475Z","date":"2025-11-09","time":"02:39:40"},{"rt":null,"stimulus":"<p style=\"font-size: 50px; margin: 0; text-align: center;\">+</p>","response":null,"trial_type":"html-keyboard-response","trial_index":74,"plugin_version":"2.1.0","time_elapsed":133562,"subject_id":"87768","group":"Group1","full_date":"2025-11-09T02:39:40.475Z","date":"2025-11-09","time":"02:39:40"},{"task":"memory_phase","broad_category":"M","image_png":"M_Quartzite_08.png","image_id":280,"category_name":"Quartzite","category":18,"distinct_rating":2.15,"distinct_type":"Bottom","rt":null,"stimulus":"Stimuli_Rocks480/M_Quartzite_08.png","response":null,"trial_type":"image-keyboard-response","trial_index":75,"plugin_version":"2.1.0","time_elapsed":136065,"subject_id":"87768","group":"Group1","full_date":"2025-11-09T02:39:40.475Z","date":"2025-11-09","time":"02:39:40"},{"rt":null,"stimulus":"<p style=\"font-size: 50px; margin: 0; text-align: center;\">+</p>","response":null,"trial_type":"html-keyboard-response","trial_index":76,"plugin_version":"2.1.0","time_elapsed":137067,"subject_id":"87768","group":"Group1","full_date":"2025-11-09T02:39:40.475Z","date":"2025-11-09","time":"02:39:40"},{"task":"memory_phase","broad_category":"M","image_png":"M_Marble_04.png","image_id":228,"category_name":"Marble","category":15,"distinct_rating":3.15,"distinct_type":"Bottom","rt":null,"stimulus":"Stimuli_Rocks480/M_Marble_04.png","response":null,"trial_type":"image-keyboard-response","trial_index":77,"plugin_version":"2.1.0","time_elapsed":139570,"subject_id":"87768","group":"Group1","full_date":"2025-11-09T02:39:40.475Z","date":"2025-11-09","time":"02:39:40"},{"rt":null,"stimulus":"<p style=\"font-size: 50px; margin: 0; text-align: center;\">+</p>","response":null,"trial_type":"html-keyboard-response","trial_index":78,"plugin_version":"2.1.0","time_elapsed":140572,"subject_id":"87768","group":"Group1","full_date":"2025-11-09T02:39:40.475Z","date":"2025-11-09","time":"02:39:40"},{"task":"memory_phase","broad_category":"I","image_png":"I_Gabbro_16.png","image_id":64,"category_name":"Gabbro","category":4,"distinct_rating":2.52,"distinct_type":"Bottom","rt":null,"stimulus":"Stimuli_Rocks480/I_Gabbro_16.png","response":null,"trial_type":"image-keyboard-response","trial_index":79,"plugin_version":"2.1.0","time_elapsed":143076,"subject_id":"87768","group":"Group1","full_date":"2025-11-09T02:39:40.475Z","date":"2025-11-09","time":"02:39:40"},{"rt":null,"stimulus":"<p style=\"font-size: 50px; margin: 0; text-align: center;\">+</p>","response":null,"trial_type":"html-keyboard-response","trial_index":80,"plugin_version":"2.1.0","time_elapsed":144078,"subject_id":"87768","group":"Group1","full_date":"2025-11-09T02:39:40.475Z","date":"2025-11-09","time":"02:39:40"},{"task":"memory_phase","broad_category":"S","image_png":"S_Shale_08.png","image_id":472,"category_name":"Shale","category":30,"distinct_rating":2.55,"distinct_type":"Bottom","rt":null,"stimulus":"Stimuli_Rocks480/S_Shale_08.png","response":null,"trial_type":"image-keyboard-response","trial_index":81,"plugin_version":"2.1.0","time_elapsed":146581,"subject_id":"87768","group":"Group1","full_date":"2025-11-09T02:39:40.475Z","date":"2025-11-09","time":"02:39:40"},{"rt":null,"stimulus":"<p style=\"font-size: 50px; margin: 0; text-align: center;\">+</p>","response":null,"trial_type":"html-keyboard-response","trial_index":82,"plugin_version":"2.1.0","time_elapsed":147583,"subject_id":"87768","group":"Group1","full_date":"2025-11-09T02:39:40.475Z","date":"2025-11-09","time":"02:39:40"},{"task":"memory_phase","broad_category":"M","image_png":"M_Quartzite_13.png","image_id":285,"category_name":"Quartzite","category":18,"distinct_rating":2.27,"distinct_type":"Bottom","rt":null,"stimulus":"Stimuli_Rocks480/M_Quartzite_13.png","response":null,"trial_type":"image-keyboard-response","trial_index":83,"plugin_version":"2.1.0","time_elapsed":150086,"subject_id":"87768","group":"Group1","full_date":"2025-11-09T02:39:40.475Z","date":"2025-11-09","time":"02:39:40"},{"rt":null,"stimulus":"<p style=\"font-size: 50px; margin: 0; text-align: center;\">+</p>","response":null,"trial_type":"html-keyboard-response","trial_index":84,"plugin_version":"2.1.0","time_elapsed":151089,"subject_id":"87768","group":"Group1","full_date":"2025-11-09T02:39:40.475Z","date":"2025-11-09","time":"02:39:40"},{"task":"memory_phase","broad_category":"I","image_png":"I_Diorite_05.png","image_id":37,"category_name":"Diorite","category":3,"distinct_rating":3.08,"distinct_type":"Bottom","rt":null,"stimulus":"Stimuli_Rocks480/I_Diorite_05.png","response":null,"trial_type":"image-keyboard-response","trial_index":85,"plugin_version":"2.1.0","time_elapsed":153592,"subject_id":"87768","group":"Group1","full_date":"2025-11-09T02:39:40.475Z","date":"2025-11-09","time":"02:39:40"},{"rt":null,"stimulus":"<p style=\"font-size: 50px; margin: 0; text-align: center;\">+</p>","response":null,"trial_type":"html-keyboard-response","trial_index":86,"plugin_version":"2.1.0","time_elapsed":154595,"subject_id":"87768","group":"Group1","full_date":"2025-11-09T02:39:40.475Z","date":"2025-11-09","time":"02:39:40"},{"task":"memory_phase","broad_category":"I","image_png":"I_Pumice_12.png","image_id":140,"category_name":"Pumice","category":9,"distinct_rating":2.97,"distinct_type":"Bottom","rt":null,"stimulus":"Stimuli_Rocks480/I_Pumice_12.png","response":null,"trial_type":"image-keyboard-response","trial_index":87,"plugin_version":"2.1.0","time_elapsed":157097,"subject_id":"87768","group":"Group1","full_date":"2025-11-09T02:39:40.475Z","date":"2025-11-09","time":"02:39:40"},{"rt":null,"stimulus":"<p style=\"font-size: 50px; margin: 0; text-align: center;\">+</p>","response":null,"trial_type":"html-keyboard-response","trial_index":88,"plugin_version":"2.1.0","time_elapsed":158100,"subject_id":"87768","group":"Group1","full_date":"2025-11-09T02:39:40.475Z","date":"2025-11-09","time":"02:39:40"},{"task":"memory_phase","broad_category":"S","image_png":"S_Dolomite_13.png","image_id":397,"category_name":"Dolomite","category":25,"distinct_rating":1.77,"distinct_type":"Bottom","rt":null,"stimulus":"Stimuli_Rocks480/S_Dolomite_13.png","response":null,"trial_type":"image-keyboard-response","trial_index":89,"plugin_version":"2.1.0","time_elapsed":160604,"subject_id":"87768","group":"Group1","full_date":"2025-11-09T02:39:40.475Z","date":"2025-11-09","time":"02:39:40"},{"rt":null,"stimulus":"<p style=\"font-size: 50px; margin: 0; text-align: center;\">+</p>","response":null,"trial_type":"html-keyboard-response","trial_index":90,"plugin_version":"2.1.0","time_elapsed":161606,"subject_id":"87768","group":"Group1","full_date":"2025-11-09T02:39:40.475Z","date":"2025-11-09","time":"02:39:40"},{"task":"memory_phase","broad_category":"S","image_png":"S_Breccia_11.png","image_id":347,"category_name":"Breccia","category":22,"distinct_rating":6.7,"distinct_type":"Top","rt":null,"stimulus":"Stimuli_Rocks480/S_Breccia_11.png","response":null,"trial_type":"image-keyboard-response","trial_index":91,"plugin_version":"2.1.0","time_elapsed":164109,"subject_id":"87768","group":"Group1","full_date":"2025-11-09T02:39:40.475Z","date":"2025-11-09","time":"02:39:40"},{"rt":null,"stimulus":"<p style=\"font-size: 50px; margin: 0; text-align: center;\">+</p>","response":null,"trial_type":"html-keyboard-response","trial_index":92,"plugin_version":"2.1.0","time_elapsed":165112,"subject_id":"87768","group":"Group1","full_date":"2025-11-09T02:39:40.475Z","date":"2025-11-09","time":"02:39:40"},{"task":"memory_phase","broad_category":"M","image_png":"M_Slate_15.png","image_id":319,"category_name":"Slate","category":20,"distinct_rating":2.13,"distinct_type":"Bottom","rt":null,"stimulus":"Stimuli_Rocks480/M_Slate_15.png","response":null,"trial_type":"image-keyboard-response","trial_index":93,"plugin_version":"2.1.0","time_elapsed":167615,"subject_id":"87768","group":"Group1","full_date":"2025-11-09T02:39:40.475Z","date":"2025-11-09","time":"02:39:40"},{"rt":null,"stimulus":"<p style=\"font-size: 50px; margin: 0; text-align: center;\">+</p>","response":null,"trial_type":"html-keyboard-response","trial_index":94,"plugin_version":"2.1.0","time_elapsed":168617,"subject_id":"87768","group":"Group1","full_date":"2025-11-09T02:39:40.475Z","date":"2025-11-09","time":"02:39:40"},{"task":"memory_phase","broad_category":"I","image_png":"I_Gabbro_11.png","image_id":59,"category_name":"Gabbro","category":4,"distinct_rating":1.99,"distinct_type":"Bottom","rt":null,"stimulus":"Stimuli_Rocks480/I_Gabbro_11.png","response":null,"trial_type":"image-keyboard-response","trial_index":95,"plugin_version":"2.1.0","time_elapsed":171121,"subject_id":"87768","group":"Group1","full_date":"2025-11-09T02:39:40.475Z","date":"2025-11-09","time":"02:39:40"},{"rt":null,"stimulus":"<p style=\"font-size: 50px; margin: 0; text-align: center;\">+</p>","response":null,"trial_type":"html-keyboard-response","trial_index":96,"plugin_version":"2.1.0","time_elapsed":172123,"subject_id":"87768","group":"Group1","full_date":"2025-11-09T02:39:40.475Z","date":"2025-11-09","time":"02:39:40"},{"task":"memory_phase","broad_category":"I","image_png":"I_Basalt_01.png","image_id":17,"category_name":"Basalt","category":2,"distinct_rating":1.92,"distinct_type":"Bottom","rt":null,"stimulus":"Stimuli_Rocks480/I_Basalt_01.png","response":null,"trial_type":"image-keyboard-response","trial_index":97,"plugin_version":"2.1.0","time_elapsed":174625,"subject_id":"87768","group":"Group1","full_date":"2025-11-09T02:39:40.475Z","date":"2025-11-09","time":"02:39:40"},{"rt":null,"stimulus":"<p style=\"font-size: 50px; margin: 0; text-align: center;\">+</p>","response":null,"trial_type":"html-keyboard-response","trial_index":98,"plugin_version":"2.1.0","time_elapsed":175628,"subject_id":"87768","group":"Group1","full_date":"2025-11-09T02:39:40.475Z","date":"2025-11-09","time":"02:39:40"},{"task":"memory_phase","broad_category":"M","image_png":"M_Phyllite_03.png","image_id":259,"category_name":"Phyllite","category":17,"distinct_rating":2.5,"distinct_type":"Bottom","rt":null,"stimulus":"Stimuli_Rocks480/M_Phyllite_03.png","response":null,"trial_type":"image-keyboard-response","trial_index":99,"plugin_version":"2.1.0","time_elapsed":178131,"subject_id":"87768","group":"Group1","full_date":"2025-11-09T02:39:40.475Z","date":"2025-11-09","time":"02:39:40"},{"rt":null,"stimulus":"<p style=\"font-size: 50px; margin: 0; text-align: center;\">+</p>","response":null,"trial_type":"html-keyboard-response","trial_index":100,"plugin_version":"2.1.0","time_elapsed":179134,"subject_id":"87768","group":"Group1","full_date":"2025-11-09T02:39:40.475Z","date":"2025-11-09","time":"02:39:40"},{"task":"memory_phase","broad_category":"S","image_png":"S_Shale_01.png","image_id":465,"category_name":"Shale","category":30,"distinct_rating":2.7,"distinct_type":"Bottom","rt":null,"stimulus":"Stimuli_Rocks480/S_Shale_01.png","response":null,"trial_type":"image-keyboard-response","trial_index":101,"plugin_version":"2.1.0","time_elapsed":181636,"subject_id":"87768","group":"Group1","full_date":"2025-11-09T02:39:40.475Z","date":"2025-11-09","time":"02:39:40"},{"rt":null,"stimulus":"<p style=\"font-size: 50px; margin: 0; text-align: center;\">+</p>","response":null,"trial_type":"html-keyboard-response","trial_index":102,"plugin_version":"2.1.0","time_elapsed":182638,"subject_id":"87768","group":"Group1","full_date":"2025-11-09T02:39:40.475Z","date":"2025-11-09","time":"02:39:40"},{"task":"memory_phase","broad_category":"I","image_png":"I_Rhyolite_11.png","image_id":155,"category_name":"Rhyolite","category":10,"distinct_rating":1.73,"distinct_type":"Bottom","rt":null,"stimulus":"Stimuli_Rocks480/I_Rhyolite_11.png","response":null,"trial_type":"image-keyboard-response","trial_index":103,"plugin_version":"2.1.0","time_elapsed":185142,"subject_id":"87768","group":"Group1","full_date":"2025-11-09T02:39:40.475Z","date":"2025-11-09","time":"02:39:40"},{"rt":null,"stimulus":"<p style=\"font-size: 50px; margin: 0; text-align: center;\">+</p>","response":null,"trial_type":"html-keyboard-response","trial_index":104,"plugin_version":"2.1.0","time_elapsed":186144,"subject_id":"87768","group":"Group1","full_date":"2025-11-09T02:39:40.475Z","date":"2025-11-09","time":"02:39:40"},{"task":"memory_phase","broad_category":"M","image_png":"M_Gneiss_06.png","image_id":198,"category_name":"Gneiss","category":13,"distinct_rating":2.65,"distinct_type":"Bottom","rt":null,"stimulus":"Stimuli_Rocks480/M_Gneiss_06.png","response":null,"trial_type":"image-keyboard-response","trial_index":105,"plugin_version":"2.1.0","time_elapsed":188647,"subject_id":"87768","group":"Group1","full_date":"2025-11-09T02:39:40.475Z","date":"2025-11-09","time":"02:39:40"},{"rt":31838,"stimulus":"<div style=\"max-width: 760px; margin: auto; font-size: 20px; line-height: 1.5;\">\n      <h1 style=\"text-align:center; font-size: 30px;\">Instructions for the Test Phase</h1>\n      <p>\n        The study phase is now complete.\n      </p>\n      <p>\n        In the test phase, you will again see a series of rock images. \n        Some will be ones you saw before - during the study phase, while others will be new.  \n        <b>Your task</b> is to decide whether you have seen each image before by pressing the corresponding key on your keyboard:<br><br>\n          <b>A</b> - NO (you did not see this image before)<br>\n          <b>L</b> - YES (you saw this image before)<br><br>\n        The test will proceed at your own pace. You will receive feedback after each response.  \n        Please try to respond <b>as accurately as possible</b>.\n      </p>\n      <p>\n        <b>Reminder:</b> If your computer has multiple language settings (e.g., English and another language),\n        please ensure it is set to English during the test phase.\n      </p>\n      <p>\n        You can track your progress using the <b>completion bar</b> at the top of the screen.  \n        Note that it has been refreshed to reflect your progress during this final phase.\n      </p>\n      <p>\n        Press the button below when you are ready to continue.\n      </p>\n    </div>","response":0,"trial_type":"html-button-response","trial_index":106,"plugin_version":"2.1.0","time_elapsed":220487,"subject_id":"87768","group":"Group1","full_date":"2025-11-09T02:39:40.475Z","date":"2025-11-09","time":"02:39:40"},{"correct_response":"a","task":"test_phase","broad_category":"M","image_png":"M_Phyllite_02.png","image_id":258,"category_name":"Phyllite","category":17,"distinct_rating":2.89,"distinct_type":"Bottom","item_type":"Foil","rt":55500,"stimulus":"Stimuli_Rocks480/M_Phyllite_02.png","response":"a","trial_type":"image-keyboard-response","trial_index":107,"plugin_version":"2.1.0","time_elapsed":275990,"subject_id":"87768","group":"Group1","full_date":"2025-11-09T02:39:40.475Z","date":"2025-11-09","time":"02:39:40","cor_ans":true},{"trial_type":"html-keyboard-response","rt":null,"stimulus":"<p style=\"color: green; font-size: 50px; font-weight: bold;\">Correct</p>","response":null,"trial_index":108,"plugin_version":"2.1.0","time_elapsed":276492,"subject_id":"87768","group":"Group1","full_date":"2025-11-09T02:39:40.475Z","date":"2025-11-09","time":"02:39:40"},{"correct_response":"l","task":"test_phase","broad_category":"M","image_png":"M_Phyllite_10.png","image_id":266,"category_name":"Phyllite","category":17,"distinct_rating":2.6,"distinct_type":"Bottom","item_type":"Target","rt":11235,"stimulus":"Stimuli_Rocks480/M_Phyllite_10.png","response":"l","trial_type":"image-keyboard-response","trial_index":109,"plugin_version":"2.1.0","time_elapsed":287728,"subject_id":"87768","group":"Group1","full_date":"2025-11-09T02:39:40.475Z","date":"2025-11-09","time":"02:39:40","cor_ans":true},{"trial_type":"html-keyboard-response","rt":null,"stimulus":"<p style=\"color: green; font-size: 50px; font-weight: bold;\">Correct</p>","response":null,"trial_index":110,"plugin_version":"2.1.0","time_elapsed":288229,"subject_id":"87768","group":"Group1","full_date":"2025-11-09T02:39:40.475Z","date":"2025-11-09","time":"02:39:40"},{"correct_response":"a","task":"test_phase","broad_category":"S","image_png":"S_Rock Salt_13.png","image_id":445,"category_name":"Rock Salt","category":28,"distinct_rating":7.58,"distinct_type":"Top","item_type":"Foil","rt":3488,"stimulus":"Stimuli_Rocks480/S_Rock Salt_13.png","response":"a","trial_type":"image-keyboard-response","trial_index":111,"plugin_version":"2.1.0","time_elapsed":291718,"subject_id":"87768","group":"Group1","full_date":"2025-11-09T02:39:40.475Z","date":"2025-11-09","time":"02:39:40","cor_ans":true},{"trial_type":"html-keyboard-response","rt":null,"stimulus":"<p style=\"color: green; font-size: 50px; font-weight: bold;\">Correct</p>","response":null,"trial_index":112,"plugin_version":"2.1.0","time_elapsed":292220,"subject_id":"87768","group":"Group1","full_date":"2025-11-09T02:39:40.475Z","date":"2025-11-09","time":"02:39:40"},{"correct_response":"a","task":"test_phase","broad_category":"I","image_png":"I_Basalt_08.png","image_id":24,"category_name":"Basalt","category":2,"distinct_rating":2.31,"distinct_type":"Bottom","item_type":"Foil","rt":21297,"stimulus":"Stimuli_Rocks480/I_Basalt_08.png","response":"a","trial_type":"image-keyboard-response","trial_index":113,"plugin_version":"2.1.0","time_elapsed":313519,"subject_id":"87768","group":"Group1","full_date":"2025-11-09T02:39:40.475Z","date":"2025-11-09","time":"02:39:40","cor_ans":true},{"trial_type":"html-keyboard-response","rt":null,"stimulus":"<p style=\"color: green; font-size: 50px; font-weight: bold;\">Correct</p>","response":null,"trial_index":114,"plugin_version":"2.1.0","time_elapsed":314021,"subject_id":"87768","group":"Group1","full_date":"2025-11-09T02:39:40.475Z","date":"2025-11-09","time":"02:39:40"},{"correct_response":"a","task":"test_phase","broad_category":"I","image_png":"I_Gabbro_12.png","image_id":60,"category_name":"Gabbro","category":4,"distinct_rating":2.6,"distinct_type":"Bottom","item_type":"Foil","rt":28758,"stimulus":"Stimuli_Rocks480/I_Gabbro_12.png","response":"a","trial_type":"image-keyboard-response","trial_index":115,"plugin_version":"2.1.0","time_elapsed":342781,"subject_id":"87768","group":"Group1","full_date":"2025-11-09T02:39:40.475Z","date":"2025-11-09","time":"02:39:40","cor_ans":true},{"trial_type":"html-keyboard-response","rt":null,"stimulus":"<p style=\"color: green; font-size: 50px; font-weight: bold;\">Correct</p>","response":null,"trial_index":116,"plugin_version":"2.1.0","time_elapsed":343282,"subject_id":"87768","group":"Group1","full_date":"2025-11-09T02:39:40.475Z","date":"2025-11-09","time":"02:39:40"},{"correct_response":"a","task":"test_phase","broad_category":"I","image_png":"I_Pegmatite_11.png","image_id":107,"category_name":"Pegmatite","category":7,"distinct_rating":7.11,"distinct_type":"Top","item_type":"Foil","rt":1951,"stimulus":"Stimuli_Rocks480/I_Pegmatite_11.png","response":"a","trial_type":"image-keyboard-response","trial_index":117,"plugin_version":"2.1.0","time_elapsed":345234,"subject_id":"87768","group":"Group1","full_date":"2025-11-09T02:39:40.475Z","date":"2025-11-09","time":"02:39:40","cor_ans":true},{"trial_type":"html-keyboard-response","rt":null,"stimulus":"<p style=\"color: green; font-size: 50px; font-weight: bold;\">Correct</p>","response":null,"trial_index":118,"plugin_version":"2.1.0","time_elapsed":345736,"subject_id":"87768","group":"Group1","full_date":"2025-11-09T02:39:40.475Z","date":"2025-11-09","time":"02:39:40"},{"correct_response":"a","task":"test_phase","broad_category":"I","image_png":"I_Pumice_01.png","image_id":129,"category_name":"Pumice","category":9,"distinct_rating":3.25,"distinct_type":"Bottom","item_type":"Foil","rt":1082,"stimulus":"Stimuli_Rocks480/I_Pumice_01.png","response":"a","trial_type":"image-keyboard-response","trial_index":119,"plugin_version":"2.1.0","time_elapsed":346819,"subject_id":"87768","group":"Group1","full_date":"2025-11-09T02:39:40.475Z","date":"2025-11-09","time":"02:39:40","cor_ans":true},{"trial_type":"html-keyboard-response","rt":null,"stimulus":"<p style=\"color: green; font-size: 50px; font-weight: bold;\">Correct</p>","response":null,"trial_index":120,"plugin_version":"2.1.0","time_elapsed":347320,"subject_id":"87768","group":"Group1","full_date":"2025-11-09T02:39:40.475Z","date":"2025-11-09","time":"02:39:40"},{"correct_response":"l","task":"test_phase","broad_category":"I","image_png":"I_Diorite_05.png","image_id":37,"category_name":"Diorite","category":3,"distinct_rating":3.08,"distinct_type":"Bottom","item_type":"Target","rt":1699,"stimulus":"Stimuli_Rocks480/I_Diorite_05.png","response":"l","trial_type":"image-keyboard-response","trial_index":121,"plugin_version":"2.1.0","time_elapsed":349020,"subject_id":"87768","group":"Group1","full_date":"2025-11-09T02:39:40.475Z","date":"2025-11-09","time":"02:39:40","cor_ans":true},{"trial_type":"html-keyboard-response","rt":null,"stimulus":"<p style=\"color: green; font-size: 50px; font-weight: bold;\">Correct</p>","response":null,"trial_index":122,"plugin_version":"2.1.0","time_elapsed":349521,"subject_id":"87768","group":"Group1","full_date":"2025-11-09T02:39:40.475Z","date":"2025-11-09","time":"02:39:40"},{"correct_response":"l","task":"test_phase","broad_category":"I","image_png":"I_Pegmatite_16.png","image_id":112,"category_name":"Pegmatite","category":7,"distinct_rating":7.03,"distinct_type":"Top","item_type":"Target","rt":2252,"stimulus":"Stimuli_Rocks480/I_Pegmatite_16.png","response":"a","trial_type":"image-keyboard-response","trial_index":123,"plugin_version":"2.1.0","time_elapsed":351774,"subject_id":"87768","group":"Group1","full_date":"2025-11-09T02:39:40.475Z","date":"2025-11-09","time":"02:39:40","cor_ans":false},{"trial_type":"html-keyboard-response","rt":null,"stimulus":"<p style=\"color: red; font-size: 50px; font-weight: bold;\">Incorrect</p>","response":null,"trial_index":124,"plugin_version":"2.1.0","time_elapsed":352276,"subject_id":"87768","group":"Group1","full_date":"2025-11-09T02:39:40.475Z","date":"2025-11-09","time":"02:39:40"},{"correct_response":"a","task":"test_phase","broad_category":"I","image_png":"I_Diorite_10.png","image_id":42,"category_name":"Diorite","category":3,"distinct_rating":2.84,"distinct_type":"Bottom","item_type":"Foil","rt":1565,"stimulus":"Stimuli_Rocks480/I_Diorite_10.png","response":"l","trial_type":"image-keyboard-response","trial_index":125,"plugin_version":"2.1.0","time_elapsed":353843,"subject_id":"87768","group":"Group1","full_date":"2025-11-09T02:39:40.475Z","date":"2025-11-09","time":"02:39:40","cor_ans":false},{"trial_type":"html-keyboard-response","rt":null,"stimulus":"<p style=\"color: red; font-size: 50px; font-weight: bold;\">Incorrect</p>","response":null,"trial_index":126,"plugin_version":"2.1.0","time_elapsed":354344,"subject_id":"87768","group":"Group1","full_date":"2025-11-09T02:39:40.475Z","date":"2025-11-09","time":"02:39:40"},{"correct_response":"l","task":"test_phase","broad_category":"I","image_png":"I_Pumice_08.png","image_id":136,"category_name":"Pumice","category":9,"distinct_rating":3.1,"distinct_type":"Bottom","item_type":"Target","rt":7395,"stimulus":"Stimuli_Rocks480/I_Pumice_08.png","response":"l","trial_type":"image-keyboard-response","trial_index":127,"plugin_version":"2.1.0","time_elapsed":361740,"subject_id":"87768","group":"Group1","full_date":"2025-11-09T02:39:40.475Z","date":"2025-11-09","time":"02:39:40","cor_ans":true},{"trial_type":"html-keyboard-response","rt":null,"stimulus":"<p style=\"color: green; font-size: 50px; font-weight: bold;\">Correct</p>","response":null,"trial_index":128,"plugin_version":"2.1.0","time_elapsed":362242,"subject_id":"87768","group":"Group1","full_date":"2025-11-09T02:39:40.475Z","date":"2025-11-09","time":"02:39:40"},{"correct_response":"l","task":"test_phase","broad_category":"I","image_png":"I_Rhyolite_16.png","image_id":160,"category_name":"Rhyolite","category":10,"distinct_rating":2.19,"distinct_type":"Bottom","item_type":"Target","rt":20561,"stimulus":"Stimuli_Rocks480/I_Rhyolite_16.png","response":"l","trial_type":"image-keyboard-response","trial_index":129,"plugin_version":"2.1.0","time_elapsed":382806,"subject_id":"87768","group":"Group1","full_date":"2025-11-09T02:39:40.475Z","date":"2025-11-09","time":"02:39:40","cor_ans":true},{"trial_type":"html-keyboard-response","rt":null,"stimulus":"<p style=\"color: green; font-size: 50px; font-weight: bold;\">Correct</p>","response":null,"trial_index":130,"plugin_version":"2.1.0","time_elapsed":383307,"subject_id":"87768","group":"Group1","full_date":"2025-11-09T02:39:40.475Z","date":"2025-11-09","time":"02:39:40"},{"correct_response":"a","task":"test_phase","broad_category":"M","image_png":"M_Slate_10.png","image_id":314,"category_name":"Slate","category":20,"distinct_rating":1.94,"distinct_type":"Bottom","item_type":"Foil","rt":2118,"stimulus":"Stimuli_Rocks480/M_Slate_10.png","response":"a","trial_type":"image-keyboard-response","trial_index":131,"plugin_version":"2.1.0","time_elapsed":385426,"subject_id":"87768","group":"Group1","full_date":"2025-11-09T02:39:40.475Z","date":"2025-11-09","time":"02:39:40","cor_ans":true},{"trial_type":"html-keyboard-response","rt":null,"stimulus":"<p style=\"color: green; font-size: 50px; font-weight: bold;\">Correct</p>","response":null,"trial_index":132,"plugin_version":"2.1.0","time_elapsed":385927,"subject_id":"87768","group":"Group1","full_date":"2025-11-09T02:39:40.475Z","date":"2025-11-09","time":"02:39:40"},{"correct_response":"l","task":"test_phase","broad_category":"M","image_png":"M_Slate_03.png","image_id":307,"category_name":"Slate","category":20,"distinct_rating":1.87,"distinct_type":"Bottom","item_type":"Target","rt":914,"stimulus":"Stimuli_Rocks480/M_Slate_03.png","response":"l","trial_type":"image-keyboard-response","trial_index":133,"plugin_version":"2.1.0","time_elapsed":386843,"subject_id":"87768","group":"Group1","full_date":"2025-11-09T02:39:40.475Z","date":"2025-11-09","time":"02:39:40","cor_ans":true},{"trial_type":"html-keyboard-response","rt":null,"stimulus":"<p style=\"color: green; font-size: 50px; font-weight: bold;\">Correct</p>","response":null,"trial_index":134,"plugin_version":"2.1.0","time_elapsed":387345,"subject_id":"87768","group":"Group1","full_date":"2025-11-09T02:39:40.475Z","date":"2025-11-09","time":"02:39:40"},{"correct_response":"l","task":"test_phase","broad_category":"I","image_png":"I_Diorite_03.png","image_id":35,"category_name":"Diorite","category":3,"distinct_rating":3.14,"distinct_type":"Bottom","item_type":"Target","rt":1021,"stimulus":"Stimuli_Rocks480/I_Diorite_03.png","response":"l","trial_type":"image-keyboard-response","trial_index":135,"plugin_version":"2.1.0","time_elapsed":388367,"subject_id":"87768","group":"Group1","full_date":"2025-11-09T02:39:40.475Z","date":"2025-11-09","time":"02:39:40","cor_ans":true},{"trial_type":"html-keyboard-response","rt":null,"stimulus":"<p style=\"color: green; font-size: 50px; font-weight: bold;\">Correct</p>","response":null,"trial_index":136,"plugin_version":"2.1.0","time_elapsed":388868,"subject_id":"87768","group":"Group1","full_date":"2025-11-09T02:39:40.475Z","date":"2025-11-09","time":"02:39:40"},{"correct_response":"l","task":"test_phase","broad_category":"I","image_png":"I_Andesite_06.png","image_id":6,"category_name":"Andesite","category":1,"distinct_rating":3.17,"distinct_type":"Bottom","item_type":"Target","rt":894,"stimulus":"Stimuli_Rocks480/I_Andesite_06.png","response":"l","trial_type":"image-keyboard-response","trial_index":137,"plugin_version":"2.1.0","time_elapsed":389763,"subject_id":"87768","group":"Group1","full_date":"2025-11-09T02:39:40.475Z","date":"2025-11-09","time":"02:39:40","cor_ans":true},{"trial_type":"html-keyboard-response","rt":null,"stimulus":"<p style=\"color: green; font-size: 50px; font-weight: bold;\">Correct</p>","response":null,"trial_index":138,"plugin_version":"2.1.0","time_elapsed":390265,"subject_id":"87768","group":"Group1","full_date":"2025-11-09T02:39:40.475Z","date":"2025-11-09","time":"02:39:40"},{"correct_response":"a","task":"test_phase","broad_category":"I","image_png":"I_Obsidian_06.png","image_id":86,"category_name":"Obsidian","category":6,"distinct_rating":8.01,"distinct_type":"Top","item_type":"Foil","rt":1234,"stimulus":"Stimuli_Rocks480/I_Obsidian_06.png","response":"a","trial_type":"image-keyboard-response","trial_index":139,"plugin_version":"2.1.0","time_elapsed":391501,"subject_id":"87768","group":"Group1","full_date":"2025-11-09T02:39:40.475Z","date":"2025-11-09","time":"02:39:40","cor_ans":true},{"trial_type":"html-keyboard-response","rt":null,"stimulus":"<p style=\"color: green; font-size: 50px; font-weight: bold;\">Correct</p>","response":null,"trial_index":140,"plugin_version":"2.1.0","time_elapsed":392003,"subject_id":"87768","group":"Group1","full_date":"2025-11-09T02:39:40.475Z","date":"2025-11-09","time":"02:39:40"},{"correct_response":"a","task":"test_phase","broad_category":"M","image_png":"M_Gneiss_14.png","image_id":206,"category_name":"Gneiss","category":13,"distinct_rating":3.41,"distinct_type":"Bottom","item_type":"Foil","rt":969,"stimulus":"Stimuli_Rocks480/M_Gneiss_14.png","response":"a","trial_type":"image-keyboard-response","trial_index":141,"plugin_version":"2.1.0","time_elapsed":392973,"subject_id":"87768","group":"Group1","full_date":"2025-11-09T02:39:40.475Z","date":"2025-11-09","time":"02:39:40","cor_ans":true},{"trial_type":"html-keyboard-response","rt":null,"stimulus":"<p style=\"color: green; font-size: 50px; font-weight: bold;\">Correct</p>","response":null,"trial_index":142,"plugin_version":"2.1.0","time_elapsed":393474,"subject_id":"87768","group":"Group1","full_date":"2025-11-09T02:39:40.475Z","date":"2025-11-09","time":"02:39:40"},{"correct_response":"l","task":"test_phase","broad_category":"I","image_png":"I_Rhyolite_14.png","image_id":158,"category_name":"Rhyolite","category":10,"distinct_rating":2.59,"distinct_type":"Bottom","item_type":"Target","rt":1072,"stimulus":"Stimuli_Rocks480/I_Rhyolite_14.png","response":"l","trial_type":"image-keyboard-response","trial_index":143,"plugin_version":"2.1.0","time_elapsed":394548,"subject_id":"87768","group":"Group1","full_date":"2025-11-09T02:39:40.475Z","date":"2025-11-09","time":"02:39:40","cor_ans":true},{"trial_type":"html-keyboard-response","rt":null,"stimulus":"<p style=\"color: green; font-size: 50px; font-weight: bold;\">Correct</p>","response":null,"trial_index":144,"plugin_version":"2.1.0","time_elapsed":395049,"subject_id":"87768","group":"Group1","full_date":"2025-11-09T02:39:40.475Z","date":"2025-11-09","time":"02:39:40"},{"correct_response":"a","task":"test_phase","broad_category":"S","image_png":"S_Sandstone_11.png","image_id":459,"category_name":"Sandstone","category":29,"distinct_rating":1.82,"distinct_type":"Bottom","item_type":"Foil","rt":1062,"stimulus":"Stimuli_Rocks480/S_Sandstone_11.png","response":"l","trial_type":"image-keyboard-response","trial_index":145,"plugin_version":"2.1.0","time_elapsed":396112,"subject_id":"87768","group":"Group1","full_date":"2025-11-09T02:39:40.475Z","date":"2025-11-09","time":"02:39:40","cor_ans":false},{"trial_type":"html-keyboard-response","rt":null,"stimulus":"<p style=\"color: red; font-size: 50px; font-weight: bold;\">Incorrect</p>","response":null,"trial_index":146,"plugin_version":"2.1.0","time_elapsed":396613,"subject_id":"87768","group":"Group1","full_date":"2025-11-09T02:39:40.475Z","date":"2025-11-09","time":"02:39:40"},{"correct_response":"l","task":"test_phase","broad_category":"M","image_png":"M_Quartzite_08.png","image_id":280,"category_name":"Quartzite","category":18,"distinct_rating":2.15,"distinct_type":"Bottom","item_type":"Target","rt":851,"stimulus":"Stimuli_Rocks480/M_Quartzite_08.png","response":"l","trial_type":"image-keyboard-response","trial_index":147,"plugin_version":"2.1.0","time_elapsed":397466,"subject_id":"87768","group":"Group1","full_date":"2025-11-09T02:39:40.475Z","date":"2025-11-09","time":"02:39:40","cor_ans":true},{"trial_type":"html-keyboard-response","rt":null,"stimulus":"<p style=\"color: green; font-size: 50px; font-weight: bold;\">Correct</p>","response":null,"trial_index":148,"plugin_version":"2.1.0","time_elapsed":397967,"subject_id":"87768","group":"Group1","full_date":"2025-11-09T02:39:40.475Z","date":"2025-11-09","time":"02:39:40"},{"correct_response":"l","task":"test_phase","broad_category":"I","image_png":"I_Diorite_04.png","image_id":36,"category_name":"Diorite","category":3,"distinct_rating":2.98,"distinct_type":"Bottom","item_type":"Target","rt":1294,"stimulus":"Stimuli_Rocks480/I_Diorite_04.png","response":"l","trial_type":"image-keyboard-response","trial_index":149,"plugin_version":"2.1.0","time_elapsed":399262,"subject_id":"87768","group":"Group1","full_date":"2025-11-09T02:39:40.475Z","date":"2025-11-09","time":"02:39:40","cor_ans":true},{"trial_type":"html-keyboard-response","rt":null,"stimulus":"<p style=\"color: green; font-size: 50px; font-weight: bold;\">Correct</p>","response":null,"trial_index":150,"plugin_version":"2.1.0","time_elapsed":399764,"subject_id":"87768","group":"Group1","full_date":"2025-11-09T02:39:40.475Z","date":"2025-11-09","time":"02:39:40"},{"correct_response":"l","task":"test_phase","broad_category":"I","image_png":"I_Gabbro_08.png","image_id":56,"category_name":"Gabbro","category":4,"distinct_rating":3.02,"distinct_type":"Bottom","item_type":"Target","rt":1289,"stimulus":"Stimuli_Rocks480/I_Gabbro_08.png","response":"a","trial_type":"image-keyboard-response","trial_index":151,"plugin_version":"2.1.0","time_elapsed":401054,"subject_id":"87768","group":"Group1","full_date":"2025-11-09T02:39:40.475Z","date":"2025-11-09","time":"02:39:40","cor_ans":false},{"trial_type":"html-keyboard-response","rt":null,"stimulus":"<p style=\"color: red; font-size: 50px; font-weight: bold;\">Incorrect</p>","response":null,"trial_index":152,"plugin_version":"2.1.0","time_elapsed":401556,"subject_id":"87768","group":"Group1","full_date":"2025-11-09T02:39:40.475Z","date":"2025-11-09","time":"02:39:40"},{"correct_response":"a","task":"test_phase","broad_category":"I","image_png":"I_Pumice_13.png","image_id":141,"category_name":"Pumice","category":9,"distinct_rating":3.12,"distinct_type":"Bottom","item_type":"Foil","rt":1150,"stimulus":"Stimuli_Rocks480/I_Pumice_13.png","response":"a","trial_type":"image-keyboard-response","trial_index":153,"plugin_version":"2.1.0","time_elapsed":402707,"subject_id":"87768","group":"Group1","full_date":"2025-11-09T02:39:40.475Z","date":"2025-11-09","time":"02:39:40","cor_ans":true},{"trial_type":"html-keyboard-response","rt":null,"stimulus":"<p style=\"color: green; font-size: 50px; font-weight: bold;\">Correct</p>","response":null,"trial_index":154,"plugin_version":"2.1.0","time_elapsed":403209,"subject_id":"87768","group":"Group1","full_date":"2025-11-09T02:39:40.475Z","date":"2025-11-09","time":"02:39:40"},{"correct_response":"l","task":"test_phase","broad_category":"S","image_png":"S_Sandstone_15.png","image_id":463,"category_name":"Sandstone","category":29,"distinct_rating":2,"distinct_type":"Bottom","item_type":"Target","rt":1506,"stimulus":"Stimuli_Rocks480/S_Sandstone_15.png","response":"a","trial_type":"image-keyboard-response","trial_index":155,"plugin_version":"2.1.0","time_elapsed":404716,"subject_id":"87768","group":"Group1","full_date":"2025-11-09T02:39:40.475Z","date":"2025-11-09","time":"02:39:40","cor_ans":false},{"trial_type":"html-keyboard-response","rt":null,"stimulus":"<p style=\"color: red; font-size: 50px; font-weight: bold;\">Incorrect</p>","response":null,"trial_index":156,"plugin_version":"2.1.0","time_elapsed":405218,"subject_id":"87768","group":"Group1","full_date":"2025-11-09T02:39:40.475Z","date":"2025-11-09","time":"02:39:40"},{"correct_response":"a","task":"test_phase","broad_category":"I","image_png":"I_Andesite_09.png","image_id":9,"category_name":"Andesite","category":1,"distinct_rating":2.49,"distinct_type":"Bottom","item_type":"Foil","rt":866,"stimulus":"Stimuli_Rocks480/I_Andesite_09.png","response":"l","trial_type":"image-keyboard-response","trial_index":157,"plugin_version":"2.1.0","time_elapsed":406085,"subject_id":"87768","group":"Group1","full_date":"2025-11-09T02:39:40.475Z","date":"2025-11-09","time":"02:39:40","cor_ans":false},{"trial_type":"html-keyboard-response","rt":null,"stimulus":"<p style=\"color: red; font-size: 50px; font-weight: bold;\">Incorrect</p>","response":null,"trial_index":158,"plugin_version":"2.1.0","time_elapsed":406586,"subject_id":"87768","group":"Group1","full_date":"2025-11-09T02:39:40.475Z","date":"2025-11-09","time":"02:39:40"},{"correct_response":"a","task":"test_phase","broad_category":"M","image_png":"M_Phyllite_13.png","image_id":269,"category_name":"Phyllite","category":17,"distinct_rating":2.8,"distinct_type":"Bottom","item_type":"Foil","rt":560,"stimulus":"Stimuli_Rocks480/M_Phyllite_13.png","response":"l","trial_type":"image-keyboard-response","trial_index":159,"plugin_version":"2.1.0","time_elapsed":407148,"subject_id":"87768","group":"Group1","full_date":"2025-11-09T02:39:40.475Z","date":"2025-11-09","time":"02:39:40","cor_ans":false},{"trial_type":"html-keyboard-response","rt":null,"stimulus":"<p style=\"color: red; font-size: 50px; font-weight: bold;\">Incorrect</p>","response":null,"trial_index":160,"plugin_version":"2.1.0","time_elapsed":407649,"subject_id":"87768","group":"Group1","full_date":"2025-11-09T02:39:40.475Z","date":"2025-11-09","time":"02:39:40"},{"correct_response":"a","task":"test_phase","broad_category":"I","image_png":"I_Gabbro_02.png","image_id":50,"category_name":"Gabbro","category":4,"distinct_rating":2.73,"distinct_type":"Bottom","item_type":"Foil","rt":423,"stimulus":"Stimuli_Rocks480/I_Gabbro_02.png","response":"l","trial_type":"image-keyboard-response","trial_index":161,"plugin_version":"2.1.0","time_elapsed":408074,"subject_id":"87768","group":"Group1","full_date":"2025-11-09T02:39:40.475Z","date":"2025-11-09","time":"02:39:40","cor_ans":false},{"trial_type":"html-keyboard-response","rt":null,"stimulus":"<p style=\"color: red; font-size: 50px; font-weight: bold;\">Incorrect</p>","response":null,"trial_index":162,"plugin_version":"2.1.0","time_elapsed":408576,"subject_id":"87768","group":"Group1","full_date":"2025-11-09T02:39:40.475Z","date":"2025-11-09","time":"02:39:40"},{"correct_response":"a","task":"test_phase","broad_category":"I","image_png":"I_Basalt_10.png","image_id":26,"category_name":"Basalt","category":2,"distinct_rating":2.76,"distinct_type":"Bottom","item_type":"Foil","rt":268,"stimulus":"Stimuli_Rocks480/I_Basalt_10.png","response":"l","trial_type":"image-keyboard-response","trial_index":163,"plugin_version":"2.1.0","time_elapsed":408845,"subject_id":"87768","group":"Group1","full_date":"2025-11-09T02:39:40.475Z","date":"2025-11-09","time":"02:39:40","cor_ans":false},{"trial_type":"html-keyboard-response","rt":null,"stimulus":"<p style=\"color: red; font-size: 50px; font-weight: bold;\">Incorrect</p>","response":null,"trial_index":164,"plugin_version":"2.1.0","time_elapsed":409346,"subject_id":"87768","group":"Group1","full_date":"2025-11-09T02:39:40.475Z","date":"2025-11-09","time":"02:39:40"},{"correct_response":"a","task":"test_phase","broad_category":"I","image_png":"I_Rhyolite_08.png","image_id":152,"category_name":"Rhyolite","category":10,"distinct_rating":1.38,"distinct_type":"Bottom","item_type":"Foil","rt":1714,"stimulus":"Stimuli_Rocks480/I_Rhyolite_08.png","response":"l","trial_type":"image-keyboard-response","trial_index":165,"plugin_version":"2.1.0","time_elapsed":411062,"subject_id":"87768","group":"Group1","full_date":"2025-11-09T02:39:40.475Z","date":"2025-11-09","time":"02:39:40","cor_ans":false},{"trial_type":"html-keyboard-response","rt":null,"stimulus":"<p style=\"color: red; font-size: 50px; font-weight: bold;\">Incorrect</p>","response":null,"trial_index":166,"plugin_version":"2.1.0","time_elapsed":411563,"subject_id":"87768","group":"Group1","full_date":"2025-11-09T02:39:40.475Z","date":"2025-11-09","time":"02:39:40"},{"correct_response":"l","task":"test_phase","broad_category":"I","image_png":"I_Pumice_11.png","image_id":139,"category_name":"Pumice","category":9,"distinct_rating":1.74,"distinct_type":"Bottom","item_type":"Target","rt":1434,"stimulus":"Stimuli_Rocks480/I_Pumice_11.png","response":"a","trial_type":"image-keyboard-response","trial_index":167,"plugin_version":"2.1.0","time_elapsed":412998,"subject_id":"87768","group":"Group1","full_date":"2025-11-09T02:39:40.475Z","date":"2025-11-09","time":"02:39:40","cor_ans":false},{"trial_type":"html-keyboard-response","rt":null,"stimulus":"<p style=\"color: red; font-size: 50px; font-weight: bold;\">Incorrect</p>","response":null,"trial_index":168,"plugin_version":"2.1.0","time_elapsed":413500,"subject_id":"87768","group":"Group1","full_date":"2025-11-09T02:39:40.475Z","date":"2025-11-09","time":"02:39:40"},{"correct_response":"l","task":"test_phase","broad_category":"M","image_png":"M_Phyllite_03.png","image_id":259,"category_name":"Phyllite","category":17,"distinct_rating":2.5,"distinct_type":"Bottom","item_type":"Target","rt":911,"stimulus":"Stimuli_Rocks480/M_Phyllite_03.png","response":"l","trial_type":"image-keyboard-response","trial_index":169,"plugin_version":"2.1.0","time_elapsed":414412,"subject_id":"87768","group":"Group1","full_date":"2025-11-09T02:39:40.475Z","date":"2025-11-09","time":"02:39:40","cor_ans":true},{"trial_type":"html-keyboard-response","rt":null,"stimulus":"<p style=\"color: green; font-size: 50px; font-weight: bold;\">Correct</p>","response":null,"trial_index":170,"plugin_version":"2.1.0","time_elapsed":414914,"subject_id":"87768","group":"Group1","full_date":"2025-11-09T02:39:40.475Z","date":"2025-11-09","time":"02:39:40"},{"correct_response":"l","task":"test_phase","broad_category":"M","image_png":"M_Phyllite_07.png","image_id":263,"category_name":"Phyllite","category":17,"distinct_rating":2.59,"distinct_type":"Bottom","item_type":"Target","rt":1747,"stimulus":"Stimuli_Rocks480/M_Phyllite_07.png","response":"l","trial_type":"image-keyboard-response","trial_index":171,"plugin_version":"2.1.0","time_elapsed":416663,"subject_id":"87768","group":"Group1","full_date":"2025-11-09T02:39:40.475Z","date":"2025-11-09","time":"02:39:40","cor_ans":true},{"trial_type":"html-keyboard-response","rt":null,"stimulus":"<p style=\"color: green; font-size: 50px; font-weight: bold;\">Correct</p>","response":null,"trial_index":172,"plugin_version":"2.1.0","time_elapsed":417164,"subject_id":"87768","group":"Group1","full_date":"2025-11-09T02:39:40.475Z","date":"2025-11-09","time":"02:39:40"},{"correct_response":"a","task":"test_phase","broad_category":"I","image_png":"I_Basalt_13.png","image_id":29,"category_name":"Basalt","category":2,"distinct_rating":2.68,"distinct_type":"Bottom","item_type":"Foil","rt":784,"stimulus":"Stimuli_Rocks480/I_Basalt_13.png","response":"a","trial_type":"image-keyboard-response","trial_index":173,"plugin_version":"2.1.0","time_elapsed":417949,"subject_id":"87768","group":"Group1","full_date":"2025-11-09T02:39:40.475Z","date":"2025-11-09","time":"02:39:40","cor_ans":true},{"trial_type":"html-keyboard-response","rt":null,"stimulus":"<p style=\"color: green; font-size: 50px; font-weight: bold;\">Correct</p>","response":null,"trial_index":174,"plugin_version":"2.1.0","time_elapsed":418451,"subject_id":"87768","group":"Group1","full_date":"2025-11-09T02:39:40.475Z","date":"2025-11-09","time":"02:39:40"},{"correct_response":"a","task":"test_phase","broad_category":"M","image_png":"M_Quartzite_07.png","image_id":279,"category_name":"Quartzite","category":18,"distinct_rating":1.97,"distinct_type":"Bottom","item_type":"Foil","rt":1196,"stimulus":"Stimuli_Rocks480/M_Quartzite_07.png","response":"a","trial_type":"image-keyboard-response","trial_index":175,"plugin_version":"2.1.0","time_elapsed":419648,"subject_id":"87768","group":"Group1","full_date":"2025-11-09T02:39:40.475Z","date":"2025-11-09","time":"02:39:40","cor_ans":true},{"trial_type":"html-keyboard-response","rt":null,"stimulus":"<p style=\"color: green; font-size: 50px; font-weight: bold;\">Correct</p>","response":null,"trial_index":176,"plugin_version":"2.1.0","time_elapsed":420150,"subject_id":"87768","group":"Group1","full_date":"2025-11-09T02:39:40.475Z","date":"2025-11-09","time":"02:39:40"},{"correct_response":"l","task":"test_phase","broad_category":"S","image_png":"S_Shale_01.png","image_id":465,"category_name":"Shale","category":30,"distinct_rating":2.7,"distinct_type":"Bottom","item_type":"Target","rt":1387,"stimulus":"Stimuli_Rocks480/S_Shale_01.png","response":"l","trial_type":"image-keyboard-response","trial_index":177,"plugin_version":"2.1.0","time_elapsed":421539,"subject_id":"87768","group":"Group1","full_date":"2025-11-09T02:39:40.475Z","date":"2025-11-09","time":"02:39:40","cor_ans":true},{"trial_type":"html-keyboard-response","rt":null,"stimulus":"<p style=\"color: green; font-size: 50px; font-weight: bold;\">Correct</p>","response":null,"trial_index":178,"plugin_version":"2.1.0","time_elapsed":422040,"subject_id":"87768","group":"Group1","full_date":"2025-11-09T02:39:40.475Z","date":"2025-11-09","time":"02:39:40"},{"correct_response":"l","task":"test_phase","broad_category":"S","image_png":"S_Dolomite_12.png","image_id":396,"category_name":"Dolomite","category":25,"distinct_rating":1.85,"distinct_type":"Bottom","item_type":"Target","rt":1124,"stimulus":"Stimuli_Rocks480/S_Dolomite_12.png","response":"l","trial_type":"image-keyboard-response","trial_index":179,"plugin_version":"2.1.0","time_elapsed":423166,"subject_id":"87768","group":"Group1","full_date":"2025-11-09T02:39:40.475Z","date":"2025-11-09","time":"02:39:40","cor_ans":true},{"trial_type":"html-keyboard-response","rt":null,"stimulus":"<p style=\"color: green; font-size: 50px; font-weight: bold;\">Correct</p>","response":null,"trial_index":180,"plugin_version":"2.1.0","time_elapsed":423667,"subject_id":"87768","group":"Group1","full_date":"2025-11-09T02:39:40.475Z","date":"2025-11-09","time":"02:39:40"},{"correct_response":"a","task":"test_phase","broad_category":"I","image_png":"I_Pumice_14.png","image_id":142,"category_name":"Pumice","category":9,"distinct_rating":3.22,"distinct_type":"Bottom","item_type":"Foil","rt":1422,"stimulus":"Stimuli_Rocks480/I_Pumice_14.png","response":"a","trial_type":"image-keyboard-response","trial_index":181,"plugin_version":"2.1.0","time_elapsed":425091,"subject_id":"87768","group":"Group1","full_date":"2025-11-09T02:39:40.475Z","date":"2025-11-09","time":"02:39:40","cor_ans":true},{"trial_type":"html-keyboard-response","rt":null,"stimulus":"<p style=\"color: green; font-size: 50px; font-weight: bold;\">Correct</p>","response":null,"trial_index":182,"plugin_version":"2.1.0","time_elapsed":425593,"subject_id":"87768","group":"Group1","full_date":"2025-11-09T02:39:40.475Z","date":"2025-11-09","time":"02:39:40"},{"correct_response":"a","task":"test_phase","broad_category":"S","image_png":"S_Chert_13.png","image_id":365,"category_name":"Chert","category":23,"distinct_rating":6.57,"distinct_type":"Top","item_type":"Foil","rt":748,"stimulus":"Stimuli_Rocks480/S_Chert_13.png","response":"a","trial_type":"image-keyboard-response","trial_index":183,"plugin_version":"2.1.0","time_elapsed":426341,"subject_id":"87768","group":"Group1","full_date":"2025-11-09T02:39:40.475Z","date":"2025-11-09","time":"02:39:40","cor_ans":true},{"trial_type":"html-keyboard-response","rt":null,"stimulus":"<p style=\"color: green; font-size: 50px; font-weight: bold;\">Correct</p>","response":null,"trial_index":184,"plugin_version":"2.1.0","time_elapsed":426842,"subject_id":"87768","group":"Group1","full_date":"2025-11-09T02:39:40.475Z","date":"2025-11-09","time":"02:39:40"},{"correct_response":"l","task":"test_phase","broad_category":"I","image_png":"I_Basalt_09.png","image_id":25,"category_name":"Basalt","category":2,"distinct_rating":1.89,"distinct_type":"Bottom","item_type":"Target","rt":820,"stimulus":"Stimuli_Rocks480/I_Basalt_09.png","response":"l","trial_type":"image-keyboard-response","trial_index":185,"plugin_version":"2.1.0","time_elapsed":427664,"subject_id":"87768","group":"Group1","full_date":"2025-11-09T02:39:40.475Z","date":"2025-11-09","time":"02:39:40","cor_ans":true},{"trial_type":"html-keyboard-response","rt":null,"stimulus":"<p style=\"color: green; font-size: 50px; font-weight: bold;\">Correct</p>","response":null,"trial_index":186,"plugin_version":"2.1.0","time_elapsed":428165,"subject_id":"87768","group":"Group1","full_date":"2025-11-09T02:39:40.475Z","date":"2025-11-09","time":"02:39:40"},{"correct_response":"l","task":"test_phase","broad_category":"S","image_png":"S_Dolomite_13.png","image_id":397,"category_name":"Dolomite","category":25,"distinct_rating":1.77,"distinct_type":"Bottom","item_type":"Target","rt":912,"stimulus":"Stimuli_Rocks480/S_Dolomite_13.png","response":"l","trial_type":"image-keyboard-response","trial_index":187,"plugin_version":"2.1.0","time_elapsed":429079,"subject_id":"87768","group":"Group1","full_date":"2025-11-09T02:39:40.475Z","date":"2025-11-09","time":"02:39:40","cor_ans":true},{"trial_type":"html-keyboard-response","rt":null,"stimulus":"<p style=\"color: green; font-size: 50px; font-weight: bold;\">Correct</p>","response":null,"trial_index":188,"plugin_version":"2.1.0","time_elapsed":429581,"subject_id":"87768","group":"Group1","full_date":"2025-11-09T02:39:40.475Z","date":"2025-11-09","time":"02:39:40"},{"correct_response":"a","task":"test_phase","broad_category":"I","image_png":"I_Peridotite_13.png","image_id":125,"category_name":"Peridotite","category":8,"distinct_rating":7.28,"distinct_type":"Top","item_type":"Foil","rt":954,"stimulus":"Stimuli_Rocks480/I_Peridotite_13.png","response":"a","trial_type":"image-keyboard-response","trial_index":189,"plugin_version":"2.1.0","time_elapsed":430536,"subject_id":"87768","group":"Group1","full_date":"2025-11-09T02:39:40.475Z","date":"2025-11-09","time":"02:39:40","cor_ans":true},{"trial_type":"html-keyboard-response","rt":null,"stimulus":"<p style=\"color: green; font-size: 50px; font-weight: bold;\">Correct</p>","response":null,"trial_index":190,"plugin_version":"2.1.0","time_elapsed":431037,"subject_id":"87768","group":"Group1","full_date":"2025-11-09T02:39:40.475Z","date":"2025-11-09","time":"02:39:40"},{"correct_response":"l","task":"test_phase","broad_category":"S","image_png":"S_Shale_08.png","image_id":472,"category_name":"Shale","category":30,"distinct_rating":2.55,"distinct_type":"Bottom","item_type":"Target","rt":783,"stimulus":"Stimuli_Rocks480/S_Shale_08.png","response":"l","trial_type":"image-keyboard-response","trial_index":191,"plugin_version":"2.1.0","time_elapsed":431822,"subject_id":"87768","group":"Group1","full_date":"2025-11-09T02:39:40.475Z","date":"2025-11-09","time":"02:39:40","cor_ans":true},{"trial_type":"html-keyboard-response","rt":null,"stimulus":"<p style=\"color: green; font-size: 50px; font-weight: bold;\">Correct</p>","response":null,"trial_index":192,"plugin_version":"2.1.0","time_elapsed":432324,"subject_id":"87768","group":"Group1","full_date":"2025-11-09T02:39:40.475Z","date":"2025-11-09","time":"02:39:40"},{"correct_response":"a","task":"test_phase","broad_category":"I","image_png":"I_Rhyolite_05.png","image_id":149,"category_name":"Rhyolite","category":10,"distinct_rating":3.02,"distinct_type":"Bottom","item_type":"Foil","rt":934,"stimulus":"Stimuli_Rocks480/I_Rhyolite_05.png","response":"a","trial_type":"image-keyboard-response","trial_index":193,"plugin_version":"2.1.0","time_elapsed":433259,"subject_id":"87768","group":"Group1","full_date":"2025-11-09T02:39:40.475Z","date":"2025-11-09","time":"02:39:40","cor_ans":true},{"trial_type":"html-keyboard-response","rt":null,"stimulus":"<p style=\"color: green; font-size: 50px; font-weight: bold;\">Correct</p>","response":null,"trial_index":194,"plugin_version":"2.1.0","time_elapsed":433761,"subject_id":"87768","group":"Group1","full_date":"2025-11-09T02:39:40.475Z","date":"2025-11-09","time":"02:39:40"},{"correct_response":"l","task":"test_phase","broad_category":"S","image_png":"S_Chert_10.png","image_id":362,"category_name":"Chert","category":23,"distinct_rating":7.17,"distinct_type":"Top","item_type":"Target","rt":738,"stimulus":"Stimuli_Rocks480/S_Chert_10.png","response":"a","trial_type":"image-keyboard-response","trial_index":195,"plugin_version":"2.1.0","time_elapsed":434500,"subject_id":"87768","group":"Group1","full_date":"2025-11-09T02:39:40.475Z","date":"2025-11-09","time":"02:39:40","cor_ans":false},{"trial_type":"html-keyboard-response","rt":null,"stimulus":"<p style=\"color: red; font-size: 50px; font-weight: bold;\">Incorrect</p>","response":null,"trial_index":196,"plugin_version":"2.1.0","time_elapsed":435002,"subject_id":"87768","group":"Group1","full_date":"2025-11-09T02:39:40.475Z","date":"2025-11-09","time":"02:39:40"},{"correct_response":"l","task":"test_phase","broad_category":"I","image_png":"I_Basalt_02.png","image_id":18,"category_name":"Basalt","category":2,"distinct_rating":1.84,"distinct_type":"Bottom","item_type":"Target","rt":826,"stimulus":"Stimuli_Rocks480/I_Basalt_02.png","response":"l","trial_type":"image-keyboard-response","trial_index":197,"plugin_version":"2.1.0","time_elapsed":435830,"subject_id":"87768","group":"Group1","full_date":"2025-11-09T02:39:40.475Z","date":"2025-11-09","time":"02:39:40","cor_ans":true},{"trial_type":"html-keyboard-response","rt":null,"stimulus":"<p style=\"color: green; font-size: 50px; font-weight: bold;\">Correct</p>","response":null,"trial_index":198,"plugin_version":"2.1.0","time_elapsed":436331,"subject_id":"87768","group":"Group1","full_date":"2025-11-09T02:39:40.475Z","date":"2025-11-09","time":"02:39:40"},{"correct_response":"a","task":"test_phase","broad_category":"S","image_png":"S_Shale_03.png","image_id":467,"category_name":"Shale","category":30,"distinct_rating":1.95,"distinct_type":"Bottom","item_type":"Foil","rt":973,"stimulus":"Stimuli_Rocks480/S_Shale_03.png","response":"l","trial_type":"image-keyboard-response","trial_index":199,"plugin_version":"2.1.0","time_elapsed":437305,"subject_id":"87768","group":"Group1","full_date":"2025-11-09T02:39:40.475Z","date":"2025-11-09","time":"02:39:40","cor_ans":false},{"trial_type":"html-keyboard-response","rt":null,"stimulus":"<p style=\"color: red; font-size: 50px; font-weight: bold;\">Incorrect</p>","response":null,"trial_index":200,"plugin_version":"2.1.0","time_elapsed":437807,"subject_id":"87768","group":"Group1","full_date":"2025-11-09T02:39:40.475Z","date":"2025-11-09","time":"02:39:40"},{"correct_response":"l","task":"test_phase","broad_category":"S","image_png":"S_Conglomerate_05.png","image_id":373,"category_name":"Conglomerate","category":24,"distinct_rating":7.32,"distinct_type":"Top","item_type":"Target","rt":660,"stimulus":"Stimuli_Rocks480/S_Conglomerate_05.png","response":"a","trial_type":"image-keyboard-response","trial_index":201,"plugin_version":"2.1.0","time_elapsed":438469,"subject_id":"87768","group":"Group1","full_date":"2025-11-09T02:39:40.475Z","date":"2025-11-09","time":"02:39:40","cor_ans":false},{"trial_type":"html-keyboard-response","rt":null,"stimulus":"<p style=\"color: red; font-size: 50px; font-weight: bold;\">Incorrect</p>","response":null,"trial_index":202,"plugin_version":"2.1.0","time_elapsed":438971,"subject_id":"87768","group":"Group1","full_date":"2025-11-09T02:39:40.475Z","date":"2025-11-09","time":"02:39:40"},{"correct_response":"a","task":"test_phase","broad_category":"M","image_png":"M_Marble_03.png","image_id":227,"category_name":"Marble","category":15,"distinct_rating":2.67,"distinct_type":"Bottom","item_type":"Foil","rt":912,"stimulus":"Stimuli_Rocks480/M_Marble_03.png","response":"a","trial_type":"image-keyboard-response","trial_index":203,"plugin_version":"2.1.0","time_elapsed":439884,"subject_id":"87768","group":"Group1","full_date":"2025-11-09T02:39:40.475Z","date":"2025-11-09","time":"02:39:40","cor_ans":true},{"trial_type":"html-keyboard-response","rt":null,"stimulus":"<p style=\"color: green; font-size: 50px; font-weight: bold;\">Correct</p>","response":null,"trial_index":204,"plugin_version":"2.1.0","time_elapsed":440385,"subject_id":"87768","group":"Group1","full_date":"2025-11-09T02:39:40.475Z","date":"2025-11-09","time":"02:39:40"},{"correct_response":"a","task":"test_phase","broad_category":"M","image_png":"M_Slate_04.png","image_id":308,"category_name":"Slate","category":20,"distinct_rating":2.2,"distinct_type":"Bottom","item_type":"Foil","rt":758,"stimulus":"Stimuli_Rocks480/M_Slate_04.png","response":"l","trial_type":"image-keyboard-response","trial_index":205,"plugin_version":"2.1.0","time_elapsed":441144,"subject_id":"87768","group":"Group1","full_date":"2025-11-09T02:39:40.475Z","date":"2025-11-09","time":"02:39:40","cor_ans":false},{"trial_type":"html-keyboard-response","rt":null,"stimulus":"<p style=\"color: red; font-size: 50px; font-weight: bold;\">Incorrect</p>","response":null,"trial_index":206,"plugin_version":"2.1.0","time_elapsed":441645,"subject_id":"87768","group":"Group1","full_date":"2025-11-09T02:39:40.475Z","date":"2025-11-09","time":"02:39:40"},{"correct_response":"a","task":"test_phase","broad_category":"I","image_png":"I_Diorite_15.png","image_id":47,"category_name":"Diorite","category":3,"distinct_rating":3.05,"distinct_type":"Bottom","item_type":"Foil","rt":934,"stimulus":"Stimuli_Rocks480/I_Diorite_15.png","response":"a","trial_type":"image-keyboard-response","trial_index":207,"plugin_version":"2.1.0","time_elapsed":442580,"subject_id":"87768","group":"Group1","full_date":"2025-11-09T02:39:40.475Z","date":"2025-11-09","time":"02:39:40","cor_ans":true},{"trial_type":"html-keyboard-response","rt":null,"stimulus":"<p style=\"color: green; font-size: 50px; font-weight: bold;\">Correct</p>","response":null,"trial_index":208,"plugin_version":"2.1.0","time_elapsed":443082,"subject_id":"87768","group":"Group1","full_date":"2025-11-09T02:39:40.475Z","date":"2025-11-09","time":"02:39:40"},{"correct_response":"a","task":"test_phase","broad_category":"S","image_png":"S_Sandstone_08.png","image_id":456,"category_name":"Sandstone","category":29,"distinct_rating":1.5,"distinct_type":"Bottom","item_type":"Foil","rt":3122,"stimulus":"Stimuli_Rocks480/S_Sandstone_08.png","response":"a","trial_type":"image-keyboard-response","trial_index":209,"plugin_version":"2.1.0","time_elapsed":446206,"subject_id":"87768","group":"Group1","full_date":"2025-11-09T02:39:40.475Z","date":"2025-11-09","time":"02:39:40","cor_ans":true},{"trial_type":"html-keyboard-response","rt":null,"stimulus":"<p style=\"color: green; font-size: 50px; font-weight: bold;\">Correct</p>","response":null,"trial_index":210,"plugin_version":"2.1.0","time_elapsed":446707,"subject_id":"87768","group":"Group1","full_date":"2025-11-09T02:39:40.475Z","date":"2025-11-09","time":"02:39:40"},{"correct_response":"a","task":"test_phase","broad_category":"S","image_png":"S_Dolomite_07.png","image_id":391,"category_name":"Dolomite","category":25,"distinct_rating":1.73,"distinct_type":"Bottom","item_type":"Foil","rt":883,"stimulus":"Stimuli_Rocks480/S_Dolomite_07.png","response":"l","trial_type":"image-keyboard-response","trial_index":211,"plugin_version":"2.1.0","time_elapsed":447591,"subject_id":"87768","group":"Group1","full_date":"2025-11-09T02:39:40.475Z","date":"2025-11-09","time":"02:39:40","cor_ans":false},{"trial_type":"html-keyboard-response","rt":null,"stimulus":"<p style=\"color: red; font-size: 50px; font-weight: bold;\">Incorrect</p>","response":null,"trial_index":212,"plugin_version":"2.1.0","time_elapsed":448093,"subject_id":"87768","group":"Group1","full_date":"2025-11-09T02:39:40.475Z","date":"2025-11-09","time":"02:39:40"},{"correct_response":"l","task":"test_phase","broad_category":"S","image_png":"S_Rock Salt_01.png","image_id":433,"category_name":"Rock Salt","category":28,"distinct_rating":7.18,"distinct_type":"Top","item_type":"Target","rt":1875,"stimulus":"Stimuli_Rocks480/S_Rock Salt_01.png","response":"l","trial_type":"image-keyboard-response","trial_index":213,"plugin_version":"2.1.0","time_elapsed":449969,"subject_id":"87768","group":"Group1","full_date":"2025-11-09T02:39:40.475Z","date":"2025-11-09","time":"02:39:40","cor_ans":true},{"trial_type":"html-keyboard-response","rt":null,"stimulus":"<p style=\"color: green; font-size: 50px; font-weight: bold;\">Correct</p>","response":null,"trial_index":214,"plugin_version":"2.1.0","time_elapsed":450471,"subject_id":"87768","group":"Group1","full_date":"2025-11-09T02:39:40.475Z","date":"2025-11-09","time":"02:39:40"},{"correct_response":"l","task":"test_phase","broad_category":"S","image_png":"S_Dolomite_14.png","image_id":398,"category_name":"Dolomite","category":25,"distinct_rating":1.43,"distinct_type":"Bottom","item_type":"Target","rt":932,"stimulus":"Stimuli_Rocks480/S_Dolomite_14.png","response":"a","trial_type":"image-keyboard-response","trial_index":215,"plugin_version":"2.1.0","time_elapsed":451404,"subject_id":"87768","group":"Group1","full_date":"2025-11-09T02:39:40.475Z","date":"2025-11-09","time":"02:39:40","cor_ans":false},{"trial_type":"html-keyboard-response","rt":null,"stimulus":"<p style=\"color: red; font-size: 50px; font-weight: bold;\">Incorrect</p>","response":null,"trial_index":216,"plugin_version":"2.1.0","time_elapsed":451906,"subject_id":"87768","group":"Group1","full_date":"2025-11-09T02:39:40.475Z","date":"2025-11-09","time":"02:39:40"},{"correct_response":"a","task":"test_phase","broad_category":"S","image_png":"S_Shale_07.png","image_id":471,"category_name":"Shale","category":30,"distinct_rating":2.73,"distinct_type":"Bottom","item_type":"Foil","rt":745,"stimulus":"Stimuli_Rocks480/S_Shale_07.png","response":"l","trial_type":"image-keyboard-response","trial_index":217,"plugin_version":"2.1.0","time_elapsed":452653,"subject_id":"87768","group":"Group1","full_date":"2025-11-09T02:39:40.475Z","date":"2025-11-09","time":"02:39:40","cor_ans":false},{"trial_type":"html-keyboard-response","rt":null,"stimulus":"<p style=\"color: red; font-size: 50px; font-weight: bold;\">Incorrect</p>","response":null,"trial_index":218,"plugin_version":"2.1.0","time_elapsed":453154,"subject_id":"87768","group":"Group1","full_date":"2025-11-09T02:39:40.475Z","date":"2025-11-09","time":"02:39:40"},{"correct_response":"l","task":"test_phase","broad_category":"S","image_png":"S_Sandstone_16.png","image_id":464,"category_name":"Sandstone","category":29,"distinct_rating":1.93,"distinct_type":"Bottom","item_type":"Target","rt":1942,"stimulus":"Stimuli_Rocks480/S_Sandstone_16.png","response":"a","trial_type":"image-keyboard-response","trial_index":219,"plugin_version":"2.1.0","time_elapsed":455098,"subject_id":"87768","group":"Group1","full_date":"2025-11-09T02:39:40.475Z","date":"2025-11-09","time":"02:39:40","cor_ans":false},{"trial_type":"html-keyboard-response","rt":null,"stimulus":"<p style=\"color: red; font-size: 50px; font-weight: bold;\">Incorrect</p>","response":null,"trial_index":220,"plugin_version":"2.1.0","time_elapsed":455600,"subject_id":"87768","group":"Group1","full_date":"2025-11-09T02:39:40.475Z","date":"2025-11-09","time":"02:39:40"},{"correct_response":"a","task":"test_phase","broad_category":"M","image_png":"M_Phyllite_05.png","image_id":261,"category_name":"Phyllite","category":17,"distinct_rating":2.14,"distinct_type":"Bottom","item_type":"Foil","rt":908,"stimulus":"Stimuli_Rocks480/M_Phyllite_05.png","response":"l","trial_type":"image-keyboard-response","trial_index":221,"plugin_version":"2.1.0","time_elapsed":456513,"subject_id":"87768","group":"Group1","full_date":"2025-11-09T02:39:40.475Z","date":"2025-11-09","time":"02:39:40","cor_ans":false},{"trial_type":"html-keyboard-response","rt":null,"stimulus":"<p style=\"color: red; font-size: 50px; font-weight: bold;\">Incorrect</p>","response":null,"trial_index":222,"plugin_version":"2.1.0","time_elapsed":457015,"subject_id":"87768","group":"Group1","full_date":"2025-11-09T02:39:40.475Z","date":"2025-11-09","time":"02:39:40"},{"correct_response":"a","task":"test_phase","broad_category":"S","image_png":"S_Rock Salt_15.png","image_id":447,"category_name":"Rock Salt","category":28,"distinct_rating":7.79,"distinct_type":"Top","item_type":"Foil","rt":1278,"stimulus":"Stimuli_Rocks480/S_Rock Salt_15.png","response":"a","trial_type":"image-keyboard-response","trial_index":223,"plugin_version":"2.1.0","time_elapsed":458294,"subject_id":"87768","group":"Group1","full_date":"2025-11-09T02:39:40.475Z","date":"2025-11-09","time":"02:39:40","cor_ans":true},{"trial_type":"html-keyboard-response","rt":null,"stimulus":"<p style=\"color: green; font-size: 50px; font-weight: bold;\">Correct</p>","response":null,"trial_index":224,"plugin_version":"2.1.0","time_elapsed":458795,"subject_id":"87768","group":"Group1","full_date":"2025-11-09T02:39:40.475Z","date":"2025-11-09","time":"02:39:40"},{"correct_response":"a","task":"test_phase","broad_category":"S","image_png":"S_Dolomite_16.png","image_id":400,"category_name":"Dolomite","category":25,"distinct_rating":1.71,"distinct_type":"Bottom","item_type":"Foil","rt":927,"stimulus":"Stimuli_Rocks480/S_Dolomite_16.png","response":"a","trial_type":"image-keyboard-response","trial_index":225,"plugin_version":"2.1.0","time_elapsed":459724,"subject_id":"87768","group":"Group1","full_date":"2025-11-09T02:39:40.475Z","date":"2025-11-09","time":"02:39:40","cor_ans":true},{"trial_type":"html-keyboard-response","rt":null,"stimulus":"<p style=\"color: green; font-size: 50px; font-weight: bold;\">Correct</p>","response":null,"trial_index":226,"plugin_version":"2.1.0","time_elapsed":460225,"subject_id":"87768","group":"Group1","full_date":"2025-11-09T02:39:40.475Z","date":"2025-11-09","time":"02:39:40"},{"correct_response":"l","task":"test_phase","broad_category":"M","image_png":"M_Slate_11.png","image_id":315,"category_name":"Slate","category":20,"distinct_rating":2.75,"distinct_type":"Bottom","item_type":"Target","rt":1052,"stimulus":"Stimuli_Rocks480/M_Slate_11.png","response":"l","trial_type":"image-keyboard-response","trial_index":227,"plugin_version":"2.1.0","time_elapsed":461278,"subject_id":"87768","group":"Group1","full_date":"2025-11-09T02:39:40.475Z","date":"2025-11-09","time":"02:39:40","cor_ans":true},{"trial_type":"html-keyboard-response","rt":null,"stimulus":"<p style=\"color: green; font-size: 50px; font-weight: bold;\">Correct</p>","response":null,"trial_index":228,"plugin_version":"2.1.0","time_elapsed":461780,"subject_id":"87768","group":"Group1","full_date":"2025-11-09T02:39:40.475Z","date":"2025-11-09","time":"02:39:40"},{"correct_response":"l","task":"test_phase","broad_category":"I","image_png":"I_Andesite_08.png","image_id":8,"category_name":"Andesite","category":1,"distinct_rating":1.95,"distinct_type":"Bottom","item_type":"Target","rt":1196,"stimulus":"Stimuli_Rocks480/I_Andesite_08.png","response":"l","trial_type":"image-keyboard-response","trial_index":229,"plugin_version":"2.1.0","time_elapsed":462977,"subject_id":"87768","group":"Group1","full_date":"2025-11-09T02:39:40.475Z","date":"2025-11-09","time":"02:39:40","cor_ans":true},{"trial_type":"html-keyboard-response","rt":null,"stimulus":"<p style=\"color: green; font-size: 50px; font-weight: bold;\">Correct</p>","response":null,"trial_index":230,"plugin_version":"2.1.0","time_elapsed":463478,"subject_id":"87768","group":"Group1","full_date":"2025-11-09T02:39:40.475Z","date":"2025-11-09","time":"02:39:40"},{"correct_response":"a","task":"test_phase","broad_category":"M","image_png":"M_Quartzite_12.png","image_id":284,"category_name":"Quartzite","category":18,"distinct_rating":1.92,"distinct_type":"Bottom","item_type":"Foil","rt":1553,"stimulus":"Stimuli_Rocks480/M_Quartzite_12.png","response":"l","trial_type":"image-keyboard-response","trial_index":231,"plugin_version":"2.1.0","time_elapsed":465032,"subject_id":"87768","group":"Group1","full_date":"2025-11-09T02:39:40.475Z","date":"2025-11-09","time":"02:39:40","cor_ans":false},{"trial_type":"html-keyboard-response","rt":null,"stimulus":"<p style=\"color: red; font-size: 50px; font-weight: bold;\">Incorrect</p>","response":null,"trial_index":232,"plugin_version":"2.1.0","time_elapsed":465533,"subject_id":"87768","group":"Group1","full_date":"2025-11-09T02:39:40.475Z","date":"2025-11-09","time":"02:39:40"},{"correct_response":"a","task":"test_phase","broad_category":"M","image_png":"M_Marble_02.png","image_id":226,"category_name":"Marble","category":15,"distinct_rating":3.2,"distinct_type":"Bottom","item_type":"Foil","rt":880,"stimulus":"Stimuli_Rocks480/M_Marble_02.png","response":"a","trial_type":"image-keyboard-response","trial_index":233,"plugin_version":"2.1.0","time_elapsed":466414,"subject_id":"87768","group":"Group1","full_date":"2025-11-09T02:39:40.475Z","date":"2025-11-09","time":"02:39:40","cor_ans":true},{"trial_type":"html-keyboard-response","rt":null,"stimulus":"<p style=\"color: green; font-size: 50px; font-weight: bold;\">Correct</p>","response":null,"trial_index":234,"plugin_version":"2.1.0","time_elapsed":466916,"subject_id":"87768","group":"Group1","full_date":"2025-11-09T02:39:40.475Z","date":"2025-11-09","time":"02:39:40"},{"correct_response":"l","task":"test_phase","broad_category":"M","image_png":"M_Gneiss_05.png","image_id":197,"category_name":"Gneiss","category":13,"distinct_rating":2.97,"distinct_type":"Bottom","item_type":"Target","rt":882,"stimulus":"Stimuli_Rocks480/M_Gneiss_05.png","response":"l","trial_type":"image-keyboard-response","trial_index":235,"plugin_version":"2.1.0","time_elapsed":467799,"subject_id":"87768","group":"Group1","full_date":"2025-11-09T02:39:40.475Z","date":"2025-11-09","time":"02:39:40","cor_ans":true},{"trial_type":"html-keyboard-response","rt":null,"stimulus":"