[{"width":1426,"height":718,"webaudio":true,"browser":"chrome","browser_version":"142.0.0","mobile":false,"os":"Mac OS","fullscreen":true,"vsync_rate":61,"webcam":true,"microphone":true,"trial_type":"browser-check","trial_index":0,"plugin_version":"2.1.0","time_elapsed":3329,"subject_id":"88725","group":"Group2","full_date":"2025-11-11T18:12:53.089Z","date":"2025-11-11","time":"18:12:53"},{"success":true,"timeout":false,"failed_images":[],"failed_audio":[],"failed_video":[],"trial_type":"preload","trial_index":1,"plugin_version":"2.1.0","time_elapsed":5050,"subject_id":"88725","group":"Group2","full_date":"2025-11-11T18:12:53.089Z","date":"2025-11-11","time":"18:12:53"},{"rt":5440,"url":"SONA_consent_memorability.html","trial_type":"external-html","trial_index":2,"plugin_version":"2.1.0","time_elapsed":10510,"subject_id":"88725","group":"Group2","full_date":"2025-11-11T18:12:53.089Z","date":"2025-11-11","time":"18:12:53"},{"success":true,"rt":20879,"trial_type":"fullscreen","trial_index":3,"plugin_version":"2.1.0","time_elapsed":32392,"subject_id":"88725","group":"Group2","full_date":"2025-11-11T18:12:53.089Z","date":"2025-11-11","time":"18:12:53"},{"rt":4848,"stimulus":"<div style=\"max-width: 760px; margin: auto; font-size: 20px; line-height: 1.5;\">\n      <h1 style=\"text-align:center; font-size: 30px;\">Instructions</h1>\n      <p>\n        Welcome to the study on <b>visual memory</b>. This experiment consists of <b>two phases</b>: \n        a <b>study phase</b> and a <b>test phase</b>.\n      </p>\n      <p>\n        In the study phase, you will see a series of rock images along with their category labels.\n        The images will appear one at a time.\n        <b>Your task</b> is to learn the categories to which the rock images belong \n        and to remember each image as accurately as possible.\n      </p> \n      <p>\n        After the study phase, <b>your memory will be tested</b>. \n        Additional instructions for the test phase will be provided at that time.\n      </p>\n      <p>\n        If your computer has multiple <b>language settings</b> (e.g., English and another language),\n        please make sure it is set to English before starting.\n      </p>\n      <p>\n        You can track your progress using the <b>completion bar</b> at the top of the screen. \n        Please note that the bar will refresh when the test phase begins \n        to give you an accurate sense of your progress in both phases.\n      </p> \n      <p>\n        Press the button below when you are ready to begin.\n      </p>\n    </div>","response":0,"trial_type":"html-button-response","trial_index":4,"plugin_version":"2.1.0","time_elapsed":37243,"subject_id":"88725","group":"Group2","full_date":"2025-11-11T18:12:53.089Z","date":"2025-11-11","time":"18:12:53"},{"rt":null,"stimulus":"<p style=\"font-size: 50px; margin: 0; text-align: center;\">+</p>","response":null,"trial_type":"html-keyboard-response","trial_index":5,"plugin_version":"2.1.0","time_elapsed":38250,"subject_id":"88725","group":"Group2","full_date":"2025-11-11T18:12:53.089Z","date":"2025-11-11","time":"18:12:53"},{"task":"memory_phase","broad_category":"S","image_png":"S_Chert_13.png","image_id":365,"category_name":"Chert","category":23,"distinct_rating":6.57,"distinct_type":"Top","rt":null,"stimulus":"Stimuli_Rocks480/S_Chert_13.png","response":null,"trial_type":"image-keyboard-response","trial_index":6,"plugin_version":"2.1.0","time_elapsed":40757,"subject_id":"88725","group":"Group2","full_date":"2025-11-11T18:12:53.089Z","date":"2025-11-11","time":"18:12:53"},{"rt":null,"stimulus":"<p style=\"font-size: 50px; margin: 0; text-align: center;\">+</p>","response":null,"trial_type":"html-keyboard-response","trial_index":7,"plugin_version":"2.1.0","time_elapsed":41760,"subject_id":"88725","group":"Group2","full_date":"2025-11-11T18:12:53.089Z","date":"2025-11-11","time":"18:12:53"},{"task":"memory_phase","broad_category":"S","image_png":"S_Shale_03.png","image_id":467,"category_name":"Shale","category":30,"distinct_rating":1.95,"distinct_type":"Bottom","rt":null,"stimulus":"Stimuli_Rocks480/S_Shale_03.png","response":null,"trial_type":"image-keyboard-response","trial_index":8,"plugin_version":"2.1.0","time_elapsed":44263,"subject_id":"88725","group":"Group2","full_date":"2025-11-11T18:12:53.089Z","date":"2025-11-11","time":"18:12:53"},{"rt":null,"stimulus":"<p style=\"font-size: 50px; margin: 0; text-align: center;\">+</p>","response":null,"trial_type":"html-keyboard-response","trial_index":9,"plugin_version":"2.1.0","time_elapsed":45266,"subject_id":"88725","group":"Group2","full_date":"2025-11-11T18:12:53.089Z","date":"2025-11-11","time":"18:12:53"},{"task":"memory_phase","broad_category":"M","image_png":"M_Phyllite_05.png","image_id":261,"category_name":"Phyllite","category":17,"distinct_rating":2.14,"distinct_type":"Bottom","rt":null,"stimulus":"Stimuli_Rocks480/M_Phyllite_05.png","response":null,"trial_type":"image-keyboard-response","trial_index":10,"plugin_version":"2.1.0","time_elapsed":47771,"subject_id":"88725","group":"Group2","full_date":"2025-11-11T18:12:53.089Z","date":"2025-11-11","time":"18:12:53"},{"rt":null,"stimulus":"<p style=\"font-size: 50px; margin: 0; text-align: center;\">+</p>","response":null,"trial_type":"html-keyboard-response","trial_index":11,"plugin_version":"2.1.0","time_elapsed":48774,"subject_id":"88725","group":"Group2","full_date":"2025-11-11T18:12:53.089Z","date":"2025-11-11","time":"18:12:53"},{"task":"memory_phase","broad_category":"S","image_png":"S_Sandstone_08.png","image_id":456,"category_name":"Sandstone","category":29,"distinct_rating":1.5,"distinct_type":"Bottom","rt":null,"stimulus":"Stimuli_Rocks480/S_Sandstone_08.png","response":null,"trial_type":"image-keyboard-response","trial_index":12,"plugin_version":"2.1.0","time_elapsed":51278,"subject_id":"88725","group":"Group2","full_date":"2025-11-11T18:12:53.089Z","date":"2025-11-11","time":"18:12:53"},{"rt":null,"stimulus":"<p style=\"font-size: 50px; margin: 0; text-align: center;\">+</p>","response":null,"trial_type":"html-keyboard-response","trial_index":13,"plugin_version":"2.1.0","time_elapsed":52280,"subject_id":"88725","group":"Group2","full_date":"2025-11-11T18:12:53.089Z","date":"2025-11-11","time":"18:12:53"},{"task":"memory_phase","broad_category":"S","image_png":"S_Shale_07.png","image_id":471,"category_name":"Shale","category":30,"distinct_rating":2.73,"distinct_type":"Bottom","rt":null,"stimulus":"Stimuli_Rocks480/S_Shale_07.png","response":null,"trial_type":"image-keyboard-response","trial_index":14,"plugin_version":"2.1.0","time_elapsed":54784,"subject_id":"88725","group":"Group2","full_date":"2025-11-11T18:12:53.089Z","date":"2025-11-11","time":"18:12:53"},{"rt":null,"stimulus":"<p style=\"font-size: 50px; margin: 0; text-align: center;\">+</p>","response":null,"trial_type":"html-keyboard-response","trial_index":15,"plugin_version":"2.1.0","time_elapsed":55788,"subject_id":"88725","group":"Group2","full_date":"2025-11-11T18:12:53.089Z","date":"2025-11-11","time":"18:12:53"},{"task":"memory_phase","broad_category":"I","image_png":"I_Rhyolite_08.png","image_id":152,"category_name":"Rhyolite","category":10,"distinct_rating":1.38,"distinct_type":"Bottom","rt":null,"stimulus":"Stimuli_Rocks480/I_Rhyolite_08.png","response":null,"trial_type":"image-keyboard-response","trial_index":16,"plugin_version":"2.1.0","time_elapsed":58292,"subject_id":"88725","group":"Group2","full_date":"2025-11-11T18:12:53.089Z","date":"2025-11-11","time":"18:12:53"},{"rt":null,"stimulus":"<p style=\"font-size: 50px; margin: 0; text-align: center;\">+</p>","response":null,"trial_type":"html-keyboard-response","trial_index":17,"plugin_version":"2.1.0","time_elapsed":59295,"subject_id":"88725","group":"Group2","full_date":"2025-11-11T18:12:53.089Z","date":"2025-11-11","time":"18:12:53"},{"task":"memory_phase","broad_category":"M","image_png":"M_Phyllite_13.png","image_id":269,"category_name":"Phyllite","category":17,"distinct_rating":2.8,"distinct_type":"Bottom","rt":null,"stimulus":"Stimuli_Rocks480/M_Phyllite_13.png","response":null,"trial_type":"image-keyboard-response","trial_index":18,"plugin_version":"2.1.0","time_elapsed":61800,"subject_id":"88725","group":"Group2","full_date":"2025-11-11T18:12:53.089Z","date":"2025-11-11","time":"18:12:53"},{"rt":null,"stimulus":"<p style=\"font-size: 50px; margin: 0; text-align: center;\">+</p>","response":null,"trial_type":"html-keyboard-response","trial_index":19,"plugin_version":"2.1.0","time_elapsed":62802,"subject_id":"88725","group":"Group2","full_date":"2025-11-11T18:12:53.089Z","date":"2025-11-11","time":"18:12:53"},{"task":"memory_phase","broad_category":"I","image_png":"I_Peridotite_13.png","image_id":125,"category_name":"Peridotite","category":8,"distinct_rating":7.28,"distinct_type":"Top","rt":null,"stimulus":"Stimuli_Rocks480/I_Peridotite_13.png","response":null,"trial_type":"image-keyboard-response","trial_index":20,"plugin_version":"2.1.0","time_elapsed":65307,"subject_id":"88725","group":"Group2","full_date":"2025-11-11T18:12:53.089Z","date":"2025-11-11","time":"18:12:53"},{"rt":null,"stimulus":"<p style=\"font-size: 50px; margin: 0; text-align: center;\">+</p>","response":null,"trial_type":"html-keyboard-response","trial_index":21,"plugin_version":"2.1.0","time_elapsed":66310,"subject_id":"88725","group":"Group2","full_date":"2025-11-11T18:12:53.089Z","date":"2025-11-11","time":"18:12:53"},{"task":"memory_phase","broad_category":"I","image_png":"I_Gabbro_02.png","image_id":50,"category_name":"Gabbro","category":4,"distinct_rating":2.73,"distinct_type":"Bottom","rt":null,"stimulus":"Stimuli_Rocks480/I_Gabbro_02.png","response":null,"trial_type":"image-keyboard-response","trial_index":22,"plugin_version":"2.1.0","time_elapsed":68814,"subject_id":"88725","group":"Group2","full_date":"2025-11-11T18:12:53.089Z","date":"2025-11-11","time":"18:12:53"},{"rt":null,"stimulus":"<p style=\"font-size: 50px; margin: 0; text-align: center;\">+</p>","response":null,"trial_type":"html-keyboard-response","trial_index":23,"plugin_version":"2.1.0","time_elapsed":69817,"subject_id":"88725","group":"Group2","full_date":"2025-11-11T18:12:53.089Z","date":"2025-11-11","time":"18:12:53"},{"task":"memory_phase","broad_category":"I","image_png":"I_Obsidian_06.png","image_id":86,"category_name":"Obsidian","category":6,"distinct_rating":8.01,"distinct_type":"Top","rt":null,"stimulus":"Stimuli_Rocks480/I_Obsidian_06.png","response":null,"trial_type":"image-keyboard-response","trial_index":24,"plugin_version":"2.1.0","time_elapsed":72322,"subject_id":"88725","group":"Group2","full_date":"2025-11-11T18:12:53.089Z","date":"2025-11-11","time":"18:12:53"},{"rt":null,"stimulus":"<p style=\"font-size: 50px; margin: 0; text-align: center;\">+</p>","response":null,"trial_type":"html-keyboard-response","trial_index":25,"plugin_version":"2.1.0","time_elapsed":73324,"subject_id":"88725","group":"Group2","full_date":"2025-11-11T18:12:53.089Z","date":"2025-11-11","time":"18:12:53"},{"task":"memory_phase","broad_category":"S","image_png":"S_Shale_02.png","image_id":466,"category_name":"Shale","category":30,"distinct_rating":2.9,"distinct_type":"Bottom","rt":null,"stimulus":"Stimuli_Rocks480/S_Shale_02.png","response":null,"trial_type":"image-keyboard-response","trial_index":26,"plugin_version":"2.1.0","time_elapsed":75828,"subject_id":"88725","group":"Group2","full_date":"2025-11-11T18:12:53.089Z","date":"2025-11-11","time":"18:12:53"},{"rt":null,"stimulus":"<p style=\"font-size: 50px; margin: 0; text-align: center;\">+</p>","response":null,"trial_type":"html-keyboard-response","trial_index":27,"plugin_version":"2.1.0","time_elapsed":76831,"subject_id":"88725","group":"Group2","full_date":"2025-11-11T18:12:53.089Z","date":"2025-11-11","time":"18:12:53"},{"task":"memory_phase","broad_category":"M","image_png":"M_Gneiss_14.png","image_id":206,"category_name":"Gneiss","category":13,"distinct_rating":3.41,"distinct_type":"Bottom","rt":null,"stimulus":"Stimuli_Rocks480/M_Gneiss_14.png","response":null,"trial_type":"image-keyboard-response","trial_index":28,"plugin_version":"2.1.0","time_elapsed":79335,"subject_id":"88725","group":"Group2","full_date":"2025-11-11T18:12:53.089Z","date":"2025-11-11","time":"18:12:53"},{"rt":null,"stimulus":"<p style=\"font-size: 50px; margin: 0; text-align: center;\">+</p>","response":null,"trial_type":"html-keyboard-response","trial_index":29,"plugin_version":"2.1.0","time_elapsed":80338,"subject_id":"88725","group":"Group2","full_date":"2025-11-11T18:12:53.089Z","date":"2025-11-11","time":"18:12:53"},{"task":"memory_phase","broad_category":"M","image_png":"M_Phyllite_02.png","image_id":258,"category_name":"Phyllite","category":17,"distinct_rating":2.89,"distinct_type":"Bottom","rt":null,"stimulus":"Stimuli_Rocks480/M_Phyllite_02.png","response":null,"trial_type":"image-keyboard-response","trial_index":30,"plugin_version":"2.1.0","time_elapsed":82842,"subject_id":"88725","group":"Group2","full_date":"2025-11-11T18:12:53.089Z","date":"2025-11-11","time":"18:12:53"},{"rt":null,"stimulus":"<p style=\"font-size: 50px; margin: 0; text-align: center;\">+</p>","response":null,"trial_type":"html-keyboard-response","trial_index":31,"plugin_version":"2.1.0","time_elapsed":83845,"subject_id":"88725","group":"Group2","full_date":"2025-11-11T18:12:53.089Z","date":"2025-11-11","time":"18:12:53"},{"task":"memory_phase","broad_category":"M","image_png":"M_Marble_03.png","image_id":227,"category_name":"Marble","category":15,"distinct_rating":2.67,"distinct_type":"Bottom","rt":null,"stimulus":"Stimuli_Rocks480/M_Marble_03.png","response":null,"trial_type":"image-keyboard-response","trial_index":32,"plugin_version":"2.1.0","time_elapsed":86349,"subject_id":"88725","group":"Group2","full_date":"2025-11-11T18:12:53.089Z","date":"2025-11-11","time":"18:12:53"},{"rt":null,"stimulus":"<p style=\"font-size: 50px; margin: 0; text-align: center;\">+</p>","response":null,"trial_type":"html-keyboard-response","trial_index":33,"plugin_version":"2.1.0","time_elapsed":87352,"subject_id":"88725","group":"Group2","full_date":"2025-11-11T18:12:53.089Z","date":"2025-11-11","time":"18:12:53"},{"task":"memory_phase","broad_category":"M","image_png":"M_Marble_14.png","image_id":238,"category_name":"Marble","category":15,"distinct_rating":3.31,"distinct_type":"Bottom","rt":null,"stimulus":"Stimuli_Rocks480/M_Marble_14.png","response":null,"trial_type":"image-keyboard-response","trial_index":34,"plugin_version":"2.1.0","time_elapsed":89856,"subject_id":"88725","group":"Group2","full_date":"2025-11-11T18:12:53.089Z","date":"2025-11-11","time":"18:12:53"},{"rt":null,"stimulus":"<p style=\"font-size: 50px; margin: 0; text-align: center;\">+</p>","response":null,"trial_type":"html-keyboard-response","trial_index":35,"plugin_version":"2.1.0","time_elapsed":90859,"subject_id":"88725","group":"Group2","full_date":"2025-11-11T18:12:53.089Z","date":"2025-11-11","time":"18:12:53"},{"task":"memory_phase","broad_category":"S","image_png":"S_Sandstone_04.png","image_id":452,"category_name":"Sandstone","category":29,"distinct_rating":1.8,"distinct_type":"Bottom","rt":null,"stimulus":"Stimuli_Rocks480/S_Sandstone_04.png","response":null,"trial_type":"image-keyboard-response","trial_index":36,"plugin_version":"2.1.0","time_elapsed":93360,"subject_id":"88725","group":"Group2","full_date":"2025-11-11T18:12:53.089Z","date":"2025-11-11","time":"18:12:53"},{"rt":null,"stimulus":"<p style=\"font-size: 50px; margin: 0; text-align: center;\">+</p>","response":null,"trial_type":"html-keyboard-response","trial_index":37,"plugin_version":"2.1.0","time_elapsed":94363,"subject_id":"88725","group":"Group2","full_date":"2025-11-11T18:12:53.089Z","date":"2025-11-11","time":"18:12:53"},{"task":"memory_phase","broad_category":"S","image_png":"S_Rock Salt_15.png","image_id":447,"category_name":"Rock Salt","category":28,"distinct_rating":7.79,"distinct_type":"Top","rt":null,"stimulus":"Stimuli_Rocks480/S_Rock Salt_15.png","response":null,"trial_type":"image-keyboard-response","trial_index":38,"plugin_version":"2.1.0","time_elapsed":96867,"subject_id":"88725","group":"Group2","full_date":"2025-11-11T18:12:53.089Z","date":"2025-11-11","time":"18:12:53"},{"rt":null,"stimulus":"<p style=\"font-size: 50px; margin: 0; text-align: center;\">+</p>","response":null,"trial_type":"html-keyboard-response","trial_index":39,"plugin_version":"2.1.0","time_elapsed":97870,"subject_id":"88725","group":"Group2","full_date":"2025-11-11T18:12:53.089Z","date":"2025-11-11","time":"18:12:53"},{"task":"memory_phase","broad_category":"I","image_png":"I_Rhyolite_10.png","image_id":154,"category_name":"Rhyolite","category":10,"distinct_rating":2.88,"distinct_type":"Bottom","rt":null,"stimulus":"Stimuli_Rocks480/I_Rhyolite_10.png","response":null,"trial_type":"image-keyboard-response","trial_index":40,"plugin_version":"2.1.0","time_elapsed":100374,"subject_id":"88725","group":"Group2","full_date":"2025-11-11T18:12:53.089Z","date":"2025-11-11","time":"18:12:53"},{"rt":null,"stimulus":"<p style=\"font-size: 50px; margin: 0; text-align: center;\">+</p>","response":null,"trial_type":"html-keyboard-response","trial_index":41,"plugin_version":"2.1.0","time_elapsed":101377,"subject_id":"88725","group":"Group2","full_date":"2025-11-11T18:12:53.089Z","date":"2025-11-11","time":"18:12:53"},{"task":"memory_phase","broad_category":"M","image_png":"M_Quartzite_12.png","image_id":284,"category_name":"Quartzite","category":18,"distinct_rating":1.92,"distinct_type":"Bottom","rt":null,"stimulus":"Stimuli_Rocks480/M_Quartzite_12.png","response":null,"trial_type":"image-keyboard-response","trial_index":42,"plugin_version":"2.1.0","time_elapsed":103880,"subject_id":"88725","group":"Group2","full_date":"2025-11-11T18:12:53.089Z","date":"2025-11-11","time":"18:12:53"},{"rt":null,"stimulus":"<p style=\"font-size: 50px; margin: 0; text-align: center;\">+</p>","response":null,"trial_type":"html-keyboard-response","trial_index":43,"plugin_version":"2.1.0","time_elapsed":104883,"subject_id":"88725","group":"Group2","full_date":"2025-11-11T18:12:53.089Z","date":"2025-11-11","time":"18:12:53"},{"task":"memory_phase","broad_category":"M","image_png":"M_Slate_10.png","image_id":314,"category_name":"Slate","category":20,"distinct_rating":1.94,"distinct_type":"Bottom","rt":null,"stimulus":"Stimuli_Rocks480/M_Slate_10.png","response":null,"trial_type":"image-keyboard-response","trial_index":44,"plugin_version":"2.1.0","time_elapsed":107387,"subject_id":"88725","group":"Group2","full_date":"2025-11-11T18:12:53.089Z","date":"2025-11-11","time":"18:12:53"},{"rt":null,"stimulus":"<p style=\"font-size: 50px; margin: 0; text-align: center;\">+</p>","response":null,"trial_type":"html-keyboard-response","trial_index":45,"plugin_version":"2.1.0","time_elapsed":108390,"subject_id":"88725","group":"Group2","full_date":"2025-11-11T18:12:53.089Z","date":"2025-11-11","time":"18:12:53"},{"task":"memory_phase","broad_category":"I","image_png":"I_Pegmatite_11.png","image_id":107,"category_name":"Pegmatite","category":7,"distinct_rating":7.11,"distinct_type":"Top","rt":null,"stimulus":"Stimuli_Rocks480/I_Pegmatite_11.png","response":null,"trial_type":"image-keyboard-response","trial_index":46,"plugin_version":"2.1.0","time_elapsed":110894,"subject_id":"88725","group":"Group2","full_date":"2025-11-11T18:12:53.089Z","date":"2025-11-11","time":"18:12:53"},{"rt":null,"stimulus":"<p style=\"font-size: 50px; margin: 0; text-align: center;\">+</p>","response":null,"trial_type":"html-keyboard-response","trial_index":47,"plugin_version":"2.1.0","time_elapsed":111897,"subject_id":"88725","group":"Group2","full_date":"2025-11-11T18:12:53.089Z","date":"2025-11-11","time":"18:12:53"},{"task":"memory_phase","broad_category":"I","image_png":"I_Gabbro_12.png","image_id":60,"category_name":"Gabbro","category":4,"distinct_rating":2.6,"distinct_type":"Bottom","rt":null,"stimulus":"Stimuli_Rocks480/I_Gabbro_12.png","response":null,"trial_type":"image-keyboard-response","trial_index":48,"plugin_version":"2.1.0","time_elapsed":114401,"subject_id":"88725","group":"Group2","full_date":"2025-11-11T18:12:53.089Z","date":"2025-11-11","time":"18:12:53"},{"rt":null,"stimulus":"<p style=\"font-size: 50px; margin: 0; text-align: center;\">+</p>","response":null,"trial_type":"html-keyboard-response","trial_index":49,"plugin_version":"2.1.0","time_elapsed":115403,"subject_id":"88725","group":"Group2","full_date":"2025-11-11T18:12:53.089Z","date":"2025-11-11","time":"18:12:53"},{"task":"memory_phase","broad_category":"I","image_png":"I_Rhyolite_05.png","image_id":149,"category_name":"Rhyolite","category":10,"distinct_rating":3.02,"distinct_type":"Bottom","rt":null,"stimulus":"Stimuli_Rocks480/I_Rhyolite_05.png","response":null,"trial_type":"image-keyboard-response","trial_index":50,"plugin_version":"2.1.0","time_elapsed":117906,"subject_id":"88725","group":"Group2","full_date":"2025-11-11T18:12:53.089Z","date":"2025-11-11","time":"18:12:53"},{"rt":null,"stimulus":"<p style=\"font-size: 50px; margin: 0; text-align: center;\">+</p>","response":null,"trial_type":"html-keyboard-response","trial_index":51,"plugin_version":"2.1.0","time_elapsed":118909,"subject_id":"88725","group":"Group2","full_date":"2025-11-11T18:12:53.089Z","date":"2025-11-11","time":"18:12:53"},{"task":"memory_phase","broad_category":"S","image_png":"S_Rock Salt_13.png","image_id":445,"category_name":"Rock Salt","category":28,"distinct_rating":7.58,"distinct_type":"Top","rt":null,"stimulus":"Stimuli_Rocks480/S_Rock Salt_13.png","response":null,"trial_type":"image-keyboard-response","trial_index":52,"plugin_version":"2.1.0","time_elapsed":121413,"subject_id":"88725","group":"Group2","full_date":"2025-11-11T18:12:53.089Z","date":"2025-11-11","time":"18:12:53"},{"rt":null,"stimulus":"<p style=\"font-size: 50px; margin: 0; text-align: center;\">+</p>","response":null,"trial_type":"html-keyboard-response","trial_index":53,"plugin_version":"2.1.0","time_elapsed":122415,"subject_id":"88725","group":"Group2","full_date":"2025-11-11T18:12:53.089Z","date":"2025-11-11","time":"18:12:53"},{"task":"memory_phase","broad_category":"M","image_png":"M_Quartzite_07.png","image_id":279,"category_name":"Quartzite","category":18,"distinct_rating":1.97,"distinct_type":"Bottom","rt":null,"stimulus":"Stimuli_Rocks480/M_Quartzite_07.png","response":null,"trial_type":"image-keyboard-response","trial_index":54,"plugin_version":"2.1.0","time_elapsed":124919,"subject_id":"88725","group":"Group2","full_date":"2025-11-11T18:12:53.089Z","date":"2025-11-11","time":"18:12:53"},{"rt":1916,"stimulus":"<p style=\"font-size: 35px;\">Press SPACE to continue study phase</p>","response":" ","trial_type":"html-keyboard-response","trial_index":55,"plugin_version":"2.1.0","time_elapsed":126840,"subject_id":"88725","group":"Group2","full_date":"2025-11-11T18:12:53.089Z","date":"2025-11-11","time":"18:12:53"},{"rt":null,"stimulus":"<p style=\"font-size: 50px; margin: 0; text-align: center;\">+</p>","response":null,"trial_type":"html-keyboard-response","trial_index":56,"plugin_version":"2.1.0","time_elapsed":127843,"subject_id":"88725","group":"Group2","full_date":"2025-11-11T18:12:53.089Z","date":"2025-11-11","time":"18:12:53"},{"task":"memory_phase","broad_category":"S","image_png":"S_Dolomite_16.png","image_id":400,"category_name":"Dolomite","category":25,"distinct_rating":1.71,"distinct_type":"Bottom","rt":null,"stimulus":"Stimuli_Rocks480/S_Dolomite_16.png","response":null,"trial_type":"image-keyboard-response","trial_index":57,"plugin_version":"2.1.0","time_elapsed":130348,"subject_id":"88725","group":"Group2","full_date":"2025-11-11T18:12:53.089Z","date":"2025-11-11","time":"18:12:53"},{"rt":null,"stimulus":"<p style=\"font-size: 50px; margin: 0; text-align: center;\">+</p>","response":null,"trial_type":"html-keyboard-response","trial_index":58,"plugin_version":"2.1.0","time_elapsed":131350,"subject_id":"88725","group":"Group2","full_date":"2025-11-11T18:12:53.089Z","date":"2025-11-11","time":"18:12:53"},{"task":"memory_phase","broad_category":"M","image_png":"M_Quartzite_15.png","image_id":287,"category_name":"Quartzite","category":18,"distinct_rating":2.19,"distinct_type":"Bottom","rt":null,"stimulus":"Stimuli_Rocks480/M_Quartzite_15.png","response":null,"trial_type":"image-keyboard-response","trial_index":59,"plugin_version":"2.1.0","time_elapsed":133855,"subject_id":"88725","group":"Group2","full_date":"2025-11-11T18:12:53.089Z","date":"2025-11-11","time":"18:12:53"},{"rt":null,"stimulus":"<p style=\"font-size: 50px; margin: 0; text-align: center;\">+</p>","response":null,"trial_type":"html-keyboard-response","trial_index":60,"plugin_version":"2.1.0","time_elapsed":134857,"subject_id":"88725","group":"Group2","full_date":"2025-11-11T18:12:53.089Z","date":"2025-11-11","time":"18:12:53"},{"task":"memory_phase","broad_category":"I","image_png":"I_Pumice_13.png","image_id":141,"category_name":"Pumice","category":9,"distinct_rating":3.12,"distinct_type":"Bottom","rt":null,"stimulus":"Stimuli_Rocks480/I_Pumice_13.png","response":null,"trial_type":"image-keyboard-response","trial_index":61,"plugin_version":"2.1.0","time_elapsed":137361,"subject_id":"88725","group":"Group2","full_date":"2025-11-11T18:12:53.089Z","date":"2025-11-11","time":"18:12:53"},{"rt":null,"stimulus":"<p style=\"font-size: 50px; margin: 0; text-align: center;\">+</p>","response":null,"trial_type":"html-keyboard-response","trial_index":62,"plugin_version":"2.1.0","time_elapsed":138364,"subject_id":"88725","group":"Group2","full_date":"2025-11-11T18:12:53.089Z","date":"2025-11-11","time":"18:12:53"},{"task":"memory_phase","broad_category":"M","image_png":"M_Gneiss_10.png","image_id":202,"category_name":"Gneiss","category":13,"distinct_rating":3.09,"distinct_type":"Bottom","rt":null,"stimulus":"Stimuli_Rocks480/M_Gneiss_10.png","response":null,"trial_type":"image-keyboard-response","trial_index":63,"plugin_version":"2.1.0","time_elapsed":140867,"subject_id":"88725","group":"Group2","full_date":"2025-11-11T18:12:53.089Z","date":"2025-11-11","time":"18:12:53"},{"rt":null,"stimulus":"<p style=\"font-size: 50px; margin: 0; text-align: center;\">+</p>","response":null,"trial_type":"html-keyboard-response","trial_index":64,"plugin_version":"2.1.0","time_elapsed":141870,"subject_id":"88725","group":"Group2","full_date":"2025-11-11T18:12:53.089Z","date":"2025-11-11","time":"18:12:53"},{"task":"memory_phase","broad_category":"I","image_png":"I_Andesite_03.png","image_id":3,"category_name":"Andesite","category":1,"distinct_rating":3.17,"distinct_type":"Bottom","rt":null,"stimulus":"Stimuli_Rocks480/I_Andesite_03.png","response":null,"trial_type":"image-keyboard-response","trial_index":65,"plugin_version":"2.1.0","time_elapsed":144374,"subject_id":"88725","group":"Group2","full_date":"2025-11-11T18:12:53.089Z","date":"2025-11-11","time":"18:12:53"},{"rt":null,"stimulus":"<p style=\"font-size: 50px; margin: 0; text-align: center;\">+</p>","response":null,"trial_type":"html-keyboard-response","trial_index":66,"plugin_version":"2.1.0","time_elapsed":145377,"subject_id":"88725","group":"Group2","full_date":"2025-11-11T18:12:53.089Z","date":"2025-11-11","time":"18:12:53"},{"task":"memory_phase","broad_category":"I","image_png":"I_Pegmatite_03.png","image_id":99,"category_name":"Pegmatite","category":7,"distinct_rating":7.24,"distinct_type":"Top","rt":null,"stimulus":"Stimuli_Rocks480/I_Pegmatite_03.png","response":null,"trial_type":"image-keyboard-response","trial_index":67,"plugin_version":"2.1.0","time_elapsed":147880,"subject_id":"88725","group":"Group2","full_date":"2025-11-11T18:12:53.089Z","date":"2025-11-11","time":"18:12:53"},{"rt":null,"stimulus":"<p style=\"font-size: 50px; margin: 0; text-align: center;\">+</p>","response":null,"trial_type":"html-keyboard-response","trial_index":68,"plugin_version":"2.1.0","time_elapsed":148884,"subject_id":"88725","group":"Group2","full_date":"2025-11-11T18:12:53.089Z","date":"2025-11-11","time":"18:12:53"},{"task":"memory_phase","broad_category":"I","image_png":"I_Pumice_14.png","image_id":142,"category_name":"Pumice","category":9,"distinct_rating":3.22,"distinct_type":"Bottom","rt":null,"stimulus":"Stimuli_Rocks480/I_Pumice_14.png","response":null,"trial_type":"image-keyboard-response","trial_index":69,"plugin_version":"2.1.0","time_elapsed":151388,"subject_id":"88725","group":"Group2","full_date":"2025-11-11T18:12:53.089Z","date":"2025-11-11","time":"18:12:53"},{"rt":null,"stimulus":"<p style=\"font-size: 50px; margin: 0; text-align: center;\">+</p>","response":null,"trial_type":"html-keyboard-response","trial_index":70,"plugin_version":"2.1.0","time_elapsed":152390,"subject_id":"88725","group":"Group2","full_date":"2025-11-11T18:12:53.089Z","date":"2025-11-11","time":"18:12:53"},{"task":"memory_phase","broad_category":"I","image_png":"I_Diorite_10.png","image_id":42,"category_name":"Diorite","category":3,"distinct_rating":2.84,"distinct_type":"Bottom","rt":null,"stimulus":"Stimuli_Rocks480/I_Diorite_10.png","response":null,"trial_type":"image-keyboard-response","trial_index":71,"plugin_version":"2.1.0","time_elapsed":154893,"subject_id":"88725","group":"Group2","full_date":"2025-11-11T18:12:53.089Z","date":"2025-11-11","time":"18:12:53"},{"rt":null,"stimulus":"<p style=\"font-size: 50px; margin: 0; text-align: center;\">+</p>","response":null,"trial_type":"html-keyboard-response","trial_index":72,"plugin_version":"2.1.0","time_elapsed":155894,"subject_id":"88725","group":"Group2","full_date":"2025-11-11T18:12:53.089Z","date":"2025-11-11","time":"18:12:53"},{"task":"memory_phase","broad_category":"M","image_png":"M_Slate_04.png","image_id":308,"category_name":"Slate","category":20,"distinct_rating":2.2,"distinct_type":"Bottom","rt":null,"stimulus":"Stimuli_Rocks480/M_Slate_04.png","response":null,"trial_type":"image-keyboard-response","trial_index":73,"plugin_version":"2.1.0","time_elapsed":158398,"subject_id":"88725","group":"Group2","full_date":"2025-11-11T18:12:53.089Z","date":"2025-11-11","time":"18:12:53"},{"rt":null,"stimulus":"<p style=\"font-size: 50px; margin: 0; text-align: center;\">+</p>","response":null,"trial_type":"html-keyboard-response","trial_index":74,"plugin_version":"2.1.0","time_elapsed":159401,"subject_id":"88725","group":"Group2","full_date":"2025-11-11T18:12:53.089Z","date":"2025-11-11","time":"18:12:53"},{"task":"memory_phase","broad_category":"M","image_png":"M_Marble_02.png","image_id":226,"category_name":"Marble","category":15,"distinct_rating":3.2,"distinct_type":"Bottom","rt":null,"stimulus":"Stimuli_Rocks480/M_Marble_02.png","response":null,"trial_type":"image-keyboard-response","trial_index":75,"plugin_version":"2.1.0","time_elapsed":161905,"subject_id":"88725","group":"Group2","full_date":"2025-11-11T18:12:53.089Z","date":"2025-11-11","time":"18:12:53"},{"rt":null,"stimulus":"<p style=\"font-size: 50px; margin: 0; text-align: center;\">+</p>","response":null,"trial_type":"html-keyboard-response","trial_index":76,"plugin_version":"2.1.0","time_elapsed":162908,"subject_id":"88725","group":"Group2","full_date":"2025-11-11T18:12:53.089Z","date":"2025-11-11","time":"18:12:53"},{"task":"memory_phase","broad_category":"M","image_png":"M_Gneiss_15.png","image_id":207,"category_name":"Gneiss","category":13,"distinct_rating":3.11,"distinct_type":"Bottom","rt":null,"stimulus":"Stimuli_Rocks480/M_Gneiss_15.png","response":null,"trial_type":"image-keyboard-response","trial_index":77,"plugin_version":"2.1.0","time_elapsed":165412,"subject_id":"88725","group":"Group2","full_date":"2025-11-11T18:12:53.089Z","date":"2025-11-11","time":"18:12:53"},{"rt":null,"stimulus":"<p style=\"font-size: 50px; margin: 0; text-align: center;\">+</p>","response":null,"trial_type":"html-keyboard-response","trial_index":78,"plugin_version":"2.1.0","time_elapsed":166414,"subject_id":"88725","group":"Group2","full_date":"2025-11-11T18:12:53.089Z","date":"2025-11-11","time":"18:12:53"},{"task":"memory_phase","broad_category":"I","image_png":"I_Andesite_09.png","image_id":9,"category_name":"Andesite","category":1,"distinct_rating":2.49,"distinct_type":"Bottom","rt":null,"stimulus":"Stimuli_Rocks480/I_Andesite_09.png","response":null,"trial_type":"image-keyboard-response","trial_index":79,"plugin_version":"2.1.0","time_elapsed":168918,"subject_id":"88725","group":"Group2","full_date":"2025-11-11T18:12:53.089Z","date":"2025-11-11","time":"18:12:53"},{"rt":null,"stimulus":"<p style=\"font-size: 50px; margin: 0; text-align: center;\">+</p>","response":null,"trial_type":"html-keyboard-response","trial_index":80,"plugin_version":"2.1.0","time_elapsed":169920,"subject_id":"88725","group":"Group2","full_date":"2025-11-11T18:12:53.089Z","date":"2025-11-11","time":"18:12:53"},{"task":"memory_phase","broad_category":"S","image_png":"S_Dolomite_01.png","image_id":385,"category_name":"Dolomite","category":25,"distinct_rating":1.43,"distinct_type":"Bottom","rt":null,"stimulus":"Stimuli_Rocks480/S_Dolomite_01.png","response":null,"trial_type":"image-keyboard-response","trial_index":81,"plugin_version":"2.1.0","time_elapsed":172424,"subject_id":"88725","group":"Group2","full_date":"2025-11-11T18:12:53.089Z","date":"2025-11-11","time":"18:12:53"},{"rt":null,"stimulus":"<p style=\"font-size: 50px; margin: 0; text-align: center;\">+</p>","response":null,"trial_type":"html-keyboard-response","trial_index":82,"plugin_version":"2.1.0","time_elapsed":173427,"subject_id":"88725","group":"Group2","full_date":"2025-11-11T18:12:53.089Z","date":"2025-11-11","time":"18:12:53"},{"task":"memory_phase","broad_category":"M","image_png":"M_Slate_14.png","image_id":318,"category_name":"Slate","category":20,"distinct_rating":2.58,"distinct_type":"Bottom","rt":null,"stimulus":"Stimuli_Rocks480/M_Slate_14.png","response":null,"trial_type":"image-keyboard-response","trial_index":83,"plugin_version":"2.1.0","time_elapsed":175931,"subject_id":"88725","group":"Group2","full_date":"2025-11-11T18:12:53.089Z","date":"2025-11-11","time":"18:12:53"},{"rt":null,"stimulus":"<p style=\"font-size: 50px; margin: 0; text-align: center;\">+</p>","response":null,"trial_type":"html-keyboard-response","trial_index":84,"plugin_version":"2.1.0","time_elapsed":176934,"subject_id":"88725","group":"Group2","full_date":"2025-11-11T18:12:53.089Z","date":"2025-11-11","time":"18:12:53"},{"task":"memory_phase","broad_category":"S","image_png":"S_Sandstone_11.png","image_id":459,"category_name":"Sandstone","category":29,"distinct_rating":1.82,"distinct_type":"Bottom","rt":null,"stimulus":"Stimuli_Rocks480/S_Sandstone_11.png","response":null,"trial_type":"image-keyboard-response","trial_index":85,"plugin_version":"2.1.0","time_elapsed":179438,"subject_id":"88725","group":"Group2","full_date":"2025-11-11T18:12:53.089Z","date":"2025-11-11","time":"18:12:53"},{"rt":null,"stimulus":"<p style=\"font-size: 50px; margin: 0; text-align: center;\">+</p>","response":null,"trial_type":"html-keyboard-response","trial_index":86,"plugin_version":"2.1.0","time_elapsed":180440,"subject_id":"88725","group":"Group2","full_date":"2025-11-11T18:12:53.089Z","date":"2025-11-11","time":"18:12:53"},{"task":"memory_phase","broad_category":"I","image_png":"I_Andesite_04.png","image_id":4,"category_name":"Andesite","category":1,"distinct_rating":3.18,"distinct_type":"Bottom","rt":null,"stimulus":"Stimuli_Rocks480/I_Andesite_04.png","response":null,"trial_type":"image-keyboard-response","trial_index":87,"plugin_version":"2.1.0","time_elapsed":182944,"subject_id":"88725","group":"Group2","full_date":"2025-11-11T18:12:53.089Z","date":"2025-11-11","time":"18:12:53"},{"rt":null,"stimulus":"<p style=\"font-size: 50px; margin: 0; text-align: center;\">+</p>","response":null,"trial_type":"html-keyboard-response","trial_index":88,"plugin_version":"2.1.0","time_elapsed":183946,"subject_id":"88725","group":"Group2","full_date":"2025-11-11T18:12:53.089Z","date":"2025-11-11","time":"18:12:53"},{"task":"memory_phase","broad_category":"I","image_png":"I_Basalt_08.png","image_id":24,"category_name":"Basalt","category":2,"distinct_rating":2.31,"distinct_type":"Bottom","rt":null,"stimulus":"Stimuli_Rocks480/I_Basalt_08.png","response":null,"trial_type":"image-keyboard-response","trial_index":89,"plugin_version":"2.1.0","time_elapsed":186450,"subject_id":"88725","group":"Group2","full_date":"2025-11-11T18:12:53.089Z","date":"2025-11-11","time":"18:12:53"},{"rt":null,"stimulus":"<p style=\"font-size: 50px; margin: 0; text-align: center;\">+</p>","response":null,"trial_type":"html-keyboard-response","trial_index":90,"plugin_version":"2.1.0","time_elapsed":187454,"subject_id":"88725","group":"Group2","full_date":"2025-11-11T18:12:53.089Z","date":"2025-11-11","time":"18:12:53"},{"task":"memory_phase","broad_category":"I","image_png":"I_Diorite_15.png","image_id":47,"category_name":"Diorite","category":3,"distinct_rating":3.05,"distinct_type":"Bottom","rt":null,"stimulus":"Stimuli_Rocks480/I_Diorite_15.png","response":null,"trial_type":"image-keyboard-response","trial_index":91,"plugin_version":"2.1.0","time_elapsed":189957,"subject_id":"88725","group":"Group2","full_date":"2025-11-11T18:12:53.089Z","date":"2025-11-11","time":"18:12:53"},{"rt":null,"stimulus":"<p style=\"font-size: 50px; margin: 0; text-align: center;\">+</p>","response":null,"trial_type":"html-keyboard-response","trial_index":92,"plugin_version":"2.1.0","time_elapsed":190960,"subject_id":"88725","group":"Group2","full_date":"2025-11-11T18:12:53.089Z","date":"2025-11-11","time":"18:12:53"},{"task":"memory_phase","broad_category":"I","image_png":"I_Pumice_01.png","image_id":129,"category_name":"Pumice","category":9,"distinct_rating":3.25,"distinct_type":"Bottom","rt":null,"stimulus":"Stimuli_Rocks480/I_Pumice_01.png","response":null,"trial_type":"image-keyboard-response","trial_index":93,"plugin_version":"2.1.0","time_elapsed":193464,"subject_id":"88725","group":"Group2","full_date":"2025-11-11T18:12:53.089Z","date":"2025-11-11","time":"18:12:53"},{"rt":null,"stimulus":"<p style=\"font-size: 50px; margin: 0; text-align: center;\">+</p>","response":null,"trial_type":"html-keyboard-response","trial_index":94,"plugin_version":"2.1.0","time_elapsed":194467,"subject_id":"88725","group":"Group2","full_date":"2025-11-11T18:12:53.089Z","date":"2025-11-11","time":"18:12:53"},{"task":"memory_phase","broad_category":"S","image_png":"S_Dolomite_07.png","image_id":391,"category_name":"Dolomite","category":25,"distinct_rating":1.73,"distinct_type":"Bottom","rt":null,"stimulus":"Stimuli_Rocks480/S_Dolomite_07.png","response":null,"trial_type":"image-keyboard-response","trial_index":95,"plugin_version":"2.1.0","time_elapsed":196973,"subject_id":"88725","group":"Group2","full_date":"2025-11-11T18:12:53.089Z","date":"2025-11-11","time":"18:12:53"},{"rt":null,"stimulus":"<p style=\"font-size: 50px; margin: 0; text-align: center;\">+</p>","response":null,"trial_type":"html-keyboard-response","trial_index":96,"plugin_version":"2.1.0","time_elapsed":197976,"subject_id":"88725","group":"Group2","full_date":"2025-11-11T18:12:53.089Z","date":"2025-11-11","time":"18:12:53"},{"task":"memory_phase","broad_category":"I","image_png":"I_Basalt_10.png","image_id":26,"category_name":"Basalt","category":2,"distinct_rating":2.76,"distinct_type":"Bottom","rt":null,"stimulus":"Stimuli_Rocks480/I_Basalt_10.png","response":null,"trial_type":"image-keyboard-response","trial_index":97,"plugin_version":"2.1.0","time_elapsed":200479,"subject_id":"88725","group":"Group2","full_date":"2025-11-11T18:12:53.089Z","date":"2025-11-11","time":"18:12:53"},{"rt":null,"stimulus":"<p style=\"font-size: 50px; margin: 0; text-align: center;\">+</p>","response":null,"trial_type":"html-keyboard-response","trial_index":98,"plugin_version":"2.1.0","time_elapsed":201481,"subject_id":"88725","group":"Group2","full_date":"2025-11-11T18:12:53.089Z","date":"2025-11-11","time":"18:12:53"},{"task":"memory_phase","broad_category":"I","image_png":"I_Basalt_13.png","image_id":29,"category_name":"Basalt","category":2,"distinct_rating":2.68,"distinct_type":"Bottom","rt":null,"stimulus":"Stimuli_Rocks480/I_Basalt_13.png","response":null,"trial_type":"image-keyboard-response","trial_index":99,"plugin_version":"2.1.0","time_elapsed":203986,"subject_id":"88725","group":"Group2","full_date":"2025-11-11T18:12:53.089Z","date":"2025-11-11","time":"18:12:53"},{"rt":null,"stimulus":"<p style=\"font-size: 50px; margin: 0; text-align: center;\">+</p>","response":null,"trial_type":"html-keyboard-response","trial_index":100,"plugin_version":"2.1.0","time_elapsed":204988,"subject_id":"88725","group":"Group2","full_date":"2025-11-11T18:12:53.089Z","date":"2025-11-11","time":"18:12:53"},{"task":"memory_phase","broad_category":"I","image_png":"I_Gabbro_14.png","image_id":62,"category_name":"Gabbro","category":4,"distinct_rating":2.95,"distinct_type":"Bottom","rt":null,"stimulus":"Stimuli_Rocks480/I_Gabbro_14.png","response":null,"trial_type":"image-keyboard-response","trial_index":101,"plugin_version":"2.1.0","time_elapsed":207492,"subject_id":"88725","group":"Group2","full_date":"2025-11-11T18:12:53.089Z","date":"2025-11-11","time":"18:12:53"},{"rt":null,"stimulus":"<p style=\"font-size: 50px; margin: 0; text-align: center;\">+</p>","response":null,"trial_type":"html-keyboard-response","trial_index":102,"plugin_version":"2.1.0","time_elapsed":208495,"subject_id":"88725","group":"Group2","full_date":"2025-11-11T18:12:53.089Z","date":"2025-11-11","time":"18:12:53"},{"task":"memory_phase","broad_category":"S","image_png":"S_Conglomerate_14.png","image_id":382,"category_name":"Conglomerate","category":24,"distinct_rating":6.86,"distinct_type":"Top","rt":null,"stimulus":"Stimuli_Rocks480/S_Conglomerate_14.png","response":null,"trial_type":"image-keyboard-response","trial_index":103,"plugin_version":"2.1.0","time_elapsed":210998,"subject_id":"88725","group":"Group2","full_date":"2025-11-11T18:12:53.089Z","date":"2025-11-11","time":"18:12:53"},{"rt":null,"stimulus":"<p style=\"font-size: 50px; margin: 0; text-align: center;\">+</p>","response":null,"trial_type":"html-keyboard-response","trial_index":104,"plugin_version":"2.1.0","time_elapsed":212001,"subject_id":"88725","group":"Group2","full_date":"2025-11-11T18:12:53.089Z","date":"2025-11-11","time":"18:12:53"},{"task":"memory_phase","broad_category":"I","image_png":"I_Diorite_01.png","image_id":33,"category_name":"Diorite","category":3,"distinct_rating":2.97,"distinct_type":"Bottom","rt":null,"stimulus":"Stimuli_Rocks480/I_Diorite_01.png","response":null,"trial_type":"image-keyboard-response","trial_index":105,"plugin_version":"2.1.0","time_elapsed":214505,"subject_id":"88725","group":"Group2","full_date":"2025-11-11T18:12:53.089Z","date":"2025-11-11","time":"18:12:53"},{"rt":13282,"stimulus":"<div style=\"max-width: 760px; margin: auto; font-size: 20px; line-height: 1.5;\">\n      <h1 style=\"text-align:center; font-size: 30px;\">Instructions for the Test Phase</h1>\n      <p>\n        The study phase is now complete.\n      </p>\n      <p>\n        In the test phase, you will again see a series of rock images. \n        Some will be ones you saw before - during the study phase, while others will be new.  \n        <b>Your task</b> is to decide whether you have seen each image before by pressing the corresponding key on your keyboard:<br><br>\n          <b>A</b> - NO (you did not see this image before)<br>\n          <b>L</b> - YES (you saw this image before)<br><br>\n        The test will proceed at your own pace. You will receive feedback after each response.  \n        Please try to respond <b>as accurately as possible</b>.\n      </p>\n      <p>\n        <b>Reminder:</b> If your computer has multiple language settings (e.g., English and another language),\n        please ensure it is set to English during the test phase.\n      </p>\n      <p>\n        You can track your progress using the <b>completion bar</b> at the top of the screen.  \n        Note that it has been refreshed to reflect your progress during this final phase.\n      </p>\n      <p>\n        Press the button below when you are ready to continue.\n      </p>\n    </div>","response":0,"trial_type":"html-button-response","trial_index":106,"plugin_version":"2.1.0","time_elapsed":227791,"subject_id":"88725","group":"Group2","full_date":"2025-11-11T18:12:53.089Z","date":"2025-11-11","time":"18:12:53"},{"correct_response":"a","task":"test_phase","broad_category":"I","image_png":"I_Andesite_10.png","image_id":10,"category_name":"Andesite","category":1,"distinct_rating":3.15,"distinct_type":"Bottom","item_type":"Foil","rt":3574,"stimulus":"Stimuli_Rocks480/I_Andesite_10.png","response":"l","trial_type":"image-keyboard-response","trial_index":107,"plugin_version":"2.1.0","time_elapsed":231367,"subject_id":"88725","group":"Group2","full_date":"2025-11-11T18:12:53.089Z","date":"2025-11-11","time":"18:12:53","cor_ans":false},{"trial_type":"html-keyboard-response","rt":null,"stimulus":"<p style=\"color: red; font-size: 50px; font-weight: bold;\">Incorrect</p>","response":null,"trial_index":108,"plugin_version":"2.1.0","time_elapsed":231870,"subject_id":"88725","group":"Group2","full_date":"2025-11-11T18:12:53.089Z","date":"2025-11-11","time":"18:12:53"},{"correct_response":"l","task":"test_phase","broad_category":"S","image_png":"S_Dolomite_01.png","image_id":385,"category_name":"Dolomite","category":25,"distinct_rating":1.43,"distinct_type":"Bottom","item_type":"Target","rt":1653,"stimulus":"Stimuli_Rocks480/S_Dolomite_01.png","response":"l","trial_type":"image-keyboard-response","trial_index":109,"plugin_version":"2.1.0","time_elapsed":233525,"subject_id":"88725","group":"Group2","full_date":"2025-11-11T18:12:53.089Z","date":"2025-11-11","time":"18:12:53","cor_ans":true},{"trial_type":"html-keyboard-response","rt":null,"stimulus":"<p style=\"color: green; font-size: 50px; font-weight: bold;\">Correct</p>","response":null,"trial_index":110,"plugin_version":"2.1.0","time_elapsed":234026,"subject_id":"88725","group":"Group2","full_date":"2025-11-11T18:12:53.089Z","date":"2025-11-11","time":"18:12:53"},{"correct_response":"l","task":"test_phase","broad_category":"I","image_png":"I_Pumice_13.png","image_id":141,"category_name":"Pumice","category":9,"distinct_rating":3.12,"distinct_type":"Bottom","item_type":"Target","rt":2295,"stimulus":"Stimuli_Rocks480/I_Pumice_13.png","response":"a","trial_type":"image-keyboard-response","trial_index":111,"plugin_version":"2.1.0","time_elapsed":236323,"subject_id":"88725","group":"Group2","full_date":"2025-11-11T18:12:53.089Z","date":"2025-11-11","time":"18:12:53","cor_ans":false},{"trial_type":"html-keyboard-response","rt":null,"stimulus":"<p style=\"color: red; font-size: 50px; font-weight: bold;\">Incorrect</p>","response":null,"trial_index":112,"plugin_version":"2.1.0","time_elapsed":236826,"subject_id":"88725","group":"Group2","full_date":"2025-11-11T18:12:53.089Z","date":"2025-11-11","time":"18:12:53"},{"correct_response":"l","task":"test_phase","broad_category":"M","image_png":"M_Gneiss_15.png","image_id":207,"category_name":"Gneiss","category":13,"distinct_rating":3.11,"distinct_type":"Bottom","item_type":"Target","rt":1948,"stimulus":"Stimuli_Rocks480/M_Gneiss_15.png","response":"a","trial_type":"image-keyboard-response","trial_index":113,"plugin_version":"2.1.0","time_elapsed":238775,"subject_id":"88725","group":"Group2","full_date":"2025-11-11T18:12:53.089Z","date":"2025-11-11","time":"18:12:53","cor_ans":false},{"trial_type":"html-keyboard-response","rt":null,"stimulus":"<p style=\"color: red; font-size: 50px; font-weight: bold;\">Incorrect</p>","response":null,"trial_index":114,"plugin_version":"2.1.0","time_elapsed":239277,"subject_id":"88725","group":"Group2","full_date":"2025-11-11T18:12:53.089Z","date":"2025-11-11","time":"18:12:53"},{"correct_response":"l","task":"test_phase","broad_category":"M","image_png":"M_Phyllite_13.png","image_id":269,"category_name":"Phyllite","category":17,"distinct_rating":2.8,"distinct_type":"Bottom","item_type":"Target","rt":2166,"stimulus":"Stimuli_Rocks480/M_Phyllite_13.png","response":"a","trial_type":"image-keyboard-response","trial_index":115,"plugin_version":"2.1.0","time_elapsed":241446,"subject_id":"88725","group":"Group2","full_date":"2025-11-11T18:12:53.089Z","date":"2025-11-11","time":"18:12:53","cor_ans":false},{"trial_type":"html-keyboard-response","rt":null,"stimulus":"<p style=\"color: red; font-size: 50px; font-weight: bold;\">Incorrect</p>","response":null,"trial_index":116,"plugin_version":"2.1.0","time_elapsed":241948,"subject_id":"88725","group":"Group2","full_date":"2025-11-11T18:12:53.089Z","date":"2025-11-11","time":"18:12:53"},{"correct_response":"a","task":"test_phase","broad_category":"I","image_png":"I_Basalt_01.png","image_id":17,"category_name":"Basalt","category":2,"distinct_rating":1.92,"distinct_type":"Bottom","item_type":"Foil","rt":1133,"stimulus":"Stimuli_Rocks480/I_Basalt_01.png","response":"l","trial_type":"image-keyboard-response","trial_index":117,"plugin_version":"2.1.0","time_elapsed":243083,"subject_id":"88725","group":"Group2","full_date":"2025-11-11T18:12:53.089Z","date":"2025-11-11","time":"18:12:53","cor_ans":false},{"trial_type":"html-keyboard-response","rt":null,"stimulus":"<p style=\"color: red; font-size: 50px; font-weight: bold;\">Incorrect</p>","response":null,"trial_index":118,"plugin_version":"2.1.0","time_elapsed":243585,"subject_id":"88725","group":"Group2","full_date":"2025-11-11T18:12:53.089Z","date":"2025-11-11","time":"18:12:53"},{"correct_response":"a","task":"test_phase","broad_category":"M","image_png":"M_Phyllite_10.png","image_id":266,"category_name":"Phyllite","category":17,"distinct_rating":2.6,"distinct_type":"Bottom","item_type":"Foil","rt":1025,"stimulus":"Stimuli_Rocks480/M_Phyllite_10.png","response":"l","trial_type":"image-keyboard-response","trial_index":119,"plugin_version":"2.1.0","time_elapsed":244613,"subject_id":"88725","group":"Group2","full_date":"2025-11-11T18:12:53.089Z","date":"2025-11-11","time":"18:12:53","cor_ans":false},{"trial_type":"html-keyboard-response","rt":null,"stimulus":"<p style=\"color: red; font-size: 50px; font-weight: bold;\">Incorrect</p>","response":null,"trial_index":120,"plugin_version":"2.1.0","time_elapsed":245115,"subject_id":"88725","group":"Group2","full_date":"2025-11-11T18:12:53.089Z","date":"2025-11-11","time":"18:12:53"},{"correct_response":"l","task":"test_phase","broad_category":"M","image_png":"M_Slate_10.png","image_id":314,"category_name":"Slate","category":20,"distinct_rating":1.94,"distinct_type":"Bottom","item_type":"Target","rt":1258,"stimulus":"Stimuli_Rocks480/M_Slate_10.png","response":"l","trial_type":"image-keyboard-response","trial_index":121,"plugin_version":"2.1.0","time_elapsed":246376,"subject_id":"88725","group":"Group2","full_date":"2025-11-11T18:12:53.089Z","date":"2025-11-11","time":"18:12:53","cor_ans":true},{"trial_type":"html-keyboard-response","rt":null,"stimulus":"<p style=\"color: green; font-size: 50px; font-weight: bold;\">Correct</p>","response":null,"trial_index":122,"plugin_version":"2.1.0","time_elapsed":246878,"subject_id":"88725","group":"Group2","full_date":"2025-11-11T18:12:53.089Z","date":"2025-11-11","time":"18:12:53"},{"correct_response":"a","task":"test_phase","broad_category":"S","image_png":"S_Shale_12.png","image_id":476,"category_name":"Shale","category":30,"distinct_rating":2.48,"distinct_type":"Bottom","item_type":"Foil","rt":3726,"stimulus":"Stimuli_Rocks480/S_Shale_12.png","response":"l","trial_type":"image-keyboard-response","trial_index":123,"plugin_version":"2.1.0","time_elapsed":250606,"subject_id":"88725","group":"Group2","full_date":"2025-11-11T18:12:53.089Z","date":"2025-11-11","time":"18:12:53","cor_ans":false},{"trial_type":"html-keyboard-response","rt":null,"stimulus":"<p style=\"color: red; font-size: 50px; font-weight: bold;\">Incorrect</p>","response":null,"trial_index":124,"plugin_version":"2.1.0","time_elapsed":251108,"subject_id":"88725","group":"Group2","full_date":"2025-11-11T18:12:53.089Z","date":"2025-11-11","time":"18:12:53"},{"correct_response":"a","task":"test_phase","broad_category":"S","image_png":"S_Shale_08.png","image_id":472,"category_name":"Shale","category":30,"distinct_rating":2.55,"distinct_type":"Bottom","item_type":"Foil","rt":1115,"stimulus":"Stimuli_Rocks480/S_Shale_08.png","response":"l","trial_type":"image-keyboard-response","trial_index":125,"plugin_version":"2.1.0","time_elapsed":252226,"subject_id":"88725","group":"Group2","full_date":"2025-11-11T18:12:53.089Z","date":"2025-11-11","time":"18:12:53","cor_ans":false},{"trial_type":"html-keyboard-response","rt":null,"stimulus":"<p style=\"color: red; font-size: 50px; font-weight: bold;\">Incorrect</p>","response":null,"trial_index":126,"plugin_version":"2.1.0","time_elapsed":252728,"subject_id":"88725","group":"Group2","full_date":"2025-11-11T18:12:53.089Z","date":"2025-11-11","time":"18:12:53"},{"correct_response":"l","task":"test_phase","broad_category":"I","image_png":"I_Basalt_08.png","image_id":24,"category_name":"Basalt","category":2,"distinct_rating":2.31,"distinct_type":"Bottom","item_type":"Target","rt":2578,"stimulus":"Stimuli_Rocks480/I_Basalt_08.png","response":"a","trial_type":"image-keyboard-response","trial_index":127,"plugin_version":"2.1.0","time_elapsed":255308,"subject_id":"88725","group":"Group2","full_date":"2025-11-11T18:12:53.089Z","date":"2025-11-11","time":"18:12:53","cor_ans":false},{"trial_type":"html-keyboard-response","rt":null,"stimulus":"<p style=\"color: red; font-size: 50px; font-weight: bold;\">Incorrect</p>","response":null,"trial_index":128,"plugin_version":"2.1.0","time_elapsed":255810,"subject_id":"88725","group":"Group2","full_date":"2025-11-11T18:12:53.089Z","date":"2025-11-11","time":"18:12:53"},{"correct_response":"l","task":"test_phase","broad_category":"S","image_png":"S_Chert_13.png","image_id":365,"category_name":"Chert","category":23,"distinct_rating":6.57,"distinct_type":"Top","item_type":"Target","rt":1134,"stimulus":"Stimuli_Rocks480/S_Chert_13.png","response":"l","trial_type":"image-keyboard-response","trial_index":129,"plugin_version":"2.1.0","time_elapsed":256946,"subject_id":"88725","group":"Group2","full_date":"2025-11-11T18:12:53.089Z","date":"2025-11-11","time":"18:12:53","cor_ans":true},{"trial_type":"html-keyboard-response","rt":null,"stimulus":"<p style=\"color: green; font-size: 50px; font-weight: bold;\">Correct</p>","response":null,"trial_index":130,"plugin_version":"2.1.0","time_elapsed":257448,"subject_id":"88725","group":"Group2","full_date":"2025-11-11T18:12:53.089Z","date":"2025-11-11","time":"18:12:53"},{"correct_response":"a","task":"test_phase","broad_category":"M","image_png":"M_Slate_03.png","image_id":307,"category_name":"Slate","category":20,"distinct_rating":1.87,"distinct_type":"Bottom","item_type":"Foil","rt":918,"stimulus":"Stimuli_Rocks480/M_Slate_03.png","response":"l","trial_type":"image-keyboard-response","trial_index":131,"plugin_version":"2.1.0","time_elapsed":258368,"subject_id":"88725","group":"Group2","full_date":"2025-11-11T18:12:53.089Z","date":"2025-11-11","time":"18:12:53","cor_ans":false},{"trial_type":"html-keyboard-response","rt":null,"stimulus":"<p style=\"color: red; font-size: 50px; font-weight: bold;\">Incorrect</p>","response":null,"trial_index":132,"plugin_version":"2.1.0","time_elapsed":258870,"subject_id":"88725","group":"Group2","full_date":"2025-11-11T18:12:53.089Z","date":"2025-11-11","time":"18:12:53"},{"correct_response":"l","task":"test_phase","broad_category":"I","image_png":"I_Diorite_01.png","image_id":33,"category_name":"Diorite","category":3,"distinct_rating":2.97,"distinct_type":"Bottom","item_type":"Target","rt":1582,"stimulus":"Stimuli_Rocks480/I_Diorite_01.png","response":"l","trial_type":"image-keyboard-response","trial_index":133,"plugin_version":"2.1.0","time_elapsed":260455,"subject_id":"88725","group":"Group2","full_date":"2025-11-11T18:12:53.089Z","date":"2025-11-11","time":"18:12:53","cor_ans":true},{"trial_type":"html-keyboard-response","rt":null,"stimulus":"<p style=\"color: green; font-size: 50px; font-weight: bold;\">Correct</p>","response":null,"trial_index":134,"plugin_version":"2.1.0","time_elapsed":260958,"subject_id":"88725","group":"Group2","full_date":"2025-11-11T18:12:53.089Z","date":"2025-11-11","time":"18:12:53"},{"correct_response":"l","task":"test_phase","broad_category":"I","image_png":"I_Andesite_04.png","image_id":4,"category_name":"Andesite","category":1,"distinct_rating":3.18,"distinct_type":"Bottom","item_type":"Target","rt":2044,"stimulus":"Stimuli_Rocks480/I_Andesite_04.png","response":"a","trial_type":"image-keyboard-response","trial_index":135,"plugin_version":"2.1.0","time_elapsed":263004,"subject_id":"88725","group":"Group2","full_date":"2025-11-11T18:12:53.089Z","date":"2025-11-11","time":"18:12:53","cor_ans":false},{"trial_type":"html-keyboard-response","rt":null,"stimulus":"<p style=\"color: red; font-size: 50px; font-weight: bold;\">Incorrect</p>","response":null,"trial_index":136,"plugin_version":"2.1.0","time_elapsed":263506,"subject_id":"88725","group":"Group2","full_date":"2025-11-11T18:12:53.089Z","date":"2025-11-11","time":"18:12:53"},{"correct_response":"l","task":"test_phase","broad_category":"M","image_png":"M_Marble_03.png","image_id":227,"category_name":"Marble","category":15,"distinct_rating":2.67,"distinct_type":"Bottom","item_type":"Target","rt":1247,"stimulus":"Stimuli_Rocks480/M_Marble_03.png","response":"l","trial_type":"image-keyboard-response","trial_index":137,"plugin_version":"2.1.0","time_elapsed":264755,"subject_id":"88725","group":"Group2","full_date":"2025-11-11T18:12:53.089Z","date":"2025-11-11","time":"18:12:53","cor_ans":true},{"trial_type":"html-keyboard-response","rt":null,"stimulus":"<p style=\"color: green; font-size: 50px; font-weight: bold;\">Correct</p>","response":null,"trial_index":138,"plugin_version":"2.1.0","time_elapsed":265257,"subject_id":"88725","group":"Group2","full_date":"2025-11-11T18:12:53.089Z","date":"2025-11-11","time":"18:12:53"},{"correct_response":"a","task":"test_phase","broad_category":"M","image_png":"M_Marble_06.png","image_id":230,"category_name":"Marble","category":15,"distinct_rating":3.4,"distinct_type":"Bottom","item_type":"Foil","rt":1030,"stimulus":"Stimuli_Rocks480/M_Marble_06.png","response":"l","trial_type":"image-keyboard-response","trial_index":139,"plugin_version":"2.1.0","time_elapsed":266290,"subject_id":"88725","group":"Group2","full_date":"2025-11-11T18:12:53.089Z","date":"2025-11-11","time":"18:12:53","cor_ans":false},{"trial_type":"html-keyboard-response","rt":null,"stimulus":"<p style=\"color: red; font-size: 50px; font-weight: bold;\">Incorrect</p>","response":null,"trial_index":140,"plugin_version":"2.1.0","time_elapsed":266792,"subject_id":"88725","group":"Group2","full_date":"2025-11-11T18:12:53.089Z","date":"2025-11-11","time":"18:12:53"},{"correct_response":"l","task":"test_phase","broad_category":"M","image_png":"M_Slate_04.png","image_id":308,"category_name":"Slate","category":20,"distinct_rating":2.2,"distinct_type":"Bottom","item_type":"Target","rt":956,"stimulus":"Stimuli_Rocks480/M_Slate_04.png","response":"l","trial_type":"image-keyboard-response","trial_index":141,"plugin_version":"2.1.0","time_elapsed":267750,"subject_id":"88725","group":"Group2","full_date":"2025-11-11T18:12:53.089Z","date":"2025-11-11","time":"18:12:53","cor_ans":true},{"trial_type":"html-keyboard-response","rt":null,"stimulus":"<p style=\"color: green; font-size: 50px; font-weight: bold;\">Correct</p>","response":null,"trial_index":142,"plugin_version":"2.1.0","time_elapsed":268252,"subject_id":"88725","group":"Group2","full_date":"2025-11-11T18:12:53.089Z","date":"2025-11-11","time":"18:12:53"},{"correct_response":"a","task":"test_phase","broad_category":"M","image_png":"M_Gneiss_06.png","image_id":198,"category_name":"Gneiss","category":13,"distinct_rating":2.65,"distinct_type":"Bottom","item_type":"Foil","rt":2499,"stimulus":"Stimuli_Rocks480/M_Gneiss_06.png","response":"l","trial_type":"image-keyboard-response","trial_index":143,"plugin_version":"2.1.0","time_elapsed":270753,"subject_id":"88725","group":"Group2","full_date":"2025-11-11T18:12:53.089Z","date":"2025-11-11","time":"18:12:53","cor_ans":false},{"trial_type":"html-keyboard-response","rt":null,"stimulus":"<p style=\"color: red; font-size: 50px; font-weight: bold;\">Incorrect</p>","response":null,"trial_index":144,"plugin_version":"2.1.0","time_elapsed":271255,"subject_id":"88725","group":"Group2","full_date":"2025-11-11T18:12:53.089Z","date":"2025-11-11","time":"18:12:53"},{"correct_response":"l","task":"test_phase","broad_category":"S","image_png":"S_Shale_02.png","image_id":466,"category_name":"Shale","category":30,"distinct_rating":2.9,"distinct_type":"Bottom","item_type":"Target","rt":3776,"stimulus":"Stimuli_Rocks480/S_Shale_02.png","response":"a","trial_type":"image-keyboard-response","trial_index":145,"plugin_version":"2.1.0","time_elapsed":275033,"subject_id":"88725","group":"Group2","full_date":"2025-11-11T18:12:53.089Z","date":"2025-11-11","time":"18:12:53","cor_ans":false},{"trial_type":"html-keyboard-response","rt":null,"stimulus":"<p style=\"color: red; font-size: 50px; font-weight: bold;\">Incorrect</p>","response":null,"trial_index":146,"plugin_version":"2.1.0","time_elapsed":275535,"subject_id":"88725","group":"Group2","full_date":"2025-11-11T18:12:53.089Z","date":"2025-11-11","time":"18:12:53"},{"correct_response":"a","task":"test_phase","broad_category":"M","image_png":"M_Quartzite_13.png","image_id":285,"category_name":"Quartzite","category":18,"distinct_rating":2.27,"distinct_type":"Bottom","item_type":"Foil","rt":1012,"stimulus":"Stimuli_Rocks480/M_Quartzite_13.png","response":"l","trial_type":"image-keyboard-response","trial_index":147,"plugin_version":"2.1.0","time_elapsed":276550,"subject_id":"88725","group":"Group2","full_date":"2025-11-11T18:12:53.089Z","date":"2025-11-11","time":"18:12:53","cor_ans":false},{"trial_type":"html-keyboard-response","rt":null,"stimulus":"<p style=\"color: red; font-size: 50px; font-weight: bold;\">Incorrect</p>","response":null,"trial_index":148,"plugin_version":"2.1.0","time_elapsed":277051,"subject_id":"88725","group":"Group2","full_date":"2025-11-11T18:12:53.089Z","date":"2025-11-11","time":"18:12:53"},{"correct_response":"l","task":"test_phase","broad_category":"S","image_png":"S_Dolomite_07.png","image_id":391,"category_name":"Dolomite","category":25,"distinct_rating":1.73,"distinct_type":"Bottom","item_type":"Target","rt":1407,"stimulus":"Stimuli_Rocks480/S_Dolomite_07.png","response":"l","trial_type":"image-keyboard-response","trial_index":149,"plugin_version":"2.1.0","time_elapsed":278460,"subject_id":"88725","group":"Group2","full_date":"2025-11-11T18:12:53.089Z","date":"2025-11-11","time":"18:12:53","cor_ans":true},{"trial_type":"html-keyboard-response","rt":null,"stimulus":"<p style=\"color: green; font-size: 50px; font-weight: bold;\">Correct</p>","response":null,"trial_index":150,"plugin_version":"2.1.0","time_elapsed":278962,"subject_id":"88725","group":"Group2","full_date":"2025-11-11T18:12:53.089Z","date":"2025-11-11","time":"18:12:53"},{"correct_response":"a","task":"test_phase","broad_category":"M","image_png":"M_Phyllite_03.png","image_id":259,"category_name":"Phyllite","category":17,"distinct_rating":2.5,"distinct_type":"Bottom","item_type":"Foil","rt":2241,"stimulus":"Stimuli_Rocks480/M_Phyllite_03.png","response":"l","trial_type":"image-keyboard-response","trial_index":151,"plugin_version":"2.1.0","time_elapsed":281205,"subject_id":"88725","group":"Group2","full_date":"2025-11-11T18:12:53.089Z","date":"2025-11-11","time":"18:12:53","cor_ans":false},{"trial_type":"html-keyboard-response","rt":null,"stimulus":"<p style=\"color: red; font-size: 50px; font-weight: bold;\">Incorrect</p>","response":null,"trial_index":152,"plugin_version":"2.1.0","time_elapsed":281707,"subject_id":"88725","group":"Group2","full_date":"2025-11-11T18:12:53.089Z","date":"2025-11-11","time":"18:12:53"},{"correct_response":"a","task":"test_phase","broad_category":"I","image_png":"I_Pumice_08.png","image_id":136,"category_name":"Pumice","category":9,"distinct_rating":3.1,"distinct_type":"Bottom","item_type":"Foil","rt":1031,"stimulus":"Stimuli_Rocks480/I_Pumice_08.png","response":"a","trial_type":"image-keyboard-response","trial_index":153,"plugin_version":"2.1.0","time_elapsed":282741,"subject_id":"88725","group":"Group2","full_date":"2025-11-11T18:12:53.089Z","date":"2025-11-11","time":"18:12:53","cor_ans":true},{"trial_type":"html-keyboard-response","rt":null,"stimulus":"<p style=\"color: green; font-size: 50px; font-weight: bold;\">Correct</p>","response":null,"trial_index":154,"plugin_version":"2.1.0","time_elapsed":283242,"subject_id":"88725","group":"Group2","full_date":"2025-11-11T18:12:53.089Z","date":"2025-11-11","time":"18:12:53"},{"correct_response":"a","task":"test_phase","broad_category":"S","image_png":"S_Sandstone_15.png","image_id":463,"category_name":"Sandstone","category":29,"distinct_rating":2,"distinct_type":"Bottom","item_type":"Foil","rt":1102,"stimulus":"Stimuli_Rocks480/S_Sandstone_15.png","response":"a","trial_type":"image-keyboard-response","trial_index":155,"plugin_version":"2.1.0","time_elapsed":284346,"subject_id":"88725","group":"Group2","full_date":"2025-11-11T18:12:53.089Z","date":"2025-11-11","time":"18:12:53","cor_ans":true},{"trial_type":"html-keyboard-response","rt":null,"stimulus":"<p style=\"color: green; font-size: 50px; font-weight: bold;\">Correct</p>","response":null,"trial_index":156,"plugin_version":"2.1.0","time_elapsed":284848,"subject_id":"88725","group":"Group2","full_date":"2025-11-11T18:12:53.089Z","date":"2025-11-11","time":"18:12:53"},{"correct_response":"l","task":"test_phase","broad_category":"M","image_png":"M_Phyllite_05.png","image_id":261,"category_name":"Phyllite","category":17,"distinct_rating":2.14,"distinct_type":"Bottom","item_type":"Target","rt":1036,"stimulus":"Stimuli_Rocks480/M_Phyllite_05.png","response":"l","trial_type":"image-keyboard-response","trial_index":157,"plugin_version":"2.1.0","time_elapsed":285887,"subject_id":"88725","group":"Group2","full_date":"2025-11-11T18:12:53.089Z","date":"2025-11-11","time":"18:12:53","cor_ans":true},{"trial_type":"html-keyboard-response","rt":null,"stimulus":"<p style=\"color: green; font-size: 50px; font-weight: bold;\">Correct</p>","response":null,"trial_index":158,"plugin_version":"2.1.0","time_elapsed":286388,"subject_id":"88725","group":"Group2","full_date":"2025-11-11T18:12:53.089Z","date":"2025-11-11","time":"18:12:53"},{"correct_response":"a","task":"test_phase","broad_category":"I","image_png":"I_Gabbro_08.png","image_id":56,"category_name":"Gabbro","category":4,"distinct_rating":3.02,"distinct_type":"Bottom","item_type":"Foil","rt":1101,"stimulus":"Stimuli_Rocks480/I_Gabbro_08.png","response":"l","trial_type":"image-keyboard-response","trial_index":159,"plugin_version":"2.1.0","time_elapsed":287491,"subject_id":"88725","group":"Group2","full_date":"2025-11-11T18:12:53.089Z","date":"2025-11-11","time":"18:12:53","cor_ans":false},{"trial_type":"html-keyboard-response","rt":null,"stimulus":"<p style=\"color: red; font-size: 50px; font-weight: bold;\">Incorrect</p>","response":null,"trial_index":160,"plugin_version":"2.1.0","time_elapsed":287992,"subject_id":"88725","group":"Group2","full_date":"2025-11-11T18:12:53.089Z","date":"2025-11-11","time":"18:12:53"},{"correct_response":"l","task":"test_phase","broad_category":"I","image_png":"I_Rhyolite_10.png","image_id":154,"category_name":"Rhyolite","category":10,"distinct_rating":2.88,"distinct_type":"Bottom","item_type":"Target","rt":1771,"stimulus":"Stimuli_Rocks480/I_Rhyolite_10.png","response":"a","trial_type":"image-keyboard-response","trial_index":161,"plugin_version":"2.1.0","time_elapsed":289766,"subject_id":"88725","group":"Group2","full_date":"2025-11-11T18:12:53.089Z","date":"2025-11-11","time":"18:12:53","cor_ans":false},{"trial_type":"html-keyboard-response","rt":null,"stimulus":"<p style=\"color: red; font-size: 50px; font-weight: bold;\">Incorrect</p>","response":null,"trial_index":162,"plugin_version":"2.1.0","time_elapsed":290267,"subject_id":"88725","group":"Group2","full_date":"2025-11-11T18:12:53.089Z","date":"2025-11-11","time":"18:12:53"},{"correct_response":"l","task":"test_phase","broad_category":"I","image_png":"I_Basalt_10.png","image_id":26,"category_name":"Basalt","category":2,"distinct_rating":2.76,"distinct_type":"Bottom","item_type":"Target","rt":34655,"stimulus":"Stimuli_Rocks480/I_Basalt_10.png","response":"a","trial_type":"image-keyboard-response","trial_index":163,"plugin_version":"2.1.0","time_elapsed":324923,"subject_id":"88725","group":"Group2","full_date":"2025-11-11T18:12:53.089Z","date":"2025-11-11","time":"18:12:53","cor_ans":false},{"trial_type":"html-keyboard-response","rt":null,"stimulus":"<p style=\"color: red; font-size: 50px; font-weight: bold;\">Incorrect</p>","response":null,"trial_index":164,"plugin_version":"2.1.0","time_elapsed":325425,"subject_id":"88725","group":"Group2","full_date":"2025-11-11T18:12:53.089Z","date":"2025-11-11","time":"18:12:53"},{"correct_response":"l","task":"test_phase","broad_category":"I","image_png":"I_Andesite_03.png","image_id":3,"category_name":"Andesite","category":1,"distinct_rating":3.17,"distinct_type":"Bottom","item_type":"Target","rt":1017,"stimulus":"Stimuli_Rocks480/I_Andesite_03.png","response":"a","trial_type":"image-keyboard-response","trial_index":165,"plugin_version":"2.1.0","time_elapsed":326445,"subject_id":"88725","group":"Group2","full_date":"2025-11-11T18:12:53.089Z","date":"2025-11-11","time":"18:12:53","cor_ans":false},{"trial_type":"html-keyboard-response","rt":null,"stimulus":"<p style=\"color: red; font-size: 50px; font-weight: bold;\">Incorrect</p>","response":null,"trial_index":166,"plugin_version":"2.1.0","time_elapsed":326946,"subject_id":"88725","group":"Group2","full_date":"2025-11-11T18:12:53.089Z","date":"2025-11-11","time":"18:12:53"},{"correct_response":"l","task":"test_phase","broad_category":"I","image_png":"I_Diorite_15.png","image_id":47,"category_name":"Diorite","category":3,"distinct_rating":3.05,"distinct_type":"Bottom","item_type":"Target","rt":988,"stimulus":"Stimuli_Rocks480/I_Diorite_15.png","response":"l","trial_type":"image-keyboard-response","trial_index":167,"plugin_version":"2.1.0","time_elapsed":327937,"subject_id":"88725","group":"Group2","full_date":"2025-11-11T18:12:53.089Z","date":"2025-11-11","time":"18:12:53","cor_ans":true},{"trial_type":"html-keyboard-response","rt":null,"stimulus":"<p style=\"color: green; font-size: 50px; font-weight: bold;\">Correct</p>","response":null,"trial_index":168,"plugin_version":"2.1.0","time_elapsed":328439,"subject_id":"88725","group":"Group2","full_date":"2025-11-11T18:12:53.089Z","date":"2025-11-11","time":"18:12:53"},{"correct_response":"a","task":"test_phase","broad_category":"I","image_png":"I_Gabbro_11.png","image_id":59,"category_name":"Gabbro","category":4,"distinct_rating":1.99,"distinct_type":"Bottom","item_type":"Foil","rt":1140,"stimulus":"Stimuli_Rocks480/I_Gabbro_11.png","response":"l","trial_type":"image-keyboard-response","trial_index":169,"plugin_version":"2.1.0","time_elapsed":329581,"subject_id":"88725","group":"Group2","full_date":"2025-11-11T18:12:53.089Z","date":"2025-11-11","time":"18:12:53","cor_ans":false},{"trial_type":"html-keyboard-response","rt":null,"stimulus":"<p style=\"color: red; font-size: 50px; font-weight: bold;\">Incorrect</p>","response":null,"trial_index":170,"plugin_version":"2.1.0","time_elapsed":330082,"subject_id":"88725","group":"Group2","full_date":"2025-11-11T18:12:53.089Z","date":"2025-11-11","time":"18:12:53"},{"correct_response":"a","task":"test_phase","broad_category":"M","image_png":"M_Quartzite_08.png","image_id":280,"category_name":"Quartzite","category":18,"distinct_rating":2.15,"distinct_type":"Bottom","item_type":"Foil","rt":1111,"stimulus":"Stimuli_Rocks480/M_Quartzite_08.png","response":"a","trial_type":"image-keyboard-response","trial_index":171,"plugin_version":"2.1.0","time_elapsed":331196,"subject_id":"88725","group":"Group2","full_date":"2025-11-11T18:12:53.089Z","date":"2025-11-11","time":"18:12:53","cor_ans":true},{"trial_type":"html-keyboard-response","rt":null,"stimulus":"<p style=\"color: green; font-size: 50px; font-weight: bold;\">Correct</p>","response":null,"trial_index":172,"plugin_version":"2.1.0","time_elapsed":331697,"subject_id":"88725","group":"Group2","full_date":"2025-11-11T18:12:53.089Z","date":"2025-11-11","time":"18:12:53"},{"correct_response":"a","task":"test_phase","broad_category":"M","image_png":"M_Quartzite_05.png","image_id":277,"category_name":"Quartzite","category":18,"distinct_rating":2.23,"distinct_type":"Bottom","item_type":"Foil","rt":2158,"stimulus":"Stimuli_Rocks480/M_Quartzite_05.png","response":"a","trial_type":"image-keyboard-response","trial_index":173,"plugin_version":"2.1.0","time_elapsed":333857,"subject_id":"88725","group":"Group2","full_date":"2025-11-11T18:12:53.089Z","date":"2025-11-11","time":"18:12:53","cor_ans":true},{"trial_type":"html-keyboard-response","rt":null,"stimulus":"<p style=\"color: green; font-size: 50px; font-weight: bold;\">Correct</p>","response":null,"trial_index":174,"plugin_version":"2.1.0","time_elapsed":334359,"subject_id":"88725","group":"Group2","full_date":"2025-11-11T18:12:53.089Z","date":"2025-11-11","time":"18:12:53"},{"correct_response":"a","task":"test_phase","broad_category":"I","image_png":"I_Pegmatite_10.png","image_id":106,"category_name":"Pegmatite","category":7,"distinct_rating":7.66,"distinct_type":"Top","item_type":"Foil","rt":939,"stimulus":"Stimuli_Rocks480/I_Pegmatite_10.png","response":"a","trial_type":"image-keyboard-response","trial_index":175,"plugin_version":"2.1.0","time_elapsed":335301,"subject_id":"88725","group":"Group2","full_date":"2025-11-11T18:12:53.089Z","date":"2025-11-11","time":"18:12:53","cor_ans":true},{"trial_type":"html-keyboard-response","rt":null,"stimulus":"<p style=\"color: green; font-size: 50px; font-weight: bold;\">Correct</p>","response":null,"trial_index":176,"plugin_version":"2.1.0","time_elapsed":335803,"subject_id":"88725","group":"Group2","full_date":"2025-11-11T18:12:53.089Z","date":"2025-11-11","time":"18:12:53"},{"correct_response":"a","task":"test_phase","broad_category":"I","image_png":"I_Basalt_09.png","image_id":25,"category_name":"Basalt","category":2,"distinct_rating":1.89,"distinct_type":"Bottom","item_type":"Foil","rt":35813,"stimulus":"Stimuli_Rocks480/I_Basalt_09.png","response":"l","trial_type":"image-keyboard-response","trial_index":177,"plugin_version":"2.1.0","time_elapsed":371617,"subject_id":"88725","group":"Group2","full_date":"2025-11-11T18:12:53.089Z","date":"2025-11-11","time":"18:12:53","cor_ans":false},{"trial_type":"html-keyboard-response","rt":null,"stimulus":"<p style=\"color: red; font-size: 50px; font-weight: bold;\">Incorrect</p>","response":null,"trial_index":178,"plugin_version":"2.1.0","time_elapsed":372119,"subject_id":"88725","group":"Group2","full_date":"2025-11-11T18:12:53.089Z","date":"2025-11-11","time":"18:12:53"},{"correct_response":"a","task":"test_phase","broad_category":"I","image_png":"I_Andesite_06.png","image_id":6,"category_name":"Andesite","category":1,"distinct_rating":3.17,"distinct_type":"Bottom","item_type":"Foil","rt":867,"stimulus":"Stimuli_Rocks480/I_Andesite_06.png","response":"l","trial_type":"image-keyboard-response","trial_index":179,"plugin_version":"2.1.0","time_elapsed":372989,"subject_id":"88725","group":"Group2","full_date":"2025-11-11T18:12:53.089Z","date":"2025-11-11","time":"18:12:53","cor_ans":false},{"trial_type":"html-keyboard-response","rt":null,"stimulus":"<p style=\"color: red; font-size: 50px; font-weight: bold;\">Incorrect</p>","response":null,"trial_index":180,"plugin_version":"2.1.0","time_elapsed":373491,"subject_id":"88725","group":"Group2","full_date":"2025-11-11T18:12:53.089Z","date":"2025-11-11","time":"18:12:53"},{"correct_response":"l","task":"test_phase","broad_category":"S","image_png":"S_Sandstone_08.png","image_id":456,"category_name":"Sandstone","category":29,"distinct_rating":1.5,"distinct_type":"Bottom","item_type":"Target","rt":1280,"stimulus":"Stimuli_Rocks480/S_Sandstone_08.png","response":"a","trial_type":"image-keyboard-response","trial_index":181,"plugin_version":"2.1.0","time_elapsed":374773,"subject_id":"88725","group":"Group2","full_date":"2025-11-11T18:12:53.089Z","date":"2025-11-11","time":"18:12:53","cor_ans":false},{"trial_type":"html-keyboard-response","rt":null,"stimulus":"<p style=\"color: red; font-size: 50px; font-weight: bold;\">Incorrect</p>","response":null,"trial_index":182,"plugin_version":"2.1.0","time_elapsed":375275,"subject_id":"88725","group":"Group2","full_date":"2025-11-11T18:12:53.089Z","date":"2025-11-11","time":"18:12:53"},{"correct_response":"l","task":"test_phase","broad_category":"S","image_png":"S_Shale_03.png","image_id":467,"category_name":"Shale","category":30,"distinct_rating":1.95,"distinct_type":"Bottom","item_type":"Target","rt":2684,"stimulus":"Stimuli_Rocks480/S_Shale_03.png","response":"a","trial_type":"image-keyboard-response","trial_index":183,"plugin_version":"2.1.0","time_elapsed":377960,"subject_id":"88725","group":"Group2","full_date":"2025-11-11T18:12:53.089Z","date":"2025-11-11","time":"18:12:53","cor_ans":false},{"trial_type":"html-keyboard-response","rt":null,"stimulus":"<p style=\"color: red; font-size: 50px; font-weight: bold;\">Incorrect</p>","response":null,"trial_index":184,"plugin_version":"2.1.0","time_elapsed":378461,"subject_id":"88725","group":"Group2","full_date":"2025-11-11T18:12:53.089Z","date":"2025-11-11","time":"18:12:53"},{"correct_response":"a","task":"test_phase","broad_category":"I","image_png":"I_Pumice_11.png","image_id":139,"category_name":"Pumice","category":9,"distinct_rating":1.74,"distinct_type":"Bottom","item_type":"Foil","rt":715,"stimulus":"Stimuli_Rocks480/I_Pumice_11.png","response":"l","trial_type":"image-keyboard-response","trial_index":185,"plugin_version":"2.1.0","time_elapsed":379178,"subject_id":"88725","group":"Group2","full_date":"2025-11-11T18:12:53.089Z","date":"2025-11-11","time":"18:12:53","cor_ans":false},{"trial_type":"html-keyboard-response","rt":null,"stimulus":"<p style=\"color: red; font-size: 50px; font-weight: bold;\">Incorrect</p>","response":null,"trial_index":186,"plugin_version":"2.1.0","time_elapsed":379680,"subject_id":"88725","group":"Group2","full_date":"2025-11-11T18:12:53.089Z","date":"2025-11-11","time":"18:12:53"},{"correct_response":"a","task":"test_phase","broad_category":"M","image_png":"M_Slate_11.png","image_id":315,"category_name":"Slate","category":20,"distinct_rating":2.75,"distinct_type":"Bottom","item_type":"Foil","rt":856,"stimulus":"Stimuli_Rocks480/M_Slate_11.png","response":"l","trial_type":"image-keyboard-response","trial_index":187,"plugin_version":"2.1.0","time_elapsed":380538,"subject_id":"88725","group":"Group2","full_date":"2025-11-11T18:12:53.089Z","date":"2025-11-11","time":"18:12:53","cor_ans":false},{"trial_type":"html-keyboard-response","rt":null,"stimulus":"<p style=\"color: red; font-size: 50px; font-weight: bold;\">Incorrect</p>","response":null,"trial_index":188,"plugin_version":"2.1.0","time_elapsed":381040,"subject_id":"88725","group":"Group2","full_date":"2025-11-11T18:12:53.089Z","date":"2025-11-11","time":"18:12:53"},{"correct_response":"a","task":"test_phase","broad_category":"S","image_png":"S_Breccia_11.png","image_id":347,"category_name":"Breccia","category":22,"distinct_rating":6.7,"distinct_type":"Top","item_type":"Foil","rt":669,"stimulus":"Stimuli_Rocks480/S_Breccia_11.png","response":"a","trial_type":"image-keyboard-response","trial_index":189,"plugin_version":"2.1.0","time_elapsed":381712,"subject_id":"88725","group":"Group2","full_date":"2025-11-11T18:12:53.089Z","date":"2025-11-11","time":"18:12:53","cor_ans":true},{"trial_type":"html-keyboard-response","rt":null,"stimulus":"<p style=\"color: green; font-size: 50px; font-weight: bold;\">Correct</p>","response":null,"trial_index":190,"plugin_version":"2.1.0","time_elapsed":382213,"subject_id":"88725","group":"Group2","full_date":"2025-11-11T18:12:53.089Z","date":"2025-11-11","time":"18:12:53"},{"correct_response":"l","task":"test_phase","broad_category":"S","image_png":"S_Rock Salt_15.png","image_id":447,"category_name":"Rock Salt","category":28,"distinct_rating":7.79,"distinct_type":"Top","item_type":"Target","rt":1742,"stimulus":"Stimuli_Rocks480/S_Rock Salt_15.png","response":"l","trial_type":"image-keyboard-response","trial_index":191,"plugin_version":"2.1.0","time_elapsed":383958,"subject_id":"88725","group":"Group2","full_date":"2025-11-11T18:12:53.089Z","date":"2025-11-11","time":"18:12:53","cor_ans":true},{"trial_type":"html-keyboard-response","rt":null,"stimulus":"<p style=\"color: green; font-size: 50px; font-weight: bold;\">Correct</p>","response":null,"trial_index":192,"plugin_version":"2.1.0","time_elapsed":384460,"subject_id":"88725","group":"Group2","full_date":"2025-11-11T18:12:53.089Z","date":"2025-11-11","time":"18:12:53"},{"correct_response":"a","task":"test_phase","broad_category":"I","image_png":"I_Rhyolite_16.png","image_id":160,"category_name":"Rhyolite","category":10,"distinct_rating":2.19,"distinct_type":"Bottom","item_type":"Foil","rt":769,"stimulus":"Stimuli_Rocks480/I_Rhyolite_16.png","response":"l","trial_type":"image-keyboard-response","trial_index":193,"plugin_version":"2.1.0","time_elapsed":385231,"subject_id":"88725","group":"Group2","full_date":"2025-11-11T18:12:53.089Z","date":"2025-11-11","time":"18:12:53","cor_ans":false},{"trial_type":"html-keyboard-response","rt":null,"stimulus":"<p style=\"color: red; font-size: 50px; font-weight: bold;\">Incorrect</p>","response":null,"trial_index":194,"plugin_version":"2.1.0","time_elapsed":385733,"subject_id":"88725","group":"Group2","full_date":"2025-11-11T18:12:53.089Z","date":"2025-11-11","time":"18:12:53"},{"correct_response":"l","task":"test_phase","broad_category":"S","image_png":"S_Dolomite_16.png","image_id":400,"category_name":"Dolomite","category":25,"distinct_rating":1.71,"distinct_type":"Bottom","item_type":"Target","rt":1013,"stimulus":"Stimuli_Rocks480/S_Dolomite_16.png","response":"a","trial_type":"image-keyboard-response","trial_index":195,"plugin_version":"2.1.0","time_elapsed":386748,"subject_id":"88725","group":"Group2","full_date":"2025-11-11T18:12:53.089Z","date":"2025-11-11","time":"18:12:53","cor_ans":false},{"trial_type":"html-keyboard-response","rt":null,"stimulus":"<p style=\"color: red; font-size: 50px; font-weight: bold;\">Incorrect</p>","response":null,"trial_index":196,"plugin_version":"2.1.0","time_elapsed":387250,"subject_id":"88725","group":"Group2","full_date":"2025-11-11T18:12:53.089Z","date":"2025-11-11","time":"18:12:53"},{"correct_response":"a","task":"test_phase","broad_category":"M","image_png":"M_Marble_04.png","image_id":228,"category_name":"Marble","category":15,"distinct_rating":3.15,"distinct_type":"Bottom","item_type":"Foil","rt":513,"stimulus":"Stimuli_Rocks480/M_Marble_04.png","response":"l","trial_type":"image-keyboard-response","trial_index":197,"plugin_version":"2.1.0","time_elapsed":387766,"subject_id":"88725","group":"Group2","full_date":"2025-11-11T18:12:53.089Z","date":"2025-11-11","time":"18:12:53","cor_ans":false},{"trial_type":"html-keyboard-response","rt":null,"stimulus":"<p style=\"color: red; font-size: 50px; font-weight: bold;\">Incorrect</p>","response":null,"trial_index":198,"plugin_version":"2.1.0","time_elapsed":388268,"subject_id":"88725","group":"Group2","full_date":"2025-11-11T18:12:53.089Z","date":"2025-11-11","time":"18:12:53"},{"correct_response":"a","task":"test_phase","broad_category":"S","image_png":"S_Sandstone_16.png","image_id":464,"category_name":"Sandstone","category":29,"distinct_rating":1.93,"distinct_type":"Bottom","item_type":"Foil","rt":338,"stimulus":"Stimuli_Rocks480/S_Sandstone_16.png","response":"a","trial_type":"image-keyboard-response","trial_index":199,"plugin_version":"2.1.0","time_elapsed":388609,"subject_id":"88725","group":"Group2","full_date":"2025-11-11T18:12:53.089Z","date":"2025-11-11","time":"18:12:53","cor_ans":true},{"trial_type":"html-keyboard-response","rt":null,"stimulus":"<p style=\"color: green; font-size: 50px; font-weight: bold;\">Correct</p>","response":null,"trial_index":200,"plugin_version":"2.1.0","time_elapsed":389111,"subject_id":"88725","group":"Group2","full_date":"2025-11-11T18:12:53.089Z","date":"2025-11-11","time":"18:12:53"},{"correct_response":"a","task":"test_phase","broad_category":"S","image_png":"S_Sandstone_03.png","image_id":451,"category_name":"Sandstone","category":29,"distinct_rating":1.86,"distinct_type":"Bottom","item_type":"Foil","rt":322,"stimulus":"Stimuli_Rocks480/S_Sandstone_03.png","response":"l","trial_type":"image-keyboard-response","trial_index":201,"plugin_version":"2.1.0","time_elapsed":389436,"subject_id":"88725","group":"Group2","full_date":"2025-11-11T18:12:53.089Z","date":"2025-11-11","time":"18:12:53","cor_ans":false},{"trial_type":"html-keyboard-response","rt":null,"stimulus":"<p style=\"color: red; font-size: 50px; font-weight: bold;\">Incorrect</p>","response":null,"trial_index":202,"plugin_version":"2.1.0","time_elapsed":389949,"subject_id":"88725","group":"Group2","full_date":"2025-11-11T18:12:53.089Z","date":"2025-11-11","time":"18:12:53"},{"correct_response":"a","task":"test_phase","broad_category":"M","image_png":"M_Marble_16.png","image_id":240,"category_name":"Marble","category":15,"distinct_rating":2.57,"distinct_type":"Bottom","item_type":"Foil","rt":493,"stimulus":"Stimuli_Rocks480/M_Marble_16.png","response":"a","trial_type":"image-keyboard-response","trial_index":203,"plugin_version":"2.1.0","time_elapsed":390444,"subject_id":"88725","group":"Group2","full_date":"2025-11-11T18:12:53.089Z","date":"2025-11-11","time":"18:12:53","cor_ans":true},{"trial_type":"html-keyboard-response","rt":null,"stimulus":"<p style=\"color: green; font-size: 50px; font-weight: bold;\">Correct</p>","response":null,"trial_index":204,"plugin_version":"2.1.0","time_elapsed":390946,"subject_id":"88725","group":"Group2","full_date":"2025-11-11T18:12:53.089Z","date":"2025-11-11","time":"18:12:53"},{"correct_response":"l","task":"test_phase","broad_category":"I","image_png":"I_Basalt_13.png","image_id":29,"category_name":"Basalt","category":2,"distinct_rating":2.68,"distinct_type":"Bottom","item_type":"Target","rt":1194,"stimulus":"Stimuli_Rocks480/I_Basalt_13.png","response":"l","trial_type":"image-keyboard-response","trial_index":205,"plugin_version":"2.1.0","time_elapsed":392143,"subject_id":"88725","group":"Group2","full_date":"2025-11-11T18:12:53.089Z","date":"2025-11-11","time":"18:12:53","cor_ans":true},{"trial_type":"html-keyboard-response","rt":null,"stimulus":"<p style=\"color: green; font-size: 50px; font-weight: bold;\">Correct</p>","response":null,"trial_index":206,"plugin_version":"2.1.0","time_elapsed":392645,"subject_id":"88725","group":"Group2","full_date":"2025-11-11T18:12:53.089Z","date":"2025-11-11","time":"18:12:53"},{"correct_response":"l","task":"test_phase","broad_category":"I","image_png":"I_Diorite_10.png","image_id":42,"category_name":"Diorite","category":3,"distinct_rating":2.84,"distinct_type":"Bottom","item_type":"Target","rt":936,"stimulus":"Stimuli_Rocks480/I_Diorite_10.png","response":"l","trial_type":"image-keyboard-response","trial_index":207,"plugin_version":"2.1.0","time_elapsed":393583,"subject_id":"88725","group":"Group2","full_date":"2025-11-11T18:12:53.089Z","date":"2025-11-11","time":"18:12:53","cor_ans":true},{"trial_type":"html-keyboard-response","rt":null,"stimulus":"<p style=\"color: green; font-size: 50px; font-weight: bold;\">Correct</p>","response":null,"trial_index":208,"plugin_version":"2.1.0","time_elapsed":394084,"subject_id":"88725","group":"Group2","full_date":"2025-11-11T18:12:53.089Z","date":"2025-11-11","time":"18:12:53"},{"correct_response":"a","task":"test_phase","broad_category":"I","image_png":"I_Diorite_04.png","image_id":36,"category_name":"Diorite","category":3,"distinct_rating":2.98,"distinct_type":"Bottom","item_type":"Foil","rt":854,"stimulus":"Stimuli_Rocks480/I_Diorite_04.png","response":"l","trial_type":"image-keyboard-response","trial_index":209,"plugin_version":"2.1.0","time_elapsed":394941,"subject_id":"88725","group":"Group2","full_date":"2025-11-11T18:12:53.089Z","date":"2025-11-11","time":"18:12:53","cor_ans":false},{"trial_type":"html-keyboard-response","rt":null,"stimulus":"<p style=\"color: red; font-size: 50px; font-weight: bold;\">Incorrect</p>","response":null,"trial_index":210,"plugin_version":"2.1.0","time_elapsed":395443,"subject_id":"88725","group":"Group2","full_date":"2025-11-11T18:12:53.089Z","date":"2025-11-11","time":"18:12:53"},{"correct_response":"l","task":"test_phase","broad_category":"I","image_png":"I_Rhyolite_05.png","image_id":149,"category_name":"Rhyolite","category":10,"distinct_rating":3.02,"distinct_type":"Bottom","item_type":"Target","rt":530,"stimulus":"Stimuli_Rocks480/I_Rhyolite_05.png","response":"a","trial_type":"image-keyboard-response","trial_index":211,"plugin_version":"2.1.0","time_elapsed":395975,"subject_id":"88725","group":"Group2","full_date":"2025-11-11T18:12:53.089Z","date":"2025-11-11","time":"18:12:53","cor_ans":false},{"trial_type":"html-keyboard-response","rt":null,"stimulus":"<p style=\"color: red; font-size: 50px; font-weight: bold;\">Incorrect</p>","response":null,"trial_index":212,"plugin_version":"2.1.0","time_elapsed":396476,"subject_id":"88725","group":"Group2","full_date":"2025-11-11T18:12:53.089Z","date":"2025-11-11","time":"18:12:53"},{"correct_response":"a","task":"test_phase","broad_category":"I","image_png":"I_Diorite_05.png","image_id":37,"category_name":"Diorite","category":3,"distinct_rating":3.08,"distinct_type":"Bottom","item_type":"Foil","rt":646,"stimulus":"Stimuli_Rocks480/I_Diorite_05.png","response":"l","trial_type":"image-keyboard-response","trial_index":213,"plugin_version":"2.1.0","time_elapsed":397125,"subject_id":"88725","group":"Group2","full_date":"2025-11-11T18:12:53.089Z","date":"2025-11-11","time":"18:12:53","cor_ans":false},{"trial_type":"html-keyboard-response","rt":null,"stimulus":"<p style=\"color: red; font-size: 50px; font-weight: bold;\">Incorrect</p>","response":null,"trial_index":214,"plugin_version":"2.1.0","time_elapsed":397627,"subject_id":"88725","group":"Group2","full_date":"2025-11-11T18:12:53.089Z","date":"2025-11-11","time":"18:12:53"},{"correct_response":"l","task":"test_phase","broad_category":"M","image_png":"M_Gneiss_10.png","image_id":202,"category_name":"Gneiss","category":13,"distinct_rating":3.09,"distinct_type":"Bottom","item_type":"Target","rt":598,"stimulus":"Stimuli_Rocks480/M_Gneiss_10.png","response":"l","trial_type":"image-keyboard-response","trial_index":215,"plugin_version":"2.1.0","time_elapsed":398227,"subject_id":"88725","group":"Group2","full_date":"2025-11-11T18:12:53.089Z","date":"2025-11-11","time":"18:12:53","cor_ans":true},{"trial_type":"html-keyboard-response","rt":null,"stimulus":"<p style=\"color: green; font-size: 50px; font-weight: bold;\">Correct</p>","response":null,"trial_index":216,"plugin_version":"2.1.0","time_elapsed":398729,"subject_id":"88725","group":"Group2","full_date":"2025-11-11T18:12:53.089Z","date":"2025-11-11","time":"18:12:53"},{"correct_response":"a","task":"test_phase","broad_category":"S","image_png":"S_Shale_01.png","image_id":465,"category_name":"Shale","category":30,"distinct_rating":2.7,"distinct_type":"Bottom","item_type":"Foil","rt":1028,"stimulus":"Stimuli_Rocks480/S_Shale_01.png","response":"a","trial_type":"image-keyboard-response","trial_index":217,"plugin_version":"2.1.0","time_elapsed":399760,"subject_id":"88725","group":"Group2","full_date":"2025-11-11T18:12:53.089Z","date":"2025-11-11","time":"18:12:53","cor_ans":true},{"trial_type":"html-keyboard-response","rt":null,"stimulus":"<p style=\"color: green; font-size: 50px; font-weight: bold;\">Correct</p>","response":null,"trial_index":218,"plugin_version":"2.1.0","time_elapsed":400262,"subject_id":"88725","group":"Group2","full_date":"2025-11-11T18:12:53.089Z","date":"2025-11-11","time":"18:12:53"},{"correct_response":"l","task":"test_phase","broad_category":"I","image_png":"I_Andesite_09.png","image_id":9,"category_name":"Andesite","category":1,"distinct_rating":2.49,"distinct_type":"Bottom","item_type":"Target","rt":711,"stimulus":"Stimuli_Rocks480/I_Andesite_09.png","response":"l","trial_type":"image-keyboard-response","trial_index":219,"plugin_version":"2.1.0","time_elapsed":400976,"subject_id":"88725","group":"Group2","full_date":"2025-11-11T18:12:53.089Z","date":"2025-11-11","time":"18:12:53","cor_ans":true},{"trial_type":"html-keyboard-response","rt":null,"stimulus":"<p style=\"color: green; font-size: 50px; font-weight: bold;\">Correct</p>","response":null,"trial_index":220,"plugin_version":"2.1.0","time_elapsed":401477,"subject_id":"88725","group":"Group2","full_date":"2025-11-11T18:12:53.089Z","date":"2025-11-11","time":"18:12:53"},{"correct_response":"l","task":"test_phase","broad_category":"I","image_png":"I_Peridotite_13.png","image_id":125,"category_name":"Peridotite","category":8,"distinct_rating":7.28,"distinct_type":"Top","item_type":"Target","rt":2734,"stimulus":"Stimuli_Rocks480/I_Peridotite_13.png","response":"l","trial_type":"image-keyboard-response","trial_index":221,"plugin_version":"2.1.0","time_elapsed":404214,"subject_id":"88725","group":"Group2","full_date":"2025-11-11T18:12:53.089Z","date":"2025-11-11","time":"18:12:53","cor_ans":true},{"trial_type":"html-keyboard-response","rt":null,"stimulus":"<p style=\"color: green; font-size: 50px; font-weight: bold;\">Correct</p>","response":null,"trial_index":222,"plugin_version":"2.1.0","time_elapsed":404716,"subject_id":"88725","group":"Group2","full_date":"2025-11-11T18:12:53.089Z","date":"2025-11-11","time":"18:12:53"},{"correct_response":"l","task":"test_phase","broad_category":"S","image_png":"S_Shale_07.png","image_id":471,"category_name":"Shale","category":30,"distinct_rating":2.73,"distinct_type":"Bottom","item_type":"Target","rt":1041,"stimulus":"Stimuli_Rocks480/S_Shale_07.png","response":"a","trial_type":"image-keyboard-response","trial_index":223,"plugin_version":"2.1.0","time_elapsed":405759,"subject_id":"88725","group":"Group2","full_date":"2025-11-11T18:12:53.089Z","date":"2025-11-11","time":"18:12:53","cor_ans":false},{"trial_type":"html-keyboard-response","rt":null,"stimulus":"<p style=\"color: red; font-size: 50px; font-weight: bold;\">Incorrect</p>","response":null,"trial_index":224,"plugin_version":"2.1.0","time_elapsed":406261,"subject_id":"88725","group":"Group2","full_date":"2025-11-11T18:12:53.089Z","date":"2025-11-11","time":"18:12:53"},{"correct_response":"a","task":"test_phase","broad_category":"S","image_png":"S_Dolomite_12.png","image_id":396,"category_name":"Dolomite","category":25,"distinct_rating":1.85,"distinct_type":"Bottom","item_type":"Foil","rt":723,"stimulus":"Stimuli_Rocks480/S_Dolomite_12.png","response":"l","trial_type":"image-keyboard-response","trial_index":225,"plugin_version":"2.1.0","time_elapsed":406987,"subject_id":"88725","group":"Group2","full_date":"2025-11-11T18:12:53.089Z","date":"2025-11-11","time":"18:12:53","cor_ans":false},{"trial_type":"html-keyboard-response","rt":null,"stimulus":"<p style=\"color: red; font-size: 50px; font-weight: bold;\">Incorrect</p>","response":null,"trial_index":226,"plugin_version":"2.1.0","time_elapsed":407489,"subject_id":"88725","group":"Group2","full_date":"2025-11-11T18:12:53.089Z","date":"2025-11-11","time":"18:12:53"},{"correct_response":"a","task":"test_phase","broad_category":"S","image_png":"S_Chert_10.png","image_id":362,"category_name":"Chert","category":23,"distinct_rating":7.17,"distinct_type":"Top","item_type":"Foil","rt":1102,"stimulus":"Stimuli_Rocks480/S_Chert_10.png","response":"a","trial_type":"image-keyboard-response","trial_index":227,"plugin_version":"2.1.0","time_elapsed":408594,"subject_id":"88725","group":"Group2","full_date":"2025-11-11T18:12:53.089Z","date":"2025-11-11","time":"18:12:53","cor_ans":true},{"trial_type":"html-keyboard-response","rt":null,"stimulus":"<p style=\"color: green; font-size: 50px; font-weight: bold;\">Correct</p>","response":null,"trial_index":228,"plugin_version":"2.1.0","time_elapsed":409096,"subject_id":"88725","group":"Group2","full_date":"2025-11-11T18:12:53.089Z","date":"2025-11-11","time":"18:12:53"},{"correct_response":"a","task":"test_phase","broad_category":"S","image_png":"S_Dolomite_14.png","image_id":398,"category_name":"Dolomite","category":25,"distinct_rating":1.43,"distinct_type":"Bottom","item_type":"Foil","rt":868,"stimulus":"Stimuli_Rocks480/S_Dolomite_14.png","response":"l","trial_type":"image-keyboard-response","trial_index":229,"plugin_version":"2.1.0","time_elapsed":409967,"subject_id":"88725","group":"Group2","full_date":"2025-11-11T18:12:53.089Z","date":"2025-11-11","time":"18:12:53","cor_ans":false},{"trial_type":"html-keyboard-response","rt":null,"stimulus":"<p style=\"color: red; font-size: 50px; font-weight: bold;\">Incorrect</p>","response":null,"trial_index":230,"plugin_version":"2.1.0","time_elapsed":410468,"subject_id":"88725","group":"Group2","full_date":"2025-11-11T18:12:53.089Z","date":"2025-11-11","time":"18:12:53"},{"correct_response":"a","task":"test_phase","broad_category":"I","image_png":"I_Basalt_02.png","image_id":18,"category_name":"Basalt","category":2,"distinct_rating":1.84,"distinct_type":"Bottom","item_type":"Foil","rt":806,"stimulus":"Stimuli_Rocks480/I_Basalt_02.png","response":"l","trial_type":"image-keyboard-response","trial_index":231,"plugin_version":"2.1.0","time_elapsed":411277,"subject_id":"88725","group":"Group2","full_date":"2025-11-11T18:12:53.089Z","date":"2025-11-11","time":"18:12:53","cor_ans":false},{"trial_type":"html-keyboard-response","rt":null,"stimulus":"<p style=\"color: red; font-size: 50px; font-weight: bold;\">Incorrect</p>","response":null,"trial_index":232,"plugin_version":"2.1.0","time_elapsed":411779,"subject_id":"88725","group":"Group2","full_date":"2025-11-11T18:12:53.089Z","date":"2025-11-11","time":"18:12:53"},{"correct_response":"a","task":"test_phase","broad_category":"I","image_png":"I_Rhyolite_11.png","image_id":155,"category_name":"Rhyolite","category":10,"distinct_rating":1.73,"distinct_type":"Bottom","item_type":"Foil","rt":775,"stimulus":"Stimuli_Rocks480/I_Rhyolite_11.png","response":"a","trial_type":"image-keyboard-response","trial_index":233,"plugin_version":"2.1.0","time_elapsed":412558,"subject_id":"88725","group":"Group2","full_date":"2025-11-11T18:12:53.089Z","date":"2025-11-11","time":"18:12:53","cor_ans":true},{"trial_type":"html-keyboard-response","rt":null,"stimulus":"<p style=\"color: green; font-size: 50px; font-weight: bold;\">Correct</p>","response":null,"trial_index":234,"plugin_version":"2.1.0","time_elapsed":413060,"subject_id":"88725","group":"Group2","full_date":"2025-11-11T18:12:53.089Z","date":"2025-11-11","time":"18:12:53"},{"correct_response":"a","task":"test_phase","broad_category":"I","image_png":"I_Rhyolite_14.png","image_id":158,"category_name":"Rhyolite","category":10,"distinct_rating":2.59,"distinct_type":"Bottom","item_type":"Foil","rt":923,"stimulus":"Stimuli_Rocks480/I_Rhyolite_14.png","response":"a","trial_type":"image-keyboard-response","trial_index":235,"plugin_version":"2.1.0","time_elapsed":413986,"subject_id":"88725","group":"Group2","full_date":"2025-11-11T18:12:53.089Z","date":"2025-11-11","time":"18:12:53","cor_ans":true},{"trial_type":"html-keyboard-response","rt":null,"stimulus":"<