[{"width":1512,"height":858,"webaudio":true,"browser":"chrome","browser_version":"123.0.0","mobile":false,"os":"Mac OS","fullscreen":true,"vsync_rate":130.46,"webcam":true,"microphone":true,"trial_type":"browser-check","trial_index":0,"plugin_version":"2.1.0","time_elapsed":473,"subject_id":"86880","group":"Group1","full_date":"2025-11-09T07:34:02.720Z","date":"2025-11-09","time":"07:34:02"},{"success":true,"timeout":false,"failed_images":[],"failed_audio":[],"failed_video":[],"trial_type":"preload","trial_index":1,"plugin_version":"2.1.0","time_elapsed":9302,"subject_id":"86880","group":"Group1","full_date":"2025-11-09T07:34:02.720Z","date":"2025-11-09","time":"07:34:02"},{"rt":87226,"url":"SONA_consent_memorability.html","trial_type":"external-html","trial_index":2,"plugin_version":"2.1.0","time_elapsed":96597,"subject_id":"86880","group":"Group1","full_date":"2025-11-09T07:34:02.720Z","date":"2025-11-09","time":"07:34:02"},{"success":true,"rt":2021,"trial_type":"fullscreen","trial_index":3,"plugin_version":"2.1.0","time_elapsed":99625,"subject_id":"86880","group":"Group1","full_date":"2025-11-09T07:34:02.720Z","date":"2025-11-09","time":"07:34:02"},{"rt":63365,"stimulus":"<div style=\"max-width: 760px; margin: auto; font-size: 20px; line-height: 1.5;\">\n      <h1 style=\"text-align:center; font-size: 30px;\">Instructions</h1>\n      <p>\n        Welcome to the study on <b>visual memory</b>. This experiment consists of <b>two phases</b>: \n        a <b>study phase</b> and a <b>test phase</b>.\n      </p>\n      <p>\n        In the study phase, you will see a series of rock images along with their category labels.\n        The images will appear one at a time.\n        <b>Your task</b> is to learn the categories to which the rock images belong \n        and to remember each image as accurately as possible.\n      </p> \n      <p>\n        After the study phase, <b>your memory will be tested</b>. \n        Additional instructions for the test phase will be provided at that time.\n      </p>\n      <p>\n        If your computer has multiple <b>language settings</b> (e.g., English and another language),\n        please make sure it is set to English before starting.\n      </p>\n      <p>\n        You can track your progress using the <b>completion bar</b> at the top of the screen. \n        Please note that the bar will refresh when the test phase begins \n        to give you an accurate sense of your progress in both phases.\n      </p> \n      <p>\n        Press the button below when you are ready to begin.\n      </p>\n    </div>","response":0,"trial_type":"html-button-response","trial_index":4,"plugin_version":"2.1.0","time_elapsed":162991,"subject_id":"86880","group":"Group1","full_date":"2025-11-09T07:34:02.720Z","date":"2025-11-09","time":"07:34:02"},{"rt":null,"stimulus":"<p style=\"font-size: 50px; margin: 0; text-align: center;\">+</p>","response":null,"trial_type":"html-keyboard-response","trial_index":5,"plugin_version":"2.1.0","time_elapsed":163996,"subject_id":"86880","group":"Group1","full_date":"2025-11-09T07:34:02.720Z","date":"2025-11-09","time":"07:34:02"},{"task":"memory_phase","broad_category":"I","image_png":"I_Rhyolite_16.png","image_id":160,"category_name":"Rhyolite","category":10,"distinct_rating":2.19,"distinct_type":"Bottom","rt":null,"stimulus":"Stimuli_Rocks480/I_Rhyolite_16.png","response":null,"trial_type":"image-keyboard-response","trial_index":6,"plugin_version":"2.1.0","time_elapsed":166504,"subject_id":"86880","group":"Group1","full_date":"2025-11-09T07:34:02.720Z","date":"2025-11-09","time":"07:34:02"},{"rt":null,"stimulus":"<p style=\"font-size: 50px; margin: 0; text-align: center;\">+</p>","response":null,"trial_type":"html-keyboard-response","trial_index":7,"plugin_version":"2.1.0","time_elapsed":167506,"subject_id":"86880","group":"Group1","full_date":"2025-11-09T07:34:02.720Z","date":"2025-11-09","time":"07:34:02"},{"task":"memory_phase","broad_category":"I","image_png":"I_Pumice_11.png","image_id":139,"category_name":"Pumice","category":9,"distinct_rating":1.74,"distinct_type":"Bottom","rt":null,"stimulus":"Stimuli_Rocks480/I_Pumice_11.png","response":null,"trial_type":"image-keyboard-response","trial_index":8,"plugin_version":"2.1.0","time_elapsed":170010,"subject_id":"86880","group":"Group1","full_date":"2025-11-09T07:34:02.720Z","date":"2025-11-09","time":"07:34:02"},{"rt":null,"stimulus":"<p style=\"font-size: 50px; margin: 0; text-align: center;\">+</p>","response":null,"trial_type":"html-keyboard-response","trial_index":9,"plugin_version":"2.1.0","time_elapsed":171013,"subject_id":"86880","group":"Group1","full_date":"2025-11-09T07:34:02.720Z","date":"2025-11-09","time":"07:34:02"},{"task":"memory_phase","broad_category":"I","image_png":"I_Diorite_03.png","image_id":35,"category_name":"Diorite","category":3,"distinct_rating":3.14,"distinct_type":"Bottom","rt":null,"stimulus":"Stimuli_Rocks480/I_Diorite_03.png","response":null,"trial_type":"image-keyboard-response","trial_index":10,"plugin_version":"2.1.0","time_elapsed":173518,"subject_id":"86880","group":"Group1","full_date":"2025-11-09T07:34:02.720Z","date":"2025-11-09","time":"07:34:02"},{"rt":null,"stimulus":"<p style=\"font-size: 50px; margin: 0; text-align: center;\">+</p>","response":null,"trial_type":"html-keyboard-response","trial_index":11,"plugin_version":"2.1.0","time_elapsed":174520,"subject_id":"86880","group":"Group1","full_date":"2025-11-09T07:34:02.720Z","date":"2025-11-09","time":"07:34:02"},{"task":"memory_phase","broad_category":"S","image_png":"S_Sandstone_03.png","image_id":451,"category_name":"Sandstone","category":29,"distinct_rating":1.86,"distinct_type":"Bottom","rt":null,"stimulus":"Stimuli_Rocks480/S_Sandstone_03.png","response":null,"trial_type":"image-keyboard-response","trial_index":12,"plugin_version":"2.1.0","time_elapsed":177024,"subject_id":"86880","group":"Group1","full_date":"2025-11-09T07:34:02.720Z","date":"2025-11-09","time":"07:34:02"},{"rt":null,"stimulus":"<p style=\"font-size: 50px; margin: 0; text-align: center;\">+</p>","response":null,"trial_type":"html-keyboard-response","trial_index":13,"plugin_version":"2.1.0","time_elapsed":178027,"subject_id":"86880","group":"Group1","full_date":"2025-11-09T07:34:02.720Z","date":"2025-11-09","time":"07:34:02"},{"task":"memory_phase","broad_category":"S","image_png":"S_Dolomite_13.png","image_id":397,"category_name":"Dolomite","category":25,"distinct_rating":1.77,"distinct_type":"Bottom","rt":null,"stimulus":"Stimuli_Rocks480/S_Dolomite_13.png","response":null,"trial_type":"image-keyboard-response","trial_index":14,"plugin_version":"2.1.0","time_elapsed":180531,"subject_id":"86880","group":"Group1","full_date":"2025-11-09T07:34:02.720Z","date":"2025-11-09","time":"07:34:02"},{"rt":null,"stimulus":"<p style=\"font-size: 50px; margin: 0; text-align: center;\">+</p>","response":null,"trial_type":"html-keyboard-response","trial_index":15,"plugin_version":"2.1.0","time_elapsed":181533,"subject_id":"86880","group":"Group1","full_date":"2025-11-09T07:34:02.720Z","date":"2025-11-09","time":"07:34:02"},{"task":"memory_phase","broad_category":"I","image_png":"I_Basalt_01.png","image_id":17,"category_name":"Basalt","category":2,"distinct_rating":1.92,"distinct_type":"Bottom","rt":null,"stimulus":"Stimuli_Rocks480/I_Basalt_01.png","response":null,"trial_type":"image-keyboard-response","trial_index":16,"plugin_version":"2.1.0","time_elapsed":184037,"subject_id":"86880","group":"Group1","full_date":"2025-11-09T07:34:02.720Z","date":"2025-11-09","time":"07:34:02"},{"rt":null,"stimulus":"<p style=\"font-size: 50px; margin: 0; text-align: center;\">+</p>","response":null,"trial_type":"html-keyboard-response","trial_index":17,"plugin_version":"2.1.0","time_elapsed":185040,"subject_id":"86880","group":"Group1","full_date":"2025-11-09T07:34:02.720Z","date":"2025-11-09","time":"07:34:02"},{"task":"memory_phase","broad_category":"M","image_png":"M_Phyllite_10.png","image_id":266,"category_name":"Phyllite","category":17,"distinct_rating":2.6,"distinct_type":"Bottom","rt":null,"stimulus":"Stimuli_Rocks480/M_Phyllite_10.png","response":null,"trial_type":"image-keyboard-response","trial_index":18,"plugin_version":"2.1.0","time_elapsed":187545,"subject_id":"86880","group":"Group1","full_date":"2025-11-09T07:34:02.720Z","date":"2025-11-09","time":"07:34:02"},{"rt":null,"stimulus":"<p style=\"font-size: 50px; margin: 0; text-align: center;\">+</p>","response":null,"trial_type":"html-keyboard-response","trial_index":19,"plugin_version":"2.1.0","time_elapsed":188548,"subject_id":"86880","group":"Group1","full_date":"2025-11-09T07:34:02.720Z","date":"2025-11-09","time":"07:34:02"},{"task":"memory_phase","broad_category":"M","image_png":"M_Quartzite_08.png","image_id":280,"category_name":"Quartzite","category":18,"distinct_rating":2.15,"distinct_type":"Bottom","rt":null,"stimulus":"Stimuli_Rocks480/M_Quartzite_08.png","response":null,"trial_type":"image-keyboard-response","trial_index":20,"plugin_version":"2.1.0","time_elapsed":191053,"subject_id":"86880","group":"Group1","full_date":"2025-11-09T07:34:02.720Z","date":"2025-11-09","time":"07:34:02"},{"rt":null,"stimulus":"<p style=\"font-size: 50px; margin: 0; text-align: center;\">+</p>","response":null,"trial_type":"html-keyboard-response","trial_index":21,"plugin_version":"2.1.0","time_elapsed":192056,"subject_id":"86880","group":"Group1","full_date":"2025-11-09T07:34:02.720Z","date":"2025-11-09","time":"07:34:02"},{"task":"memory_phase","broad_category":"S","image_png":"S_Sandstone_15.png","image_id":463,"category_name":"Sandstone","category":29,"distinct_rating":2,"distinct_type":"Bottom","rt":null,"stimulus":"Stimuli_Rocks480/S_Sandstone_15.png","response":null,"trial_type":"image-keyboard-response","trial_index":22,"plugin_version":"2.1.0","time_elapsed":194560,"subject_id":"86880","group":"Group1","full_date":"2025-11-09T07:34:02.720Z","date":"2025-11-09","time":"07:34:02"},{"rt":null,"stimulus":"<p style=\"font-size: 50px; margin: 0; text-align: center;\">+</p>","response":null,"trial_type":"html-keyboard-response","trial_index":23,"plugin_version":"2.1.0","time_elapsed":195563,"subject_id":"86880","group":"Group1","full_date":"2025-11-09T07:34:02.720Z","date":"2025-11-09","time":"07:34:02"},{"task":"memory_phase","broad_category":"I","image_png":"I_Pumice_08.png","image_id":136,"category_name":"Pumice","category":9,"distinct_rating":3.1,"distinct_type":"Bottom","rt":null,"stimulus":"Stimuli_Rocks480/I_Pumice_08.png","response":null,"trial_type":"image-keyboard-response","trial_index":24,"plugin_version":"2.1.0","time_elapsed":198067,"subject_id":"86880","group":"Group1","full_date":"2025-11-09T07:34:02.720Z","date":"2025-11-09","time":"07:34:02"},{"rt":null,"stimulus":"<p style=\"font-size: 50px; margin: 0; text-align: center;\">+</p>","response":null,"trial_type":"html-keyboard-response","trial_index":25,"plugin_version":"2.1.0","time_elapsed":199069,"subject_id":"86880","group":"Group1","full_date":"2025-11-09T07:34:02.720Z","date":"2025-11-09","time":"07:34:02"},{"task":"memory_phase","broad_category":"M","image_png":"M_Quartzite_05.png","image_id":277,"category_name":"Quartzite","category":18,"distinct_rating":2.23,"distinct_type":"Bottom","rt":null,"stimulus":"Stimuli_Rocks480/M_Quartzite_05.png","response":null,"trial_type":"image-keyboard-response","trial_index":26,"plugin_version":"2.1.0","time_elapsed":201573,"subject_id":"86880","group":"Group1","full_date":"2025-11-09T07:34:02.720Z","date":"2025-11-09","time":"07:34:02"},{"rt":null,"stimulus":"<p style=\"font-size: 50px; margin: 0; text-align: center;\">+</p>","response":null,"trial_type":"html-keyboard-response","trial_index":27,"plugin_version":"2.1.0","time_elapsed":202576,"subject_id":"86880","group":"Group1","full_date":"2025-11-09T07:34:02.720Z","date":"2025-11-09","time":"07:34:02"},{"task":"memory_phase","broad_category":"S","image_png":"S_Chert_10.png","image_id":362,"category_name":"Chert","category":23,"distinct_rating":7.17,"distinct_type":"Top","rt":null,"stimulus":"Stimuli_Rocks480/S_Chert_10.png","response":null,"trial_type":"image-keyboard-response","trial_index":28,"plugin_version":"2.1.0","time_elapsed":205080,"subject_id":"86880","group":"Group1","full_date":"2025-11-09T07:34:02.720Z","date":"2025-11-09","time":"07:34:02"},{"rt":null,"stimulus":"<p style=\"font-size: 50px; margin: 0; text-align: center;\">+</p>","response":null,"trial_type":"html-keyboard-response","trial_index":29,"plugin_version":"2.1.0","time_elapsed":206083,"subject_id":"86880","group":"Group1","full_date":"2025-11-09T07:34:02.720Z","date":"2025-11-09","time":"07:34:02"},{"task":"memory_phase","broad_category":"I","image_png":"I_Andesite_06.png","image_id":6,"category_name":"Andesite","category":1,"distinct_rating":3.17,"distinct_type":"Bottom","rt":null,"stimulus":"Stimuli_Rocks480/I_Andesite_06.png","response":null,"trial_type":"image-keyboard-response","trial_index":30,"plugin_version":"2.1.0","time_elapsed":208586,"subject_id":"86880","group":"Group1","full_date":"2025-11-09T07:34:02.720Z","date":"2025-11-09","time":"07:34:02"},{"rt":null,"stimulus":"<p style=\"font-size: 50px; margin: 0; text-align: center;\">+</p>","response":null,"trial_type":"html-keyboard-response","trial_index":31,"plugin_version":"2.1.0","time_elapsed":209589,"subject_id":"86880","group":"Group1","full_date":"2025-11-09T07:34:02.720Z","date":"2025-11-09","time":"07:34:02"},{"task":"memory_phase","broad_category":"S","image_png":"S_Shale_08.png","image_id":472,"category_name":"Shale","category":30,"distinct_rating":2.55,"distinct_type":"Bottom","rt":null,"stimulus":"Stimuli_Rocks480/S_Shale_08.png","response":null,"trial_type":"image-keyboard-response","trial_index":32,"plugin_version":"2.1.0","time_elapsed":212092,"subject_id":"86880","group":"Group1","full_date":"2025-11-09T07:34:02.720Z","date":"2025-11-09","time":"07:34:02"},{"rt":null,"stimulus":"<p style=\"font-size: 50px; margin: 0; text-align: center;\">+</p>","response":null,"trial_type":"html-keyboard-response","trial_index":33,"plugin_version":"2.1.0","time_elapsed":213095,"subject_id":"86880","group":"Group1","full_date":"2025-11-09T07:34:02.720Z","date":"2025-11-09","time":"07:34:02"},{"task":"memory_phase","broad_category":"M","image_png":"M_Phyllite_03.png","image_id":259,"category_name":"Phyllite","category":17,"distinct_rating":2.5,"distinct_type":"Bottom","rt":null,"stimulus":"Stimuli_Rocks480/M_Phyllite_03.png","response":null,"trial_type":"image-keyboard-response","trial_index":34,"plugin_version":"2.1.0","time_elapsed":215599,"subject_id":"86880","group":"Group1","full_date":"2025-11-09T07:34:02.720Z","date":"2025-11-09","time":"07:34:02"},{"rt":null,"stimulus":"<p style=\"font-size: 50px; margin: 0; text-align: center;\">+</p>","response":null,"trial_type":"html-keyboard-response","trial_index":35,"plugin_version":"2.1.0","time_elapsed":216601,"subject_id":"86880","group":"Group1","full_date":"2025-11-09T07:34:02.720Z","date":"2025-11-09","time":"07:34:02"},{"task":"memory_phase","broad_category":"I","image_png":"I_Obsidian_05.png","image_id":85,"category_name":"Obsidian","category":6,"distinct_rating":7.32,"distinct_type":"Top","rt":null,"stimulus":"Stimuli_Rocks480/I_Obsidian_05.png","response":null,"trial_type":"image-keyboard-response","trial_index":36,"plugin_version":"2.1.0","time_elapsed":219105,"subject_id":"86880","group":"Group1","full_date":"2025-11-09T07:34:02.720Z","date":"2025-11-09","time":"07:34:02"},{"rt":null,"stimulus":"<p style=\"font-size: 50px; margin: 0; text-align: center;\">+</p>","response":null,"trial_type":"html-keyboard-response","trial_index":37,"plugin_version":"2.1.0","time_elapsed":220108,"subject_id":"86880","group":"Group1","full_date":"2025-11-09T07:34:02.720Z","date":"2025-11-09","time":"07:34:02"},{"task":"memory_phase","broad_category":"M","image_png":"M_Gneiss_13.png","image_id":205,"category_name":"Gneiss","category":13,"distinct_rating":3.26,"distinct_type":"Bottom","rt":null,"stimulus":"Stimuli_Rocks480/M_Gneiss_13.png","response":null,"trial_type":"image-keyboard-response","trial_index":38,"plugin_version":"2.1.0","time_elapsed":222610,"subject_id":"86880","group":"Group1","full_date":"2025-11-09T07:34:02.720Z","date":"2025-11-09","time":"07:34:02"},{"rt":null,"stimulus":"<p style=\"font-size: 50px; margin: 0; text-align: center;\">+</p>","response":null,"trial_type":"html-keyboard-response","trial_index":39,"plugin_version":"2.1.0","time_elapsed":223612,"subject_id":"86880","group":"Group1","full_date":"2025-11-09T07:34:02.720Z","date":"2025-11-09","time":"07:34:02"},{"task":"memory_phase","broad_category":"M","image_png":"M_Slate_11.png","image_id":315,"category_name":"Slate","category":20,"distinct_rating":2.75,"distinct_type":"Bottom","rt":null,"stimulus":"Stimuli_Rocks480/M_Slate_11.png","response":null,"trial_type":"image-keyboard-response","trial_index":40,"plugin_version":"2.1.0","time_elapsed":226115,"subject_id":"86880","group":"Group1","full_date":"2025-11-09T07:34:02.720Z","date":"2025-11-09","time":"07:34:02"},{"rt":null,"stimulus":"<p style=\"font-size: 50px; margin: 0; text-align: center;\">+</p>","response":null,"trial_type":"html-keyboard-response","trial_index":41,"plugin_version":"2.1.0","time_elapsed":227117,"subject_id":"86880","group":"Group1","full_date":"2025-11-09T07:34:02.720Z","date":"2025-11-09","time":"07:34:02"},{"task":"memory_phase","broad_category":"I","image_png":"I_Pegmatite_10.png","image_id":106,"category_name":"Pegmatite","category":7,"distinct_rating":7.66,"distinct_type":"Top","rt":null,"stimulus":"Stimuli_Rocks480/I_Pegmatite_10.png","response":null,"trial_type":"image-keyboard-response","trial_index":42,"plugin_version":"2.1.0","time_elapsed":229622,"subject_id":"86880","group":"Group1","full_date":"2025-11-09T07:34:02.720Z","date":"2025-11-09","time":"07:34:02"},{"rt":null,"stimulus":"<p style=\"font-size: 50px; margin: 0; text-align: center;\">+</p>","response":null,"trial_type":"html-keyboard-response","trial_index":43,"plugin_version":"2.1.0","time_elapsed":230625,"subject_id":"86880","group":"Group1","full_date":"2025-11-09T07:34:02.720Z","date":"2025-11-09","time":"07:34:02"},{"task":"memory_phase","broad_category":"I","image_png":"I_Rhyolite_11.png","image_id":155,"category_name":"Rhyolite","category":10,"distinct_rating":1.73,"distinct_type":"Bottom","rt":null,"stimulus":"Stimuli_Rocks480/I_Rhyolite_11.png","response":null,"trial_type":"image-keyboard-response","trial_index":44,"plugin_version":"2.1.0","time_elapsed":233128,"subject_id":"86880","group":"Group1","full_date":"2025-11-09T07:34:02.720Z","date":"2025-11-09","time":"07:34:02"},{"rt":null,"stimulus":"<p style=\"font-size: 50px; margin: 0; text-align: center;\">+</p>","response":null,"trial_type":"html-keyboard-response","trial_index":45,"plugin_version":"2.1.0","time_elapsed":234132,"subject_id":"86880","group":"Group1","full_date":"2025-11-09T07:34:02.720Z","date":"2025-11-09","time":"07:34:02"},{"task":"memory_phase","broad_category":"I","image_png":"I_Rhyolite_14.png","image_id":158,"category_name":"Rhyolite","category":10,"distinct_rating":2.59,"distinct_type":"Bottom","rt":null,"stimulus":"Stimuli_Rocks480/I_Rhyolite_14.png","response":null,"trial_type":"image-keyboard-response","trial_index":46,"plugin_version":"2.1.0","time_elapsed":236636,"subject_id":"86880","group":"Group1","full_date":"2025-11-09T07:34:02.720Z","date":"2025-11-09","time":"07:34:02"},{"rt":null,"stimulus":"<p style=\"font-size: 50px; margin: 0; text-align: center;\">+</p>","response":null,"trial_type":"html-keyboard-response","trial_index":47,"plugin_version":"2.1.0","time_elapsed":237639,"subject_id":"86880","group":"Group1","full_date":"2025-11-09T07:34:02.720Z","date":"2025-11-09","time":"07:34:02"},{"task":"memory_phase","broad_category":"S","image_png":"S_Breccia_11.png","image_id":347,"category_name":"Breccia","category":22,"distinct_rating":6.7,"distinct_type":"Top","rt":null,"stimulus":"Stimuli_Rocks480/S_Breccia_11.png","response":null,"trial_type":"image-keyboard-response","trial_index":48,"plugin_version":"2.1.0","time_elapsed":240144,"subject_id":"86880","group":"Group1","full_date":"2025-11-09T07:34:02.720Z","date":"2025-11-09","time":"07:34:02"},{"rt":null,"stimulus":"<p style=\"font-size: 50px; margin: 0; text-align: center;\">+</p>","response":null,"trial_type":"html-keyboard-response","trial_index":49,"plugin_version":"2.1.0","time_elapsed":241146,"subject_id":"86880","group":"Group1","full_date":"2025-11-09T07:34:02.720Z","date":"2025-11-09","time":"07:34:02"},{"task":"memory_phase","broad_category":"S","image_png":"S_Dolomite_12.png","image_id":396,"category_name":"Dolomite","category":25,"distinct_rating":1.85,"distinct_type":"Bottom","rt":null,"stimulus":"Stimuli_Rocks480/S_Dolomite_12.png","response":null,"trial_type":"image-keyboard-response","trial_index":50,"plugin_version":"2.1.0","time_elapsed":243650,"subject_id":"86880","group":"Group1","full_date":"2025-11-09T07:34:02.720Z","date":"2025-11-09","time":"07:34:02"},{"rt":null,"stimulus":"<p style=\"font-size: 50px; margin: 0; text-align: center;\">+</p>","response":null,"trial_type":"html-keyboard-response","trial_index":51,"plugin_version":"2.1.0","time_elapsed":244653,"subject_id":"86880","group":"Group1","full_date":"2025-11-09T07:34:02.720Z","date":"2025-11-09","time":"07:34:02"},{"task":"memory_phase","broad_category":"M","image_png":"M_Quartzite_13.png","image_id":285,"category_name":"Quartzite","category":18,"distinct_rating":2.27,"distinct_type":"Bottom","rt":null,"stimulus":"Stimuli_Rocks480/M_Quartzite_13.png","response":null,"trial_type":"image-keyboard-response","trial_index":52,"plugin_version":"2.1.0","time_elapsed":247157,"subject_id":"86880","group":"Group1","full_date":"2025-11-09T07:34:02.720Z","date":"2025-11-09","time":"07:34:02"},{"rt":null,"stimulus":"<p style=\"font-size: 50px; margin: 0; text-align: center;\">+</p>","response":null,"trial_type":"html-keyboard-response","trial_index":53,"plugin_version":"2.1.0","time_elapsed":248159,"subject_id":"86880","group":"Group1","full_date":"2025-11-09T07:34:02.720Z","date":"2025-11-09","time":"07:34:02"},{"task":"memory_phase","broad_category":"I","image_png":"I_Pumice_12.png","image_id":140,"category_name":"Pumice","category":9,"distinct_rating":2.97,"distinct_type":"Bottom","rt":null,"stimulus":"Stimuli_Rocks480/I_Pumice_12.png","response":null,"trial_type":"image-keyboard-response","trial_index":54,"plugin_version":"2.1.0","time_elapsed":250662,"subject_id":"86880","group":"Group1","full_date":"2025-11-09T07:34:02.720Z","date":"2025-11-09","time":"07:34:02"},{"rt":3167,"stimulus":"<p style=\"font-size: 35px;\">Press SPACE to continue study phase</p>","response":" ","trial_type":"html-keyboard-response","trial_index":55,"plugin_version":"2.1.0","time_elapsed":253831,"subject_id":"86880","group":"Group1","full_date":"2025-11-09T07:34:02.720Z","date":"2025-11-09","time":"07:34:02"},{"rt":null,"stimulus":"<p style=\"font-size: 50px; margin: 0; text-align: center;\">+</p>","response":null,"trial_type":"html-keyboard-response","trial_index":56,"plugin_version":"2.1.0","time_elapsed":254833,"subject_id":"86880","group":"Group1","full_date":"2025-11-09T07:34:02.720Z","date":"2025-11-09","time":"07:34:02"},{"task":"memory_phase","broad_category":"S","image_png":"S_Rock Gypsum_04.png","image_id":420,"category_name":"Rock Gypsum","category":27,"distinct_rating":7.61,"distinct_type":"Top","rt":null,"stimulus":"Stimuli_Rocks480/S_Rock Gypsum_04.png","response":null,"trial_type":"image-keyboard-response","trial_index":57,"plugin_version":"2.1.0","time_elapsed":257336,"subject_id":"86880","group":"Group1","full_date":"2025-11-09T07:34:02.720Z","date":"2025-11-09","time":"07:34:02"},{"rt":null,"stimulus":"<p style=\"font-size: 50px; margin: 0; text-align: center;\">+</p>","response":null,"trial_type":"html-keyboard-response","trial_index":58,"plugin_version":"2.1.0","time_elapsed":258338,"subject_id":"86880","group":"Group1","full_date":"2025-11-09T07:34:02.720Z","date":"2025-11-09","time":"07:34:02"},{"task":"memory_phase","broad_category":"S","image_png":"S_Sandstone_16.png","image_id":464,"category_name":"Sandstone","category":29,"distinct_rating":1.93,"distinct_type":"Bottom","rt":null,"stimulus":"Stimuli_Rocks480/S_Sandstone_16.png","response":null,"trial_type":"image-keyboard-response","trial_index":59,"plugin_version":"2.1.0","time_elapsed":260841,"subject_id":"86880","group":"Group1","full_date":"2025-11-09T07:34:02.720Z","date":"2025-11-09","time":"07:34:02"},{"rt":null,"stimulus":"<p style=\"font-size: 50px; margin: 0; text-align: center;\">+</p>","response":null,"trial_type":"html-keyboard-response","trial_index":60,"plugin_version":"2.1.0","time_elapsed":261844,"subject_id":"86880","group":"Group1","full_date":"2025-11-09T07:34:02.720Z","date":"2025-11-09","time":"07:34:02"},{"task":"memory_phase","broad_category":"I","image_png":"I_Gabbro_16.png","image_id":64,"category_name":"Gabbro","category":4,"distinct_rating":2.52,"distinct_type":"Bottom","rt":null,"stimulus":"Stimuli_Rocks480/I_Gabbro_16.png","response":null,"trial_type":"image-keyboard-response","trial_index":61,"plugin_version":"2.1.0","time_elapsed":264349,"subject_id":"86880","group":"Group1","full_date":"2025-11-09T07:34:02.720Z","date":"2025-11-09","time":"07:34:02"},{"rt":null,"stimulus":"<p style=\"font-size: 50px; margin: 0; text-align: center;\">+</p>","response":null,"trial_type":"html-keyboard-response","trial_index":62,"plugin_version":"2.1.0","time_elapsed":265352,"subject_id":"86880","group":"Group1","full_date":"2025-11-09T07:34:02.720Z","date":"2025-11-09","time":"07:34:02"},{"task":"memory_phase","broad_category":"I","image_png":"I_Diorite_04.png","image_id":36,"category_name":"Diorite","category":3,"distinct_rating":2.98,"distinct_type":"Bottom","rt":null,"stimulus":"Stimuli_Rocks480/I_Diorite_04.png","response":null,"trial_type":"image-keyboard-response","trial_index":63,"plugin_version":"2.1.0","time_elapsed":267857,"subject_id":"86880","group":"Group1","full_date":"2025-11-09T07:34:02.720Z","date":"2025-11-09","time":"07:34:02"},{"rt":null,"stimulus":"<p style=\"font-size: 50px; margin: 0; text-align: center;\">+</p>","response":null,"trial_type":"html-keyboard-response","trial_index":64,"plugin_version":"2.1.0","time_elapsed":268859,"subject_id":"86880","group":"Group1","full_date":"2025-11-09T07:34:02.720Z","date":"2025-11-09","time":"07:34:02"},{"task":"memory_phase","broad_category":"S","image_png":"S_Conglomerate_05.png","image_id":373,"category_name":"Conglomerate","category":24,"distinct_rating":7.32,"distinct_type":"Top","rt":null,"stimulus":"Stimuli_Rocks480/S_Conglomerate_05.png","response":null,"trial_type":"image-keyboard-response","trial_index":65,"plugin_version":"2.1.0","time_elapsed":271364,"subject_id":"86880","group":"Group1","full_date":"2025-11-09T07:34:02.720Z","date":"2025-11-09","time":"07:34:02"},{"rt":null,"stimulus":"<p style=\"font-size: 50px; margin: 0; text-align: center;\">+</p>","response":null,"trial_type":"html-keyboard-response","trial_index":66,"plugin_version":"2.1.0","time_elapsed":272366,"subject_id":"86880","group":"Group1","full_date":"2025-11-09T07:34:02.720Z","date":"2025-11-09","time":"07:34:02"},{"task":"memory_phase","broad_category":"S","image_png":"S_Shale_01.png","image_id":465,"category_name":"Shale","category":30,"distinct_rating":2.7,"distinct_type":"Bottom","rt":null,"stimulus":"Stimuli_Rocks480/S_Shale_01.png","response":null,"trial_type":"image-keyboard-response","trial_index":67,"plugin_version":"2.1.0","time_elapsed":274869,"subject_id":"86880","group":"Group1","full_date":"2025-11-09T07:34:02.720Z","date":"2025-11-09","time":"07:34:02"},{"rt":null,"stimulus":"<p style=\"font-size: 50px; margin: 0; text-align: center;\">+</p>","response":null,"trial_type":"html-keyboard-response","trial_index":68,"plugin_version":"2.1.0","time_elapsed":275872,"subject_id":"86880","group":"Group1","full_date":"2025-11-09T07:34:02.720Z","date":"2025-11-09","time":"07:34:02"},{"task":"memory_phase","broad_category":"S","image_png":"S_Rock Salt_01.png","image_id":433,"category_name":"Rock Salt","category":28,"distinct_rating":7.18,"distinct_type":"Top","rt":null,"stimulus":"Stimuli_Rocks480/S_Rock Salt_01.png","response":null,"trial_type":"image-keyboard-response","trial_index":69,"plugin_version":"2.1.0","time_elapsed":278378,"subject_id":"86880","group":"Group1","full_date":"2025-11-09T07:34:02.720Z","date":"2025-11-09","time":"07:34:02"},{"rt":null,"stimulus":"<p style=\"font-size: 50px; margin: 0; text-align: center;\">+</p>","response":null,"trial_type":"html-keyboard-response","trial_index":70,"plugin_version":"2.1.0","time_elapsed":279380,"subject_id":"86880","group":"Group1","full_date":"2025-11-09T07:34:02.720Z","date":"2025-11-09","time":"07:34:02"},{"task":"memory_phase","broad_category":"M","image_png":"M_Marble_06.png","image_id":230,"category_name":"Marble","category":15,"distinct_rating":3.4,"distinct_type":"Bottom","rt":null,"stimulus":"Stimuli_Rocks480/M_Marble_06.png","response":null,"trial_type":"image-keyboard-response","trial_index":71,"plugin_version":"2.1.0","time_elapsed":281885,"subject_id":"86880","group":"Group1","full_date":"2025-11-09T07:34:02.720Z","date":"2025-11-09","time":"07:34:02"},{"rt":null,"stimulus":"<p style=\"font-size: 50px; margin: 0; text-align: center;\">+</p>","response":null,"trial_type":"html-keyboard-response","trial_index":72,"plugin_version":"2.1.0","time_elapsed":282888,"subject_id":"86880","group":"Group1","full_date":"2025-11-09T07:34:02.720Z","date":"2025-11-09","time":"07:34:02"},{"task":"memory_phase","broad_category":"I","image_png":"I_Diorite_05.png","image_id":37,"category_name":"Diorite","category":3,"distinct_rating":3.08,"distinct_type":"Bottom","rt":null,"stimulus":"Stimuli_Rocks480/I_Diorite_05.png","response":null,"trial_type":"image-keyboard-response","trial_index":73,"plugin_version":"2.1.0","time_elapsed":285390,"subject_id":"86880","group":"Group1","full_date":"2025-11-09T07:34:02.720Z","date":"2025-11-09","time":"07:34:02"},{"rt":null,"stimulus":"<p style=\"font-size: 50px; margin: 0; text-align: center;\">+</p>","response":null,"trial_type":"html-keyboard-response","trial_index":74,"plugin_version":"2.1.0","time_elapsed":286392,"subject_id":"86880","group":"Group1","full_date":"2025-11-09T07:34:02.720Z","date":"2025-11-09","time":"07:34:02"},{"task":"memory_phase","broad_category":"S","image_png":"S_Shale_12.png","image_id":476,"category_name":"Shale","category":30,"distinct_rating":2.48,"distinct_type":"Bottom","rt":null,"stimulus":"Stimuli_Rocks480/S_Shale_12.png","response":null,"trial_type":"image-keyboard-response","trial_index":75,"plugin_version":"2.1.0","time_elapsed":288897,"subject_id":"86880","group":"Group1","full_date":"2025-11-09T07:34:02.720Z","date":"2025-11-09","time":"07:34:02"},{"rt":null,"stimulus":"<p style=\"font-size: 50px; margin: 0; text-align: center;\">+</p>","response":null,"trial_type":"html-keyboard-response","trial_index":76,"plugin_version":"2.1.0","time_elapsed":289899,"subject_id":"86880","group":"Group1","full_date":"2025-11-09T07:34:02.720Z","date":"2025-11-09","time":"07:34:02"},{"task":"memory_phase","broad_category":"I","image_png":"I_Gabbro_11.png","image_id":59,"category_name":"Gabbro","category":4,"distinct_rating":1.99,"distinct_type":"Bottom","rt":null,"stimulus":"Stimuli_Rocks480/I_Gabbro_11.png","response":null,"trial_type":"image-keyboard-response","trial_index":77,"plugin_version":"2.1.0","time_elapsed":292402,"subject_id":"86880","group":"Group1","full_date":"2025-11-09T07:34:02.720Z","date":"2025-11-09","time":"07:34:02"},{"rt":null,"stimulus":"<p style=\"font-size: 50px; margin: 0; text-align: center;\">+</p>","response":null,"trial_type":"html-keyboard-response","trial_index":78,"plugin_version":"2.1.0","time_elapsed":293405,"subject_id":"86880","group":"Group1","full_date":"2025-11-09T07:34:02.720Z","date":"2025-11-09","time":"07:34:02"},{"task":"memory_phase","broad_category":"M","image_png":"M_Gneiss_06.png","image_id":198,"category_name":"Gneiss","category":13,"distinct_rating":2.65,"distinct_type":"Bottom","rt":null,"stimulus":"Stimuli_Rocks480/M_Gneiss_06.png","response":null,"trial_type":"image-keyboard-response","trial_index":79,"plugin_version":"2.1.0","time_elapsed":295909,"subject_id":"86880","group":"Group1","full_date":"2025-11-09T07:34:02.720Z","date":"2025-11-09","time":"07:34:02"},{"rt":null,"stimulus":"<p style=\"font-size: 50px; margin: 0; text-align: center;\">+</p>","response":null,"trial_type":"html-keyboard-response","trial_index":80,"plugin_version":"2.1.0","time_elapsed":296911,"subject_id":"86880","group":"Group1","full_date":"2025-11-09T07:34:02.720Z","date":"2025-11-09","time":"07:34:02"},{"task":"memory_phase","broad_category":"I","image_png":"I_Gabbro_08.png","image_id":56,"category_name":"Gabbro","category":4,"distinct_rating":3.02,"distinct_type":"Bottom","rt":null,"stimulus":"Stimuli_Rocks480/I_Gabbro_08.png","response":null,"trial_type":"image-keyboard-response","trial_index":81,"plugin_version":"2.1.0","time_elapsed":299416,"subject_id":"86880","group":"Group1","full_date":"2025-11-09T07:34:02.720Z","date":"2025-11-09","time":"07:34:02"},{"rt":null,"stimulus":"<p style=\"font-size: 50px; margin: 0; text-align: center;\">+</p>","response":null,"trial_type":"html-keyboard-response","trial_index":82,"plugin_version":"2.1.0","time_elapsed":300418,"subject_id":"86880","group":"Group1","full_date":"2025-11-09T07:34:02.720Z","date":"2025-11-09","time":"07:34:02"},{"task":"memory_phase","broad_category":"I","image_png":"I_Basalt_02.png","image_id":18,"category_name":"Basalt","category":2,"distinct_rating":1.84,"distinct_type":"Bottom","rt":null,"stimulus":"Stimuli_Rocks480/I_Basalt_02.png","response":null,"trial_type":"image-keyboard-response","trial_index":83,"plugin_version":"2.1.0","time_elapsed":302923,"subject_id":"86880","group":"Group1","full_date":"2025-11-09T07:34:02.720Z","date":"2025-11-09","time":"07:34:02"},{"rt":null,"stimulus":"<p style=\"font-size: 50px; margin: 0; text-align: center;\">+</p>","response":null,"trial_type":"html-keyboard-response","trial_index":84,"plugin_version":"2.1.0","time_elapsed":303925,"subject_id":"86880","group":"Group1","full_date":"2025-11-09T07:34:02.720Z","date":"2025-11-09","time":"07:34:02"},{"task":"memory_phase","broad_category":"M","image_png":"M_Slate_15.png","image_id":319,"category_name":"Slate","category":20,"distinct_rating":2.13,"distinct_type":"Bottom","rt":null,"stimulus":"Stimuli_Rocks480/M_Slate_15.png","response":null,"trial_type":"image-keyboard-response","trial_index":85,"plugin_version":"2.1.0","time_elapsed":306429,"subject_id":"86880","group":"Group1","full_date":"2025-11-09T07:34:02.720Z","date":"2025-11-09","time":"07:34:02"},{"rt":null,"stimulus":"<p style=\"font-size: 50px; margin: 0; text-align: center;\">+</p>","response":null,"trial_type":"html-keyboard-response","trial_index":86,"plugin_version":"2.1.0","time_elapsed":307431,"subject_id":"86880","group":"Group1","full_date":"2025-11-09T07:34:02.720Z","date":"2025-11-09","time":"07:34:02"},{"task":"memory_phase","broad_category":"M","image_png":"M_Marble_04.png","image_id":228,"category_name":"Marble","category":15,"distinct_rating":3.15,"distinct_type":"Bottom","rt":null,"stimulus":"Stimuli_Rocks480/M_Marble_04.png","response":null,"trial_type":"image-keyboard-response","trial_index":87,"plugin_version":"2.1.0","time_elapsed":309936,"subject_id":"86880","group":"Group1","full_date":"2025-11-09T07:34:02.720Z","date":"2025-11-09","time":"07:34:02"},{"rt":null,"stimulus":"<p style=\"font-size: 50px; margin: 0; text-align: center;\">+</p>","response":null,"trial_type":"html-keyboard-response","trial_index":88,"plugin_version":"2.1.0","time_elapsed":310938,"subject_id":"86880","group":"Group1","full_date":"2025-11-09T07:34:02.720Z","date":"2025-11-09","time":"07:34:02"},{"task":"memory_phase","broad_category":"M","image_png":"M_Gneiss_05.png","image_id":197,"category_name":"Gneiss","category":13,"distinct_rating":2.97,"distinct_type":"Bottom","rt":null,"stimulus":"Stimuli_Rocks480/M_Gneiss_05.png","response":null,"trial_type":"image-keyboard-response","trial_index":89,"plugin_version":"2.1.0","time_elapsed":313442,"subject_id":"86880","group":"Group1","full_date":"2025-11-09T07:34:02.720Z","date":"2025-11-09","time":"07:34:02"},{"rt":null,"stimulus":"<p style=\"font-size: 50px; margin: 0; text-align: center;\">+</p>","response":null,"trial_type":"html-keyboard-response","trial_index":90,"plugin_version":"2.1.0","time_elapsed":314446,"subject_id":"86880","group":"Group1","full_date":"2025-11-09T07:34:02.720Z","date":"2025-11-09","time":"07:34:02"},{"task":"memory_phase","broad_category":"I","image_png":"I_Pegmatite_16.png","image_id":112,"category_name":"Pegmatite","category":7,"distinct_rating":7.03,"distinct_type":"Top","rt":null,"stimulus":"Stimuli_Rocks480/I_Pegmatite_16.png","response":null,"trial_type":"image-keyboard-response","trial_index":91,"plugin_version":"2.1.0","time_elapsed":316950,"subject_id":"86880","group":"Group1","full_date":"2025-11-09T07:34:02.720Z","date":"2025-11-09","time":"07:34:02"},{"rt":null,"stimulus":"<p style=\"font-size: 50px; margin: 0; text-align: center;\">+</p>","response":null,"trial_type":"html-keyboard-response","trial_index":92,"plugin_version":"2.1.0","time_elapsed":317953,"subject_id":"86880","group":"Group1","full_date":"2025-11-09T07:34:02.720Z","date":"2025-11-09","time":"07:34:02"},{"task":"memory_phase","broad_category":"I","image_png":"I_Basalt_09.png","image_id":25,"category_name":"Basalt","category":2,"distinct_rating":1.89,"distinct_type":"Bottom","rt":null,"stimulus":"Stimuli_Rocks480/I_Basalt_09.png","response":null,"trial_type":"image-keyboard-response","trial_index":93,"plugin_version":"2.1.0","time_elapsed":320457,"subject_id":"86880","group":"Group1","full_date":"2025-11-09T07:34:02.720Z","date":"2025-11-09","time":"07:34:02"},{"rt":null,"stimulus":"<p style=\"font-size: 50px; margin: 0; text-align: center;\">+</p>","response":null,"trial_type":"html-keyboard-response","trial_index":94,"plugin_version":"2.1.0","time_elapsed":321459,"subject_id":"86880","group":"Group1","full_date":"2025-11-09T07:34:02.720Z","date":"2025-11-09","time":"07:34:02"},{"task":"memory_phase","broad_category":"S","image_png":"S_Dolomite_14.png","image_id":398,"category_name":"Dolomite","category":25,"distinct_rating":1.43,"distinct_type":"Bottom","rt":null,"stimulus":"Stimuli_Rocks480/S_Dolomite_14.png","response":null,"trial_type":"image-keyboard-response","trial_index":95,"plugin_version":"2.1.0","time_elapsed":323964,"subject_id":"86880","group":"Group1","full_date":"2025-11-09T07:34:02.720Z","date":"2025-11-09","time":"07:34:02"},{"rt":null,"stimulus":"<p style=\"font-size: 50px; margin: 0; text-align: center;\">+</p>","response":null,"trial_type":"html-keyboard-response","trial_index":96,"plugin_version":"2.1.0","time_elapsed":324967,"subject_id":"86880","group":"Group1","full_date":"2025-11-09T07:34:02.720Z","date":"2025-11-09","time":"07:34:02"},{"task":"memory_phase","broad_category":"I","image_png":"I_Andesite_08.png","image_id":8,"category_name":"Andesite","category":1,"distinct_rating":1.95,"distinct_type":"Bottom","rt":null,"stimulus":"Stimuli_Rocks480/I_Andesite_08.png","response":null,"trial_type":"image-keyboard-response","trial_index":97,"plugin_version":"2.1.0","time_elapsed":327471,"subject_id":"86880","group":"Group1","full_date":"2025-11-09T07:34:02.720Z","date":"2025-11-09","time":"07:34:02"},{"rt":null,"stimulus":"<p style=\"font-size: 50px; margin: 0; text-align: center;\">+</p>","response":null,"trial_type":"html-keyboard-response","trial_index":98,"plugin_version":"2.1.0","time_elapsed":328473,"subject_id":"86880","group":"Group1","full_date":"2025-11-09T07:34:02.720Z","date":"2025-11-09","time":"07:34:02"},{"task":"memory_phase","broad_category":"I","image_png":"I_Andesite_10.png","image_id":10,"category_name":"Andesite","category":1,"distinct_rating":3.15,"distinct_type":"Bottom","rt":null,"stimulus":"Stimuli_Rocks480/I_Andesite_10.png","response":null,"trial_type":"image-keyboard-response","trial_index":99,"plugin_version":"2.1.0","time_elapsed":330978,"subject_id":"86880","group":"Group1","full_date":"2025-11-09T07:34:02.720Z","date":"2025-11-09","time":"07:34:02"},{"rt":null,"stimulus":"<p style=\"font-size: 50px; margin: 0; text-align: center;\">+</p>","response":null,"trial_type":"html-keyboard-response","trial_index":100,"plugin_version":"2.1.0","time_elapsed":331981,"subject_id":"86880","group":"Group1","full_date":"2025-11-09T07:34:02.720Z","date":"2025-11-09","time":"07:34:02"},{"task":"memory_phase","broad_category":"M","image_png":"M_Marble_16.png","image_id":240,"category_name":"Marble","category":15,"distinct_rating":2.57,"distinct_type":"Bottom","rt":null,"stimulus":"Stimuli_Rocks480/M_Marble_16.png","response":null,"trial_type":"image-keyboard-response","trial_index":101,"plugin_version":"2.1.0","time_elapsed":334486,"subject_id":"86880","group":"Group1","full_date":"2025-11-09T07:34:02.720Z","date":"2025-11-09","time":"07:34:02"},{"rt":null,"stimulus":"<p style=\"font-size: 50px; margin: 0; text-align: center;\">+</p>","response":null,"trial_type":"html-keyboard-response","trial_index":102,"plugin_version":"2.1.0","time_elapsed":335489,"subject_id":"86880","group":"Group1","full_date":"2025-11-09T07:34:02.720Z","date":"2025-11-09","time":"07:34:02"},{"task":"memory_phase","broad_category":"M","image_png":"M_Phyllite_07.png","image_id":263,"category_name":"Phyllite","category":17,"distinct_rating":2.59,"distinct_type":"Bottom","rt":null,"stimulus":"Stimuli_Rocks480/M_Phyllite_07.png","response":null,"trial_type":"image-keyboard-response","trial_index":103,"plugin_version":"2.1.0","time_elapsed":337994,"subject_id":"86880","group":"Group1","full_date":"2025-11-09T07:34:02.720Z","date":"2025-11-09","time":"07:34:02"},{"rt":null,"stimulus":"<p style=\"font-size: 50px; margin: 0; text-align: center;\">+</p>","response":null,"trial_type":"html-keyboard-response","trial_index":104,"plugin_version":"2.1.0","time_elapsed":338997,"subject_id":"86880","group":"Group1","full_date":"2025-11-09T07:34:02.720Z","date":"2025-11-09","time":"07:34:02"},{"task":"memory_phase","broad_category":"M","image_png":"M_Slate_03.png","image_id":307,"category_name":"Slate","category":20,"distinct_rating":1.87,"distinct_type":"Bottom","rt":null,"stimulus":"Stimuli_Rocks480/M_Slate_03.png","response":null,"trial_type":"image-keyboard-response","trial_index":105,"plugin_version":"2.1.0","time_elapsed":341501,"subject_id":"86880","group":"Group1","full_date":"2025-11-09T07:34:02.720Z","date":"2025-11-09","time":"07:34:02"},{"rt":51636,"stimulus":"<div style=\"max-width: 760px; margin: auto; font-size: 20px; line-height: 1.5;\">\n      <h1 style=\"text-align:center; font-size: 30px;\">Instructions for the Test Phase</h1>\n      <p>\n        The study phase is now complete.\n      </p>\n      <p>\n        In the test phase, you will again see a series of rock images. \n        Some will be ones you saw before - during the study phase, while others will be new.  \n        <b>Your task</b> is to decide whether you have seen each image before by pressing the corresponding key on your keyboard:<br><br>\n          <b>A</b> - NO (you did not see this image before)<br>\n          <b>L</b> - YES (you saw this image before)<br><br>\n        The test will proceed at your own pace. You will receive feedback after each response.  \n        Please try to respond <b>as accurately as possible</b>.\n      </p>\n      <p>\n        <b>Reminder:</b> If your computer has multiple language settings (e.g., English and another language),\n        please ensure it is set to English during the test phase.\n      </p>\n      <p>\n        You can track your progress using the <b>completion bar</b> at the top of the screen.  \n        Note that it has been refreshed to reflect your progress during this final phase.\n      </p>\n      <p>\n        Press the button below when you are ready to continue.\n      </p>\n    </div>","response":0,"trial_type":"html-button-response","trial_index":106,"plugin_version":"2.1.0","time_elapsed":393139,"subject_id":"86880","group":"Group1","full_date":"2025-11-09T07:34:02.720Z","date":"2025-11-09","time":"07:34:02"},{"correct_response":"l","task":"test_phase","broad_category":"I","image_png":"I_Basalt_02.png","image_id":18,"category_name":"Basalt","category":2,"distinct_rating":1.84,"distinct_type":"Bottom","item_type":"Target","rt":16065,"stimulus":"Stimuli_Rocks480/I_Basalt_02.png","response":"a","trial_type":"image-keyboard-response","trial_index":107,"plugin_version":"2.1.0","time_elapsed":409211,"subject_id":"86880","group":"Group1","full_date":"2025-11-09T07:34:02.720Z","date":"2025-11-09","time":"07:34:02","cor_ans":false},{"trial_type":"html-keyboard-response","rt":null,"stimulus":"<p style=\"color: red; font-size: 50px; font-weight: bold;\">Incorrect</p>","response":null,"trial_index":108,"plugin_version":"2.1.0","time_elapsed":409716,"subject_id":"86880","group":"Group1","full_date":"2025-11-09T07:34:02.720Z","date":"2025-11-09","time":"07:34:02"},{"correct_response":"l","task":"test_phase","broad_category":"I","image_png":"I_Rhyolite_16.png","image_id":160,"category_name":"Rhyolite","category":10,"distinct_rating":2.19,"distinct_type":"Bottom","item_type":"Target","rt":2781,"stimulus":"Stimuli_Rocks480/I_Rhyolite_16.png","response":"l","trial_type":"image-keyboard-response","trial_index":109,"plugin_version":"2.1.0","time_elapsed":412501,"subject_id":"86880","group":"Group1","full_date":"2025-11-09T07:34:02.720Z","date":"2025-11-09","time":"07:34:02","cor_ans":true},{"trial_type":"html-keyboard-response","rt":null,"stimulus":"<p style=\"color: green; font-size: 50px; font-weight: bold;\">Correct</p>","response":null,"trial_index":110,"plugin_version":"2.1.0","time_elapsed":413002,"subject_id":"86880","group":"Group1","full_date":"2025-11-09T07:34:02.720Z","date":"2025-11-09","time":"07:34:02"},{"correct_response":"a","task":"test_phase","broad_category":"M","image_png":"M_Marble_02.png","image_id":226,"category_name":"Marble","category":15,"distinct_rating":3.2,"distinct_type":"Bottom","item_type":"Foil","rt":5122,"stimulus":"Stimuli_Rocks480/M_Marble_02.png","response":"a","trial_type":"image-keyboard-response","trial_index":111,"plugin_version":"2.1.0","time_elapsed":418126,"subject_id":"86880","group":"Group1","full_date":"2025-11-09T07:34:02.720Z","date":"2025-11-09","time":"07:34:02","cor_ans":true},{"trial_type":"html-keyboard-response","rt":null,"stimulus":"<p style=\"color: green; font-size: 50px; font-weight: bold;\">Correct</p>","response":null,"trial_index":112,"plugin_version":"2.1.0","time_elapsed":418628,"subject_id":"86880","group":"Group1","full_date":"2025-11-09T07:34:02.720Z","date":"2025-11-09","time":"07:34:02"},{"correct_response":"a","task":"test_phase","broad_category":"M","image_png":"M_Slate_10.png","image_id":314,"category_name":"Slate","category":20,"distinct_rating":1.94,"distinct_type":"Bottom","item_type":"Foil","rt":2275,"stimulus":"Stimuli_Rocks480/M_Slate_10.png","response":"a","trial_type":"image-keyboard-response","trial_index":113,"plugin_version":"2.1.0","time_elapsed":420906,"subject_id":"86880","group":"Group1","full_date":"2025-11-09T07:34:02.720Z","date":"2025-11-09","time":"07:34:02","cor_ans":true},{"trial_type":"html-keyboard-response","rt":null,"stimulus":"<p style=\"color: green; font-size: 50px; font-weight: bold;\">Correct</p>","response":null,"trial_index":114,"plugin_version":"2.1.0","time_elapsed":421409,"subject_id":"86880","group":"Group1","full_date":"2025-11-09T07:34:02.720Z","date":"2025-11-09","time":"07:34:02"},{"correct_response":"l","task":"test_phase","broad_category":"S","image_png":"S_Conglomerate_05.png","image_id":373,"category_name":"Conglomerate","category":24,"distinct_rating":7.32,"distinct_type":"Top","item_type":"Target","rt":800,"stimulus":"Stimuli_Rocks480/S_Conglomerate_05.png","response":"l","trial_type":"image-keyboard-response","trial_index":115,"plugin_version":"2.1.0","time_elapsed":422212,"subject_id":"86880","group":"Group1","full_date":"2025-11-09T07:34:02.720Z","date":"2025-11-09","time":"07:34:02","cor_ans":true},{"trial_type":"html-keyboard-response","rt":null,"stimulus":"<p style=\"color: green; font-size: 50px; font-weight: bold;\">Correct</p>","response":null,"trial_index":116,"plugin_version":"2.1.0","time_elapsed":422714,"subject_id":"86880","group":"Group1","full_date":"2025-11-09T07:34:02.720Z","date":"2025-11-09","time":"07:34:02"},{"correct_response":"l","task":"test_phase","broad_category":"M","image_png":"M_Phyllite_10.png","image_id":266,"category_name":"Phyllite","category":17,"distinct_rating":2.6,"distinct_type":"Bottom","item_type":"Target","rt":885,"stimulus":"Stimuli_Rocks480/M_Phyllite_10.png","response":"l","trial_type":"image-keyboard-response","trial_index":117,"plugin_version":"2.1.0","time_elapsed":423602,"subject_id":"86880","group":"Group1","full_date":"2025-11-09T07:34:02.720Z","date":"2025-11-09","time":"07:34:02","cor_ans":true},{"trial_type":"html-keyboard-response","rt":null,"stimulus":"<p style=\"color: green; font-size: 50px; font-weight: bold;\">Correct</p>","response":null,"trial_index":118,"plugin_version":"2.1.0","time_elapsed":424105,"subject_id":"86880","group":"Group1","full_date":"2025-11-09T07:34:02.720Z","date":"2025-11-09","time":"07:34:02"},{"correct_response":"l","task":"test_phase","broad_category":"M","image_png":"M_Quartzite_08.png","image_id":280,"category_name":"Quartzite","category":18,"distinct_rating":2.15,"distinct_type":"Bottom","item_type":"Target","rt":974,"stimulus":"Stimuli_Rocks480/M_Quartzite_08.png","response":"l","trial_type":"image-keyboard-response","trial_index":119,"plugin_version":"2.1.0","time_elapsed":425082,"subject_id":"86880","group":"Group1","full_date":"2025-11-09T07:34:02.720Z","date":"2025-11-09","time":"07:34:02","cor_ans":true},{"trial_type":"html-keyboard-response","rt":null,"stimulus":"<p style=\"color: green; font-size: 50px; font-weight: bold;\">Correct</p>","response":null,"trial_index":120,"plugin_version":"2.1.0","time_elapsed":425584,"subject_id":"86880","group":"Group1","full_date":"2025-11-09T07:34:02.720Z","date":"2025-11-09","time":"07:34:02"},{"correct_response":"a","task":"test_phase","broad_category":"M","image_png":"M_Phyllite_05.png","image_id":261,"category_name":"Phyllite","category":17,"distinct_rating":2.14,"distinct_type":"Bottom","item_type":"Foil","rt":2030,"stimulus":"Stimuli_Rocks480/M_Phyllite_05.png","response":"a","trial_type":"image-keyboard-response","trial_index":121,"plugin_version":"2.1.0","time_elapsed":427618,"subject_id":"86880","group":"Group1","full_date":"2025-11-09T07:34:02.720Z","date":"2025-11-09","time":"07:34:02","cor_ans":true},{"trial_type":"html-keyboard-response","rt":null,"stimulus":"<p style=\"color: green; font-size: 50px; font-weight: bold;\">Correct</p>","response":null,"trial_index":122,"plugin_version":"2.1.0","time_elapsed":428121,"subject_id":"86880","group":"Group1","full_date":"2025-11-09T07:34:02.720Z","date":"2025-11-09","time":"07:34:02"},{"correct_response":"l","task":"test_phase","broad_category":"I","image_png":"I_Obsidian_05.png","image_id":85,"category_name":"Obsidian","category":6,"distinct_rating":7.32,"distinct_type":"Top","item_type":"Target","rt":711,"stimulus":"Stimuli_Rocks480/I_Obsidian_05.png","response":"l","trial_type":"image-keyboard-response","trial_index":123,"plugin_version":"2.1.0","time_elapsed":428835,"subject_id":"86880","group":"Group1","full_date":"2025-11-09T07:34:02.720Z","date":"2025-11-09","time":"07:34:02","cor_ans":true},{"trial_type":"html-keyboard-response","rt":null,"stimulus":"<p style=\"color: green; font-size: 50px; font-weight: bold;\">Correct</p>","response":null,"trial_index":124,"plugin_version":"2.1.0","time_elapsed":429336,"subject_id":"86880","group":"Group1","full_date":"2025-11-09T07:34:02.720Z","date":"2025-11-09","time":"07:34:02"},{"correct_response":"l","task":"test_phase","broad_category":"S","image_png":"S_Shale_08.png","image_id":472,"category_name":"Shale","category":30,"distinct_rating":2.55,"distinct_type":"Bottom","item_type":"Target","rt":1216,"stimulus":"Stimuli_Rocks480/S_Shale_08.png","response":"l","trial_type":"image-keyboard-response","trial_index":125,"plugin_version":"2.1.0","time_elapsed":430555,"subject_id":"86880","group":"Group1","full_date":"2025-11-09T07:34:02.720Z","date":"2025-11-09","time":"07:34:02","cor_ans":true},{"trial_type":"html-keyboard-response","rt":null,"stimulus":"<p style=\"color: green; font-size: 50px; font-weight: bold;\">Correct</p>","response":null,"trial_index":126,"plugin_version":"2.1.0","time_elapsed":431057,"subject_id":"86880","group":"Group1","full_date":"2025-11-09T07:34:02.720Z","date":"2025-11-09","time":"07:34:02"},{"correct_response":"a","task":"test_phase","broad_category":"S","image_png":"S_Sandstone_04.png","image_id":452,"category_name":"Sandstone","category":29,"distinct_rating":1.8,"distinct_type":"Bottom","item_type":"Foil","rt":1858,"stimulus":"Stimuli_Rocks480/S_Sandstone_04.png","response":"a","trial_type":"image-keyboard-response","trial_index":127,"plugin_version":"2.1.0","time_elapsed":432918,"subject_id":"86880","group":"Group1","full_date":"2025-11-09T07:34:02.720Z","date":"2025-11-09","time":"07:34:02","cor_ans":true},{"trial_type":"html-keyboard-response","rt":null,"stimulus":"<p style=\"color: green; font-size: 50px; font-weight: bold;\">Correct</p>","response":null,"trial_index":128,"plugin_version":"2.1.0","time_elapsed":433419,"subject_id":"86880","group":"Group1","full_date":"2025-11-09T07:34:02.720Z","date":"2025-11-09","time":"07:34:02"},{"correct_response":"l","task":"test_phase","broad_category":"S","image_png":"S_Sandstone_03.png","image_id":451,"category_name":"Sandstone","category":29,"distinct_rating":1.86,"distinct_type":"Bottom","item_type":"Target","rt":825,"stimulus":"Stimuli_Rocks480/S_Sandstone_03.png","response":"l","trial_type":"image-keyboard-response","trial_index":129,"plugin_version":"2.1.0","time_elapsed":434247,"subject_id":"86880","group":"Group1","full_date":"2025-11-09T07:34:02.720Z","date":"2025-11-09","time":"07:34:02","cor_ans":true},{"trial_type":"html-keyboard-response","rt":null,"stimulus":"<p style=\"color: green; font-size: 50px; font-weight: bold;\">Correct</p>","response":null,"trial_index":130,"plugin_version":"2.1.0","time_elapsed":434750,"subject_id":"86880","group":"Group1","full_date":"2025-11-09T07:34:02.720Z","date":"2025-11-09","time":"07:34:02"},{"correct_response":"a","task":"test_phase","broad_category":"M","image_png":"M_Gneiss_15.png","image_id":207,"category_name":"Gneiss","category":13,"distinct_rating":3.11,"distinct_type":"Bottom","item_type":"Foil","rt":2067,"stimulus":"Stimuli_Rocks480/M_Gneiss_15.png","response":"a","trial_type":"image-keyboard-response","trial_index":131,"plugin_version":"2.1.0","time_elapsed":436820,"subject_id":"86880","group":"Group1","full_date":"2025-11-09T07:34:02.720Z","date":"2025-11-09","time":"07:34:02","cor_ans":true},{"trial_type":"html-keyboard-response","rt":null,"stimulus":"<p style=\"color: green; font-size: 50px; font-weight: bold;\">Correct</p>","response":null,"trial_index":132,"plugin_version":"2.1.0","time_elapsed":437322,"subject_id":"86880","group":"Group1","full_date":"2025-11-09T07:34:02.720Z","date":"2025-11-09","time":"07:34:02"},{"correct_response":"a","task":"test_phase","broad_category":"I","image_png":"I_Andesite_04.png","image_id":4,"category_name":"Andesite","category":1,"distinct_rating":3.18,"distinct_type":"Bottom","item_type":"Foil","rt":1306,"stimulus":"Stimuli_Rocks480/I_Andesite_04.png","response":"a","trial_type":"image-keyboard-response","trial_index":133,"plugin_version":"2.1.0","time_elapsed":438632,"subject_id":"86880","group":"Group1","full_date":"2025-11-09T07:34:02.720Z","date":"2025-11-09","time":"07:34:02","cor_ans":true},{"trial_type":"html-keyboard-response","rt":null,"stimulus":"<p style=\"color: green; font-size: 50px; font-weight: bold;\">Correct</p>","response":null,"trial_index":134,"plugin_version":"2.1.0","time_elapsed":439133,"subject_id":"86880","group":"Group1","full_date":"2025-11-09T07:34:02.720Z","date":"2025-11-09","time":"07:34:02"},{"correct_response":"l","task":"test_phase","broad_category":"S","image_png":"S_Dolomite_14.png","image_id":398,"category_name":"Dolomite","category":25,"distinct_rating":1.43,"distinct_type":"Bottom","item_type":"Target","rt":1133,"stimulus":"Stimuli_Rocks480/S_Dolomite_14.png","response":"l","trial_type":"image-keyboard-response","trial_index":135,"plugin_version":"2.1.0","time_elapsed":440269,"subject_id":"86880","group":"Group1","full_date":"2025-11-09T07:34:02.720Z","date":"2025-11-09","time":"07:34:02","cor_ans":true},{"trial_type":"html-keyboard-response","rt":null,"stimulus":"<p style=\"color: green; font-size: 50px; font-weight: bold;\">Correct</p>","response":null,"trial_index":136,"plugin_version":"2.1.0","time_elapsed":440772,"subject_id":"86880","group":"Group1","full_date":"2025-11-09T07:34:02.720Z","date":"2025-11-09","time":"07:34:02"},{"correct_response":"a","task":"test_phase","broad_category":"S","image_png":"S_Rock Salt_13.png","image_id":445,"category_name":"Rock Salt","category":28,"distinct_rating":7.58,"distinct_type":"Top","item_type":"Foil","rt":859,"stimulus":"Stimuli_Rocks480/S_Rock Salt_13.png","response":"a","trial_type":"image-keyboard-response","trial_index":137,"plugin_version":"2.1.0","time_elapsed":441633,"subject_id":"86880","group":"Group1","full_date":"2025-11-09T07:34:02.720Z","date":"2025-11-09","time":"07:34:02","cor_ans":true},{"trial_type":"html-keyboard-response","rt":null,"stimulus":"<p style=\"color: green; font-size: 50px; font-weight: bold;\">Correct</p>","response":null,"trial_index":138,"plugin_version":"2.1.0","time_elapsed":442135,"subject_id":"86880","group":"Group1","full_date":"2025-11-09T07:34:02.720Z","date":"2025-11-09","time":"07:34:02"},{"correct_response":"a","task":"test_phase","broad_category":"I","image_png":"I_Basalt_13.png","image_id":29,"category_name":"Basalt","category":2,"distinct_rating":2.68,"distinct_type":"Bottom","item_type":"Foil","rt":1737,"stimulus":"Stimuli_Rocks480/I_Basalt_13.png","response":"a","trial_type":"image-keyboard-response","trial_index":139,"plugin_version":"2.1.0","time_elapsed":443874,"subject_id":"86880","group":"Group1","full_date":"2025-11-09T07:34:02.720Z","date":"2025-11-09","time":"07:34:02","cor_ans":true},{"trial_type":"html-keyboard-response","rt":null,"stimulus":"<p style=\"color: green; font-size: 50px; font-weight: bold;\">Correct</p>","response":null,"trial_index":140,"plugin_version":"2.1.0","time_elapsed":444376,"subject_id":"86880","group":"Group1","full_date":"2025-11-09T07:34:02.720Z","date":"2025-11-09","time":"07:34:02"},{"correct_response":"a","task":"test_phase","broad_category":"S","image_png":"S_Shale_07.png","image_id":471,"category_name":"Shale","category":30,"distinct_rating":2.73,"distinct_type":"Bottom","item_type":"Foil","rt":1248,"stimulus":"Stimuli_Rocks480/S_Shale_07.png","response":"a","trial_type":"image-keyboard-response","trial_index":141,"plugin_version":"2.1.0","time_elapsed":445625,"subject_id":"86880","group":"Group1","full_date":"2025-11-09T07:34:02.720Z","date":"2025-11-09","time":"07:34:02","cor_ans":true},{"trial_type":"html-keyboard-response","rt":null,"stimulus":"<p style=\"color: green; font-size: 50px; font-weight: bold;\">Correct</p>","response":null,"trial_index":142,"plugin_version":"2.1.0","time_elapsed":446127,"subject_id":"86880","group":"Group1","full_date":"2025-11-09T07:34:02.720Z","date":"2025-11-09","time":"07:34:02"},{"correct_response":"l","task":"test_phase","broad_category":"M","image_png":"M_Gneiss_06.png","image_id":198,"category_name":"Gneiss","category":13,"distinct_rating":2.65,"distinct_type":"Bottom","item_type":"Target","rt":1282,"stimulus":"Stimuli_Rocks480/M_Gneiss_06.png","response":"l","trial_type":"image-keyboard-response","trial_index":143,"plugin_version":"2.1.0","time_elapsed":447411,"subject_id":"86880","group":"Group1","full_date":"2025-11-09T07:34:02.720Z","date":"2025-11-09","time":"07:34:02","cor_ans":true},{"trial_type":"html-keyboard-response","rt":null,"stimulus":"<p style=\"color: green; font-size: 50px; font-weight: bold;\">Correct</p>","response":null,"trial_index":144,"plugin_version":"2.1.0","time_elapsed":447913,"subject_id":"86880","group":"Group1","full_date":"2025-11-09T07:34:02.720Z","date":"2025-11-09","time":"07:34:02"},{"correct_response":"l","task":"test_phase","broad_category":"I","image_png":"I_Pegmatite_10.png","image_id":106,"category_name":"Pegmatite","category":7,"distinct_rating":7.66,"distinct_type":"Top","item_type":"Target","rt":675,"stimulus":"Stimuli_Rocks480/I_Pegmatite_10.png","response":"l","trial_type":"image-keyboard-response","trial_index":145,"plugin_version":"2.1.0","time_elapsed":448590,"subject_id":"86880","group":"Group1","full_date":"2025-11-09T07:34:02.720Z","date":"2025-11-09","time":"07:34:02","cor_ans":true},{"trial_type":"html-keyboard-response","rt":null,"stimulus":"<p style=\"color: green; font-size: 50px; font-weight: bold;\">Correct</p>","response":null,"trial_index":146,"plugin_version":"2.1.0","time_elapsed":449092,"subject_id":"86880","group":"Group1","full_date":"2025-11-09T07:34:02.720Z","date":"2025-11-09","time":"07:34:02"},{"correct_response":"a","task":"test_phase","broad_category":"S","image_png":"S_Dolomite_07.png","image_id":391,"category_name":"Dolomite","category":25,"distinct_rating":1.73,"distinct_type":"Bottom","item_type":"Foil","rt":1232,"stimulus":"Stimuli_Rocks480/S_Dolomite_07.png","response":"l","trial_type":"image-keyboard-response","trial_index":147,"plugin_version":"2.1.0","time_elapsed":450324,"subject_id":"86880","group":"Group1","full_date":"2025-11-09T07:34:02.720Z","date":"2025-11-09","time":"07:34:02","cor_ans":false},{"trial_type":"html-keyboard-response","rt":null,"stimulus":"<p style=\"color: red; font-size: 50px; font-weight: bold;\">Incorrect</p>","response":null,"trial_index":148,"plugin_version":"2.1.0","time_elapsed":450826,"subject_id":"86880","group":"Group1","full_date":"2025-11-09T07:34:02.720Z","date":"2025-11-09","time":"07:34:02"},{"correct_response":"a","task":"test_phase","broad_category":"I","image_png":"I_Obsidian_06.png","image_id":86,"category_name":"Obsidian","category":6,"distinct_rating":8.01,"distinct_type":"Top","item_type":"Foil","rt":1190,"stimulus":"Stimuli_Rocks480/I_Obsidian_06.png","response":"a","trial_type":"image-keyboard-response","trial_index":149,"plugin_version":"2.1.0","time_elapsed":452018,"subject_id":"86880","group":"Group1","full_date":"2025-11-09T07:34:02.720Z","date":"2025-11-09","time":"07:34:02","cor_ans":true},{"trial_type":"html-keyboard-response","rt":null,"stimulus":"<p style=\"color: green; font-size: 50px; font-weight: bold;\">Correct</p>","response":null,"trial_index":150,"plugin_version":"2.1.0","time_elapsed":452519,"subject_id":"86880","group":"Group1","full_date":"2025-11-09T07:34:02.720Z","date":"2025-11-09","time":"07:34:02"},{"correct_response":"l","task":"test_phase","broad_category":"M","image_png":"M_Marble_04.png","image_id":228,"category_name":"Marble","category":15,"distinct_rating":3.15,"distinct_type":"Bottom","item_type":"Target","rt":1369,"stimulus":"Stimuli_Rocks480/M_Marble_04.png","response":"a","trial_type":"image-keyboard-response","trial_index":151,"plugin_version":"2.1.0","time_elapsed":453891,"subject_id":"86880","group":"Group1","full_date":"2025-11-09T07:34:02.720Z","date":"2025-11-09","time":"07:34:02","cor_ans":false},{"trial_type":"html-keyboard-response","rt":null,"stimulus":"<p style=\"color: red; font-size: 50px; font-weight: bold;\">Incorrect</p>","response":null,"trial_index":152,"plugin_version":"2.1.0","time_elapsed":454393,"subject_id":"86880","group":"Group1","full_date":"2025-11-09T07:34:02.720Z","date":"2025-11-09","time":"07:34:02"},{"correct_response":"a","task":"test_phase","broad_category":"I","image_png":"I_Pegmatite_03.png","image_id":99,"category_name":"Pegmatite","category":7,"distinct_rating":7.24,"distinct_type":"Top","item_type":"Foil","rt":2259,"stimulus":"Stimuli_Rocks480/I_Pegmatite_03.png","response":"a","trial_type":"image-keyboard-response","trial_index":153,"plugin_version":"2.1.0","time_elapsed":456654,"subject_id":"86880","group":"Group1","full_date":"2025-11-09T07:34:02.720Z","date":"2025-11-09","time":"07:34:02","cor_ans":true},{"trial_type":"html-keyboard-response","rt":null,"stimulus":"<p style=\"color: green; font-size: 50px; font-weight: bold;\">Correct</p>","response":null,"trial_index":154,"plugin_version":"2.1.0","time_elapsed":457156,"subject_id":"86880","group":"Group1","full_date":"2025-11-09T07:34:02.720Z","date":"2025-11-09","time":"07:34:02"},{"correct_response":"l","task":"test_phase","broad_category":"I","image_png":"I_Gabbro_08.png","image_id":56,"category_name":"Gabbro","category":4,"distinct_rating":3.02,"distinct_type":"Bottom","item_type":"Target","rt":2211,"stimulus":"Stimuli_Rocks480/I_Gabbro_08.png","response":"l","trial_type":"image-keyboard-response","trial_index":155,"plugin_version":"2.1.0","time_elapsed":459369,"subject_id":"86880","group":"Group1","full_date":"2025-11-09T07:34:02.720Z","date":"2025-11-09","time":"07:34:02","cor_ans":true},{"trial_type":"html-keyboard-response","rt":null,"stimulus":"<p style=\"color: green; font-size: 50px; font-weight: bold;\">Correct</p>","response":null,"trial_index":156,"plugin_version":"2.1.0","time_elapsed":459870,"subject_id":"86880","group":"Group1","full_date":"2025-11-09T07:34:02.720Z","date":"2025-11-09","time":"07:34:02"},{"correct_response":"a","task":"test_phase","broad_category":"M","image_png":"M_Marble_03.png","image_id":227,"category_name":"Marble","category":15,"distinct_rating":2.67,"distinct_type":"Bottom","item_type":"Foil","rt":3416,"stimulus":"Stimuli_Rocks480/M_Marble_03.png","response":"a","trial_type":"image-keyboard-response","trial_index":157,"plugin_version":"2.1.0","time_elapsed":463287,"subject_id":"86880","group":"Group1","full_date":"2025-11-09T07:34:02.720Z","date":"2025-11-09","time":"07:34:02","cor_ans":true},{"trial_type":"html-keyboard-response","rt":null,"stimulus":"<p style=\"color: green; font-size: 50px; font-weight: bold;\">Correct</p>","response":null,"trial_index":158,"plugin_version":"2.1.0","time_elapsed":463788,"subject_id":"86880","group":"Group1","full_date":"2025-11-09T07:34:02.720Z","date":"2025-11-09","time":"07:34:02"},{"correct_response":"l","task":"test_phase","broad_category":"I","image_png":"I_Rhyolite_11.png","image_id":155,"category_name":"Rhyolite","category":10,"distinct_rating":1.73,"distinct_type":"Bottom","item_type":"Target","rt":916,"stimulus":"Stimuli_Rocks480/I_Rhyolite_11.png","response":"l","trial_type":"image-keyboard-response","trial_index":159,"plugin_version":"2.1.0","time_elapsed":464708,"subject_id":"86880","group":"Group1","full_date":"2025-11-09T07:34:02.720Z","date":"2025-11-09","time":"07:34:02","cor_ans":true},{"trial_type":"html-keyboard-response","rt":null,"stimulus":"<p style=\"color: green; font-size: 50px; font-weight: bold;\">Correct</p>","response":null,"trial_index":160,"plugin_version":"2.1.0","time_elapsed":465209,"subject_id":"86880","group":"Group1","full_date":"2025-11-09T07:34:02.720Z","date":"2025-11-09","time":"07:34:02"},{"correct_response":"a","task":"test_phase","broad_category":"I","image_png":"I_Andesite_09.png","image_id":9,"category_name":"Andesite","category":1,"distinct_rating":2.49,"distinct_type":"Bottom","item_type":"Foil","rt":977,"stimulus":"Stimuli_Rocks480/I_Andesite_09.png","response":"l","trial_type":"image-keyboard-response","trial_index":161,"plugin_version":"2.1.0","time_elapsed":466190,"subject_id":"86880","group":"Group1","full_date":"2025-11-09T07:34:02.720Z","date":"2025-11-09","time":"07:34:02","cor_ans":false},{"trial_type":"html-keyboard-response","rt":null,"stimulus":"<p style=\"color: red; font-size: 50px; font-weight: bold;\">Incorrect</p>","response":null,"trial_index":162,"plugin_version":"2.1.0","time_elapsed":466691,"subject_id":"86880","group":"Group1","full_date":"2025-11-09T07:34:02.720Z","date":"2025-11-09","time":"07:34:02"},{"correct_response":"a","task":"test_phase","broad_category":"I","image_png":"I_Pegmatite_11.png","image_id":107,"category_name":"Pegmatite","category":7,"distinct_rating":7.11,"distinct_type":"Top","item_type":"Foil","rt":1622,"stimulus":"Stimuli_Rocks480/I_Pegmatite_11.png","response":"a","trial_type":"image-keyboard-response","trial_index":163,"plugin_version":"2.1.0","time_elapsed":468316,"subject_id":"86880","group":"Group1","full_date":"2025-11-09T07:34:02.720Z","date":"2025-11-09","time":"07:34:02","cor_ans":true},{"trial_type":"html-keyboard-response","rt":null,"stimulus":"<p style=\"color: green; font-size: 50px; font-weight: bold;\">Correct</p>","response":null,"trial_index":164,"plugin_version":"2.1.0","time_elapsed":468818,"subject_id":"86880","group":"Group1","full_date":"2025-11-09T07:34:02.720Z","date":"2025-11-09","time":"07:34:02"},{"correct_response":"a","task":"test_phase","broad_category":"I","image_png":"I_Pumice_13.png","image_id":141,"category_name":"Pumice","category":9,"distinct_rating":3.12,"distinct_type":"Bottom","item_type":"Foil","rt":812,"stimulus":"Stimuli_Rocks480/I_Pumice_13.png","response":"a","trial_type":"image-keyboard-response","trial_index":165,"plugin_version":"2.1.0","time_elapsed":469633,"subject_id":"86880","group":"Group1","full_date":"2025-11-09T07:34:02.720Z","date":"2025-11-09","time":"07:34:02","cor_ans":true},{"trial_type":"html-keyboard-response","rt":null,"stimulus":"<p style=\"color: green; font-size: 50px; font-weight: bold;\">Correct</p>","response":null,"trial_index":166,"plugin_version":"2.1.0","time_elapsed":470134,"subject_id":"86880","group":"Group1","full_date":"2025-11-09T07:34:02.720Z","date":"2025-11-09","time":"07:34:02"},{"correct_response":"a","task":"test_phase","broad_category":"M","image_png":"M_Phyllite_13.png","image_id":269,"category_name":"Phyllite","category":17,"distinct_rating":2.8,"distinct_type":"Bottom","item_type":"Foil","rt":1249,"stimulus":"Stimuli_Rocks480/M_Phyllite_13.png","response":"l","trial_type":"image-keyboard-response","trial_index":167,"plugin_version":"2.1.0","time_elapsed":471384,"subject_id":"86880","group":"Group1","full_date":"2025-11-09T07:34:02.720Z","date":"2025-11-09","time":"07:34:02","cor_ans":false},{"trial_type":"html-keyboard-response","rt":null,"stimulus":"<p style=\"color: red; font-size: 50px; font-weight: bold;\">Incorrect</p>","response":null,"trial_index":168,"plugin_version":"2.1.0","time_elapsed":471886,"subject_id":"86880","group":"Group1","full_date":"2025-11-09T07:34:02.720Z","date":"2025-11-09","time":"07:34:02"},{"correct_response":"l","task":"test_phase","broad_category":"M","image_png":"M_Gneiss_13.png","image_id":205,"category_name":"Gneiss","category":13,"distinct_rating":3.26,"distinct_type":"Bottom","item_type":"Target","rt":1178,"stimulus":"Stimuli_Rocks480/M_Gneiss_13.png","response":"l","trial_type":"image-keyboard-response","trial_index":169,"plugin_version":"2.1.0","time_elapsed":473068,"subject_id":"86880","group":"Group1","full_date":"2025-11-09T07:34:02.720Z","date":"2025-11-09","time":"07:34:02","cor_ans":true},{"trial_type":"html-keyboard-response","rt":null,"stimulus":"<p style=\"color: green; font-size: 50px; font-weight: bold;\">Correct</p>","response":null,"trial_index":170,"plugin_version":"2.1.0","time_elapsed":473570,"subject_id":"86880","group":"Group1","full_date":"2025-11-09T07:34:02.720Z","date":"2025-11-09","time":"07:34:02"},{"correct_response":"l","task":"test_phase","broad_category":"I","image_png":"I_Basalt_09.png","image_id":25,"category_name":"Basalt","category":2,"distinct_rating":1.89,"distinct_type":"Bottom","item_type":"Target","rt":1261,"stimulus":"Stimuli_Rocks480/I_Basalt_09.png","response":"l","trial_type":"image-keyboard-response","trial_index":171,"plugin_version":"2.1.0","time_elapsed":474833,"subject_id":"86880","group":"Group1","full_date":"2025-11-09T07:34:02.720Z","date":"2025-11-09","time":"07:34:02","cor_ans":true},{"trial_type":"html-keyboard-response","rt":null,"stimulus":"<p style=\"color: green; font-size: 50px; font-weight: bold;\">Correct</p>","response":null,"trial_index":172,"plugin_version":"2.1.0","time_elapsed":475335,"subject_id":"86880","group":"Group1","full_date":"2025-11-09T07:34:02.720Z","date":"2025-11-09","time":"07:34:02"},{"correct_response":"a","task":"test_phase","broad_category":"I","image_png":"I_Gabbro_12.png","image_id":60,"category_name":"Gabbro","category":4,"distinct_rating":2.6,"distinct_type":"Bottom","item_type":"Foil","rt":1038,"stimulus":"Stimuli_Rocks480/I_Gabbro_12.png","response":"a","trial_type":"image-keyboard-response","trial_index":173,"plugin_version":"2.1.0","time_elapsed":476376,"subject_id":"86880","group":"Group1","full_date":"2025-11-09T07:34:02.720Z","date":"2025-11-09","time":"07:34:02","cor_ans":true},{"trial_type":"html-keyboard-response","rt":null,"stimulus":"<p style=\"color: green; font-size: 50px; font-weight: bold;\">Correct</p>","response":null,"trial_index":174,"plugin_version":"2.1.0","time_elapsed":476877,"subject_id":"86880","group":"Group1","full_date":"2025-11-09T07:34:02.720Z","date":"2025-11-09","time":"07:34:02"},{"correct_response":"l","task":"test_phase","broad_category":"M","image_png":"M_Slate_03.png","image_id":307,"category_name":"Slate","category":20,"distinct_rating":1.87,"distinct_type":"Bottom","item_type":"Target","rt":2187,"stimulus":"Stimuli_Rocks480/M_Slate_03.png","response":"l","trial_type":"image-keyboard-response","trial_index":175,"plugin_version":"2.1.0","time_elapsed":479066,"subject_id":"86880","group":"Group1","full_date":"2025-11-09T07:34:02.720Z","date":"2025-11-09","time":"07:34:02","cor_ans":true},{"trial_type":"html-keyboard-response","rt":null,"stimulus":"<p style=\"color: green; font-size: 50px; font-weight: bold;\">Correct</p>","response":null,"trial_index":176,"plugin_version":"2.1.0","time_elapsed":479567,"subject_id":"86880","group":"Group1","full_date":"2025-11-09T07:34:02.720Z","date":"2025-11-09","time":"07:34:02"},{"correct_response":"a","task":"test_phase","broad_category":"M","image_png":"M_Slate_14.png","image_id":318,"category_name":"Slate","category":20,"distinct_rating":2.58,"distinct_type":"Bottom","item_type":"Foil","rt":1536,"stimulus":"Stimuli_Rocks480/M_Slate_14.png","response":"a","trial_type":"image-keyboard-response","trial_index":177,"plugin_version":"2.1.0","time_elapsed":481105,"subject_id":"86880","group":"Group1","full_date":"2025-11-09T07:34:02.720Z","date":"2025-11-09","time":"07:34:02","cor_ans":true},{"trial_type":"html-keyboard-response","rt":null,"stimulus":"<p style=\"color: green; font-size: 50px; font-weight: bold;\">Correct</p>","response":null,"trial_index":178,"plugin_version":"2.1.0","time_elapsed":481606,"subject_id":"86880","group":"Group1","full_date":"2025-11-09T07:34:02.720Z","date":"2025-11-09","time":"07:34:02"},{"correct_response":"l","task":"test_phase","broad_category":"M","image_png":"M_Marble_16.png","image_id":240,"category_name":"Marble","category":15,"distinct_rating":2.57,"distinct_type":"Bottom","item_type":"Target","rt":1259,"stimulus":"Stimuli_Rocks480/M_Marble_16.png","response":"l","trial_type":"image-keyboard-response","trial_index":179,"plugin_version":"2.1.0","time_elapsed":482868,"subject_id":"86880","group":"Group1","full_date":"2025-11-09T07:34:02.720Z","date":"2025-11-09","time":"07:34:02","cor_ans":true},{"trial_type":"html-keyboard-response","rt":null,"stimulus":"<p style=\"color: green; font-size: 50px; font-weight: bold;\">Correct</p>","response":null,"trial_index":180,"plugin_version":"2.1.0","time_elapsed":483369,"subject_id":"86880","group":"Group1","full_date":"2025-11-09T07:34:02.720Z","date":"2025-11-09","time":"07:34:02"},{"correct_response":"a","task":"test_phase","broad_category":"M","image_png":"M_Gneiss_10.png","image_id":202,"category_name":"Gneiss","category":13,"distinct_rating":3.09,"distinct_type":"Bottom","item_type":"Foil","rt":1206,"stimulus":"Stimuli_Rocks480/M_Gneiss_10.png","response":"a","trial_type":"image-keyboard-response","trial_index":181,"plugin_version":"2.1.0","time_elapsed":484577,"subject_id":"86880","group":"Group1","full_date":"2025-11-09T07:34:02.720Z","date":"2025-11-09","time":"07:34:02","cor_ans":true},{"trial_type":"html-keyboard-response","rt":null,"stimulus":"<p style=\"color: green; font-size: 50px; font-weight: bold;\">Correct</p>","response":null,"trial_index":182,"plugin_version":"2.1.0","time_elapsed":485079,"subject_id":"86880","group":"Group1","full_date":"2025-11-09T07:34:02.720Z","date":"2025-11-09","time":"07:34:02"},{"correct_response":"a","task":"test_phase","broad_category":"S","image_png":"S_Dolomite_01.png","image_id":385,"category_name":"Dolomite","category":25,"distinct_rating":1.43,"distinct_type":"Bottom","item_type":"Foil","rt":956,"stimulus":"Stimuli_Rocks480/S_Dolomite_01.png","response":"a","trial_type":"image-keyboard-response","trial_index":183,"plugin_version":"2.1.0","time_elapsed":486037,"subject_id":"86880","group":"Group1","full_date":"2025-11-09T07:34:02.720Z","date":"2025-11-09","time":"07:34:02","cor_ans":true},{"trial_type":"html-keyboard-response","rt":null,"stimulus":"<p style=\"color: green; font-size: 50px; font-weight: bold;\">Correct</p>","response":null,"trial_index":184,"plugin_version":"2.1.0","time_elapsed":486538,"subject_id":"86880","group":"Group1","full_date":"2025-11-09T07:34:02.720Z","date":"2025-11-09","time":"07:34:02"},{"correct_response":"l","task":"test_phase","broad_category":"S","image_png":"S_Dolomite_12.png","image_id":396,"category_name":"Dolomite","category":25,"distinct_rating":1.85,"distinct_type":"Bottom","item_type":"Target","rt":4316,"stimulus":"Stimuli_Rocks480/S_Dolomite_12.png","response":"a","trial_type":"image-keyboard-response","trial_index":185,"plugin_version":"2.1.0","time_elapsed":490857,"subject_id":"86880","group":"Group1","full_date":"2025-11-09T07:34:02.720Z","date":"2025-11-09","time":"07:34:02","cor_ans":false},{"trial_type":"html-keyboard-response","rt":null,"stimulus":"<p style=\"color: red; font-size: 50px; font-weight: bold;\">Incorrect</p>","response":null,"trial_index":186,"plugin_version":"2.1.0","time_elapsed":491360,"subject_id":"86880","group":"Group1","full_date":"2025-11-09T07:34:02.720Z","date":"2025-11-09","time":"07:34:02"},{"correct_response":"l","task":"test_phase","broad_category":"S","image_png":"S_Rock Gypsum_04.png","image_id":420,"category_name":"Rock Gypsum","category":27,"distinct_rating":7.61,"distinct_type":"Top","item_type":"Target","rt":1059,"stimulus":"Stimuli_Rocks480/S_Rock Gypsum_04.png","response":"l","trial_type":"image-keyboard-response","trial_index":187,"plugin_version":"2.1.0","time_elapsed":492421,"subject_id":"86880","group":"Group1","full_date":"2025-11-09T07:34:02.720Z","date":"2025-11-09","time":"07:34:02","cor_ans":true},{"trial_type":"html-keyboard-response","rt":null,"stimulus":"<p style=\"color: green; font-size: 50px; font-weight: bold;\">Correct</p>","response":null,"trial_index":188,"plugin_version":"2.1.0","time_elapsed":492922,"subject_id":"86880","group":"Group1","full_date":"2025-11-09T07:34:02.720Z","date":"2025-11-09","time":"07:34:02"},{"correct_response":"l","task":"test_phase","broad_category":"I","image_png":"I_Pegmatite_16.png","image_id":112,"category_name":"Pegmatite","category":7,"distinct_rating":7.03,"distinct_type":"Top","item_type":"Target","rt":734,"stimulus":"Stimuli_Rocks480/I_Pegmatite_16.png","response":"l","trial_type":"image-keyboard-response","trial_index":189,"plugin_version":"2.1.0","time_elapsed":493658,"subject_id":"86880","group":"Group1","full_date":"2025-11-09T07:34:02.720Z","date":"2025-11-09","time":"07:34:02","cor_ans":true},{"trial_type":"html-keyboard-response","rt":null,"stimulus":"<p style=\"color: green; font-size: 50px; font-weight: bold;\">Correct</p>","response":null,"trial_index":190,"plugin_version":"2.1.0","time_elapsed":494160,"subject_id":"86880","group":"Group1","full_date":"2025-11-09T07:34:02.720Z","date":"2025-11-09","time":"07:34:02"},{"correct_response":"l","task":"test_phase","broad_category":"I","image_png":"I_Andesite_06.png","image_id":6,"category_name":"Andesite","category":1,"distinct_rating":3.17,"distinct_type":"Bottom","item_type":"Target","rt":967,"stimulus":"Stimuli_Rocks480/I_Andesite_06.png","response":"l","trial_type":"image-keyboard-response","trial_index":191,"plugin_version":"2.1.0","time_elapsed":495131,"subject_id":"86880","group":"Group1","full_date":"2025-11-09T07:34:02.720Z","date":"2025-11-09","time":"07:34:02","cor_ans":true},{"trial_type":"html-keyboard-response","rt":null,"stimulus":"<p style=\"color: green; font-size: 50px; font-weight: bold;\">Correct</p>","response":null,"trial_index":192,"plugin_version":"2.1.0","time_elapsed":495633,"subject_id":"86880","group":"Group1","full_date":"2025-11-09T07:34:02.720Z","date":"2025-11-09","time":"07:34:02"},{"correct_response":"a","task":"test_phase","broad_category":"I","image_png":"I_Rhyolite_08.png","image_id":152,"category_name":"Rhyolite","category":10,"distinct_rating":1.38,"distinct_type":"Bottom","item_type":"Foil","rt":1098,"stimulus":"Stimuli_Rocks480/I_Rhyolite_08.png","response":"a","trial_type":"image-keyboard-response","trial_index":193,"plugin_version":"2.1.0","time_elapsed":496733,"subject_id":"86880","group":"Group1","full_date":"2025-11-09T07:34:02.720Z","date":"2025-11-09","time":"07:34:02","cor_ans":true},{"trial_type":"html-keyboard-response","rt":null,"stimulus":"<p style=\"color: green; font-size: 50px; font-weight: bold;\">Correct</p>","response":null,"trial_index":194,"plugin_version":"2.1.0","time_elapsed":497235,"subject_id":"86880","group":"Group1","full_date":"2025-11-09T07:34:02.720Z","date":"2025-11-09","time":"07:34:02"},{"correct_response":"l","task":"test_phase","broad_category":"M","image_png":"M_Quartzite_05.png","image_id":277,"category_name":"Quartzite","category":18,"distinct_rating":2.23,"distinct_type":"Bottom","item_type":"Target","rt":975,"stimulus":"Stimuli_Rocks480/M_Quartzite_05.png","response":"l","trial_type":"image-keyboard-response","trial_index":195,"plugin_version":"2.1.0","time_elapsed":498211,"subject_id":"86880","group":"Group1","full_date":"2025-11-09T07:34:02.720Z","date":"2025-11-09","time":"07:34:02","cor_ans":true},{"trial_type":"html-keyboard-response","rt":null,"stimulus":"<p style=\"color: green; font-size: 50px; font-weight: bold;\">Correct</p>","response":null,"trial_index":196,"plugin_version":"2.1.0","time_elapsed":498713,"subject_id":"86880","group":"Group1","full_date":"2025-11-09T07:34:02.720Z","date":"2025-11-09","time":"07:34:02"},{"correct_response":"a","task":"test_phase","broad_category":"S","image_png":"S_Dolomite_16.png","image_id":400,"category_name":"Dolomite","category":25,"distinct_rating":1.71,"distinct_type":"Bottom","item_type":"Foil","rt":1341,"stimulus":"Stimuli_Rocks480/S_Dolomite_16.png","response":"a","trial_type":"image-keyboard-response","trial_index":197,"plugin_version":"2.1.0","time_elapsed":500057,"subject_id":"86880","group":"Group1","full_date":"2025-11-09T07:34:02.720Z","date":"2025-11-09","time":"07:34:02","cor_ans":true},{"trial_type":"html-keyboard-response","rt":null,"stimulus":"<p style=\"color: green; font-size: 50px; font-weight: bold;\">Correct</p>","response":null,"trial_index":198,"plugin_version":"2.1.0","time_elapsed":500559,"subject_id":"86880","group":"Group1","full_date":"2025-11-09T07:34:02.720Z","date":"2025-11-09","time":"07:34:02"},{"correct_response":"l","task":"test_phase","broad_category":"S","image_png":"S_Rock Salt_01.png","image_id":433,"category_name":"Rock Salt","category":28,"distinct_rating":7.18,"distinct_type":"Top","item_type":"Target","rt":794,"stimulus":"Stimuli_Rocks480/S_Rock Salt_01.png","response":"l","trial_type":"image-keyboard-response","trial_index":199,"plugin_version":"2.1.0","time_elapsed":501355,"subject_id":"86880","group":"Group1","full_date":"2025-11-09T07:34:02.720Z","date":"2025-11-09","time":"07:34:02","cor_ans":true},{"trial_type":"html-keyboard-response","rt":null,"stimulus":"<p style=\"color: green; font-size: 50px; font-weight: bold;\">Correct</p>","response":null,"trial_index":200,"plugin_version":"2.1.0","time_elapsed":501857,"subject_id":"86880","group":"Group1","full_date":"2025-11-09T07:34:02.720Z","date":"2025-11-09","time":"07:34:02"},{"correct_response":"l","task":"test_phase","broad_category":"I","image_png":"I_Gabbro_11.png","image_id":59,"category_name":"Gabbro","category":4,"distinct_rating":1.99,"distinct_type":"Bottom","item_type":"Target","rt":1637,"stimulus":"Stimuli_Rocks480/I_Gabbro_11.png","response":"a","trial_type":"image-keyboard-response","trial_index":201,"plugin_version":"2.1.0","time_elapsed":503496,"subject_id":"86880","group":"Group1","full_date":"2025-11-09T07:34:02.720Z","date":"2025-11-09","time":"07:34:02","cor_ans":false},{"trial_type":"html-keyboard-response","rt":null,"stimulus":"<p style=\"color: red; font-size: 50px; font-weight: bold;\">Incorrect</p>","response":null,"trial_index":202,"plugin_version":"2.1.0","time_elapsed":503998,"subject_id":"86880","group":"Group1","full_date":"2025-11-09T07:34:02.720Z","date":"2025-11-09","time":"07:34:02"},{"correct_response":"l","task":"test_phase","broad_category":"M","image_png":"M_Phyllite_07.png","image_id":263,"category_name":"Phyllite","category":17,"distinct_rating":2.59,"distinct_type":"Bottom","item_type":"Target","rt":898,"stimulus":"Stimuli_Rocks480/M_Phyllite_07.png","response":"l","trial_type":"image-keyboard-response","trial_index":203,"plugin_version":"2.1.0","time_elapsed":504899,"subject_id":"86880","group":"Group1","full_date":"2025-11-09T07:34:02.720Z","date":"2025-11-09","time":"07:34:02","cor_ans":true},{"trial_type":"html-keyboard-response","rt":null,"stimulus":"<p style=\"color: green; font-size: 50px; font-weight: bold;\">Correct</p>","response":null,"trial_index":204,"plugin_version":"2.1.0","time_elapsed":505400,"subject_id":"86880","group":"Group1","full_date":"2025-11-09T07:34:02.720Z","date":"2025-11-09","time":"07:34:02"},{"correct_response":"a","task":"test_phase","broad_category":"I","image_png":"I_Diorite_15.png","image_id":47,"category_name":"Diorite","category":3,"distinct_rating":3.05,"distinct_type":"Bottom","item_type":"Foil","rt":1067,"stimulus":"Stimuli_Rocks480/I_Diorite_15.png","response":"l","trial_type":"image-keyboard-response","trial_index":205,"plugin_version":"2.1.0","time_elapsed":506469,"subject_id":"86880","group":"Group1","full_date":"2025-11-09T07:34:02.720Z","date":"2025-11-09","time":"07:34:02","cor_ans":false},{"trial_type":"html-keyboard-response","rt":null,"stimulus":"<p style=\"color: red; font-size: 50px; font-weight: bold;\">Incorrect</p>","response":null,"trial_index":206,"plugin_version":"2.1.0","time_elapsed":506970,"subject_id":"86880","group":"Group1","full_date":"2025-11-09T07:34:02.720Z","date":"2025-11-09","time":"07:34:02"},{"correct_response":"l","task":"test_phase","broad_category":"I","image_png":"I_Diorite_03.png","image_id":35,"category_name":"Diorite","category":3,"distinct_rating":3.14,"distinct_type":"Bottom","item_type":"Target","rt":1096,"stimulus":"Stimuli_Rocks480/I_Diorite_03.png","response":"l","trial_type":"image-keyboard-response","trial_index":207,"plugin_version":"2.1.0","time_elapsed":508069,"subject_id":"86880","group":"Group1","full_date":"2025-11-09T07:34:02.720Z","date":"2025-11-09","time":"07:34:02","cor_ans":true},{"trial_type":"html-keyboard-response","rt":null,"stimulus":"<p style=\"color: green; font-size: 50px; font-weight: bold;\">Correct</p>","response":null,"trial_index":208,"plugin_version":"2.1.0","time_elapsed":508570,"subject_id":"86880","group":"Group1","full_date":"2025-11-09T07:34:02.720Z","date":"2025-11-09","time":"07:34:02"},{"correct_response":"l","task":"test_phase","broad_category":"I","image_png":"I_Diorite_04.png","image_id":36,"category_name":"Diorite","category":3,"distinct_rating":2.98,"distinct_type":"Bottom","item_type":"Target","rt":1502,"stimulus":"Stimuli_Rocks480/I_Diorite_04.png","response":"a","trial_type":"image-keyboard-response","trial_index":209,"plugin_version":"2.1.0","time_elapsed":510074,"subject_id":"86880","group":"Group1","full_date":"2025-11-09T07:34:02.720Z","date":"2025-11-09","time":"07:34:02","cor_ans":false},{"trial_type":"html-keyboard-response","rt":null,"stimulus":"<p style=\"color: red; font-size: 50px; font-weight: bold;\">Incorrect</p>","response":null,"trial_index":210,"plugin_version":"2.1.0","time_elapsed":510575,"subject_id":"86880","group":"Group1","full_date":"2025-11-09T07:34:02.720Z","date":"2025-11-09","time":"07:34:02"},{"correct_response":"a","task":"test_phase","broad_category":"M","image_png":"M_Phyllite_02.png","image_id":258,"category_name":"Phyllite","category":17,"distinct_rating":2.89,"distinct_type":"Bottom","item_type":"Foil","rt":1701,"stimulus":"Stimuli_Rocks480/M_Phyllite_02.png","response":"a","trial_type":"image-keyboard-response","trial_index":211,"plugin_version":"2.1.0","time_elapsed":512279,"subject_id":"86880","group":"Group1","full_date":"2025-11-09T07:34:02.720Z","date":"2025-11-09","time":"07:34:02","cor_ans":true},{"trial_type":"html-keyboard-response","rt":null,"stimulus":"<p style=\"color: green; font-size: 50px; font-weight: bold;\">Correct</p>","response":null,"trial_index":212,"plugin_version":"2.1.0","time_elapsed":512780,"subject_id":"86880","group":"Group1","full_date":"2025-11-09T07:34:02.720Z","date":"2025-11-09","time":"07:34:02"},{"correct_response":"a","task":"test_phase","broad_category":"I","image_png":"I_Basalt_10.png","image_id":26,"category_name":"Basalt","category":2,"distinct_rating":2.76,"distinct_type":"Bottom","item_type":"Foil","rt":1490,"stimulus":"Stimuli_Rocks480/I_Basalt_10.png","response":"a","trial_type":"image-keyboard-response","trial_index":213,"plugin_version":"2.1.0","time_elapsed":514273,"subject_id":"86880","group":"Group1","full_date":"2025-11-09T07:34:02.720Z","date":"2025-11-09","time":"07:34:02","cor_ans":true},{"trial_type":"html-keyboard-response","rt":null,"stimulus":"<p style=\"color: green; font-size: 50px; font-weight: bold;\">Correct</p>","response":null,"trial_index":214,"plugin_version":"2.1.0","time_elapsed":514774,"subject_id":"86880","group":"Group1","full_date":"2025-11-09T07:34:02.720Z","date":"2025-11-09","time":"07:34:02"},{"correct_response":"l","task":"test_phase","broad_category":"M","image_png":"M_Quartzite_13.png","image_id":285,"category_name":"Quartzite","category":18,"distinct_rating":2.27,"distinct_type":"Bottom","item_type":"Target","rt":923,"stimulus":"Stimuli_Rocks480/M_Quartzite_13.png","response":"l","trial_type":"image-keyboard-response","trial_index":215,"plugin_version":"2.1.0","time_elapsed":515700,"subject_id":"86880","group":"Group1","full_date":"2025-11-09T07:34:02.720Z","date":"2025-11-09","time":"07:34:02","cor_ans":true},{"trial_type":"html-keyboard-response","rt":null,"stimulus":"<p style=\"color: green; font-size: 50px; font-weight: bold;\">Correct</p>","response":null,"trial_index":216,"plugin_version":"2.1.0","time_elapsed":516201,"subject_id":"86880","group":"Group1","full_date":"2025-11-09T07:34:02.720Z","date":"2025-11-09","time":"07:34:02"},{"correct_response":"a","task":"test_phase","broad_category":"M","image_png":"M_Marble_14.png","image_id":238,"category_name":"Marble","category":15,"distinct_rating":3.31,"distinct_type":"Bottom","item_type":"Foil","rt":2894,"stimulus":"Stimuli_Rocks480/M_Marble_14.png","response":"a","trial_type":"image-keyboard-response","trial_index":217,"plugin_version":"2.1.0","time_elapsed":519097,"subject_id":"86880","group":"Group1","full_date":"2025-11-09T07:34:02.720Z","date":"2025-11-09","time":"07:34:02","cor_ans":true},{"trial_type":"html-keyboard-response","rt":null,"stimulus":"<p style=\"color: green; font-size: 50px; font-weight: bold;\">Correct</p>","response":null,"trial_index":218,"plugin_version":"2.1.0","time_elapsed":519598,"subject_id":"86880","group":"Group1","full_date":"2025-11-09T07:34:02.720Z","date":"2025-11-09","time":"07:34:02"},{"correct_response":"a","task":"test_phase","broad_category":"M","image_png":"M_Gneiss_14.png","image_id":206,"category_name":"Gneiss","category":13,"distinct_rating":3.41,"distinct_type":"Bottom","item_type":"Foil","rt":1008,"stimulus":"Stimuli_Rocks480/M_Gneiss_14.png","response":"l","trial_type":"image-keyboard-response","trial_index":219,"plugin_version":"2.1.0","time_elapsed":520607,"subject_id":"86880","group":"Group1","full_date":"2025-11-09T07:34:02.720Z","date":"2025-11-09","time":"07:34:02","cor_ans":false},{"trial_type":"html-keyboard-response","rt":null,"stimulus":"<p style=\"color: red; font-size: 50px; font-weight: bold;\">Incorrect</p>","response":null,"trial_index":220,"plugin_version":"2.1.0","time_elapsed":521110,"subject_id":"86880","group":"Group1","full_date":"2025-11-09T07:34:02.720Z","date":"2025-11-09","time":"07:34:02"},{"correct_response":"l","task":"test_phase","broad_category":"M","image_png":"M_Marble_06.png","image_id":230,"category_name":"Marble","category":15,"distinct_rating":3.4,"distinct_type":"Bottom","item_type":"Target","rt":792,"stimulus":"Stimuli_Rocks480/M_Marble_06.png","response":"l","trial_type":"image-keyboard-response","trial_index":221,"plugin_version":"2.1.0","time_elapsed":521904,"subject_id":"86880","group":"Group1","full_date":"2025-11-09T07:34:02.720Z","date":"2025-11-09","time":"07:34:02","cor_ans":true},{"trial_type":"html-keyboard-response","rt":null,"stimulus":"<p style=\"color: green; font-size: 50px; font-weight: bold;\">Correct</p>","response":null,"trial_index":222,"plugin_version":"2.1.0","time_elapsed":522406,"subject_id":"86880","group":"Group1","full_date":"2025-11-09T07:34:02.720Z","date":"2025-11-09","time":"07:34:02"},{"correct_response":"a","task":"test_phase","broad_category":"I","image_png":"I_Pumice_01.png","image_id":129,"category_name":"Pumice","category":9,"distinct_rating":3.25,"distinct_type":"Bottom","item_type":"Foil","rt":2651,"stimulus":"Stimuli_Rocks480/I_Pumice_01.png","response":"a","trial_type":"image-keyboard-response","trial_index":223,"plugin_version":"2.1.0","time_elapsed":525059,"subject_id":"86880","group":"Group1","full_date":"2025-11-09T07:34:02.720Z","date":"2025-11-09","time":"07:34:02","cor_ans":true},{"trial_type":"html-keyboard-response","rt":null,"stimulus":"<p style=\"color: green; font-size: 50px; font-weight: bold;\">Correct</p>","response":null,"trial_index":224,"plugin_version":"2.1.0","time_elapsed":525562,"subject_id":"86880","group":"Group1","full_date":"2025-11-09T07:34:02.720Z","date":"2025-11-09","time":"07:34:02"},{"correct_response":"a","task":"test_phase","broad_category":"I","image_png":"I_Diorite_01.png","image_id":33,"category_name":"Diorite","category":3,"distinct_rating":2.97,"distinct_type":"Bottom","item_type":"Foil","rt":2816,"stimulus":"Stimuli_Rocks480/I_Diorite_01.png","response":"a","trial_type":"image-keyboard-response","trial_index":225,"plugin_version":"2.1.0","time_elapsed":528381,"subject_id":"86880","group":"Group1","full_date":"2025-11-09T07:34:02.720Z","date":"2025-11-09","time":"07:34:02","cor_ans":true},{"trial_type":"html-keyboard-response","rt":null,"stimulus":"<p style=\"color: green; font-size: 50px; font-weight: bold;\">Correct</p>","response":null,"trial_index":226,"plugin_version":"2.1.0","time_elapsed":528883,"subject_id":"86880","group":"Group1","full_date":"2025-11-09T07:34:02.720Z","date":"2025-11-09","time":"07:34:02"},{"correct_response":"l","task":"test_phase","broad_category":"M","image_png":"M_Gneiss_05.png","image_id":197,"category_name":"Gneiss","category":13,"distinct_rating":2.97,"distinct_type":"Bottom","item_type":"Target","rt":1623,"stimulus":"Stimuli_Rocks480/M_Gneiss_05.png","response":"a","trial_type":"image-keyboard-response","trial_index":227,"plugin_version":"2.1.0","time_elapsed":530509,"subject_id":"86880","group":"Group1","full_date":"2025-11-09T07:34:02.720Z","date":"2025-11-09","time":"07:34:02","cor_ans":false},{"trial_type":"html-keyboard-response","rt":null,"stimulus":"<p style=\"color: red; font-size: 50px; font-weight: bold;\">Incorrect</p>","response":null,"trial_index":228,"plugin_version":"2.1.0","time_elapsed":531011,"subject_id":"86880","group":"Group1","full_date":"2025-11-09T07:34:02.720Z","date":"2025-11-09","time":"07:34:02"},{"correct_response":"l","task":"test_phase","broad_category":"M","image_png":"M_Slate_11.png","image_id":315,"category_name":"Slate","category":20,"distinct_rating":2.75,"distinct_type":"Bottom","item_type":"Target","rt":890,"stimulus":"Stimuli_Rocks480/M_Slate_11.png","response":"l","trial_type":"image-keyboard-response","trial_index":229,"plugin_version":"2.1.0","time_elapsed":531904,"subject_id":"86880","group":"Group1","full_date":"2025-11-09T07:34:02.720Z","date":"2025-11-09","time":"07:34:02","cor_ans":true},{"trial_type":"html-keyboard-response","rt":null,"stimulus":"<p style=\"color: green; font-size: 50px; font-weight: bold;\">Correct</p>","response":null,"trial_index":230,"plugin_version":"2.1.0","time_elapsed":532406,"subject_id":"86880","group":"Group1","full_date":"2025-11-09T07:34:02.720Z","date":"2025-11-09","time":"07:34:02"},{"correct_response":"a","task":"test_phase","broad_category":"I","image_png":"I_Rhyolite_05.png","image_id":149,"category_name":"Rhyolite","category":10,"distinct_rating":3.02,"distinct_type":"Bottom","item_type":"Foil","rt":820,"stimulus":"Stimuli_Rocks480/I_Rhyolite_05.png","response":"l","trial_type":"image-keyboard-response","trial_index":231,"plugin_version":"2.1.0","time_elapsed":533229,"subject_id":"86880","group":"Group1","full_date":"2025-11-09T07:34:02.720Z","date":"2025-11-09","time":"07:34:02","cor_ans":false},{"trial_type":"html-keyboard-response","rt":null,"stimulus":"<p style=\"color: red; font-size: 50px; font-weight: bold;\">Incorrect</p>","response":null,"trial_index":232,"plugin_version":"2.1.0","time_elapsed":533731,"subject_id":"86880","group":"Group1","full_date":"2025-11-09T07:34:02.720Z","date":"2025-11-09","time":"07:34:02"},{"correct_response":"a","task":"test_phase","broad_category":"S","image_png":"S_Sandstone_08.png","image_id":456,"category_name":"Sandstone","category":29,"distinct_rating":1.5,"distinct_type":"Bottom","item_type":"Foil","rt":1257,"stimulus":"Stimuli_Rocks480/S_Sandstone_08.png","response":"a","trial_type":"image-keyboard-response","trial_index":233,"plugin_version":"2.1.0","time_elapsed":534990,"subject_id":"86880","group":"Group1","full_date":"2025-11-09T07:34:02.720Z","date":"2025-11-09","time":"07:34:02","cor_ans":true},{"trial_type":"html-keyboard-response","rt":null,"stimulus":"<p style=\"color: green; font-size: 50px; font-weight: bold;\">Correct</p>","response":null,"trial_index":234,"plugin_version":"2.1.0","time_elapsed":535492,"subject_id":"86880","group":"Group1","full_date":"2025-11-09T07:34:02.720Z","date":"2025-11-09","time":"07:34:02"},{"correct_response":"a","task":"test_phase","broad_category":"S","image_png":"S_Shale_02.png","image_id":466,"category_name":"Shale","category":30,"distinct_rating":2.9,"distinct_type":"Bottom","item_type":"Foil","rt":2455,"stimulus":"Stimuli_Rocks480/S_Shale_02.png","response":"a","trial_type":"image-keyboard-response","trial_index":235,"plugin_version":"2.1.0","time_elapsed":537950,"subject_id":"86880","group":"Group1","full_date":"2025-11-09T07:34:02.720Z","date":"2025-11-09","time":"07:34:02","cor