[{"width":1454,"height":731,"webaudio":true,"browser":"chrome","browser_version":"144.0.0","mobile":false,"os":"Mac OS","fullscreen":true,"vsync_rate":59.99,"webcam":true,"microphone":true,"trial_type":"browser-check","trial_index":0,"plugin_version":"2.1.0","time_elapsed":1014,"subject_id":"91854","group":"Group1","condition":"3_Rep","full_date":"2026-02-01T22:28:52.082Z","date":"2026-02-01","time":"22:28:52"},{"success":true,"timeout":false,"failed_images":[],"failed_audio":[],"failed_video":[],"trial_type":"preload","trial_index":1,"plugin_version":"2.1.0","time_elapsed":8466,"subject_id":"91854","group":"Group1","condition":"3_Rep","full_date":"2026-02-01T22:28:52.082Z","date":"2026-02-01","time":"22:28:52"},{"rt":38746,"url":"SONA_consent_memorability.html","trial_type":"external-html","trial_index":2,"plugin_version":"2.1.0","time_elapsed":47262,"subject_id":"91854","group":"Group1","condition":"3_Rep","full_date":"2026-02-01T22:28:52.082Z","date":"2026-02-01","time":"22:28:52"},{"success":true,"rt":4879,"trial_type":"fullscreen","trial_index":3,"plugin_version":"2.1.0","time_elapsed":53147,"subject_id":"91854","group":"Group1","condition":"3_Rep","full_date":"2026-02-01T22:28:52.082Z","date":"2026-02-01","time":"22:28:52"},{"rt":43376,"stimulus":"<div style=\"max-width: 760px; margin: auto; font-size: 20px; line-height: 1.5;\">\n      <h1 style=\"text-align:center; font-size: 30px;\">Instructions</h1>\n      <p>\n        Welcome to the study on <b>visual memory</b>. This experiment consists of <b>two phases</b>: \n        a <b>study phase</b> and a <b>test phase</b>.\n      </p>\n      <p>\n        In the study phase, you will see a series of rock images along with their category labels.\n        The images will appear one at a time.\n        <b>Your task</b> is to learn the categories to which the rock images belong \n        and to remember each image as accurately as possible.\n      </p> \n      <p>\n        Note that we will repeat the study phase <b>3 times</b>, \n             so you will have multiple opportunities to see and remember each image.\n      </p>\n      <p>\n        After the study phase, <b>your memory will be tested</b>. \n        Additional instructions for the test phase will be provided at that time.\n      </p>\n      <p>\n        If your computer has multiple <b>language settings</b> (e.g., English and another language),\n        please make sure it is set to English before starting.\n      </p>\n      <p>\n        You can track your progress using the <b>completion bar</b> at the top of the screen. \n        Please note that the bar will refresh when the test phase begins \n        to give you an accurate sense of your progress in both phases.\n      </p> \n      <p>\n        Press the button below when you are ready to begin.\n      </p>\n    </div>","response":0,"trial_type":"html-button-response","trial_index":4,"plugin_version":"2.1.0","time_elapsed":96527,"subject_id":"91854","group":"Group1","condition":"3_Rep","full_date":"2026-02-01T22:28:52.082Z","date":"2026-02-01","time":"22:28:52"},{"rt":null,"stimulus":"<p style=\"font-size: 50px; margin: 0; text-align: center;\">+</p>","response":null,"trial_type":"html-keyboard-response","trial_index":5,"plugin_version":"2.1.0","time_elapsed":97532,"subject_id":"91854","group":"Group1","condition":"3_Rep","full_date":"2026-02-01T22:28:52.082Z","date":"2026-02-01","time":"22:28:52"},{"task":"memory_phase","broad_category":"I","image_png":"I_Pegmatite_10.png","image_id":106,"category_name":"Pegmatite","category":7,"distinct_rating":7.66,"distinct_type":"Top","rt":null,"stimulus":"Stimuli_Rocks480/I_Pegmatite_10.png","response":null,"trial_type":"image-keyboard-response","trial_index":6,"plugin_version":"2.1.0","time_elapsed":100041,"subject_id":"91854","group":"Group1","condition":"3_Rep","full_date":"2026-02-01T22:28:52.082Z","date":"2026-02-01","time":"22:28:52"},{"rt":null,"stimulus":"<p style=\"font-size: 50px; margin: 0; text-align: center;\">+</p>","response":null,"trial_type":"html-keyboard-response","trial_index":7,"plugin_version":"2.1.0","time_elapsed":101043,"subject_id":"91854","group":"Group1","condition":"3_Rep","full_date":"2026-02-01T22:28:52.082Z","date":"2026-02-01","time":"22:28:52"},{"task":"memory_phase","broad_category":"M","image_png":"M_Phyllite_10.png","image_id":266,"category_name":"Phyllite","category":17,"distinct_rating":2.6,"distinct_type":"Bottom","rt":null,"stimulus":"Stimuli_Rocks480/M_Phyllite_10.png","response":null,"trial_type":"image-keyboard-response","trial_index":8,"plugin_version":"2.1.0","time_elapsed":103548,"subject_id":"91854","group":"Group1","condition":"3_Rep","full_date":"2026-02-01T22:28:52.082Z","date":"2026-02-01","time":"22:28:52"},{"rt":null,"stimulus":"<p style=\"font-size: 50px; margin: 0; text-align: center;\">+</p>","response":null,"trial_type":"html-keyboard-response","trial_index":9,"plugin_version":"2.1.0","time_elapsed":104552,"subject_id":"91854","group":"Group1","condition":"3_Rep","full_date":"2026-02-01T22:28:52.082Z","date":"2026-02-01","time":"22:28:52"},{"task":"memory_phase","broad_category":"I","image_png":"I_Pegmatite_16.png","image_id":112,"category_name":"Pegmatite","category":7,"distinct_rating":7.03,"distinct_type":"Top","rt":null,"stimulus":"Stimuli_Rocks480/I_Pegmatite_16.png","response":null,"trial_type":"image-keyboard-response","trial_index":10,"plugin_version":"2.1.0","time_elapsed":107056,"subject_id":"91854","group":"Group1","condition":"3_Rep","full_date":"2026-02-01T22:28:52.082Z","date":"2026-02-01","time":"22:28:52"},{"rt":null,"stimulus":"<p style=\"font-size: 50px; margin: 0; text-align: center;\">+</p>","response":null,"trial_type":"html-keyboard-response","trial_index":11,"plugin_version":"2.1.0","time_elapsed":108059,"subject_id":"91854","group":"Group1","condition":"3_Rep","full_date":"2026-02-01T22:28:52.082Z","date":"2026-02-01","time":"22:28:52"},{"task":"memory_phase","broad_category":"S","image_png":"S_Dolomite_12.png","image_id":396,"category_name":"Dolomite","category":25,"distinct_rating":1.85,"distinct_type":"Bottom","rt":null,"stimulus":"Stimuli_Rocks480/S_Dolomite_12.png","response":null,"trial_type":"image-keyboard-response","trial_index":12,"plugin_version":"2.1.0","time_elapsed":110563,"subject_id":"91854","group":"Group1","condition":"3_Rep","full_date":"2026-02-01T22:28:52.082Z","date":"2026-02-01","time":"22:28:52"},{"rt":null,"stimulus":"<p style=\"font-size: 50px; margin: 0; text-align: center;\">+</p>","response":null,"trial_type":"html-keyboard-response","trial_index":13,"plugin_version":"2.1.0","time_elapsed":111566,"subject_id":"91854","group":"Group1","condition":"3_Rep","full_date":"2026-02-01T22:28:52.082Z","date":"2026-02-01","time":"22:28:52"},{"task":"memory_phase","broad_category":"M","image_png":"M_Phyllite_03.png","image_id":259,"category_name":"Phyllite","category":17,"distinct_rating":2.5,"distinct_type":"Bottom","rt":null,"stimulus":"Stimuli_Rocks480/M_Phyllite_03.png","response":null,"trial_type":"image-keyboard-response","trial_index":14,"plugin_version":"2.1.0","time_elapsed":114070,"subject_id":"91854","group":"Group1","condition":"3_Rep","full_date":"2026-02-01T22:28:52.082Z","date":"2026-02-01","time":"22:28:52"},{"rt":null,"stimulus":"<p style=\"font-size: 50px; margin: 0; text-align: center;\">+</p>","response":null,"trial_type":"html-keyboard-response","trial_index":15,"plugin_version":"2.1.0","time_elapsed":115073,"subject_id":"91854","group":"Group1","condition":"3_Rep","full_date":"2026-02-01T22:28:52.082Z","date":"2026-02-01","time":"22:28:52"},{"task":"memory_phase","broad_category":"I","image_png":"I_Andesite_10.png","image_id":10,"category_name":"Andesite","category":1,"distinct_rating":3.15,"distinct_type":"Bottom","rt":null,"stimulus":"Stimuli_Rocks480/I_Andesite_10.png","response":null,"trial_type":"image-keyboard-response","trial_index":16,"plugin_version":"2.1.0","time_elapsed":117576,"subject_id":"91854","group":"Group1","condition":"3_Rep","full_date":"2026-02-01T22:28:52.082Z","date":"2026-02-01","time":"22:28:52"},{"rt":null,"stimulus":"<p style=\"font-size: 50px; margin: 0; text-align: center;\">+</p>","response":null,"trial_type":"html-keyboard-response","trial_index":17,"plugin_version":"2.1.0","time_elapsed":118579,"subject_id":"91854","group":"Group1","condition":"3_Rep","full_date":"2026-02-01T22:28:52.082Z","date":"2026-02-01","time":"22:28:52"},{"task":"memory_phase","broad_category":"S","image_png":"S_Sandstone_03.png","image_id":451,"category_name":"Sandstone","category":29,"distinct_rating":1.86,"distinct_type":"Bottom","rt":null,"stimulus":"Stimuli_Rocks480/S_Sandstone_03.png","response":null,"trial_type":"image-keyboard-response","trial_index":18,"plugin_version":"2.1.0","time_elapsed":121083,"subject_id":"91854","group":"Group1","condition":"3_Rep","full_date":"2026-02-01T22:28:52.082Z","date":"2026-02-01","time":"22:28:52"},{"rt":null,"stimulus":"<p style=\"font-size: 50px; margin: 0; text-align: center;\">+</p>","response":null,"trial_type":"html-keyboard-response","trial_index":19,"plugin_version":"2.1.0","time_elapsed":122086,"subject_id":"91854","group":"Group1","condition":"3_Rep","full_date":"2026-02-01T22:28:52.082Z","date":"2026-02-01","time":"22:28:52"},{"task":"memory_phase","broad_category":"I","image_png":"I_Andesite_06.png","image_id":6,"category_name":"Andesite","category":1,"distinct_rating":3.17,"distinct_type":"Bottom","rt":null,"stimulus":"Stimuli_Rocks480/I_Andesite_06.png","response":null,"trial_type":"image-keyboard-response","trial_index":20,"plugin_version":"2.1.0","time_elapsed":124590,"subject_id":"91854","group":"Group1","condition":"3_Rep","full_date":"2026-02-01T22:28:52.082Z","date":"2026-02-01","time":"22:28:52"},{"rt":null,"stimulus":"<p style=\"font-size: 50px; margin: 0; text-align: center;\">+</p>","response":null,"trial_type":"html-keyboard-response","trial_index":21,"plugin_version":"2.1.0","time_elapsed":125593,"subject_id":"91854","group":"Group1","condition":"3_Rep","full_date":"2026-02-01T22:28:52.082Z","date":"2026-02-01","time":"22:28:52"},{"task":"memory_phase","broad_category":"M","image_png":"M_Quartzite_13.png","image_id":285,"category_name":"Quartzite","category":18,"distinct_rating":2.27,"distinct_type":"Bottom","rt":null,"stimulus":"Stimuli_Rocks480/M_Quartzite_13.png","response":null,"trial_type":"image-keyboard-response","trial_index":22,"plugin_version":"2.1.0","time_elapsed":128097,"subject_id":"91854","group":"Group1","condition":"3_Rep","full_date":"2026-02-01T22:28:52.082Z","date":"2026-02-01","time":"22:28:52"},{"rt":null,"stimulus":"<p style=\"font-size: 50px; margin: 0; text-align: center;\">+</p>","response":null,"trial_type":"html-keyboard-response","trial_index":23,"plugin_version":"2.1.0","time_elapsed":129099,"subject_id":"91854","group":"Group1","condition":"3_Rep","full_date":"2026-02-01T22:28:52.082Z","date":"2026-02-01","time":"22:28:52"},{"task":"memory_phase","broad_category":"M","image_png":"M_Quartzite_05.png","image_id":277,"category_name":"Quartzite","category":18,"distinct_rating":2.23,"distinct_type":"Bottom","rt":null,"stimulus":"Stimuli_Rocks480/M_Quartzite_05.png","response":null,"trial_type":"image-keyboard-response","trial_index":24,"plugin_version":"2.1.0","time_elapsed":131604,"subject_id":"91854","group":"Group1","condition":"3_Rep","full_date":"2026-02-01T22:28:52.082Z","date":"2026-02-01","time":"22:28:52"},{"rt":null,"stimulus":"<p style=\"font-size: 50px; margin: 0; text-align: center;\">+</p>","response":null,"trial_type":"html-keyboard-response","trial_index":25,"plugin_version":"2.1.0","time_elapsed":132607,"subject_id":"91854","group":"Group1","condition":"3_Rep","full_date":"2026-02-01T22:28:52.082Z","date":"2026-02-01","time":"22:28:52"},{"task":"memory_phase","broad_category":"S","image_png":"S_Sandstone_15.png","image_id":463,"category_name":"Sandstone","category":29,"distinct_rating":2,"distinct_type":"Bottom","rt":null,"stimulus":"Stimuli_Rocks480/S_Sandstone_15.png","response":null,"trial_type":"image-keyboard-response","trial_index":26,"plugin_version":"2.1.0","time_elapsed":135110,"subject_id":"91854","group":"Group1","condition":"3_Rep","full_date":"2026-02-01T22:28:52.082Z","date":"2026-02-01","time":"22:28:52"},{"rt":null,"stimulus":"<p style=\"font-size: 50px; margin: 0; text-align: center;\">+</p>","response":null,"trial_type":"html-keyboard-response","trial_index":27,"plugin_version":"2.1.0","time_elapsed":136112,"subject_id":"91854","group":"Group1","condition":"3_Rep","full_date":"2026-02-01T22:28:52.082Z","date":"2026-02-01","time":"22:28:52"},{"task":"memory_phase","broad_category":"M","image_png":"M_Marble_04.png","image_id":228,"category_name":"Marble","category":15,"distinct_rating":3.15,"distinct_type":"Bottom","rt":null,"stimulus":"Stimuli_Rocks480/M_Marble_04.png","response":null,"trial_type":"image-keyboard-response","trial_index":28,"plugin_version":"2.1.0","time_elapsed":138616,"subject_id":"91854","group":"Group1","condition":"3_Rep","full_date":"2026-02-01T22:28:52.082Z","date":"2026-02-01","time":"22:28:52"},{"rt":null,"stimulus":"<p style=\"font-size: 50px; margin: 0; text-align: center;\">+</p>","response":null,"trial_type":"html-keyboard-response","trial_index":29,"plugin_version":"2.1.0","time_elapsed":139619,"subject_id":"91854","group":"Group1","condition":"3_Rep","full_date":"2026-02-01T22:28:52.082Z","date":"2026-02-01","time":"22:28:52"},{"task":"memory_phase","broad_category":"I","image_png":"I_Andesite_08.png","image_id":8,"category_name":"Andesite","category":1,"distinct_rating":1.95,"distinct_type":"Bottom","rt":null,"stimulus":"Stimuli_Rocks480/I_Andesite_08.png","response":null,"trial_type":"image-keyboard-response","trial_index":30,"plugin_version":"2.1.0","time_elapsed":142123,"subject_id":"91854","group":"Group1","condition":"3_Rep","full_date":"2026-02-01T22:28:52.082Z","date":"2026-02-01","time":"22:28:52"},{"rt":null,"stimulus":"<p style=\"font-size: 50px; margin: 0; text-align: center;\">+</p>","response":null,"trial_type":"html-keyboard-response","trial_index":31,"plugin_version":"2.1.0","time_elapsed":143125,"subject_id":"91854","group":"Group1","condition":"3_Rep","full_date":"2026-02-01T22:28:52.082Z","date":"2026-02-01","time":"22:28:52"},{"task":"memory_phase","broad_category":"S","image_png":"S_Sandstone_16.png","image_id":464,"category_name":"Sandstone","category":29,"distinct_rating":1.93,"distinct_type":"Bottom","rt":null,"stimulus":"Stimuli_Rocks480/S_Sandstone_16.png","response":null,"trial_type":"image-keyboard-response","trial_index":32,"plugin_version":"2.1.0","time_elapsed":145629,"subject_id":"91854","group":"Group1","condition":"3_Rep","full_date":"2026-02-01T22:28:52.082Z","date":"2026-02-01","time":"22:28:52"},{"rt":null,"stimulus":"<p style=\"font-size: 50px; margin: 0; text-align: center;\">+</p>","response":null,"trial_type":"html-keyboard-response","trial_index":33,"plugin_version":"2.1.0","time_elapsed":146632,"subject_id":"91854","group":"Group1","condition":"3_Rep","full_date":"2026-02-01T22:28:52.082Z","date":"2026-02-01","time":"22:28:52"},{"task":"memory_phase","broad_category":"M","image_png":"M_Slate_11.png","image_id":315,"category_name":"Slate","category":20,"distinct_rating":2.75,"distinct_type":"Bottom","rt":null,"stimulus":"Stimuli_Rocks480/M_Slate_11.png","response":null,"trial_type":"image-keyboard-response","trial_index":34,"plugin_version":"2.1.0","time_elapsed":149135,"subject_id":"91854","group":"Group1","condition":"3_Rep","full_date":"2026-02-01T22:28:52.082Z","date":"2026-02-01","time":"22:28:52"},{"rt":null,"stimulus":"<p style=\"font-size: 50px; margin: 0; text-align: center;\">+</p>","response":null,"trial_type":"html-keyboard-response","trial_index":35,"plugin_version":"2.1.0","time_elapsed":150137,"subject_id":"91854","group":"Group1","condition":"3_Rep","full_date":"2026-02-01T22:28:52.082Z","date":"2026-02-01","time":"22:28:52"},{"task":"memory_phase","broad_category":"S","image_png":"S_Conglomerate_05.png","image_id":373,"category_name":"Conglomerate","category":24,"distinct_rating":7.32,"distinct_type":"Top","rt":null,"stimulus":"Stimuli_Rocks480/S_Conglomerate_05.png","response":null,"trial_type":"image-keyboard-response","trial_index":36,"plugin_version":"2.1.0","time_elapsed":152641,"subject_id":"91854","group":"Group1","condition":"3_Rep","full_date":"2026-02-01T22:28:52.082Z","date":"2026-02-01","time":"22:28:52"},{"rt":null,"stimulus":"<p style=\"font-size: 50px; margin: 0; text-align: center;\">+</p>","response":null,"trial_type":"html-keyboard-response","trial_index":37,"plugin_version":"2.1.0","time_elapsed":153644,"subject_id":"91854","group":"Group1","condition":"3_Rep","full_date":"2026-02-01T22:28:52.082Z","date":"2026-02-01","time":"22:28:52"},{"task":"memory_phase","broad_category":"I","image_png":"I_Gabbro_16.png","image_id":64,"category_name":"Gabbro","category":4,"distinct_rating":2.52,"distinct_type":"Bottom","rt":null,"stimulus":"Stimuli_Rocks480/I_Gabbro_16.png","response":null,"trial_type":"image-keyboard-response","trial_index":38,"plugin_version":"2.1.0","time_elapsed":156148,"subject_id":"91854","group":"Group1","condition":"3_Rep","full_date":"2026-02-01T22:28:52.082Z","date":"2026-02-01","time":"22:28:52"},{"rt":null,"stimulus":"<p style=\"font-size: 50px; margin: 0; text-align: center;\">+</p>","response":null,"trial_type":"html-keyboard-response","trial_index":39,"plugin_version":"2.1.0","time_elapsed":157150,"subject_id":"91854","group":"Group1","condition":"3_Rep","full_date":"2026-02-01T22:28:52.082Z","date":"2026-02-01","time":"22:28:52"},{"task":"memory_phase","broad_category":"S","image_png":"S_Shale_08.png","image_id":472,"category_name":"Shale","category":30,"distinct_rating":2.55,"distinct_type":"Bottom","rt":null,"stimulus":"Stimuli_Rocks480/S_Shale_08.png","response":null,"trial_type":"image-keyboard-response","trial_index":40,"plugin_version":"2.1.0","time_elapsed":159654,"subject_id":"91854","group":"Group1","condition":"3_Rep","full_date":"2026-02-01T22:28:52.082Z","date":"2026-02-01","time":"22:28:52"},{"rt":null,"stimulus":"<p style=\"font-size: 50px; margin: 0; text-align: center;\">+</p>","response":null,"trial_type":"html-keyboard-response","trial_index":41,"plugin_version":"2.1.0","time_elapsed":160656,"subject_id":"91854","group":"Group1","condition":"3_Rep","full_date":"2026-02-01T22:28:52.082Z","date":"2026-02-01","time":"22:28:52"},{"task":"memory_phase","broad_category":"S","image_png":"S_Shale_01.png","image_id":465,"category_name":"Shale","category":30,"distinct_rating":2.7,"distinct_type":"Bottom","rt":null,"stimulus":"Stimuli_Rocks480/S_Shale_01.png","response":null,"trial_type":"image-keyboard-response","trial_index":42,"plugin_version":"2.1.0","time_elapsed":163160,"subject_id":"91854","group":"Group1","condition":"3_Rep","full_date":"2026-02-01T22:28:52.082Z","date":"2026-02-01","time":"22:28:52"},{"rt":null,"stimulus":"<p style=\"font-size: 50px; margin: 0; text-align: center;\">+</p>","response":null,"trial_type":"html-keyboard-response","trial_index":43,"plugin_version":"2.1.0","time_elapsed":164163,"subject_id":"91854","group":"Group1","condition":"3_Rep","full_date":"2026-02-01T22:28:52.082Z","date":"2026-02-01","time":"22:28:52"},{"task":"memory_phase","broad_category":"S","image_png":"S_Rock Salt_01.png","image_id":433,"category_name":"Rock Salt","category":28,"distinct_rating":7.18,"distinct_type":"Top","rt":null,"stimulus":"Stimuli_Rocks480/S_Rock Salt_01.png","response":null,"trial_type":"image-keyboard-response","trial_index":44,"plugin_version":"2.1.0","time_elapsed":166667,"subject_id":"91854","group":"Group1","condition":"3_Rep","full_date":"2026-02-01T22:28:52.082Z","date":"2026-02-01","time":"22:28:52"},{"rt":null,"stimulus":"<p style=\"font-size: 50px; margin: 0; text-align: center;\">+</p>","response":null,"trial_type":"html-keyboard-response","trial_index":45,"plugin_version":"2.1.0","time_elapsed":167669,"subject_id":"91854","group":"Group1","condition":"3_Rep","full_date":"2026-02-01T22:28:52.082Z","date":"2026-02-01","time":"22:28:52"},{"task":"memory_phase","broad_category":"S","image_png":"S_Breccia_11.png","image_id":347,"category_name":"Breccia","category":22,"distinct_rating":6.7,"distinct_type":"Top","rt":null,"stimulus":"Stimuli_Rocks480/S_Breccia_11.png","response":null,"trial_type":"image-keyboard-response","trial_index":46,"plugin_version":"2.1.0","time_elapsed":170173,"subject_id":"91854","group":"Group1","condition":"3_Rep","full_date":"2026-02-01T22:28:52.082Z","date":"2026-02-01","time":"22:28:52"},{"rt":null,"stimulus":"<p style=\"font-size: 50px; margin: 0; text-align: center;\">+</p>","response":null,"trial_type":"html-keyboard-response","trial_index":47,"plugin_version":"2.1.0","time_elapsed":171175,"subject_id":"91854","group":"Group1","condition":"3_Rep","full_date":"2026-02-01T22:28:52.082Z","date":"2026-02-01","time":"22:28:52"},{"task":"memory_phase","broad_category":"S","image_png":"S_Dolomite_13.png","image_id":397,"category_name":"Dolomite","category":25,"distinct_rating":1.77,"distinct_type":"Bottom","rt":null,"stimulus":"Stimuli_Rocks480/S_Dolomite_13.png","response":null,"trial_type":"image-keyboard-response","trial_index":48,"plugin_version":"2.1.0","time_elapsed":173679,"subject_id":"91854","group":"Group1","condition":"3_Rep","full_date":"2026-02-01T22:28:52.082Z","date":"2026-02-01","time":"22:28:52"},{"rt":null,"stimulus":"<p style=\"font-size: 50px; margin: 0; text-align: center;\">+</p>","response":null,"trial_type":"html-keyboard-response","trial_index":49,"plugin_version":"2.1.0","time_elapsed":174683,"subject_id":"91854","group":"Group1","condition":"3_Rep","full_date":"2026-02-01T22:28:52.082Z","date":"2026-02-01","time":"22:28:52"},{"task":"memory_phase","broad_category":"S","image_png":"S_Dolomite_14.png","image_id":398,"category_name":"Dolomite","category":25,"distinct_rating":1.43,"distinct_type":"Bottom","rt":null,"stimulus":"Stimuli_Rocks480/S_Dolomite_14.png","response":null,"trial_type":"image-keyboard-response","trial_index":50,"plugin_version":"2.1.0","time_elapsed":177188,"subject_id":"91854","group":"Group1","condition":"3_Rep","full_date":"2026-02-01T22:28:52.082Z","date":"2026-02-01","time":"22:28:52"},{"rt":null,"stimulus":"<p style=\"font-size: 50px; margin: 0; text-align: center;\">+</p>","response":null,"trial_type":"html-keyboard-response","trial_index":51,"plugin_version":"2.1.0","time_elapsed":178190,"subject_id":"91854","group":"Group1","condition":"3_Rep","full_date":"2026-02-01T22:28:52.082Z","date":"2026-02-01","time":"22:28:52"},{"task":"memory_phase","broad_category":"I","image_png":"I_Gabbro_11.png","image_id":59,"category_name":"Gabbro","category":4,"distinct_rating":1.99,"distinct_type":"Bottom","rt":null,"stimulus":"Stimuli_Rocks480/I_Gabbro_11.png","response":null,"trial_type":"image-keyboard-response","trial_index":52,"plugin_version":"2.1.0","time_elapsed":180694,"subject_id":"91854","group":"Group1","condition":"3_Rep","full_date":"2026-02-01T22:28:52.082Z","date":"2026-02-01","time":"22:28:52"},{"rt":null,"stimulus":"<p style=\"font-size: 50px; margin: 0; text-align: center;\">+</p>","response":null,"trial_type":"html-keyboard-response","trial_index":53,"plugin_version":"2.1.0","time_elapsed":181697,"subject_id":"91854","group":"Group1","condition":"3_Rep","full_date":"2026-02-01T22:28:52.082Z","date":"2026-02-01","time":"22:28:52"},{"task":"memory_phase","broad_category":"M","image_png":"M_Marble_06.png","image_id":230,"category_name":"Marble","category":15,"distinct_rating":3.4,"distinct_type":"Bottom","rt":null,"stimulus":"Stimuli_Rocks480/M_Marble_06.png","response":null,"trial_type":"image-keyboard-response","trial_index":54,"plugin_version":"2.1.0","time_elapsed":184200,"subject_id":"91854","group":"Group1","condition":"3_Rep","full_date":"2026-02-01T22:28:52.082Z","date":"2026-02-01","time":"22:28:52"},{"rt":2437,"stimulus":"<p style=\"max-width: 760px; margin: auto; font-size: 35px; line-height: 1.5;\">\n                Press SPACE to continue study phase\n              </p>","response":" ","trial_type":"html-keyboard-response","trial_index":55,"plugin_version":"2.1.0","time_elapsed":186639,"subject_id":"91854","group":"Group1","condition":"3_Rep","full_date":"2026-02-01T22:28:52.082Z","date":"2026-02-01","time":"22:28:52"},{"rt":null,"stimulus":"<p style=\"font-size: 50px; margin: 0; text-align: center;\">+</p>","response":null,"trial_type":"html-keyboard-response","trial_index":56,"plugin_version":"2.1.0","time_elapsed":187642,"subject_id":"91854","group":"Group1","condition":"3_Rep","full_date":"2026-02-01T22:28:52.082Z","date":"2026-02-01","time":"22:28:52"},{"task":"memory_phase","broad_category":"I","image_png":"I_Rhyolite_14.png","image_id":158,"category_name":"Rhyolite","category":10,"distinct_rating":2.59,"distinct_type":"Bottom","rt":null,"stimulus":"Stimuli_Rocks480/I_Rhyolite_14.png","response":null,"trial_type":"image-keyboard-response","trial_index":57,"plugin_version":"2.1.0","time_elapsed":190145,"subject_id":"91854","group":"Group1","condition":"3_Rep","full_date":"2026-02-01T22:28:52.082Z","date":"2026-02-01","time":"22:28:52"},{"rt":null,"stimulus":"<p style=\"font-size: 50px; margin: 0; text-align: center;\">+</p>","response":null,"trial_type":"html-keyboard-response","trial_index":58,"plugin_version":"2.1.0","time_elapsed":191148,"subject_id":"91854","group":"Group1","condition":"3_Rep","full_date":"2026-02-01T22:28:52.082Z","date":"2026-02-01","time":"22:28:52"},{"task":"memory_phase","broad_category":"I","image_png":"I_Pumice_11.png","image_id":139,"category_name":"Pumice","category":9,"distinct_rating":1.74,"distinct_type":"Bottom","rt":null,"stimulus":"Stimuli_Rocks480/I_Pumice_11.png","response":null,"trial_type":"image-keyboard-response","trial_index":59,"plugin_version":"2.1.0","time_elapsed":193653,"subject_id":"91854","group":"Group1","condition":"3_Rep","full_date":"2026-02-01T22:28:52.082Z","date":"2026-02-01","time":"22:28:52"},{"rt":null,"stimulus":"<p style=\"font-size: 50px; margin: 0; text-align: center;\">+</p>","response":null,"trial_type":"html-keyboard-response","trial_index":60,"plugin_version":"2.1.0","time_elapsed":194656,"subject_id":"91854","group":"Group1","condition":"3_Rep","full_date":"2026-02-01T22:28:52.082Z","date":"2026-02-01","time":"22:28:52"},{"task":"memory_phase","broad_category":"I","image_png":"I_Rhyolite_16.png","image_id":160,"category_name":"Rhyolite","category":10,"distinct_rating":2.19,"distinct_type":"Bottom","rt":null,"stimulus":"Stimuli_Rocks480/I_Rhyolite_16.png","response":null,"trial_type":"image-keyboard-response","trial_index":61,"plugin_version":"2.1.0","time_elapsed":197160,"subject_id":"91854","group":"Group1","condition":"3_Rep","full_date":"2026-02-01T22:28:52.082Z","date":"2026-02-01","time":"22:28:52"},{"rt":null,"stimulus":"<p style=\"font-size: 50px; margin: 0; text-align: center;\">+</p>","response":null,"trial_type":"html-keyboard-response","trial_index":62,"plugin_version":"2.1.0","time_elapsed":198162,"subject_id":"91854","group":"Group1","condition":"3_Rep","full_date":"2026-02-01T22:28:52.082Z","date":"2026-02-01","time":"22:28:52"},{"task":"memory_phase","broad_category":"M","image_png":"M_Slate_03.png","image_id":307,"category_name":"Slate","category":20,"distinct_rating":1.87,"distinct_type":"Bottom","rt":null,"stimulus":"Stimuli_Rocks480/M_Slate_03.png","response":null,"trial_type":"image-keyboard-response","trial_index":63,"plugin_version":"2.1.0","time_elapsed":200666,"subject_id":"91854","group":"Group1","condition":"3_Rep","full_date":"2026-02-01T22:28:52.082Z","date":"2026-02-01","time":"22:28:52"},{"rt":null,"stimulus":"<p style=\"font-size: 50px; margin: 0; text-align: center;\">+</p>","response":null,"trial_type":"html-keyboard-response","trial_index":64,"plugin_version":"2.1.0","time_elapsed":201669,"subject_id":"91854","group":"Group1","condition":"3_Rep","full_date":"2026-02-01T22:28:52.082Z","date":"2026-02-01","time":"22:28:52"},{"task":"memory_phase","broad_category":"I","image_png":"I_Diorite_04.png","image_id":36,"category_name":"Diorite","category":3,"distinct_rating":2.98,"distinct_type":"Bottom","rt":null,"stimulus":"Stimuli_Rocks480/I_Diorite_04.png","response":null,"trial_type":"image-keyboard-response","trial_index":65,"plugin_version":"2.1.0","time_elapsed":204172,"subject_id":"91854","group":"Group1","condition":"3_Rep","full_date":"2026-02-01T22:28:52.082Z","date":"2026-02-01","time":"22:28:52"},{"rt":null,"stimulus":"<p style=\"font-size: 50px; margin: 0; text-align: center;\">+</p>","response":null,"trial_type":"html-keyboard-response","trial_index":66,"plugin_version":"2.1.0","time_elapsed":205175,"subject_id":"91854","group":"Group1","condition":"3_Rep","full_date":"2026-02-01T22:28:52.082Z","date":"2026-02-01","time":"22:28:52"},{"task":"memory_phase","broad_category":"I","image_png":"I_Rhyolite_11.png","image_id":155,"category_name":"Rhyolite","category":10,"distinct_rating":1.73,"distinct_type":"Bottom","rt":null,"stimulus":"Stimuli_Rocks480/I_Rhyolite_11.png","response":null,"trial_type":"image-keyboard-response","trial_index":67,"plugin_version":"2.1.0","time_elapsed":207678,"subject_id":"91854","group":"Group1","condition":"3_Rep","full_date":"2026-02-01T22:28:52.082Z","date":"2026-02-01","time":"22:28:52"},{"rt":null,"stimulus":"<p style=\"font-size: 50px; margin: 0; text-align: center;\">+</p>","response":null,"trial_type":"html-keyboard-response","trial_index":68,"plugin_version":"2.1.0","time_elapsed":208681,"subject_id":"91854","group":"Group1","condition":"3_Rep","full_date":"2026-02-01T22:28:52.082Z","date":"2026-02-01","time":"22:28:52"},{"task":"memory_phase","broad_category":"S","image_png":"S_Shale_12.png","image_id":476,"category_name":"Shale","category":30,"distinct_rating":2.48,"distinct_type":"Bottom","rt":null,"stimulus":"Stimuli_Rocks480/S_Shale_12.png","response":null,"trial_type":"image-keyboard-response","trial_index":69,"plugin_version":"2.1.0","time_elapsed":211185,"subject_id":"91854","group":"Group1","condition":"3_Rep","full_date":"2026-02-01T22:28:52.082Z","date":"2026-02-01","time":"22:28:52"},{"rt":null,"stimulus":"<p style=\"font-size: 50px; margin: 0; text-align: center;\">+</p>","response":null,"trial_type":"html-keyboard-response","trial_index":70,"plugin_version":"2.1.0","time_elapsed":212188,"subject_id":"91854","group":"Group1","condition":"3_Rep","full_date":"2026-02-01T22:28:52.082Z","date":"2026-02-01","time":"22:28:52"},{"task":"memory_phase","broad_category":"M","image_png":"M_Phyllite_07.png","image_id":263,"category_name":"Phyllite","category":17,"distinct_rating":2.59,"distinct_type":"Bottom","rt":null,"stimulus":"Stimuli_Rocks480/M_Phyllite_07.png","response":null,"trial_type":"image-keyboard-response","trial_index":71,"plugin_version":"2.1.0","time_elapsed":214692,"subject_id":"91854","group":"Group1","condition":"3_Rep","full_date":"2026-02-01T22:28:52.082Z","date":"2026-02-01","time":"22:28:52"},{"rt":null,"stimulus":"<p style=\"font-size: 50px; margin: 0; text-align: center;\">+</p>","response":null,"trial_type":"html-keyboard-response","trial_index":72,"plugin_version":"2.1.0","time_elapsed":215695,"subject_id":"91854","group":"Group1","condition":"3_Rep","full_date":"2026-02-01T22:28:52.082Z","date":"2026-02-01","time":"22:28:52"},{"task":"memory_phase","broad_category":"I","image_png":"I_Pumice_08.png","image_id":136,"category_name":"Pumice","category":9,"distinct_rating":3.1,"distinct_type":"Bottom","rt":null,"stimulus":"Stimuli_Rocks480/I_Pumice_08.png","response":null,"trial_type":"image-keyboard-response","trial_index":73,"plugin_version":"2.1.0","time_elapsed":218198,"subject_id":"91854","group":"Group1","condition":"3_Rep","full_date":"2026-02-01T22:28:52.082Z","date":"2026-02-01","time":"22:28:52"},{"rt":null,"stimulus":"<p style=\"font-size: 50px; margin: 0; text-align: center;\">+</p>","response":null,"trial_type":"html-keyboard-response","trial_index":74,"plugin_version":"2.1.0","time_elapsed":219201,"subject_id":"91854","group":"Group1","condition":"3_Rep","full_date":"2026-02-01T22:28:52.082Z","date":"2026-02-01","time":"22:28:52"},{"task":"memory_phase","broad_category":"M","image_png":"M_Gneiss_06.png","image_id":198,"category_name":"Gneiss","category":13,"distinct_rating":2.65,"distinct_type":"Bottom","rt":null,"stimulus":"Stimuli_Rocks480/M_Gneiss_06.png","response":null,"trial_type":"image-keyboard-response","trial_index":75,"plugin_version":"2.1.0","time_elapsed":221705,"subject_id":"91854","group":"Group1","condition":"3_Rep","full_date":"2026-02-01T22:28:52.082Z","date":"2026-02-01","time":"22:28:52"},{"rt":null,"stimulus":"<p style=\"font-size: 50px; margin: 0; text-align: center;\">+</p>","response":null,"trial_type":"html-keyboard-response","trial_index":76,"plugin_version":"2.1.0","time_elapsed":222710,"subject_id":"91854","group":"Group1","condition":"3_Rep","full_date":"2026-02-01T22:28:52.082Z","date":"2026-02-01","time":"22:28:52"},{"task":"memory_phase","broad_category":"I","image_png":"I_Basalt_09.png","image_id":25,"category_name":"Basalt","category":2,"distinct_rating":1.89,"distinct_type":"Bottom","rt":null,"stimulus":"Stimuli_Rocks480/I_Basalt_09.png","response":null,"trial_type":"image-keyboard-response","trial_index":77,"plugin_version":"2.1.0","time_elapsed":225214,"subject_id":"91854","group":"Group1","condition":"3_Rep","full_date":"2026-02-01T22:28:52.082Z","date":"2026-02-01","time":"22:28:52"},{"rt":null,"stimulus":"<p style=\"font-size: 50px; margin: 0; text-align: center;\">+</p>","response":null,"trial_type":"html-keyboard-response","trial_index":78,"plugin_version":"2.1.0","time_elapsed":226217,"subject_id":"91854","group":"Group1","condition":"3_Rep","full_date":"2026-02-01T22:28:52.082Z","date":"2026-02-01","time":"22:28:52"},{"task":"memory_phase","broad_category":"I","image_png":"I_Diorite_05.png","image_id":37,"category_name":"Diorite","category":3,"distinct_rating":3.08,"distinct_type":"Bottom","rt":null,"stimulus":"Stimuli_Rocks480/I_Diorite_05.png","response":null,"trial_type":"image-keyboard-response","trial_index":79,"plugin_version":"2.1.0","time_elapsed":228720,"subject_id":"91854","group":"Group1","condition":"3_Rep","full_date":"2026-02-01T22:28:52.082Z","date":"2026-02-01","time":"22:28:52"},{"rt":null,"stimulus":"<p style=\"font-size: 50px; margin: 0; text-align: center;\">+</p>","response":null,"trial_type":"html-keyboard-response","trial_index":80,"plugin_version":"2.1.0","time_elapsed":229723,"subject_id":"91854","group":"Group1","condition":"3_Rep","full_date":"2026-02-01T22:28:52.082Z","date":"2026-02-01","time":"22:28:52"},{"task":"memory_phase","broad_category":"I","image_png":"I_Diorite_03.png","image_id":35,"category_name":"Diorite","category":3,"distinct_rating":3.14,"distinct_type":"Bottom","rt":null,"stimulus":"Stimuli_Rocks480/I_Diorite_03.png","response":null,"trial_type":"image-keyboard-response","trial_index":81,"plugin_version":"2.1.0","time_elapsed":232227,"subject_id":"91854","group":"Group1","condition":"3_Rep","full_date":"2026-02-01T22:28:52.082Z","date":"2026-02-01","time":"22:28:52"},{"rt":null,"stimulus":"<p style=\"font-size: 50px; margin: 0; text-align: center;\">+</p>","response":null,"trial_type":"html-keyboard-response","trial_index":82,"plugin_version":"2.1.0","time_elapsed":233229,"subject_id":"91854","group":"Group1","condition":"3_Rep","full_date":"2026-02-01T22:28:52.082Z","date":"2026-02-01","time":"22:28:52"},{"task":"memory_phase","broad_category":"S","image_png":"S_Rock Gypsum_04.png","image_id":420,"category_name":"Rock Gypsum","category":27,"distinct_rating":7.61,"distinct_type":"Top","rt":null,"stimulus":"Stimuli_Rocks480/S_Rock Gypsum_04.png","response":null,"trial_type":"image-keyboard-response","trial_index":83,"plugin_version":"2.1.0","time_elapsed":235732,"subject_id":"91854","group":"Group1","condition":"3_Rep","full_date":"2026-02-01T22:28:52.082Z","date":"2026-02-01","time":"22:28:52"},{"rt":null,"stimulus":"<p style=\"font-size: 50px; margin: 0; text-align: center;\">+</p>","response":null,"trial_type":"html-keyboard-response","trial_index":84,"plugin_version":"2.1.0","time_elapsed":236736,"subject_id":"91854","group":"Group1","condition":"3_Rep","full_date":"2026-02-01T22:28:52.082Z","date":"2026-02-01","time":"22:28:52"},{"task":"memory_phase","broad_category":"M","image_png":"M_Gneiss_13.png","image_id":205,"category_name":"Gneiss","category":13,"distinct_rating":3.26,"distinct_type":"Bottom","rt":null,"stimulus":"Stimuli_Rocks480/M_Gneiss_13.png","response":null,"trial_type":"image-keyboard-response","trial_index":85,"plugin_version":"2.1.0","time_elapsed":239239,"subject_id":"91854","group":"Group1","condition":"3_Rep","full_date":"2026-02-01T22:28:52.082Z","date":"2026-02-01","time":"22:28:52"},{"rt":null,"stimulus":"<p style=\"font-size: 50px; margin: 0; text-align: center;\">+</p>","response":null,"trial_type":"html-keyboard-response","trial_index":86,"plugin_version":"2.1.0","time_elapsed":240242,"subject_id":"91854","group":"Group1","condition":"3_Rep","full_date":"2026-02-01T22:28:52.082Z","date":"2026-02-01","time":"22:28:52"},{"task":"memory_phase","broad_category":"M","image_png":"M_Gneiss_05.png","image_id":197,"category_name":"Gneiss","category":13,"distinct_rating":2.97,"distinct_type":"Bottom","rt":null,"stimulus":"Stimuli_Rocks480/M_Gneiss_05.png","response":null,"trial_type":"image-keyboard-response","trial_index":87,"plugin_version":"2.1.0","time_elapsed":242746,"subject_id":"91854","group":"Group1","condition":"3_Rep","full_date":"2026-02-01T22:28:52.082Z","date":"2026-02-01","time":"22:28:52"},{"rt":null,"stimulus":"<p style=\"font-size: 50px; margin: 0; text-align: center;\">+</p>","response":null,"trial_type":"html-keyboard-response","trial_index":88,"plugin_version":"2.1.0","time_elapsed":243748,"subject_id":"91854","group":"Group1","condition":"3_Rep","full_date":"2026-02-01T22:28:52.082Z","date":"2026-02-01","time":"22:28:52"},{"task":"memory_phase","broad_category":"I","image_png":"I_Pumice_12.png","image_id":140,"category_name":"Pumice","category":9,"distinct_rating":2.97,"distinct_type":"Bottom","rt":null,"stimulus":"Stimuli_Rocks480/I_Pumice_12.png","response":null,"trial_type":"image-keyboard-response","trial_index":89,"plugin_version":"2.1.0","time_elapsed":246252,"subject_id":"91854","group":"Group1","condition":"3_Rep","full_date":"2026-02-01T22:28:52.082Z","date":"2026-02-01","time":"22:28:52"},{"rt":null,"stimulus":"<p style=\"font-size: 50px; margin: 0; text-align: center;\">+</p>","response":null,"trial_type":"html-keyboard-response","trial_index":90,"plugin_version":"2.1.0","time_elapsed":247255,"subject_id":"91854","group":"Group1","condition":"3_Rep","full_date":"2026-02-01T22:28:52.082Z","date":"2026-02-01","time":"22:28:52"},{"task":"memory_phase","broad_category":"M","image_png":"M_Marble_16.png","image_id":240,"category_name":"Marble","category":15,"distinct_rating":2.57,"distinct_type":"Bottom","rt":null,"stimulus":"Stimuli_Rocks480/M_Marble_16.png","response":null,"trial_type":"image-keyboard-response","trial_index":91,"plugin_version":"2.1.0","time_elapsed":249758,"subject_id":"91854","group":"Group1","condition":"3_Rep","full_date":"2026-02-01T22:28:52.082Z","date":"2026-02-01","time":"22:28:52"},{"rt":null,"stimulus":"<p style=\"font-size: 50px; margin: 0; text-align: center;\">+</p>","response":null,"trial_type":"html-keyboard-response","trial_index":92,"plugin_version":"2.1.0","time_elapsed":250760,"subject_id":"91854","group":"Group1","condition":"3_Rep","full_date":"2026-02-01T22:28:52.082Z","date":"2026-02-01","time":"22:28:52"},{"task":"memory_phase","broad_category":"I","image_png":"I_Basalt_02.png","image_id":18,"category_name":"Basalt","category":2,"distinct_rating":1.84,"distinct_type":"Bottom","rt":null,"stimulus":"Stimuli_Rocks480/I_Basalt_02.png","response":null,"trial_type":"image-keyboard-response","trial_index":93,"plugin_version":"2.1.0","time_elapsed":253264,"subject_id":"91854","group":"Group1","condition":"3_Rep","full_date":"2026-02-01T22:28:52.082Z","date":"2026-02-01","time":"22:28:52"},{"rt":null,"stimulus":"<p style=\"font-size: 50px; margin: 0; text-align: center;\">+</p>","response":null,"trial_type":"html-keyboard-response","trial_index":94,"plugin_version":"2.1.0","time_elapsed":254267,"subject_id":"91854","group":"Group1","condition":"3_Rep","full_date":"2026-02-01T22:28:52.082Z","date":"2026-02-01","time":"22:28:52"},{"task":"memory_phase","broad_category":"I","image_png":"I_Basalt_01.png","image_id":17,"category_name":"Basalt","category":2,"distinct_rating":1.92,"distinct_type":"Bottom","rt":null,"stimulus":"Stimuli_Rocks480/I_Basalt_01.png","response":null,"trial_type":"image-keyboard-response","trial_index":95,"plugin_version":"2.1.0","time_elapsed":256770,"subject_id":"91854","group":"Group1","condition":"3_Rep","full_date":"2026-02-01T22:28:52.082Z","date":"2026-02-01","time":"22:28:52"},{"rt":null,"stimulus":"<p style=\"font-size: 50px; margin: 0; text-align: center;\">+</p>","response":null,"trial_type":"html-keyboard-response","trial_index":96,"plugin_version":"2.1.0","time_elapsed":257773,"subject_id":"91854","group":"Group1","condition":"3_Rep","full_date":"2026-02-01T22:28:52.082Z","date":"2026-02-01","time":"22:28:52"},{"task":"memory_phase","broad_category":"I","image_png":"I_Gabbro_08.png","image_id":56,"category_name":"Gabbro","category":4,"distinct_rating":3.02,"distinct_type":"Bottom","rt":null,"stimulus":"Stimuli_Rocks480/I_Gabbro_08.png","response":null,"trial_type":"image-keyboard-response","trial_index":97,"plugin_version":"2.1.0","time_elapsed":260277,"subject_id":"91854","group":"Group1","condition":"3_Rep","full_date":"2026-02-01T22:28:52.082Z","date":"2026-02-01","time":"22:28:52"},{"rt":null,"stimulus":"<p style=\"font-size: 50px; margin: 0; text-align: center;\">+</p>","response":null,"trial_type":"html-keyboard-response","trial_index":98,"plugin_version":"2.1.0","time_elapsed":261280,"subject_id":"91854","group":"Group1","condition":"3_Rep","full_date":"2026-02-01T22:28:52.082Z","date":"2026-02-01","time":"22:28:52"},{"task":"memory_phase","broad_category":"M","image_png":"M_Quartzite_08.png","image_id":280,"category_name":"Quartzite","category":18,"distinct_rating":2.15,"distinct_type":"Bottom","rt":null,"stimulus":"Stimuli_Rocks480/M_Quartzite_08.png","response":null,"trial_type":"image-keyboard-response","trial_index":99,"plugin_version":"2.1.0","time_elapsed":263784,"subject_id":"91854","group":"Group1","condition":"3_Rep","full_date":"2026-02-01T22:28:52.082Z","date":"2026-02-01","time":"22:28:52"},{"rt":null,"stimulus":"<p style=\"font-size: 50px; margin: 0; text-align: center;\">+</p>","response":null,"trial_type":"html-keyboard-response","trial_index":100,"plugin_version":"2.1.0","time_elapsed":264786,"subject_id":"91854","group":"Group1","condition":"3_Rep","full_date":"2026-02-01T22:28:52.082Z","date":"2026-02-01","time":"22:28:52"},{"task":"memory_phase","broad_category":"S","image_png":"S_Chert_10.png","image_id":362,"category_name":"Chert","category":23,"distinct_rating":7.17,"distinct_type":"Top","rt":null,"stimulus":"Stimuli_Rocks480/S_Chert_10.png","response":null,"trial_type":"image-keyboard-response","trial_index":101,"plugin_version":"2.1.0","time_elapsed":267289,"subject_id":"91854","group":"Group1","condition":"3_Rep","full_date":"2026-02-01T22:28:52.082Z","date":"2026-02-01","time":"22:28:52"},{"rt":null,"stimulus":"<p style=\"font-size: 50px; margin: 0; text-align: center;\">+</p>","response":null,"trial_type":"html-keyboard-response","trial_index":102,"plugin_version":"2.1.0","time_elapsed":268292,"subject_id":"91854","group":"Group1","condition":"3_Rep","full_date":"2026-02-01T22:28:52.082Z","date":"2026-02-01","time":"22:28:52"},{"task":"memory_phase","broad_category":"I","image_png":"I_Obsidian_05.png","image_id":85,"category_name":"Obsidian","category":6,"distinct_rating":7.32,"distinct_type":"Top","rt":null,"stimulus":"Stimuli_Rocks480/I_Obsidian_05.png","response":null,"trial_type":"image-keyboard-response","trial_index":103,"plugin_version":"2.1.0","time_elapsed":270797,"subject_id":"91854","group":"Group1","condition":"3_Rep","full_date":"2026-02-01T22:28:52.082Z","date":"2026-02-01","time":"22:28:52"},{"rt":null,"stimulus":"<p style=\"font-size: 50px; margin: 0; text-align: center;\">+</p>","response":null,"trial_type":"html-keyboard-response","trial_index":104,"plugin_version":"2.1.0","time_elapsed":271800,"subject_id":"91854","group":"Group1","condition":"3_Rep","full_date":"2026-02-01T22:28:52.082Z","date":"2026-02-01","time":"22:28:52"},{"task":"memory_phase","broad_category":"M","image_png":"M_Slate_15.png","image_id":319,"category_name":"Slate","category":20,"distinct_rating":2.13,"distinct_type":"Bottom","rt":null,"stimulus":"Stimuli_Rocks480/M_Slate_15.png","response":null,"trial_type":"image-keyboard-response","trial_index":105,"plugin_version":"2.1.0","time_elapsed":274304,"subject_id":"91854","group":"Group1","condition":"3_Rep","full_date":"2026-02-01T22:28:52.082Z","date":"2026-02-01","time":"22:28:52"},{"rt":6906,"stimulus":"<p style=\"max-width: 760px; margin: auto; font-size: 35px; line-height: 1.5;\">\n                You have completed 1 study phase. \n                Now, we'll show you all the images again 2 more times.\n                <br><br>Press SPACE to continue\n              </p>","response":" ","trial_type":"html-keyboard-response","trial_index":106,"plugin_version":"2.1.0","time_elapsed":281211,"subject_id":"91854","group":"Group1","condition":"3_Rep","full_date":"2026-02-01T22:28:52.082Z","date":"2026-02-01","time":"22:28:52"},{"rt":null,"stimulus":"<p style=\"font-size: 50px; margin: 0; text-align: center;\">+</p>","response":null,"trial_type":"html-keyboard-response","trial_index":107,"plugin_version":"2.1.0","time_elapsed":282214,"subject_id":"91854","group":"Group1","condition":"3_Rep","full_date":"2026-02-01T22:28:52.082Z","date":"2026-02-01","time":"22:28:52"},{"task":"memory_phase","broad_category":"M","image_png":"M_Gneiss_13.png","image_id":205,"category_name":"Gneiss","category":13,"distinct_rating":3.26,"distinct_type":"Bottom","rt":null,"stimulus":"Stimuli_Rocks480/M_Gneiss_13.png","response":null,"trial_type":"image-keyboard-response","trial_index":108,"plugin_version":"2.1.0","time_elapsed":284718,"subject_id":"91854","group":"Group1","condition":"3_Rep","full_date":"2026-02-01T22:28:52.082Z","date":"2026-02-01","time":"22:28:52"},{"rt":null,"stimulus":"<p style=\"font-size: 50px; margin: 0; text-align: center;\">+</p>","response":null,"trial_type":"html-keyboard-response","trial_index":109,"plugin_version":"2.1.0","time_elapsed":285721,"subject_id":"91854","group":"Group1","condition":"3_Rep","full_date":"2026-02-01T22:28:52.082Z","date":"2026-02-01","time":"22:28:52"},{"task":"memory_phase","broad_category":"S","image_png":"S_Shale_12.png","image_id":476,"category_name":"Shale","category":30,"distinct_rating":2.48,"distinct_type":"Bottom","rt":null,"stimulus":"Stimuli_Rocks480/S_Shale_12.png","response":null,"trial_type":"image-keyboard-response","trial_index":110,"plugin_version":"2.1.0","time_elapsed":288224,"subject_id":"91854","group":"Group1","condition":"3_Rep","full_date":"2026-02-01T22:28:52.082Z","date":"2026-02-01","time":"22:28:52"},{"rt":null,"stimulus":"<p style=\"font-size: 50px; margin: 0; text-align: center;\">+</p>","response":null,"trial_type":"html-keyboard-response","trial_index":111,"plugin_version":"2.1.0","time_elapsed":289227,"subject_id":"91854","group":"Group1","condition":"3_Rep","full_date":"2026-02-01T22:28:52.082Z","date":"2026-02-01","time":"22:28:52"},{"task":"memory_phase","broad_category":"M","image_png":"M_Gneiss_05.png","image_id":197,"category_name":"Gneiss","category":13,"distinct_rating":2.97,"distinct_type":"Bottom","rt":null,"stimulus":"Stimuli_Rocks480/M_Gneiss_05.png","response":null,"trial_type":"image-keyboard-response","trial_index":112,"plugin_version":"2.1.0","time_elapsed":291730,"subject_id":"91854","group":"Group1","condition":"3_Rep","full_date":"2026-02-01T22:28:52.082Z","date":"2026-02-01","time":"22:28:52"},{"rt":null,"stimulus":"<p style=\"font-size: 50px; margin: 0; text-align: center;\">+</p>","response":null,"trial_type":"html-keyboard-response","trial_index":113,"plugin_version":"2.1.0","time_elapsed":292733,"subject_id":"91854","group":"Group1","condition":"3_Rep","full_date":"2026-02-01T22:28:52.082Z","date":"2026-02-01","time":"22:28:52"},{"task":"memory_phase","broad_category":"I","image_png":"I_Gabbro_11.png","image_id":59,"category_name":"Gabbro","category":4,"distinct_rating":1.99,"distinct_type":"Bottom","rt":null,"stimulus":"Stimuli_Rocks480/I_Gabbro_11.png","response":null,"trial_type":"image-keyboard-response","trial_index":114,"plugin_version":"2.1.0","time_elapsed":295236,"subject_id":"91854","group":"Group1","condition":"3_Rep","full_date":"2026-02-01T22:28:52.082Z","date":"2026-02-01","time":"22:28:52"},{"rt":null,"stimulus":"<p style=\"font-size: 50px; margin: 0; text-align: center;\">+</p>","response":null,"trial_type":"html-keyboard-response","trial_index":115,"plugin_version":"2.1.0","time_elapsed":296239,"subject_id":"91854","group":"Group1","condition":"3_Rep","full_date":"2026-02-01T22:28:52.082Z","date":"2026-02-01","time":"22:28:52"},{"task":"memory_phase","broad_category":"M","image_png":"M_Phyllite_07.png","image_id":263,"category_name":"Phyllite","category":17,"distinct_rating":2.59,"distinct_type":"Bottom","rt":null,"stimulus":"Stimuli_Rocks480/M_Phyllite_07.png","response":null,"trial_type":"image-keyboard-response","trial_index":116,"plugin_version":"2.1.0","time_elapsed":298742,"subject_id":"91854","group":"Group1","condition":"3_Rep","full_date":"2026-02-01T22:28:52.082Z","date":"2026-02-01","time":"22:28:52"},{"rt":null,"stimulus":"<p style=\"font-size: 50px; margin: 0; text-align: center;\">+</p>","response":null,"trial_type":"html-keyboard-response","trial_index":117,"plugin_version":"2.1.0","time_elapsed":299744,"subject_id":"91854","group":"Group1","condition":"3_Rep","full_date":"2026-02-01T22:28:52.082Z","date":"2026-02-01","time":"22:28:52"},{"task":"memory_phase","broad_category":"M","image_png":"M_Slate_15.png","image_id":319,"category_name":"Slate","category":20,"distinct_rating":2.13,"distinct_type":"Bottom","rt":null,"stimulus":"Stimuli_Rocks480/M_Slate_15.png","response":null,"trial_type":"image-keyboard-response","trial_index":118,"plugin_version":"2.1.0","time_elapsed":302248,"subject_id":"91854","group":"Group1","condition":"3_Rep","full_date":"2026-02-01T22:28:52.082Z","date":"2026-02-01","time":"22:28:52"},{"rt":null,"stimulus":"<p style=\"font-size: 50px; margin: 0; text-align: center;\">+</p>","response":null,"trial_type":"html-keyboard-response","trial_index":119,"plugin_version":"2.1.0","time_elapsed":303251,"subject_id":"91854","group":"Group1","condition":"3_Rep","full_date":"2026-02-01T22:28:52.082Z","date":"2026-02-01","time":"22:28:52"},{"task":"memory_phase","broad_category":"I","image_png":"I_Andesite_08.png","image_id":8,"category_name":"Andesite","category":1,"distinct_rating":1.95,"distinct_type":"Bottom","rt":null,"stimulus":"Stimuli_Rocks480/I_Andesite_08.png","response":null,"trial_type":"image-keyboard-response","trial_index":120,"plugin_version":"2.1.0","time_elapsed":305754,"subject_id":"91854","group":"Group1","condition":"3_Rep","full_date":"2026-02-01T22:28:52.082Z","date":"2026-02-01","time":"22:28:52"},{"rt":null,"stimulus":"<p style=\"font-size: 50px; margin: 0; text-align: center;\">+</p>","response":null,"trial_type":"html-keyboard-response","trial_index":121,"plugin_version":"2.1.0","time_elapsed":306757,"subject_id":"91854","group":"Group1","condition":"3_Rep","full_date":"2026-02-01T22:28:52.082Z","date":"2026-02-01","time":"22:28:52"},{"task":"memory_phase","broad_category":"I","image_png":"I_Obsidian_05.png","image_id":85,"category_name":"Obsidian","category":6,"distinct_rating":7.32,"distinct_type":"Top","rt":null,"stimulus":"Stimuli_Rocks480/I_Obsidian_05.png","response":null,"trial_type":"image-keyboard-response","trial_index":122,"plugin_version":"2.1.0","time_elapsed":309261,"subject_id":"91854","group":"Group1","condition":"3_Rep","full_date":"2026-02-01T22:28:52.082Z","date":"2026-02-01","time":"22:28:52"},{"rt":null,"stimulus":"<p style=\"font-size: 50px; margin: 0; text-align: center;\">+</p>","response":null,"trial_type":"html-keyboard-response","trial_index":123,"plugin_version":"2.1.0","time_elapsed":310263,"subject_id":"91854","group":"Group1","condition":"3_Rep","full_date":"2026-02-01T22:28:52.082Z","date":"2026-02-01","time":"22:28:52"},{"task":"memory_phase","broad_category":"I","image_png":"I_Basalt_01.png","image_id":17,"category_name":"Basalt","category":2,"distinct_rating":1.92,"distinct_type":"Bottom","rt":null,"stimulus":"Stimuli_Rocks480/I_Basalt_01.png","response":null,"trial_type":"image-keyboard-response","trial_index":124,"plugin_version":"2.1.0","time_elapsed":312767,"subject_id":"91854","group":"Group1","condition":"3_Rep","full_date":"2026-02-01T22:28:52.082Z","date":"2026-02-01","time":"22:28:52"},{"rt":null,"stimulus":"<p style=\"font-size: 50px; margin: 0; text-align: center;\">+</p>","response":null,"trial_type":"html-keyboard-response","trial_index":125,"plugin_version":"2.1.0","time_elapsed":313769,"subject_id":"91854","group":"Group1","condition":"3_Rep","full_date":"2026-02-01T22:28:52.082Z","date":"2026-02-01","time":"22:28:52"},{"task":"memory_phase","broad_category":"I","image_png":"I_Diorite_05.png","image_id":37,"category_name":"Diorite","category":3,"distinct_rating":3.08,"distinct_type":"Bottom","rt":null,"stimulus":"Stimuli_Rocks480/I_Diorite_05.png","response":null,"trial_type":"image-keyboard-response","trial_index":126,"plugin_version":"2.1.0","time_elapsed":316273,"subject_id":"91854","group":"Group1","condition":"3_Rep","full_date":"2026-02-01T22:28:52.082Z","date":"2026-02-01","time":"22:28:52"},{"rt":null,"stimulus":"<p style=\"font-size: 50px; margin: 0; text-align: center;\">+</p>","response":null,"trial_type":"html-keyboard-response","trial_index":127,"plugin_version":"2.1.0","time_elapsed":317276,"subject_id":"91854","group":"Group1","condition":"3_Rep","full_date":"2026-02-01T22:28:52.082Z","date":"2026-02-01","time":"22:28:52"},{"task":"memory_phase","broad_category":"I","image_png":"I_Basalt_09.png","image_id":25,"category_name":"Basalt","category":2,"distinct_rating":1.89,"distinct_type":"Bottom","rt":null,"stimulus":"Stimuli_Rocks480/I_Basalt_09.png","response":null,"trial_type":"image-keyboard-response","trial_index":128,"plugin_version":"2.1.0","time_elapsed":319780,"subject_id":"91854","group":"Group1","condition":"3_Rep","full_date":"2026-02-01T22:28:52.082Z","date":"2026-02-01","time":"22:28:52"},{"rt":null,"stimulus":"<p style=\"font-size: 50px; margin: 0; text-align: center;\">+</p>","response":null,"trial_type":"html-keyboard-response","trial_index":129,"plugin_version":"2.1.0","time_elapsed":320783,"subject_id":"91854","group":"Group1","condition":"3_Rep","full_date":"2026-02-01T22:28:52.082Z","date":"2026-02-01","time":"22:28:52"},{"task":"memory_phase","broad_category":"S","image_png":"S_Dolomite_14.png","image_id":398,"category_name":"Dolomite","category":25,"distinct_rating":1.43,"distinct_type":"Bottom","rt":null,"stimulus":"Stimuli_Rocks480/S_Dolomite_14.png","response":null,"trial_type":"image-keyboard-response","trial_index":130,"plugin_version":"2.1.0","time_elapsed":323287,"subject_id":"91854","group":"Group1","condition":"3_Rep","full_date":"2026-02-01T22:28:52.082Z","date":"2026-02-01","time":"22:28:52"},{"rt":null,"stimulus":"<p style=\"font-size: 50px; margin: 0; text-align: center;\">+</p>","response":null,"trial_type":"html-keyboard-response","trial_index":131,"plugin_version":"2.1.0","time_elapsed":324289,"subject_id":"91854","group":"Group1","condition":"3_Rep","full_date":"2026-02-01T22:28:52.082Z","date":"2026-02-01","time":"22:28:52"},{"task":"memory_phase","broad_category":"M","image_png":"M_Slate_11.png","image_id":315,"category_name":"Slate","category":20,"distinct_rating":2.75,"distinct_type":"Bottom","rt":null,"stimulus":"Stimuli_Rocks480/M_Slate_11.png","response":null,"trial_type":"image-keyboard-response","trial_index":132,"plugin_version":"2.1.0","time_elapsed":326793,"subject_id":"91854","group":"Group1","condition":"3_Rep","full_date":"2026-02-01T22:28:52.082Z","date":"2026-02-01","time":"22:28:52"},{"rt":null,"stimulus":"<p style=\"font-size: 50px; margin: 0; text-align: center;\">+</p>","response":null,"trial_type":"html-keyboard-response","trial_index":133,"plugin_version":"2.1.0","time_elapsed":327795,"subject_id":"91854","group":"Group1","condition":"3_Rep","full_date":"2026-02-01T22:28:52.082Z","date":"2026-02-01","time":"22:28:52"},{"task":"memory_phase","broad_category":"I","image_png":"I_Pumice_12.png","image_id":140,"category_name":"Pumice","category":9,"distinct_rating":2.97,"distinct_type":"Bottom","rt":null,"stimulus":"Stimuli_Rocks480/I_Pumice_12.png","response":null,"trial_type":"image-keyboard-response","trial_index":134,"plugin_version":"2.1.0","time_elapsed":330299,"subject_id":"91854","group":"Group1","condition":"3_Rep","full_date":"2026-02-01T22:28:52.082Z","date":"2026-02-01","time":"22:28:52"},{"rt":null,"stimulus":"<p style=\"font-size: 50px; margin: 0; text-align: center;\">+</p>","response":null,"trial_type":"html-keyboard-response","trial_index":135,"plugin_version":"2.1.0","time_elapsed":331302,"subject_id":"91854","group":"Group1","condition":"3_Rep","full_date":"2026-02-01T22:28:52.082Z","date":"2026-02-01","time":"22:28:52"},{"task":"memory_phase","broad_category":"M","image_png":"M_Phyllite_10.png","image_id":266,"category_name":"Phyllite","category":17,"distinct_rating":2.6,"distinct_type":"Bottom","rt":null,"stimulus":"Stimuli_Rocks480/M_Phyllite_10.png","response":null,"trial_type":"image-keyboard-response","trial_index":136,"plugin_version":"2.1.0","time_elapsed":333805,"subject_id":"91854","group":"Group1","condition":"3_Rep","full_date":"2026-02-01T22:28:52.082Z","date":"2026-02-01","time":"22:28:52"},{"rt":null,"stimulus":"<p style=\"font-size: 50px; margin: 0; text-align: center;\">+</p>","response":null,"trial_type":"html-keyboard-response","trial_index":137,"plugin_version":"2.1.0","time_elapsed":334808,"subject_id":"91854","group":"Group1","condition":"3_Rep","full_date":"2026-02-01T22:28:52.082Z","date":"2026-02-01","time":"22:28:52"},{"task":"memory_phase","broad_category":"I","image_png":"I_Diorite_04.png","image_id":36,"category_name":"Diorite","category":3,"distinct_rating":2.98,"distinct_type":"Bottom","rt":null,"stimulus":"Stimuli_Rocks480/I_Diorite_04.png","response":null,"trial_type":"image-keyboard-response","trial_index":138,"plugin_version":"2.1.0","time_elapsed":337312,"subject_id":"91854","group":"Group1","condition":"3_Rep","full_date":"2026-02-01T22:28:52.082Z","date":"2026-02-01","time":"22:28:52"},{"rt":null,"stimulus":"<p style=\"font-size: 50px; margin: 0; text-align: center;\">+</p>","response":null,"trial_type":"html-keyboard-response","trial_index":139,"plugin_version":"2.1.0","time_elapsed":338314,"subject_id":"91854","group":"Group1","condition":"3_Rep","full_date":"2026-02-01T22:28:52.082Z","date":"2026-02-01","time":"22:28:52"},{"task":"memory_phase","broad_category":"I","image_png":"I_Pegmatite_16.png","image_id":112,"category_name":"Pegmatite","category":7,"distinct_rating":7.03,"distinct_type":"Top","rt":null,"stimulus":"Stimuli_Rocks480/I_Pegmatite_16.png","response":null,"trial_type":"image-keyboard-response","trial_index":140,"plugin_version":"2.1.0","time_elapsed":340818,"subject_id":"91854","group":"Group1","condition":"3_Rep","full_date":"2026-02-01T22:28:52.082Z","date":"2026-02-01","time":"22:28:52"},{"rt":null,"stimulus":"<p style=\"font-size: 50px; margin: 0; text-align: center;\">+</p>","response":null,"trial_type":"html-keyboard-response","trial_index":141,"plugin_version":"2.1.0","time_elapsed":341820,"subject_id":"91854","group":"Group1","condition":"3_Rep","full_date":"2026-02-01T22:28:52.082Z","date":"2026-02-01","time":"22:28:52"},{"task":"memory_phase","broad_category":"S","image_png":"S_Shale_01.png","image_id":465,"category_name":"Shale","category":30,"distinct_rating":2.7,"distinct_type":"Bottom","rt":null,"stimulus":"Stimuli_Rocks480/S_Shale_01.png","response":null,"trial_type":"image-keyboard-response","trial_index":142,"plugin_version":"2.1.0","time_elapsed":344324,"subject_id":"91854","group":"Group1","condition":"3_Rep","full_date":"2026-02-01T22:28:52.082Z","date":"2026-02-01","time":"22:28:52"},{"rt":null,"stimulus":"<p style=\"font-size: 50px; margin: 0; text-align: center;\">+</p>","response":null,"trial_type":"html-keyboard-response","trial_index":143,"plugin_version":"2.1.0","time_elapsed":345326,"subject_id":"91854","group":"Group1","condition":"3_Rep","full_date":"2026-02-01T22:28:52.082Z","date":"2026-02-01","time":"22:28:52"},{"task":"memory_phase","broad_category":"S","image_png":"S_Shale_08.png","image_id":472,"category_name":"Shale","category":30,"distinct_rating":2.55,"distinct_type":"Bottom","rt":null,"stimulus":"Stimuli_Rocks480/S_Shale_08.png","response":null,"trial_type":"image-keyboard-response","trial_index":144,"plugin_version":"2.1.0","time_elapsed":347829,"subject_id":"91854","group":"Group1","condition":"3_Rep","full_date":"2026-02-01T22:28:52.082Z","date":"2026-02-01","time":"22:28:52"},{"rt":null,"stimulus":"<p style=\"font-size: 50px; margin: 0; text-align: center;\">+</p>","response":null,"trial_type":"html-keyboard-response","trial_index":145,"plugin_version":"2.1.0","time_elapsed":348832,"subject_id":"91854","group":"Group1","condition":"3_Rep","full_date":"2026-02-01T22:28:52.082Z","date":"2026-02-01","time":"22:28:52"},{"task":"memory_phase","broad_category":"M","image_png":"M_Marble_16.png","image_id":240,"category_name":"Marble","category":15,"distinct_rating":2.57,"distinct_type":"Bottom","rt":null,"stimulus":"Stimuli_Rocks480/M_Marble_16.png","response":null,"trial_type":"image-keyboard-response","trial_index":146,"plugin_version":"2.1.0","time_elapsed":351336,"subject_id":"91854","group":"Group1","condition":"3_Rep","full_date":"2026-02-01T22:28:52.082Z","date":"2026-02-01","time":"22:28:52"},{"rt":null,"stimulus":"<p style=\"font-size: 50px; margin: 0; text-align: center;\">+</p>","response":null,"trial_type":"html-keyboard-response","trial_index":147,"plugin_version":"2.1.0","time_elapsed":352339,"subject_id":"91854","group":"Group1","condition":"3_Rep","full_date":"2026-02-01T22:28:52.082Z","date":"2026-02-01","time":"22:28:52"},{"task":"memory_phase","broad_category":"I","image_png":"I_Diorite_03.png","image_id":35,"category_name":"Diorite","category":3,"distinct_rating":3.14,"distinct_type":"Bottom","rt":null,"stimulus":"Stimuli_Rocks480/I_Diorite_03.png","response":null,"trial_type":"image-keyboard-response","trial_index":148,"plugin_version":"2.1.0","time_elapsed":354842,"subject_id":"91854","group":"Group1","condition":"3_Rep","full_date":"2026-02-01T22:28:52.082Z","date":"2026-02-01","time":"22:28:52"},{"rt":null,"stimulus":"<p style=\"font-size: 50px; margin: 0; text-align: center;\">+</p>","response":null,"trial_type":"html-keyboard-response","trial_index":149,"plugin_version":"2.1.0","time_elapsed":355845,"subject_id":"91854","group":"Group1","condition":"3_Rep","full_date":"2026-02-01T22:28:52.082Z","date":"2026-02-01","time":"22:28:52"},{"task":"memory_phase","broad_category":"I","image_png":"I_Rhyolite_16.png","image_id":160,"category_name":"Rhyolite","category":10,"distinct_rating":2.19,"distinct_type":"Bottom","rt":null,"stimulus":"Stimuli_Rocks480/I_Rhyolite_16.png","response":null,"trial_type":"image-keyboard-response","trial_index":150,"plugin_version":"2.1.0","time_elapsed":358348,"subject_id":"91854","group":"Group1","condition":"3_Rep","full_date":"2026-02-01T22:28:52.082Z","date":"2026-02-01","time":"22:28:52"},{"rt":null,"stimulus":"<p style=\"font-size: 50px; margin: 0; text-align: center;\">+</p>","response":null,"trial_type":"html-keyboard-response","trial_index":151,"plugin_version":"2.1.0","time_elapsed":359351,"subject_id":"91854","group":"Group1","condition":"3_Rep","full_date":"2026-02-01T22:28:52.082Z","date":"2026-02-01","time":"22:28:52"},{"task":"memory_phase","broad_category":"M","image_png":"M_Slate_03.png","image_id":307,"category_name":"Slate","category":20,"distinct_rating":1.87,"distinct_type":"Bottom","rt":null,"stimulus":"Stimuli_Rocks480/M_Slate_03.png","response":null,"trial_type":"image-keyboard-response","trial_index":152,"plugin_version":"2.1.0","time_elapsed":361855,"subject_id":"91854","group":"Group1","condition":"3_Rep","full_date":"2026-02-01T22:28:52.082Z","date":"2026-02-01","time":"22:28:52"},{"rt":null,"stimulus":"<p style=\"font-size: 50px; margin: 0; text-align: center;\">+</p>","response":null,"trial_type":"html-keyboard-response","trial_index":153,"plugin_version":"2.1.0","time_elapsed":362857,"subject_id":"91854","group":"Group1","condition":"3_Rep","full_date":"2026-02-01T22:28:52.082Z","date":"2026-02-01","time":"22:28:52"},{"task":"memory_phase","broad_category":"S","image_png":"S_Dolomite_12.png","image_id":396,"category_name":"Dolomite","category":25,"distinct_rating":1.85,"distinct_type":"Bottom","rt":null,"stimulus":"Stimuli_Rocks480/S_Dolomite_12.png","response":null,"trial_type":"image-keyboard-response","trial_index":154,"plugin_version":"2.1.0","time_elapsed":365361,"subject_id":"91854","group":"Group1","condition":"3_Rep","full_date":"2026-02-01T22:28:52.082Z","date":"2026-02-01","time":"22:28:52"},{"rt":null,"stimulus":"<p style=\"font-size: 50px; margin: 0; text-align: center;\">+</p>","response":null,"trial_type":"html-keyboard-response","trial_index":155,"plugin_version":"2.1.0","time_elapsed":366364,"subject_id":"91854","group":"Group1","condition":"3_Rep","full_date":"2026-02-01T22:28:52.082Z","date":"2026-02-01","time":"22:28:52"},{"task":"memory_phase","broad_category":"I","image_png":"I_Pumice_11.png","image_id":139,"category_name":"Pumice","category":9,"distinct_rating":1.74,"distinct_type":"Bottom","rt":null,"stimulus":"Stimuli_Rocks480/I_Pumice_11.png","response":null,"trial_type":"image-keyboard-response","trial_index":156,"plugin_version":"2.1.0","time_elapsed":368868,"subject_id":"91854","group":"Group1","condition":"3_Rep","full_date":"2026-02-01T22:28:52.082Z","date":"2026-02-01","time":"22:28:52"},{"rt":8685,"stimulus":"<p style=\"max-width: 760px; margin: auto; font-size: 35px; line-height: 1.5;\">\n                Press SPACE to continue study phase\n              </p>","response":" ","trial_type":"html-keyboard-response","trial_index":157,"plugin_version":"2.1.0","time_elapsed":377554,"subject_id":"91854","group":"Group1","condition":"3_Rep","full_date":"2026-02-01T22:28:52.082Z","date":"2026-02-01","time":"22:28:52"},{"rt":null,"stimulus":"<p style=\"font-size: 50px; margin: 0; text-align: center;\">+</p>","response":null,"trial_type":"html-keyboard-response","trial_index":158,"plugin_version":"2.1.0","time_elapsed":378557,"subject_id":"91854","group":"Group1","condition":"3_Rep","full_date":"2026-02-01T22:28:52.082Z","date":"2026-02-01","time":"22:28:52"},{"task":"memory_phase","broad_category":"M","image_png":"M_Gneiss_06.png","image_id":198,"category_name":"Gneiss","category":13,"distinct_rating":2.65,"distinct_type":"Bottom","rt":null,"stimulus":"Stimuli_Rocks480/M_Gneiss_06.png","response":null,"trial_type":"image-keyboard-response","trial_index":159,"plugin_version":"2.1.0","time_elapsed":381060,"subject_id":"91854","group":"Group1","condition":"3_Rep","full_date":"2026-02-01T22:28:52.082Z","date":"2026-02-01","time":"22:28:52"},{"rt":null,"stimulus":"<p style=\"font-size: 50px; margin: 0; text-align: center;\">+</p>","response":null,"trial_type":"html-keyboard-response","trial_index":160,"plugin_version":"2.1.0","time_elapsed":382062,"subject_id":"91854","group":"Group1","condition":"3_Rep","full_date":"2026-02-01T22:28:52.082Z","date":"2026-02-01","time":"22:28:52"},{"task":"memory_phase","broad_category":"M","image_png":"M_Phyllite_03.png","image_id":259,"category_name":"Phyllite","category":17,"distinct_rating":2.5,"distinct_type":"Bottom","rt":null,"stimulus":"Stimuli_Rocks480/M_Phyllite_03.png","response":null,"trial_type":"image-keyboard-response","trial_index":161,"plugin_version":"2.1.0","time_elapsed":384566,"subject_id":"91854","group":"Group1","condition":"3_Rep","full_date":"2026-02-01T22:28:52.082Z","date":"2026-02-01","time":"22:28:52"},{"rt":null,"stimulus":"<p style=\"font-size: 50px; margin: 0; text-align: center;\">+</p>","response":null,"trial_type":"html-keyboard-response","trial_index":162,"plugin_version":"2.1.0","time_elapsed":385569,"subject_id":"91854","group":"Group1","condition":"3_Rep","full_date":"2026-02-01T22:28:52.082Z","date":"2026-02-01","time":"22:28:52"},{"task":"memory_phase","broad_category":"S","image_png":"S_Chert_10.png","image_id":362,"category_name":"Chert","category":23,"distinct_rating":7.17,"distinct_type":"Top","rt":null,"stimulus":"Stimuli_Rocks480/S_Chert_10.png","response":null,"trial_type":"image-keyboard-response","trial_index":163,"plugin_version":"2.1.0","time_elapsed":388072,"subject_id":"91854","group":"Group1","condition":"3_Rep","full_date":"2026-02-01T22:28:52.082Z","date":"2026-02-01","time":"22:28:52"},{"rt":null,"stimulus":"<p style=\"font-size: 50px; margin: 0; text-align: center;\">+</p>","response":null,"trial_type":"html-keyboard-response","trial_index":164,"plugin_version":"2.1.0","time_elapsed":389074,"subject_id":"91854","group":"Group1","condition":"3_Rep","full_date":"2026-02-01T22:28:52.082Z","date":"2026-02-01","time":"22:28:52"},{"task":"memory_phase","broad_category":"S","image_png":"S_Dolomite_13.png","image_id":397,"category_name":"Dolomite","category":25,"distinct_rating":1.77,"distinct_type":"Bottom","rt":null,"stimulus":"Stimuli_Rocks480/S_Dolomite_13.png","response":null,"trial_type":"image-keyboard-response","trial_index":165,"plugin_version":"2.1.0","time_elapsed":391579,"subject_id":"91854","group":"Group1","condition":"3_Rep","full_date":"2026-02-01T22:28:52.082Z","date":"2026-02-01","time":"22:28:52"},{"rt":null,"stimulus":"<p style=\"font-size: 50px; margin: 0; text-align: center;\">+</p>","response":null,"trial_type":"html-keyboard-response","trial_index":166,"plugin_version":"2.1.0","time_elapsed":392581,"subject_id":"91854","group":"Group1","condition":"3_Rep","full_date":"2026-02-01T22:28:52.082Z","date":"2026-02-01","time":"22:28:52"},{"task":"memory_phase","broad_category":"I","image_png":"I_Rhyolite_14.png","image_id":158,"category_name":"Rhyolite","category":10,"distinct_rating":2.59,"distinct_type":"Bottom","rt":null,"stimulus":"Stimuli_Rocks480/I_Rhyolite_14.png","response":null,"trial_type":"image-keyboard-response","trial_index":167,"plugin_version":"2.1.0","time_elapsed":395084,"subject_id":"91854","group":"Group1","condition":"3_Rep","full_date":"2026-02-01T22:28:52.082Z","date":"2026-02-01","time":"22:28:52"},{"rt":null,"stimulus":"<p style=\"font-size: 50px; margin: 0; text-align: center;\">+</p>","response":null,"trial_type":"html-keyboard-response","trial_index":168,"plugin_version":"2.1.0","time_elapsed":396087,"subject_id":"91854","group":"Group1","condition":"3_Rep","full_date":"2026-02-01T22:28:52.082Z","date":"2026-02-01","time":"22:28:52"},{"task":"memory_phase","broad_category":"S","image_png":"S_Breccia_11.png","image_id":347,"category_name":"Breccia","category":22,"distinct_rating":6.7,"distinct_type":"Top","rt":null,"stimulus":"Stimuli_Rocks480/S_Breccia_11.png","response":null,"trial_type":"image-keyboard-response","trial_index":169,"plugin_version":"2.1.0","time_elapsed":398591,"subject_id":"91854","group":"Group1","condition":"3_Rep","full_date":"2026-02-01T22:28:52.082Z","date":"2026-02-01","time":"22:28:52"},{"rt":null,"stimulus":"<p style=\"font-size: 50px; margin: 0; text-align: center;\">+</p>","response":null,"trial_type":"html-keyboard-response","trial_index":170,"plugin_version":"2.1.0","time_elapsed":399593,"subject_id":"91854","group":"Group1","condition":"3_Rep","full_date":"2026-02-01T22:28:52.082Z","date":"2026-02-01","time":"22:28:52"},{"task":"memory_phase","broad_category":"M","image_png":"M_Quartzite_13.png","image_id":285,"category_name":"Quartzite","category":18,"distinct_rating":2.27,"distinct_type":"Bottom","rt":null,"stimulus":"Stimuli_Rocks480/M_Quartzite_13.png","response":null,"trial_type":"image-keyboard-response","trial_index":171,"plugin_version":"2.1.0","time_elapsed":402097,"subject_id":"91854","group":"Group1","condition":"3_Rep","full_date":"2026-02-01T22:28:52.082Z","date":"2026-02-01","time":"22:28:52"},{"rt":null,"stimulus":"<p style=\"font-size: 50px; margin: 0; text-align: center;\">+</p>","response":null,"trial_type":"html-keyboard-response","trial_index":172,"plugin_version":"2.1.0","time_elapsed":403100,"subject_id":"91854","group":"Group1","condition":"3_Rep","full_date":"2026-02-01T22:28:52.082Z","date":"2026-02-01","time":"22:28:52"},{"task":"memory_phase","broad_category":"M","image_png":"M_Marble_04.png","image_id":228,"category_name":"Marble","category":15,"distinct_rating":3.15,"distinct_type":"Bottom","rt":null,"stimulus":"Stimuli_Rocks480/M_Marble_04.png","response":null,"trial_type":"image-keyboard-response","trial_index":173,"plugin_version":"2.1.0","time_elapsed":405602,"subject_id":"91854","group":"Group1","condition":"3_Rep","full_date":"2026-02-01T22:28:52.082Z","date":"2026-02-01","time":"22:28:52"},{"rt":null,"stimulus":"<p style=\"font-size: 50px; margin: 0; text-align: center;\">+</p>","response":null,"trial_type":"html-keyboard-response","trial_index":174,"plugin_version":"2.1.0","time_elapsed":406605,"subject_id":"91854","group":"Group1","condition":"3_Rep","full_date":"2026-02-01T22:28:52.082Z","date":"2026-02-01","time":"22:28:52"},{"task":"memory_phase","broad_category":"S","image_png":"S_Rock Gypsum_04.png","image_id":420,"category_name":"Rock Gypsum","category":27,"distinct_rating":7.61,"distinct_type":"Top","rt":null,"stimulus":"Stimuli_Rocks480/S_Rock Gypsum_04.png","response":null,"trial_type":"image-keyboard-response","trial_index":175,"plugin_version":"2.1.0","time_elapsed":409109,"subject_id":"91854","group":"Group1","condition":"3_Rep","full_date":"2026-02-01T22:28:52.082Z","date":"2026-02-01","time":"22:28:52"},{"rt":null,"stimulus":"<p style=\"font-size: 50px; margin: 0; text-align: center;\">+</p>","response":null,"trial_type":"html-keyboard-response","trial_index":176,"plugin_version":"2.1.0","time_elapsed":410111,"subject_id":"91854","group":"Group1","condition":"3_Rep","full_date":"2026-02-01T22:28:52.082Z","date":"2026-02-01","time":"22:28:52"},{"task":"memory_phase","broad_category":"I","image_png":"I_Andesite_06.png","image_id":6,"category_name":"Andesite","category":1,"distinct_rating":3.17,"distinct_type":"Bottom","rt":null,"stimulus":"Stimuli_Rocks480/I_Andesite_06.png","response":null,"trial_type":"image-keyboard-response","trial_index":177,"plugin_version":"2.1.0","time_elapsed":412614,"subject_id":"91854","group":"Group1","condition":"3_Rep","full_date":"2026-02-01T22:28:52.082Z","date":"2026-02-01","time":"22:28:52"},{"rt":null,"stimulus":"<p style=\"font-size: 50px; margin: 0; text-align: center;\">+</p>","response":null,"trial_type":"html-keyboard-response","trial_index":178,"plugin_version":"2.1.0","time_elapsed":413617,"subject_id":"91854","group":"Group1","condition":"3_Rep","full_date":"2026-02-01T22:28:52.082Z","date":"2026-02-01","time":"22:28:52"},{"task":"memory_phase","broad_category":"I","image_png":"I_Rhyolite_11.png","image_id":155,"category_name":"Rhyolite","category":10,"distinct_rating":1.73,"distinct_type":"Bottom","rt":null,"stimulus":"Stimuli_Rocks480/I_Rhyolite_11.png","response":null,"trial_type":"image-keyboard-response","trial_index":179,"plugin_version":"2.1.0","time_elapsed":416121,"subject_id":"91854","group":"Group1","condition":"3_Rep","full_date":"2026-02-01T22:28:52.082Z","date":"2026-02-01","time":"22:28:52"},{"rt":null,"stimulus":"<p style=\"font-size: 50px; margin: 0; text-align: center;\">+</p>","response":null,"trial_type":"html-keyboard-response","trial_index":180,"plugin_version":"2.1.0","time_elapsed":417122,"subject_id":"91854","group":"Group1","condition":"3_Rep","full_date":"2026-02-01T22:28:52.082Z","date":"2026-02-01","time":"22:28:52"},{"task":"memory_phase","broad_category":"M","image_png":"M_Marble_06.png","image_id":230,"category_name":"Marble","category":15,"distinct_rating":3.4,"distinct_type":"Bottom","rt":null,"stimulus":"Stimuli_Rocks480/M_Marble_06.png","response":null,"trial_type":"image-keyboard-response","trial_index":181,"plugin_version":"2.1.0","time_elapsed":419626,"subject_id":"91854","group":"Group1","condition":"3_Rep","full_date":"2026-02-01T22:28:52.082Z","date":"2026-02-01","time":"22:28:52"},{"rt":null,"stimulus":"<p style=\"font-size: 50px; margin: 0; text-align: center;\">+</p>","response":null,"trial_type":"html-keyboard-response","trial_index":182,"plugin_version":"2.1.0","time_elapsed":420629,"subject_id":"91854","group":"Group1","condition":"3_Rep","full_date":"2026-02-01T22:28:52.082Z","date":"2026-02-01","time":"22:28:52"},{"task":"memory_phase","broad_category":"I","image_png":"I_Pumice_08.png","image_id":136,"category_name":"Pumice","category":9,"distinct_rating":3.1,"distinct_type":"Bottom","rt":null,"stimulus":"Stimuli_Rocks480/I_Pumice_08.png","response":null,"trial_type":"image-keyboard-response","trial_index":183,"plugin_version":"2.1.0","time_elapsed":423133,"subject_id":"91854","group":"Group1","condition":"3_Rep","full_date":"2026-02-01T22:28:52.082Z","date":"2026-02-01","time":"22:28:52"},{"rt":null,"stimulus":"<p style=\"font-size: 50px; margin: 0; text-align: center;\">+</p>","response":null,"trial_type":"html-keyboard-response","trial_index":184,"plugin_version":"2.1.0","time_elapsed":424135,"subject_id":"91854","group":"Group1","condition":"3_Rep","full_date":"2026-02-01T22:28:52.082Z","date":"2026-02-01","time":"22:28:52"},{"task":"memory_phase","broad_category":"I","image_png":"I_Gabbro_08.png","image_id":56,"category_name":"Gabbro","category":4,"distinct_rating":3.02,"distinct_type":"Bottom","rt":null,"stimulus":"Stimuli_Rocks480/I_Gabbro_08.png","response":null,"trial_type":"image-keyboard-response","trial_index":185,"plugin_version":"2.1.0","time_elapsed":426639,"subject_id":"91854","group":"Group1","condition":"3_Rep","full_date":"2026-02-01T22:28:52.082Z","date":"2026-02-01","time":"22:28:52"},{"rt":null,"stimulus":"<p style=\"font-size: 50px; margin: 0; text-align: center;\">+</p>","response":null,"trial_type":"html-keyboard-response","trial_index":186,"plugin_version":"2.1.0","time_elapsed":427642,"subject_id":"91854","group":"Group1","condition":"3_Rep","full_date":"2026-02-01T22:28:52.082Z","date":"2026-02-01","time":"22:28:52"},{"task":"memory_phase","broad_category":"S","image_png":"S_Conglomerate_05.png","image_id":373,"category_name":"Conglomerate","category":24,"distinct_rating":7.32,"distinct_type":"Top","rt":null,"stimulus":"Stimuli_Rocks480/S_Conglomerate_05.png","response":null,"trial_type":"image-keyboard-response","trial_index":187,"plugin_version":"2.1.0","time_elapsed":430145,"subject_id":"91854","group":"Group1","condition":"3_Rep","full_date":"2026-02-01T22:28:52.082Z","date":"2026-02-01","time":"22:28:52"},{"rt":null,"stimulus":"<p style=\"font-size: 50px; margin: 0; text-align: center;\">+</p>","response":null,"trial_type":"html-keyboard-response","trial_index":188,"plugin_version":"2.1.0","time_elapsed":431148,"subject_id":"91854","group":"Group1","condition":"3_Rep","full_date":"2026-02-01T22:28:52.082Z","date":"2026-02-01","time":"22:28:52"},{"task":"memory_phase","broad_category":"M","image_png":"M_Quartzite_05.png","image_id":277,"category_name":"Quartzite","category":18,"distinct_rating":2.23,"distinct_type":"Bottom","rt":null,"stimulus":"Stimuli_Rocks480/M_Quartzite_05.png","response":null,"trial_type":"image-keyboard-response","trial_index":189,"plugin_version":"2.1.0","time_elapsed":433652,"subject_id":"91854","group":"Group1","condition":"3_Rep","full_date":"2026-02-01T22:28:52.082Z","date":"2026-02-01","time":"22:28:52"},{"rt":null,"stimulus":"<p style=\"font-size: 50px; margin: 0; text-align: center;\">+</p>","response":null,"trial_type":"html-keyboard-response","trial_index":190,"plugin_version":"2.1.0","time_elapsed":434655,"subject_id":"91854","group":"Group1","condition":"3_Rep","full_date":"2026-02-01T22:28:52.082Z","date":"2026-02-01","time":"22:28:52"},{"task":"memory_phase","broad_category":"S","image_png":"S_Sandstone_15.png","image_id":463,"category_name":"Sandstone","category":29,"distinct_rating":2,"distinct_type":"Bottom","rt":null,"stimulus":"Stimuli_Rocks480/S_Sandstone_15.png","response":null,"trial_type":"image-keyboard-response","trial_index":191,"plugin_version":"2.1.0","time_elapsed":437158,"subject_id":"91854","group":"Group1","condition":"3_Rep","full_date":"2026-02-01T22:28:52.082Z","date":"2026-02-01","time":"22:28:52"},{"rt":null,"stimulus":"<p style=\"font-size: 50px; margin: 0; text-align: center;\">+</p>","response":null,"trial_type":"html-keyboard-response","trial_index":192,"plugin_version":"2.1.0","time_elapsed":438160,"subject_id":"91854","group":"Group1","condition":"3_Rep","full_date":"2026-02-01T22:28:52.082Z","date":"2026-02-01","time":"22:28:52"},{"task":"memory_phase","broad_category":"I","image_png":"I_Basalt_02.png","image_id":18,"category_name":"Basalt","category":2,"distinct_rating":1.84,"distinct_type":"Bottom","rt":null,"stimulus":"Stimuli_Rocks480/I_Basalt_02.png","response":null,"trial_type":"image-keyboard-response","trial_index":193,"plugin_version":"2.1.0","time_elapsed":440664,"subject_id":"91854","group":"Group1","condition":"3_Rep","full_date":"2026-02-01T22:28:52.082Z","date":"2026-02-01","time":"22:28:52"},{"rt":null,"stimulus":"<p style=\"font-size: 50px; margin: 0; text-align: center;\">+</p>","response":null,"trial_type":"html-keyboard-response","trial_index":194,"plugin_version":"2.1.0","time_elapsed":441667,"subject_id":"91854","group":"Group1","condition":"3_Rep","full_date":"2026-02-01T22:28:52.082Z","date":"2026-02-01","time":"22:28:52"},{"task":"memory_phase","broad_category":"S","image_png":"S_Sandstone_03.png","image_id":451,"category_name":"Sandstone","category":29,"distinct_rating":1.86,"distinct_type":"Bottom","rt":null,"stimulus":"Stimuli_Rocks480/S_Sandstone_03.png","response":null,"trial_type":"image-keyboard-response","trial_index":195,"plugin_version":"2.1.0","time_elapsed":444171,"subject_id":"91854","group":"Group1","condition":"3_Rep","full_date":"2026-02-01T22:28:52.082Z","date":"2026-02-01","time":"22:28:52"},{"rt":null,"stimulus":"<p style=\"font-size: 50px; margin: 0; text-align: center;\">+</p>","response":null,"trial_type":"html-keyboard-response","trial_index":196,"plugin_version":"2.1.0","time_elapsed":445174,"subject_id":"91854","group":"Group1","condition":"3_Rep","full_date":"2026-02-01T22:28:52.082Z","date":"2026-02-01","time":"22:28:52"},{"task":"memory_phase","broad_category":"M","image_png":"M_Quartzite_08.png","image_id":280,"category_name":"Quartzite","category":18,"distinct_rating":2.15,"distinct_type":"Bottom","rt":null,"stimulus":"Stimuli_Rocks480/M_Quartzite_08.png","response":null,"trial_type":"image-keyboard-response","trial_index":197,"plugin_version":"2.1.0","time_elapsed":447678,"subject_id":"91854","group":"Group1","condition":"3_Rep","full_date":"2026-02-01T22:28:52.082Z","date":"2026-02-01","time":"22:28:52"},{"rt":null,"stimulus":"<p style=\"font-size: 50px; margin: 0; text-align: center;\">+</p>","response":null,"trial_type":"html-keyboard-response","trial_index":198,"plugin_version":"2.1.0","time_elapsed":448681,"subject_id":"91854","group":"Group1","condition":"3_Rep","full_date":"2026-02-01T22:28:52.082Z","date":"2026-02-01","time":"22:28:52"},{"task":"memory_phase","broad_category":"I","image_png":"I_Gabbro_16.png","image_id":64,"category_name":"Gabbro","category":4,"distinct_rating":2.52,"distinct_type":"Bottom","rt":null,"stimulus":"Stimuli_Rocks480/I_Gabbro_16.png","response":null,"trial_type":"image-keyboard-response","trial_index":199,"plugin_version":"2.1.0","time_elapsed":451185,"subject_id":"91854","group":"Group1","condition":"3_Rep","full_date":"2026-02-01T22:28:52.082Z","date":"2026-02-01","time":"22:28:52"},{"rt":null,"stimulus":"<p style=\"font-size: 50px; margin: 0; text-align: center;\">+</p>","response":null,"trial_type":"html-keyboard-response","trial_index":200,"plugin_version":"2.1.0","time_elapsed":452187,"subject_id":"91854","group":"Group1","condition":"3_Rep","full_date":"2026-02-01T22:28:52.082Z","date":"2026-02-01","time":"22:28:52"},{"task":"memory_phase","broad_category":"I","image_png":"I_Pegmatite_10.png","image_id":106,"category_name":"Pegmatite","category":7,"distinct_rating":7.66,"distinct_type":"Top","rt":null,"stimulus":"Stimuli_Rocks480/I_Pegmatite_10.png","response":null,"trial_type":"image-keyboard-response","trial_index":201,"plugin_version":"2.1.0","time_elapsed":454691,"subject_id":"91854","group":"Group1","condition":"3_Rep","full_date":"2026-02-01T22:28:52.082Z","date":"2026-02-01","time":"22:28:52"},{"rt":null,"stimulus":"<p style=\"font-size: 50px; margin: 0; text-align: center;\">+</p>","response":null,"trial_type":"html-keyboard-response","trial_index":202,"plugin_version":"2.1.0","time_elapsed":455694,"subject_id":"91854","group":"Group1","condition":"3_Rep","full_date":"2026-02-01T22:28:52.082Z","date":"2026-02-01","time":"22:28:52"},{"task":"memory_phase","broad_category":"S","image_png":"S_Rock Salt_01.png","image_id":433,"category_name":"Rock Salt","category":28,"distinct_rating":7.18,"distinct_type":"Top","rt":null,"stimulus":"Stimuli_Rocks480/S_Rock Salt_01.png","response":null,"trial_type":"image-keyboard-response","trial_index":203,"plugin_version":"2.1.0","time_elapsed":458198,"subject_id":"91854","group":"Group1","condition":"3_Rep","full_date":"2026-02-01T22:28:52.082Z","date":"2026-02-01","time":"22:28:52"},{"rt":null,"stimulus":"<p style=\"font-size: 50px; margin: 0; text-align: center;\">+</p>","response":null,"trial_type":"html-keyboard-response","trial_index":204,"plugin_version":"2.1.0","time_elapsed":459200,"subject_id":"91854","group":"Group1","condition":"3_Rep","full_date":"2026-02-01T22:28:52.082Z","date":"2026-02-01","time":"22:28:52"},{"task":"memory_phase","broad_category":"I","image_png":"I_Andesite_10.png","image_id":10,"category_name":"Andesite","category":1,"distinct_rating":3.15,"distinct_type":"Bottom","rt":null,"stimulus":"Stimuli_Rocks480/I_Andesite_10.png","response":null,"trial_type":"image-keyboard-response","trial_index":205,"plugin_version":"2.1.0","time_elapsed":461704,"subject_id":"91854","group":"Group1","condition":"3_Rep","full_date":"2026-02-01T22:28:52.082Z","date":"2026-02-01","time":"22:28:52"},{"rt":null,"stimulus":"<p style=\"font-size: 50px; margin: 0; text-align: center;\">+</p>","response":null,"trial_type":"html-keyboard-response","trial_index":206,"plugin_version":"2.1.0","time_elapsed":462707,"subject_id":"91854","group":"Group1","condition":"3_Rep","full_date":"2026-02-01T22:28:52.082Z","date":"2026-02-01","time":"22:28:52"},{"task":"memory_phase","broad_category":"S","image_png":"S_Sandstone_16.png","image_id":464,"category_name":"Sandstone","category":29,"distinct_rating":1.93,"distinct_type":"Bottom","rt":null,"stimulus":"Stimuli_Rocks480/S_Sandstone_16.png","response":null,"trial_type":"image-keyboard-response","trial_index":207,"plugin_version":"2.1.0","time_elapsed":465211,"subject_id":"91854","group":"Group1","condition":"3_Rep","full_date":"2026-02-01T22:28:52.082Z","date":"2026-02-01","time":"22:28:52"},{"rt":13456,"stimulus":"<p style=\"max-width: 760px; margin: auto; font-size: 35px; line-height: 1.5;\">\n                You have completed 2 study phases. \n                Now, we'll show you all the images again 1 more time.\n                <br><br>Press SPACE to continue\n              </p>","response":" ","trial_type":"html-keyboard-response","trial_index":208,"plugin_version":"2.1.0","time_elapsed":478667,"subject_id":"91854","group":"Group1","condition":"3_Rep","full_date":"2026-02-01T22:28:52.082Z","date":"2026-02-01","time":"22:28:52"},{"rt":null,"stimulus":"<p style=\"font-size: 50px; margin: 0; text-align: center;\">+</p>","response":null,"trial_type":"html-keyboard-response","trial_index":209,"plugin_version":"2.1.0","time_elapsed":479669,"subject_id":"91854","group":"Group1","condition":"3_Rep","full_date":"2026-02-01T22:28:52.082Z","date":"2026-02-01","time":"22:28:52"},{"task":"memory_phase","broad_category":"S","image_png":"S_Sandstone_03.png","image_id":451,"category_name":"Sandstone","category":29,"distinct_rating":1.86,"distinct_type":"Bottom","rt":null,"stimulus":"Stimuli_Rocks480/S_Sandstone_03.png","response":null,"trial_type":"image-keyboard-response","trial_index":210,"plugin_version":"2.1.0","time_elapsed":482173,"subject_id":"91854","group":"Group1","condition":"3_Rep","full_date":"2026-02-01T22:28:52.082Z","date":"2026-02-01","time":"22:28:52"},{"rt":null,"stimulus":"<p style=\"font-size: 50px; margin: 0; text-align: center;\">+</p>","response":null,"trial_type":"html-keyboard-response","trial_index":211,"plugin_version":"2.1.0","time_elapsed":483176,"subject_id":"91854","group":"Group1","condition":"3_Rep","full_date":"2026-02-01T22:28:52.082Z","date":"2026-02-01","time":"22:28:52"},{"task":"memory_phase","broad_category":"I","image_png":"I_Basalt_02.png","image_id":18,"category_name":"Basalt","category":2,"distinct_rating":1.84,"distinct_type":"Bottom","rt":null,"stimulus":"Stimuli_Rocks480/I_Basalt_02.png","response":null,"trial_type":"image-keyboard-response","trial_index":212,"plugin_version":"2.1.0","time_elapsed":485680,"subject_id":"91854","group":"Group1","condition":"3_Rep","full_date":"2026-02-01T22:28:52.082Z","date":"2026-02-01","time":"22:28:52"},{"rt":null,"stimulus":"<p style=\"font-size: 50px; margin: 0; text-align: center;\">+</p>","response":null,"trial_type":"html-keyboard-response","trial_index":213,"plugin_version":"2.1.0","time_elapsed":486682,"subject_id":"91854","group":"Group1","condition":"3_Rep","full_date":"2026-02-01T22:28:52.082Z","date":"2026-02-01","time":"22:28:52"},{"task":"memory_phase","broad_category":"I","image_png":"I_Andesite_08.png","image_id":8,"category_name":"Andesite","category":1,"distinct_rating":1.95,"distinct_type":"Bottom","rt":null,"stimulus":"Stimuli_Rocks480/I_Andesite_08.png","response":null,"trial_type":"image-keyboard-response","trial_index":214,"plugin_version":"2.1.0","time_elapsed":489186,"subject_id":"91854","group":"Group1","condition":"3_Rep","full_date":"2026-02-01T22:28:52.082Z","date":"2026-02-01","time":"22:28:52"},{"rt":null,"stimulus":"<p style=\"font-size: 50px; margin: 0; text-align: center;\">+</p>","response":null,"trial_type":"html-keyboard-response","trial_index":215,"plugin_version":"2.1.0","time_elapsed":490188,"subject_id":"91854","group":"Group1","condition":"3_Rep","full_date":"2026-02-01T22:28:52.082Z","date":"2026-02-01","time":"22:28:52"},{"task":"memory_phase","broad_category":"S","image_png":"S_Breccia_11.png","image_id":347,"category_name":"Breccia","category":22,"distinct_rating":6.7,"distinct_type":"Top","rt":null,"stimulus":"Stimuli_Rocks480/S_Breccia_11.png","response":null,"trial_type":"image-keyboard-response","trial_index":216,"plugin_version":"2.1.0","time_elapsed":492692,"subject_id":"91854","group":"Group1","condition":"3_Rep","full_date":"2026-02-01T22:28:52.082Z","date":"2026-02-01","time":"22:28:52"},{"rt":null,"stimulus":"<p style=\"font-size: 50px; margin: 0; text-align: center;\">+</p>","response":null,"trial_type":"html-keyboard-response","trial_index":217,"plugin_version":"2.1.0","time_elapsed":493694,"subject_id":"91854","group":"Group1","condition":"3_Rep","full_date":"2026-02-01T22:28:52.082Z","date":"2026-02-01","time":"22:28:52"},{"task":"memory_phase","broad_category":"M","image_png":"M_Phyllite_03.png","image_id":259,"category_name":"Phyllite","category":17,"distinct_rating":2.5,"distinct_type":"Bottom","rt":null,"stimulus":"Stimuli_Rocks480/M_Phyllite_03.png","response":null,"trial_type":"image-keyboard-response","trial_index":218,"plugin_version":"2.1.0","time_elapsed":496198,"subject_id":"91854","group":"Group1","condition":"3_Rep","full_date":"2026-02-01T22:28:52.082Z","date":"2026-02-01","time":"22:28:52"},{"rt":null,"stimulus":"<p style=\"font-size: 50px; margin: 0; text-align: center;\">+</p>","response":null,"trial_type":"html-keyboard-response","trial_index":219,"plugin_version":"2.1.0","time_elapsed":497201,"subject_id":"91854","group":"Group1","condition":"3_Rep","full_date":"2026-02-01T22:28:52.082Z","date":"2026-02-01","time":"22:28:52"},{"task":"memory_phase","broad_category":"S","image_png":"S_Sandstone_15.png","image_id":463,"category_name":"Sandstone","category":29,"distinct_rating":2,"distinct_type":"Bottom","rt":null,"stimulus":"Stimuli_Rocks480/S_Sandstone_15.png","response":null,"trial_type":"image-keyboard-response","trial_index":220,"plugin_version":"2.1.0","time_elapsed":499704,"subject_id":"91854","group":"Group1","condition":"3_Rep","full_date":"2026-02-01T22:28:52.082Z","date":"2026-02-01","time":"22:28:52"},{"rt":null,"stimulus":"<p style=\"font-size: 50px; margin: 0; text-align: center;\">+</p>","response":null,"trial_type":"html-keyboard-response","trial_index":221,"plugin_version":"2.1.0","time_elapsed":500707,"subject_id":"91854","group":"Group1","condition":"3_Rep","full_date":"2026-02-01T22:28:52.082Z","date":"2026-02-01","time":"22:28:52"},{"task":"memory_phase","broad_category":"I","image_png":"I_Pumice_08.png","image_id":136,"category_name":"Pumice","category":9,"distinct_rating":3.1,"distinct_type":"Bottom","rt":null,"stimulus":"Stimuli_Rocks480/I_Pumice_08.png","response":null,"trial_type":"image-keyboard-response","trial_index":222,"plugin_version":"2.1.0","time_elapsed":503211,"subject_id":"91854","group":"Group1","condition":"3_Rep","full_date":"2026-02-01T22:28:52.082Z","date":"2026-02-01","time":"22:28:52"},{"rt":null,"stimulus":"<p style=\"font-size: 50px; margin: 0; text-align: center;\">+</p>","response":null,"trial_type":"html-keyboard-response","trial_index":223,"plugin_version":"2.1.0","time_elapsed":504213,"subject_id":"91854","group":"Group1","condition":"3_Rep","full_date":"2026-02-01T22:28:52.082Z","date":"2026-02-01","time":"22:28:52"},{"task":"memory_phase","broad_category":"I","image_png":"I_Pumice_11.png","image_id":139,"category_name":"Pumice","category":9,"distinct_rating":1.74,"distinct_type":"Bottom","rt":null,"stimulus":"Stimuli_Rocks480/I_Pumice_11.png","response":null,"trial_type":"image-keyboard-response","trial_index":224,"plugin_version":"2.1.0","time_elapsed":506716,"subject_id":"91854","group":"Group1","condition":"3_Rep","full_date":"2026-02-01T22:28:52.082Z","date":"2026-02-01","time":"22:28:52"},{"rt":null,"stimulus":"<p style=\"font-size: 50px; margin: 0; text-align: center;\">+</p>","response":null,"trial_type":"html-keyboard-response","trial_index":225,"plugin_version":"2.1.0","time_elapsed":507719,"subject_id":"91854","group":"Group1","condition":"3_Rep","full_date":"2026-02-01T22:28:52.082Z","date":"2026-02-01","time":"22:28:52"},{"task":"memory_phase","broad_category":"I","image_png":"I_Basalt_01.png","image_id":17,"category_name":"Basalt","category":2,"distinct_rating":1.92,"distinct_type":"Bottom","rt":null,"stimulus":"Stimuli_Rocks480/I_Basalt_01.png","response":null,"trial_type":"image-keyboard-response","trial_index":226,"plugin_version":"2.1.0","time_elapsed":510222,"subject_id":"91854","group":"Group1","condition":"3_Rep","full_date":"2026-02-01T22:28:52.082Z","date":"2026-02-01","time":"22:28:52"},{"rt":null,"stimulus":"<p style=\"font-size: 50px; margin: 0; text-align: center;\">+</p>","response":null,"trial_type":"html-keyboard-response","trial_index":227,"plugin_version":"2.1.0","time_elapsed":511224,"subject_id":"91854","group":"Group1","condition":"3_Rep","full_date":"2026-02-01T22:28:52.082Z","date":"2026-02-01","time":"22:28:52"},{"task":"memory_phase","broad_category":"I","image_png":"I_Pumice_12.png","image_id":140,"category_name":"Pumice","category":9,"distinct_rating":2.97,"distinct_type":"Bottom","rt":null,"stimulus":"Stimuli_Rocks480/I_Pumice_12.png","response":null,"trial_type":"image-keyboard-response","trial_index":228,"plugin_version":"2.1.0","time_elapsed":513728,"subject_id":"91854","group":"Group1","condition":"3_Rep","full_date":"2026-02-01T22:28:52.082Z","date":"2026-02-01","time":"22:28:52"},{"rt":null,"stimulus":"<p style=\"font-size: 50px; margin: 0; text-align: center;\">+</p>","response":null,"trial_type":"html-keyboard-response","trial_index":229,"plugin_version":"2.1.0","time_elapsed":514731,"subject_id":"91854","group":"Group1","condition":"3_Rep","full_date":"2026-02-01T22:28:52.082Z","date":"2026-02-01","time":"22:28:52"},{"task":"memory_phase","broad_category":"M","image_png":"M_Phyllite_10.png","image_id":266,"category_name":"Phyllite","category":17,"distinct_rating":2.6,"distinct_type":"Bottom","rt":null,"stimulus":"Stimuli_Rocks480/M_Phyllite_10.png","response":null,"trial_type":"image-keyboard-response","trial_index":230,"plugin_version":"2.1.0","time_elapsed":517235,"subject_id":"91854","group":"Group1","condition":"3_Rep","full_date":"2026-02-01T22:28:52.082Z","date":"2026-02-01","time":"22:28:52"},{"rt":null,"stimulus":"<p style=\"font-size: 50px; margin: 0; text-align: center;\">+</p>","response":null,"trial_type":"html-keyboard-response","trial_index":231,"plugin_version":"2.1.0","time_elapsed":518237,"subject_id":"91854","group":"Group1","condition":"3_Rep","full_date":"2026-02-01T22:28:52.082Z","date":"2026-02-01","time":"22:28:52"},{"task":"memory_phase","broad_category":"M","image_png":"M_Gneiss_05.png","image_id":197,"category_name":"Gneiss","category":13,"distinct_rating":2.97,"distinct_type":"Bottom","rt":null,"stimulus":"Stimuli_Rocks480/M_Gneiss_05.png","response":null,"trial_type":"image-keyboard-response","trial_index":232,"plugin_version":"2.1.0","time_elapsed":520741,"subject_id":"91854","group":"Group1","condition":"3_Rep","full_date":"2026-02-01T22:28:52.082Z","date":"2026-02-01","time":"22:28:52"},{"rt":null,"stimulus":"<p style=\"font-size: 50px; margin: 0; text-align: center;\">+</p>","response":null,"trial_type":"html-keyboard-response","trial_index":233,"plugin_version":"2.1.0","time_elapsed":521743,"subject_id":"91854","group":"Group1","condition":"3_Rep","full_date":"2026-02-01T22:28:52.082Z","date":"2026-02-01","time":"22:28:52"},{"task":"memory_phase","broad_category":"M","image_png":"M_Quartzite_08.png","image_id":280,"category_name":"Quartzite","category":18,"distinct_rating":2.15,"distinct_type":"Bottom","rt":null,"stimulus":"Stimuli_Rocks480/M_Quartzite_08.png","response":null,"trial_type":"image-keyboard-response","trial_index":234,"plugin_version":"2.1.0","time_elapsed":524247,"subject_id":"91854","group":"Group1","condition":"3_Rep","full_date":"2026-02-01T22:28:52.082Z","date":"2026-02-01","time":"22:28:52"},{"rt":null,"stimulus":"<p style=\"font-size: 50px; margin: 0; text-align: center;\">+</p>","response":null,"trial_type":"html-keyboard-response","trial_index":235,"plugin_version":"2.1.0","time_elapsed":525249,"subject_id":"91854","group":"Group1","condition":"3_Rep","full_date":"2026-02-01T22:28:52.082Z","date":"2026-02-01","time":"22:28:52"},{"task":"memory_phase","broad_category":"I","image_png":"I_Obsidian_05.png","image_id":85,"category_name":"Obsidian","category":6,"distinct_rating":7.32,"distinct_type":"Top","rt":null,"stimulus":"St