[{"width":1710,"height":989,"webaudio":true,"browser":"safari","browser_version":"18.6.0","mobile":false,"os":"Mac OS","fullscreen":true,"vsync_rate":59.88,"webcam":true,"microphone":true,"trial_type":"browser-check","trial_index":0,"plugin_version":"2.1.0","time_elapsed":1013,"subject_id":"92613","group":"Group2","condition":"1_Rep","full_date":"2026-02-03T02:46:37.802Z","date":"2026-02-03","time":"02:46:37"},{"success":true,"timeout":false,"failed_images":[],"failed_audio":[],"failed_video":[],"trial_type":"preload","trial_index":1,"plugin_version":"2.1.0","time_elapsed":5264,"subject_id":"92613","group":"Group2","condition":"1_Rep","full_date":"2026-02-03T02:46:37.802Z","date":"2026-02-03","time":"02:46:37"},{"rt":32427,"url":"SONA_consent_memorability.html","trial_type":"external-html","trial_index":2,"plugin_version":"2.1.0","time_elapsed":37747,"subject_id":"92613","group":"Group2","condition":"1_Rep","full_date":"2026-02-03T02:46:37.802Z","date":"2026-02-03","time":"02:46:37"},{"success":true,"rt":1230,"trial_type":"fullscreen","trial_index":3,"plugin_version":"2.1.0","time_elapsed":39981,"subject_id":"92613","group":"Group2","condition":"1_Rep","full_date":"2026-02-03T02:46:37.802Z","date":"2026-02-03","time":"02:46:37"},{"rt":19996,"stimulus":"<div style=\"max-width: 760px; margin: auto; font-size: 20px; line-height: 1.5;\">\n      <h1 style=\"text-align:center; font-size: 30px;\">Instructions</h1>\n      <p>\n        Welcome to the study on <b>visual memory</b>. This experiment consists of <b>two phases</b>: \n        a <b>study phase</b> and a <b>test phase</b>.\n      </p>\n      <p>\n        In the study phase, you will see a series of rock images along with their category labels.\n        The images will appear one at a time.\n        <b>Your task</b> is to learn the categories to which the rock images belong \n        and to remember each image as accurately as possible.\n      </p> \n      <p>\n        Note that you will see each image only <b>once</b> during the study phase. \n          So, please pay close attention and try to remember each image carefully.\n      </p>\n      <p>\n        After the study phase, <b>your memory will be tested</b>. \n        Additional instructions for the test phase will be provided at that time.\n      </p>\n      <p>\n        If your computer has multiple <b>language settings</b> (e.g., English and another language),\n        please make sure it is set to English before starting.\n      </p>\n      <p>\n        You can track your progress using the <b>completion bar</b> at the top of the screen. \n        Please note that the bar will refresh when the test phase begins \n        to give you an accurate sense of your progress in both phases.\n      </p> \n      <p>\n        Press the button below when you are ready to begin.\n      </p>\n    </div>","response":0,"trial_type":"html-button-response","trial_index":4,"plugin_version":"2.1.0","time_elapsed":59980,"subject_id":"92613","group":"Group2","condition":"1_Rep","full_date":"2026-02-03T02:46:37.802Z","date":"2026-02-03","time":"02:46:37"},{"rt":null,"stimulus":"<p style=\"font-size: 50px; margin: 0; text-align: center;\">+</p>","response":null,"trial_type":"html-keyboard-response","trial_index":5,"plugin_version":"2.1.0","time_elapsed":60985,"subject_id":"92613","group":"Group2","condition":"1_Rep","full_date":"2026-02-03T02:46:37.802Z","date":"2026-02-03","time":"02:46:37"},{"task":"memory_phase","broad_category":"I","image_png":"I_Peridotite_13.png","image_id":125,"category_name":"Peridotite","category":8,"distinct_rating":7.28,"distinct_type":"Top","rt":null,"stimulus":"Stimuli_Rocks480/I_Peridotite_13.png","response":null,"trial_type":"image-keyboard-response","trial_index":6,"plugin_version":"2.1.0","time_elapsed":63504,"subject_id":"92613","group":"Group2","condition":"1_Rep","full_date":"2026-02-03T02:46:37.802Z","date":"2026-02-03","time":"02:46:37"},{"rt":null,"stimulus":"<p style=\"font-size: 50px; margin: 0; text-align: center;\">+</p>","response":null,"trial_type":"html-keyboard-response","trial_index":7,"plugin_version":"2.1.0","time_elapsed":64506,"subject_id":"92613","group":"Group2","condition":"1_Rep","full_date":"2026-02-03T02:46:37.802Z","date":"2026-02-03","time":"02:46:37"},{"task":"memory_phase","broad_category":"S","image_png":"S_Dolomite_16.png","image_id":400,"category_name":"Dolomite","category":25,"distinct_rating":1.71,"distinct_type":"Bottom","rt":null,"stimulus":"Stimuli_Rocks480/S_Dolomite_16.png","response":null,"trial_type":"image-keyboard-response","trial_index":8,"plugin_version":"2.1.0","time_elapsed":67023,"subject_id":"92613","group":"Group2","condition":"1_Rep","full_date":"2026-02-03T02:46:37.802Z","date":"2026-02-03","time":"02:46:37"},{"rt":null,"stimulus":"<p style=\"font-size: 50px; margin: 0; text-align: center;\">+</p>","response":null,"trial_type":"html-keyboard-response","trial_index":9,"plugin_version":"2.1.0","time_elapsed":68025,"subject_id":"92613","group":"Group2","condition":"1_Rep","full_date":"2026-02-03T02:46:37.802Z","date":"2026-02-03","time":"02:46:37"},{"task":"memory_phase","broad_category":"S","image_png":"S_Shale_03.png","image_id":467,"category_name":"Shale","category":30,"distinct_rating":1.95,"distinct_type":"Bottom","rt":null,"stimulus":"Stimuli_Rocks480/S_Shale_03.png","response":null,"trial_type":"image-keyboard-response","trial_index":10,"plugin_version":"2.1.0","time_elapsed":70545,"subject_id":"92613","group":"Group2","condition":"1_Rep","full_date":"2026-02-03T02:46:37.802Z","date":"2026-02-03","time":"02:46:37"},{"rt":null,"stimulus":"<p style=\"font-size: 50px; margin: 0; text-align: center;\">+</p>","response":null,"trial_type":"html-keyboard-response","trial_index":11,"plugin_version":"2.1.0","time_elapsed":71547,"subject_id":"92613","group":"Group2","condition":"1_Rep","full_date":"2026-02-03T02:46:37.802Z","date":"2026-02-03","time":"02:46:37"},{"task":"memory_phase","broad_category":"I","image_png":"I_Rhyolite_10.png","image_id":154,"category_name":"Rhyolite","category":10,"distinct_rating":2.88,"distinct_type":"Bottom","rt":null,"stimulus":"Stimuli_Rocks480/I_Rhyolite_10.png","response":null,"trial_type":"image-keyboard-response","trial_index":12,"plugin_version":"2.1.0","time_elapsed":74068,"subject_id":"92613","group":"Group2","condition":"1_Rep","full_date":"2026-02-03T02:46:37.802Z","date":"2026-02-03","time":"02:46:37"},{"rt":null,"stimulus":"<p style=\"font-size: 50px; margin: 0; text-align: center;\">+</p>","response":null,"trial_type":"html-keyboard-response","trial_index":13,"plugin_version":"2.1.0","time_elapsed":75071,"subject_id":"92613","group":"Group2","condition":"1_Rep","full_date":"2026-02-03T02:46:37.802Z","date":"2026-02-03","time":"02:46:37"},{"task":"memory_phase","broad_category":"S","image_png":"S_Sandstone_08.png","image_id":456,"category_name":"Sandstone","category":29,"distinct_rating":1.5,"distinct_type":"Bottom","rt":null,"stimulus":"Stimuli_Rocks480/S_Sandstone_08.png","response":null,"trial_type":"image-keyboard-response","trial_index":14,"plugin_version":"2.1.0","time_elapsed":77586,"subject_id":"92613","group":"Group2","condition":"1_Rep","full_date":"2026-02-03T02:46:37.802Z","date":"2026-02-03","time":"02:46:37"},{"rt":null,"stimulus":"<p style=\"font-size: 50px; margin: 0; text-align: center;\">+</p>","response":null,"trial_type":"html-keyboard-response","trial_index":15,"plugin_version":"2.1.0","time_elapsed":78589,"subject_id":"92613","group":"Group2","condition":"1_Rep","full_date":"2026-02-03T02:46:37.802Z","date":"2026-02-03","time":"02:46:37"},{"task":"memory_phase","broad_category":"M","image_png":"M_Quartzite_15.png","image_id":287,"category_name":"Quartzite","category":18,"distinct_rating":2.19,"distinct_type":"Bottom","rt":null,"stimulus":"Stimuli_Rocks480/M_Quartzite_15.png","response":null,"trial_type":"image-keyboard-response","trial_index":16,"plugin_version":"2.1.0","time_elapsed":81107,"subject_id":"92613","group":"Group2","condition":"1_Rep","full_date":"2026-02-03T02:46:37.802Z","date":"2026-02-03","time":"02:46:37"},{"rt":null,"stimulus":"<p style=\"font-size: 50px; margin: 0; text-align: center;\">+</p>","response":null,"trial_type":"html-keyboard-response","trial_index":17,"plugin_version":"2.1.0","time_elapsed":82110,"subject_id":"92613","group":"Group2","condition":"1_Rep","full_date":"2026-02-03T02:46:37.802Z","date":"2026-02-03","time":"02:46:37"},{"task":"memory_phase","broad_category":"M","image_png":"M_Slate_10.png","image_id":314,"category_name":"Slate","category":20,"distinct_rating":1.94,"distinct_type":"Bottom","rt":null,"stimulus":"Stimuli_Rocks480/M_Slate_10.png","response":null,"trial_type":"image-keyboard-response","trial_index":18,"plugin_version":"2.1.0","time_elapsed":84621,"subject_id":"92613","group":"Group2","condition":"1_Rep","full_date":"2026-02-03T02:46:37.802Z","date":"2026-02-03","time":"02:46:37"},{"rt":null,"stimulus":"<p style=\"font-size: 50px; margin: 0; text-align: center;\">+</p>","response":null,"trial_type":"html-keyboard-response","trial_index":19,"plugin_version":"2.1.0","time_elapsed":85624,"subject_id":"92613","group":"Group2","condition":"1_Rep","full_date":"2026-02-03T02:46:37.802Z","date":"2026-02-03","time":"02:46:37"},{"task":"memory_phase","broad_category":"S","image_png":"S_Chert_13.png","image_id":365,"category_name":"Chert","category":23,"distinct_rating":6.57,"distinct_type":"Top","rt":null,"stimulus":"Stimuli_Rocks480/S_Chert_13.png","response":null,"trial_type":"image-keyboard-response","trial_index":20,"plugin_version":"2.1.0","time_elapsed":88137,"subject_id":"92613","group":"Group2","condition":"1_Rep","full_date":"2026-02-03T02:46:37.802Z","date":"2026-02-03","time":"02:46:37"},{"rt":null,"stimulus":"<p style=\"font-size: 50px; margin: 0; text-align: center;\">+</p>","response":null,"trial_type":"html-keyboard-response","trial_index":21,"plugin_version":"2.1.0","time_elapsed":89139,"subject_id":"92613","group":"Group2","condition":"1_Rep","full_date":"2026-02-03T02:46:37.802Z","date":"2026-02-03","time":"02:46:37"},{"task":"memory_phase","broad_category":"M","image_png":"M_Marble_03.png","image_id":227,"category_name":"Marble","category":15,"distinct_rating":2.67,"distinct_type":"Bottom","rt":null,"stimulus":"Stimuli_Rocks480/M_Marble_03.png","response":null,"trial_type":"image-keyboard-response","trial_index":22,"plugin_version":"2.1.0","time_elapsed":91653,"subject_id":"92613","group":"Group2","condition":"1_Rep","full_date":"2026-02-03T02:46:37.802Z","date":"2026-02-03","time":"02:46:37"},{"rt":null,"stimulus":"<p style=\"font-size: 50px; margin: 0; text-align: center;\">+</p>","response":null,"trial_type":"html-keyboard-response","trial_index":23,"plugin_version":"2.1.0","time_elapsed":92656,"subject_id":"92613","group":"Group2","condition":"1_Rep","full_date":"2026-02-03T02:46:37.802Z","date":"2026-02-03","time":"02:46:37"},{"task":"memory_phase","broad_category":"S","image_png":"S_Sandstone_04.png","image_id":452,"category_name":"Sandstone","category":29,"distinct_rating":1.8,"distinct_type":"Bottom","rt":null,"stimulus":"Stimuli_Rocks480/S_Sandstone_04.png","response":null,"trial_type":"image-keyboard-response","trial_index":24,"plugin_version":"2.1.0","time_elapsed":95173,"subject_id":"92613","group":"Group2","condition":"1_Rep","full_date":"2026-02-03T02:46:37.802Z","date":"2026-02-03","time":"02:46:37"},{"rt":null,"stimulus":"<p style=\"font-size: 50px; margin: 0; text-align: center;\">+</p>","response":null,"trial_type":"html-keyboard-response","trial_index":25,"plugin_version":"2.1.0","time_elapsed":96175,"subject_id":"92613","group":"Group2","condition":"1_Rep","full_date":"2026-02-03T02:46:37.802Z","date":"2026-02-03","time":"02:46:37"},{"task":"memory_phase","broad_category":"I","image_png":"I_Diorite_15.png","image_id":47,"category_name":"Diorite","category":3,"distinct_rating":3.05,"distinct_type":"Bottom","rt":null,"stimulus":"Stimuli_Rocks480/I_Diorite_15.png","response":null,"trial_type":"image-keyboard-response","trial_index":26,"plugin_version":"2.1.0","time_elapsed":98690,"subject_id":"92613","group":"Group2","condition":"1_Rep","full_date":"2026-02-03T02:46:37.802Z","date":"2026-02-03","time":"02:46:37"},{"rt":null,"stimulus":"<p style=\"font-size: 50px; margin: 0; text-align: center;\">+</p>","response":null,"trial_type":"html-keyboard-response","trial_index":27,"plugin_version":"2.1.0","time_elapsed":99693,"subject_id":"92613","group":"Group2","condition":"1_Rep","full_date":"2026-02-03T02:46:37.802Z","date":"2026-02-03","time":"02:46:37"},{"task":"memory_phase","broad_category":"I","image_png":"I_Pumice_14.png","image_id":142,"category_name":"Pumice","category":9,"distinct_rating":3.22,"distinct_type":"Bottom","rt":null,"stimulus":"Stimuli_Rocks480/I_Pumice_14.png","response":null,"trial_type":"image-keyboard-response","trial_index":28,"plugin_version":"2.1.0","time_elapsed":102211,"subject_id":"92613","group":"Group2","condition":"1_Rep","full_date":"2026-02-03T02:46:37.802Z","date":"2026-02-03","time":"02:46:37"},{"rt":null,"stimulus":"<p style=\"font-size: 50px; margin: 0; text-align: center;\">+</p>","response":null,"trial_type":"html-keyboard-response","trial_index":29,"plugin_version":"2.1.0","time_elapsed":103213,"subject_id":"92613","group":"Group2","condition":"1_Rep","full_date":"2026-02-03T02:46:37.802Z","date":"2026-02-03","time":"02:46:37"},{"task":"memory_phase","broad_category":"I","image_png":"I_Basalt_08.png","image_id":24,"category_name":"Basalt","category":2,"distinct_rating":2.31,"distinct_type":"Bottom","rt":null,"stimulus":"Stimuli_Rocks480/I_Basalt_08.png","response":null,"trial_type":"image-keyboard-response","trial_index":30,"plugin_version":"2.1.0","time_elapsed":105734,"subject_id":"92613","group":"Group2","condition":"1_Rep","full_date":"2026-02-03T02:46:37.802Z","date":"2026-02-03","time":"02:46:37"},{"rt":null,"stimulus":"<p style=\"font-size: 50px; margin: 0; text-align: center;\">+</p>","response":null,"trial_type":"html-keyboard-response","trial_index":31,"plugin_version":"2.1.0","time_elapsed":106737,"subject_id":"92613","group":"Group2","condition":"1_Rep","full_date":"2026-02-03T02:46:37.802Z","date":"2026-02-03","time":"02:46:37"},{"task":"memory_phase","broad_category":"I","image_png":"I_Diorite_01.png","image_id":33,"category_name":"Diorite","category":3,"distinct_rating":2.97,"distinct_type":"Bottom","rt":null,"stimulus":"Stimuli_Rocks480/I_Diorite_01.png","response":null,"trial_type":"image-keyboard-response","trial_index":32,"plugin_version":"2.1.0","time_elapsed":109256,"subject_id":"92613","group":"Group2","condition":"1_Rep","full_date":"2026-02-03T02:46:37.802Z","date":"2026-02-03","time":"02:46:37"},{"rt":null,"stimulus":"<p style=\"font-size: 50px; margin: 0; text-align: center;\">+</p>","response":null,"trial_type":"html-keyboard-response","trial_index":33,"plugin_version":"2.1.0","time_elapsed":110259,"subject_id":"92613","group":"Group2","condition":"1_Rep","full_date":"2026-02-03T02:46:37.802Z","date":"2026-02-03","time":"02:46:37"},{"task":"memory_phase","broad_category":"M","image_png":"M_Quartzite_07.png","image_id":279,"category_name":"Quartzite","category":18,"distinct_rating":1.97,"distinct_type":"Bottom","rt":null,"stimulus":"Stimuli_Rocks480/M_Quartzite_07.png","response":null,"trial_type":"image-keyboard-response","trial_index":34,"plugin_version":"2.1.0","time_elapsed":112776,"subject_id":"92613","group":"Group2","condition":"1_Rep","full_date":"2026-02-03T02:46:37.802Z","date":"2026-02-03","time":"02:46:37"},{"rt":null,"stimulus":"<p style=\"font-size: 50px; margin: 0; text-align: center;\">+</p>","response":null,"trial_type":"html-keyboard-response","trial_index":35,"plugin_version":"2.1.0","time_elapsed":113779,"subject_id":"92613","group":"Group2","condition":"1_Rep","full_date":"2026-02-03T02:46:37.802Z","date":"2026-02-03","time":"02:46:37"},{"task":"memory_phase","broad_category":"S","image_png":"S_Rock Salt_15.png","image_id":447,"category_name":"Rock Salt","category":28,"distinct_rating":7.79,"distinct_type":"Top","rt":null,"stimulus":"Stimuli_Rocks480/S_Rock Salt_15.png","response":null,"trial_type":"image-keyboard-response","trial_index":36,"plugin_version":"2.1.0","time_elapsed":116294,"subject_id":"92613","group":"Group2","condition":"1_Rep","full_date":"2026-02-03T02:46:37.802Z","date":"2026-02-03","time":"02:46:37"},{"rt":null,"stimulus":"<p style=\"font-size: 50px; margin: 0; text-align: center;\">+</p>","response":null,"trial_type":"html-keyboard-response","trial_index":37,"plugin_version":"2.1.0","time_elapsed":117296,"subject_id":"92613","group":"Group2","condition":"1_Rep","full_date":"2026-02-03T02:46:37.802Z","date":"2026-02-03","time":"02:46:37"},{"task":"memory_phase","broad_category":"M","image_png":"M_Marble_14.png","image_id":238,"category_name":"Marble","category":15,"distinct_rating":3.31,"distinct_type":"Bottom","rt":null,"stimulus":"Stimuli_Rocks480/M_Marble_14.png","response":null,"trial_type":"image-keyboard-response","trial_index":38,"plugin_version":"2.1.0","time_elapsed":119813,"subject_id":"92613","group":"Group2","condition":"1_Rep","full_date":"2026-02-03T02:46:37.802Z","date":"2026-02-03","time":"02:46:37"},{"rt":null,"stimulus":"<p style=\"font-size: 50px; margin: 0; text-align: center;\">+</p>","response":null,"trial_type":"html-keyboard-response","trial_index":39,"plugin_version":"2.1.0","time_elapsed":120815,"subject_id":"92613","group":"Group2","condition":"1_Rep","full_date":"2026-02-03T02:46:37.802Z","date":"2026-02-03","time":"02:46:37"},{"task":"memory_phase","broad_category":"I","image_png":"I_Gabbro_12.png","image_id":60,"category_name":"Gabbro","category":4,"distinct_rating":2.6,"distinct_type":"Bottom","rt":null,"stimulus":"Stimuli_Rocks480/I_Gabbro_12.png","response":null,"trial_type":"image-keyboard-response","trial_index":40,"plugin_version":"2.1.0","time_elapsed":123333,"subject_id":"92613","group":"Group2","condition":"1_Rep","full_date":"2026-02-03T02:46:37.802Z","date":"2026-02-03","time":"02:46:37"},{"rt":null,"stimulus":"<p style=\"font-size: 50px; margin: 0; text-align: center;\">+</p>","response":null,"trial_type":"html-keyboard-response","trial_index":41,"plugin_version":"2.1.0","time_elapsed":124337,"subject_id":"92613","group":"Group2","condition":"1_Rep","full_date":"2026-02-03T02:46:37.802Z","date":"2026-02-03","time":"02:46:37"},{"task":"memory_phase","broad_category":"M","image_png":"M_Quartzite_12.png","image_id":284,"category_name":"Quartzite","category":18,"distinct_rating":1.92,"distinct_type":"Bottom","rt":null,"stimulus":"Stimuli_Rocks480/M_Quartzite_12.png","response":null,"trial_type":"image-keyboard-response","trial_index":42,"plugin_version":"2.1.0","time_elapsed":126851,"subject_id":"92613","group":"Group2","condition":"1_Rep","full_date":"2026-02-03T02:46:37.802Z","date":"2026-02-03","time":"02:46:37"},{"rt":null,"stimulus":"<p style=\"font-size: 50px; margin: 0; text-align: center;\">+</p>","response":null,"trial_type":"html-keyboard-response","trial_index":43,"plugin_version":"2.1.0","time_elapsed":127853,"subject_id":"92613","group":"Group2","condition":"1_Rep","full_date":"2026-02-03T02:46:37.802Z","date":"2026-02-03","time":"02:46:37"},{"task":"memory_phase","broad_category":"I","image_png":"I_Rhyolite_08.png","image_id":152,"category_name":"Rhyolite","category":10,"distinct_rating":1.38,"distinct_type":"Bottom","rt":null,"stimulus":"Stimuli_Rocks480/I_Rhyolite_08.png","response":null,"trial_type":"image-keyboard-response","trial_index":44,"plugin_version":"2.1.0","time_elapsed":130368,"subject_id":"92613","group":"Group2","condition":"1_Rep","full_date":"2026-02-03T02:46:37.802Z","date":"2026-02-03","time":"02:46:37"},{"rt":null,"stimulus":"<p style=\"font-size: 50px; margin: 0; text-align: center;\">+</p>","response":null,"trial_type":"html-keyboard-response","trial_index":45,"plugin_version":"2.1.0","time_elapsed":131371,"subject_id":"92613","group":"Group2","condition":"1_Rep","full_date":"2026-02-03T02:46:37.802Z","date":"2026-02-03","time":"02:46:37"},{"task":"memory_phase","broad_category":"I","image_png":"I_Basalt_13.png","image_id":29,"category_name":"Basalt","category":2,"distinct_rating":2.68,"distinct_type":"Bottom","rt":null,"stimulus":"Stimuli_Rocks480/I_Basalt_13.png","response":null,"trial_type":"image-keyboard-response","trial_index":46,"plugin_version":"2.1.0","time_elapsed":133886,"subject_id":"92613","group":"Group2","condition":"1_Rep","full_date":"2026-02-03T02:46:37.802Z","date":"2026-02-03","time":"02:46:37"},{"rt":null,"stimulus":"<p style=\"font-size: 50px; margin: 0; text-align: center;\">+</p>","response":null,"trial_type":"html-keyboard-response","trial_index":47,"plugin_version":"2.1.0","time_elapsed":134888,"subject_id":"92613","group":"Group2","condition":"1_Rep","full_date":"2026-02-03T02:46:37.802Z","date":"2026-02-03","time":"02:46:37"},{"task":"memory_phase","broad_category":"I","image_png":"I_Diorite_10.png","image_id":42,"category_name":"Diorite","category":3,"distinct_rating":2.84,"distinct_type":"Bottom","rt":null,"stimulus":"Stimuli_Rocks480/I_Diorite_10.png","response":null,"trial_type":"image-keyboard-response","trial_index":48,"plugin_version":"2.1.0","time_elapsed":137405,"subject_id":"92613","group":"Group2","condition":"1_Rep","full_date":"2026-02-03T02:46:37.802Z","date":"2026-02-03","time":"02:46:37"},{"rt":null,"stimulus":"<p style=\"font-size: 50px; margin: 0; text-align: center;\">+</p>","response":null,"trial_type":"html-keyboard-response","trial_index":49,"plugin_version":"2.1.0","time_elapsed":138407,"subject_id":"92613","group":"Group2","condition":"1_Rep","full_date":"2026-02-03T02:46:37.802Z","date":"2026-02-03","time":"02:46:37"},{"task":"memory_phase","broad_category":"M","image_png":"M_Gneiss_15.png","image_id":207,"category_name":"Gneiss","category":13,"distinct_rating":3.11,"distinct_type":"Bottom","rt":null,"stimulus":"Stimuli_Rocks480/M_Gneiss_15.png","response":null,"trial_type":"image-keyboard-response","trial_index":50,"plugin_version":"2.1.0","time_elapsed":140920,"subject_id":"92613","group":"Group2","condition":"1_Rep","full_date":"2026-02-03T02:46:37.802Z","date":"2026-02-03","time":"02:46:37"},{"rt":null,"stimulus":"<p style=\"font-size: 50px; margin: 0; text-align: center;\">+</p>","response":null,"trial_type":"html-keyboard-response","trial_index":51,"plugin_version":"2.1.0","time_elapsed":141923,"subject_id":"92613","group":"Group2","condition":"1_Rep","full_date":"2026-02-03T02:46:37.802Z","date":"2026-02-03","time":"02:46:37"},{"task":"memory_phase","broad_category":"S","image_png":"S_Shale_02.png","image_id":466,"category_name":"Shale","category":30,"distinct_rating":2.9,"distinct_type":"Bottom","rt":null,"stimulus":"Stimuli_Rocks480/S_Shale_02.png","response":null,"trial_type":"image-keyboard-response","trial_index":52,"plugin_version":"2.1.0","time_elapsed":144436,"subject_id":"92613","group":"Group2","condition":"1_Rep","full_date":"2026-02-03T02:46:37.802Z","date":"2026-02-03","time":"02:46:37"},{"rt":null,"stimulus":"<p style=\"font-size: 50px; margin: 0; text-align: center;\">+</p>","response":null,"trial_type":"html-keyboard-response","trial_index":53,"plugin_version":"2.1.0","time_elapsed":145438,"subject_id":"92613","group":"Group2","condition":"1_Rep","full_date":"2026-02-03T02:46:37.802Z","date":"2026-02-03","time":"02:46:37"},{"task":"memory_phase","broad_category":"I","image_png":"I_Andesite_09.png","image_id":9,"category_name":"Andesite","category":1,"distinct_rating":2.49,"distinct_type":"Bottom","rt":null,"stimulus":"Stimuli_Rocks480/I_Andesite_09.png","response":null,"trial_type":"image-keyboard-response","trial_index":54,"plugin_version":"2.1.0","time_elapsed":147953,"subject_id":"92613","group":"Group2","condition":"1_Rep","full_date":"2026-02-03T02:46:37.802Z","date":"2026-02-03","time":"02:46:37"},{"rt":2922,"stimulus":"<p style=\"max-width: 760px; margin: auto; font-size: 35px; line-height: 1.5;\">\n                Press SPACE to continue study phase\n              </p>","response":" ","trial_type":"html-keyboard-response","trial_index":55,"plugin_version":"2.1.0","time_elapsed":150877,"subject_id":"92613","group":"Group2","condition":"1_Rep","full_date":"2026-02-03T02:46:37.802Z","date":"2026-02-03","time":"02:46:37"},{"rt":null,"stimulus":"<p style=\"font-size: 50px; margin: 0; text-align: center;\">+</p>","response":null,"trial_type":"html-keyboard-response","trial_index":56,"plugin_version":"2.1.0","time_elapsed":151880,"subject_id":"92613","group":"Group2","condition":"1_Rep","full_date":"2026-02-03T02:46:37.802Z","date":"2026-02-03","time":"02:46:37"},{"task":"memory_phase","broad_category":"M","image_png":"M_Slate_14.png","image_id":318,"category_name":"Slate","category":20,"distinct_rating":2.58,"distinct_type":"Bottom","rt":null,"stimulus":"Stimuli_Rocks480/M_Slate_14.png","response":null,"trial_type":"image-keyboard-response","trial_index":57,"plugin_version":"2.1.0","time_elapsed":154391,"subject_id":"92613","group":"Group2","condition":"1_Rep","full_date":"2026-02-03T02:46:37.802Z","date":"2026-02-03","time":"02:46:37"},{"rt":null,"stimulus":"<p style=\"font-size: 50px; margin: 0; text-align: center;\">+</p>","response":null,"trial_type":"html-keyboard-response","trial_index":58,"plugin_version":"2.1.0","time_elapsed":155394,"subject_id":"92613","group":"Group2","condition":"1_Rep","full_date":"2026-02-03T02:46:37.802Z","date":"2026-02-03","time":"02:46:37"},{"task":"memory_phase","broad_category":"M","image_png":"M_Gneiss_10.png","image_id":202,"category_name":"Gneiss","category":13,"distinct_rating":3.09,"distinct_type":"Bottom","rt":null,"stimulus":"Stimuli_Rocks480/M_Gneiss_10.png","response":null,"trial_type":"image-keyboard-response","trial_index":59,"plugin_version":"2.1.0","time_elapsed":157916,"subject_id":"92613","group":"Group2","condition":"1_Rep","full_date":"2026-02-03T02:46:37.802Z","date":"2026-02-03","time":"02:46:37"},{"rt":null,"stimulus":"<p style=\"font-size: 50px; margin: 0; text-align: center;\">+</p>","response":null,"trial_type":"html-keyboard-response","trial_index":60,"plugin_version":"2.1.0","time_elapsed":158919,"subject_id":"92613","group":"Group2","condition":"1_Rep","full_date":"2026-02-03T02:46:37.802Z","date":"2026-02-03","time":"02:46:37"},{"task":"memory_phase","broad_category":"M","image_png":"M_Marble_02.png","image_id":226,"category_name":"Marble","category":15,"distinct_rating":3.2,"distinct_type":"Bottom","rt":null,"stimulus":"Stimuli_Rocks480/M_Marble_02.png","response":null,"trial_type":"image-keyboard-response","trial_index":61,"plugin_version":"2.1.0","time_elapsed":161432,"subject_id":"92613","group":"Group2","condition":"1_Rep","full_date":"2026-02-03T02:46:37.802Z","date":"2026-02-03","time":"02:46:37"},{"rt":null,"stimulus":"<p style=\"font-size: 50px; margin: 0; text-align: center;\">+</p>","response":null,"trial_type":"html-keyboard-response","trial_index":62,"plugin_version":"2.1.0","time_elapsed":162434,"subject_id":"92613","group":"Group2","condition":"1_Rep","full_date":"2026-02-03T02:46:37.802Z","date":"2026-02-03","time":"02:46:37"},{"task":"memory_phase","broad_category":"I","image_png":"I_Pumice_01.png","image_id":129,"category_name":"Pumice","category":9,"distinct_rating":3.25,"distinct_type":"Bottom","rt":null,"stimulus":"Stimuli_Rocks480/I_Pumice_01.png","response":null,"trial_type":"image-keyboard-response","trial_index":63,"plugin_version":"2.1.0","time_elapsed":164949,"subject_id":"92613","group":"Group2","condition":"1_Rep","full_date":"2026-02-03T02:46:37.802Z","date":"2026-02-03","time":"02:46:37"},{"rt":null,"stimulus":"<p style=\"font-size: 50px; margin: 0; text-align: center;\">+</p>","response":null,"trial_type":"html-keyboard-response","trial_index":64,"plugin_version":"2.1.0","time_elapsed":165951,"subject_id":"92613","group":"Group2","condition":"1_Rep","full_date":"2026-02-03T02:46:37.802Z","date":"2026-02-03","time":"02:46:37"},{"task":"memory_phase","broad_category":"I","image_png":"I_Andesite_04.png","image_id":4,"category_name":"Andesite","category":1,"distinct_rating":3.18,"distinct_type":"Bottom","rt":null,"stimulus":"Stimuli_Rocks480/I_Andesite_04.png","response":null,"trial_type":"image-keyboard-response","trial_index":65,"plugin_version":"2.1.0","time_elapsed":168468,"subject_id":"92613","group":"Group2","condition":"1_Rep","full_date":"2026-02-03T02:46:37.802Z","date":"2026-02-03","time":"02:46:37"},{"rt":null,"stimulus":"<p style=\"font-size: 50px; margin: 0; text-align: center;\">+</p>","response":null,"trial_type":"html-keyboard-response","trial_index":66,"plugin_version":"2.1.0","time_elapsed":169470,"subject_id":"92613","group":"Group2","condition":"1_Rep","full_date":"2026-02-03T02:46:37.802Z","date":"2026-02-03","time":"02:46:37"},{"task":"memory_phase","broad_category":"S","image_png":"S_Dolomite_01.png","image_id":385,"category_name":"Dolomite","category":25,"distinct_rating":1.43,"distinct_type":"Bottom","rt":null,"stimulus":"Stimuli_Rocks480/S_Dolomite_01.png","response":null,"trial_type":"image-keyboard-response","trial_index":67,"plugin_version":"2.1.0","time_elapsed":171988,"subject_id":"92613","group":"Group2","condition":"1_Rep","full_date":"2026-02-03T02:46:37.802Z","date":"2026-02-03","time":"02:46:37"},{"rt":null,"stimulus":"<p style=\"font-size: 50px; margin: 0; text-align: center;\">+</p>","response":null,"trial_type":"html-keyboard-response","trial_index":68,"plugin_version":"2.1.0","time_elapsed":172991,"subject_id":"92613","group":"Group2","condition":"1_Rep","full_date":"2026-02-03T02:46:37.802Z","date":"2026-02-03","time":"02:46:37"},{"task":"memory_phase","broad_category":"I","image_png":"I_Gabbro_02.png","image_id":50,"category_name":"Gabbro","category":4,"distinct_rating":2.73,"distinct_type":"Bottom","rt":null,"stimulus":"Stimuli_Rocks480/I_Gabbro_02.png","response":null,"trial_type":"image-keyboard-response","trial_index":69,"plugin_version":"2.1.0","time_elapsed":175512,"subject_id":"92613","group":"Group2","condition":"1_Rep","full_date":"2026-02-03T02:46:37.802Z","date":"2026-02-03","time":"02:46:37"},{"rt":null,"stimulus":"<p style=\"font-size: 50px; margin: 0; text-align: center;\">+</p>","response":null,"trial_type":"html-keyboard-response","trial_index":70,"plugin_version":"2.1.0","time_elapsed":176515,"subject_id":"92613","group":"Group2","condition":"1_Rep","full_date":"2026-02-03T02:46:37.802Z","date":"2026-02-03","time":"02:46:37"},{"task":"memory_phase","broad_category":"M","image_png":"M_Phyllite_05.png","image_id":261,"category_name":"Phyllite","category":17,"distinct_rating":2.14,"distinct_type":"Bottom","rt":null,"stimulus":"Stimuli_Rocks480/M_Phyllite_05.png","response":null,"trial_type":"image-keyboard-response","trial_index":71,"plugin_version":"2.1.0","time_elapsed":179028,"subject_id":"92613","group":"Group2","condition":"1_Rep","full_date":"2026-02-03T02:46:37.802Z","date":"2026-02-03","time":"02:46:37"},{"rt":null,"stimulus":"<p style=\"font-size: 50px; margin: 0; text-align: center;\">+</p>","response":null,"trial_type":"html-keyboard-response","trial_index":72,"plugin_version":"2.1.0","time_elapsed":180031,"subject_id":"92613","group":"Group2","condition":"1_Rep","full_date":"2026-02-03T02:46:37.802Z","date":"2026-02-03","time":"02:46:37"},{"task":"memory_phase","broad_category":"S","image_png":"S_Shale_07.png","image_id":471,"category_name":"Shale","category":30,"distinct_rating":2.73,"distinct_type":"Bottom","rt":null,"stimulus":"Stimuli_Rocks480/S_Shale_07.png","response":null,"trial_type":"image-keyboard-response","trial_index":73,"plugin_version":"2.1.0","time_elapsed":182544,"subject_id":"92613","group":"Group2","condition":"1_Rep","full_date":"2026-02-03T02:46:37.802Z","date":"2026-02-03","time":"02:46:37"},{"rt":null,"stimulus":"<p style=\"font-size: 50px; margin: 0; text-align: center;\">+</p>","response":null,"trial_type":"html-keyboard-response","trial_index":74,"plugin_version":"2.1.0","time_elapsed":183547,"subject_id":"92613","group":"Group2","condition":"1_Rep","full_date":"2026-02-03T02:46:37.802Z","date":"2026-02-03","time":"02:46:37"},{"task":"memory_phase","broad_category":"I","image_png":"I_Andesite_03.png","image_id":3,"category_name":"Andesite","category":1,"distinct_rating":3.17,"distinct_type":"Bottom","rt":null,"stimulus":"Stimuli_Rocks480/I_Andesite_03.png","response":null,"trial_type":"image-keyboard-response","trial_index":75,"plugin_version":"2.1.0","time_elapsed":186059,"subject_id":"92613","group":"Group2","condition":"1_Rep","full_date":"2026-02-03T02:46:37.802Z","date":"2026-02-03","time":"02:46:37"},{"rt":null,"stimulus":"<p style=\"font-size: 50px; margin: 0; text-align: center;\">+</p>","response":null,"trial_type":"html-keyboard-response","trial_index":76,"plugin_version":"2.1.0","time_elapsed":187061,"subject_id":"92613","group":"Group2","condition":"1_Rep","full_date":"2026-02-03T02:46:37.802Z","date":"2026-02-03","time":"02:46:37"},{"task":"memory_phase","broad_category":"I","image_png":"I_Rhyolite_05.png","image_id":149,"category_name":"Rhyolite","category":10,"distinct_rating":3.02,"distinct_type":"Bottom","rt":null,"stimulus":"Stimuli_Rocks480/I_Rhyolite_05.png","response":null,"trial_type":"image-keyboard-response","trial_index":77,"plugin_version":"2.1.0","time_elapsed":189580,"subject_id":"92613","group":"Group2","condition":"1_Rep","full_date":"2026-02-03T02:46:37.802Z","date":"2026-02-03","time":"02:46:37"},{"rt":null,"stimulus":"<p style=\"font-size: 50px; margin: 0; text-align: center;\">+</p>","response":null,"trial_type":"html-keyboard-response","trial_index":78,"plugin_version":"2.1.0","time_elapsed":190583,"subject_id":"92613","group":"Group2","condition":"1_Rep","full_date":"2026-02-03T02:46:37.802Z","date":"2026-02-03","time":"02:46:37"},{"task":"memory_phase","broad_category":"M","image_png":"M_Phyllite_13.png","image_id":269,"category_name":"Phyllite","category":17,"distinct_rating":2.8,"distinct_type":"Bottom","rt":null,"stimulus":"Stimuli_Rocks480/M_Phyllite_13.png","response":null,"trial_type":"image-keyboard-response","trial_index":79,"plugin_version":"2.1.0","time_elapsed":193098,"subject_id":"92613","group":"Group2","condition":"1_Rep","full_date":"2026-02-03T02:46:37.802Z","date":"2026-02-03","time":"02:46:37"},{"rt":null,"stimulus":"<p style=\"font-size: 50px; margin: 0; text-align: center;\">+</p>","response":null,"trial_type":"html-keyboard-response","trial_index":80,"plugin_version":"2.1.0","time_elapsed":194100,"subject_id":"92613","group":"Group2","condition":"1_Rep","full_date":"2026-02-03T02:46:37.802Z","date":"2026-02-03","time":"02:46:37"},{"task":"memory_phase","broad_category":"S","image_png":"S_Sandstone_11.png","image_id":459,"category_name":"Sandstone","category":29,"distinct_rating":1.82,"distinct_type":"Bottom","rt":null,"stimulus":"Stimuli_Rocks480/S_Sandstone_11.png","response":null,"trial_type":"image-keyboard-response","trial_index":81,"plugin_version":"2.1.0","time_elapsed":196619,"subject_id":"92613","group":"Group2","condition":"1_Rep","full_date":"2026-02-03T02:46:37.802Z","date":"2026-02-03","time":"02:46:37"},{"rt":null,"stimulus":"<p style=\"font-size: 50px; margin: 0; text-align: center;\">+</p>","response":null,"trial_type":"html-keyboard-response","trial_index":82,"plugin_version":"2.1.0","time_elapsed":197621,"subject_id":"92613","group":"Group2","condition":"1_Rep","full_date":"2026-02-03T02:46:37.802Z","date":"2026-02-03","time":"02:46:37"},{"task":"memory_phase","broad_category":"I","image_png":"I_Pegmatite_03.png","image_id":99,"category_name":"Pegmatite","category":7,"distinct_rating":7.24,"distinct_type":"Top","rt":null,"stimulus":"Stimuli_Rocks480/I_Pegmatite_03.png","response":null,"trial_type":"image-keyboard-response","trial_index":83,"plugin_version":"2.1.0","time_elapsed":200135,"subject_id":"92613","group":"Group2","condition":"1_Rep","full_date":"2026-02-03T02:46:37.802Z","date":"2026-02-03","time":"02:46:37"},{"rt":null,"stimulus":"<p style=\"font-size: 50px; margin: 0; text-align: center;\">+</p>","response":null,"trial_type":"html-keyboard-response","trial_index":84,"plugin_version":"2.1.0","time_elapsed":201137,"subject_id":"92613","group":"Group2","condition":"1_Rep","full_date":"2026-02-03T02:46:37.802Z","date":"2026-02-03","time":"02:46:37"},{"task":"memory_phase","broad_category":"M","image_png":"M_Phyllite_02.png","image_id":258,"category_name":"Phyllite","category":17,"distinct_rating":2.89,"distinct_type":"Bottom","rt":null,"stimulus":"Stimuli_Rocks480/M_Phyllite_02.png","response":null,"trial_type":"image-keyboard-response","trial_index":85,"plugin_version":"2.1.0","time_elapsed":203655,"subject_id":"92613","group":"Group2","condition":"1_Rep","full_date":"2026-02-03T02:46:37.802Z","date":"2026-02-03","time":"02:46:37"},{"rt":null,"stimulus":"<p style=\"font-size: 50px; margin: 0; text-align: center;\">+</p>","response":null,"trial_type":"html-keyboard-response","trial_index":86,"plugin_version":"2.1.0","time_elapsed":204657,"subject_id":"92613","group":"Group2","condition":"1_Rep","full_date":"2026-02-03T02:46:37.802Z","date":"2026-02-03","time":"02:46:37"},{"task":"memory_phase","broad_category":"I","image_png":"I_Pegmatite_11.png","image_id":107,"category_name":"Pegmatite","category":7,"distinct_rating":7.11,"distinct_type":"Top","rt":null,"stimulus":"Stimuli_Rocks480/I_Pegmatite_11.png","response":null,"trial_type":"image-keyboard-response","trial_index":87,"plugin_version":"2.1.0","time_elapsed":207176,"subject_id":"92613","group":"Group2","condition":"1_Rep","full_date":"2026-02-03T02:46:37.802Z","date":"2026-02-03","time":"02:46:37"},{"rt":null,"stimulus":"<p style=\"font-size: 50px; margin: 0; text-align: center;\">+</p>","response":null,"trial_type":"html-keyboard-response","trial_index":88,"plugin_version":"2.1.0","time_elapsed":208178,"subject_id":"92613","group":"Group2","condition":"1_Rep","full_date":"2026-02-03T02:46:37.802Z","date":"2026-02-03","time":"02:46:37"},{"task":"memory_phase","broad_category":"M","image_png":"M_Slate_04.png","image_id":308,"category_name":"Slate","category":20,"distinct_rating":2.2,"distinct_type":"Bottom","rt":null,"stimulus":"Stimuli_Rocks480/M_Slate_04.png","response":null,"trial_type":"image-keyboard-response","trial_index":89,"plugin_version":"2.1.0","time_elapsed":210692,"subject_id":"92613","group":"Group2","condition":"1_Rep","full_date":"2026-02-03T02:46:37.802Z","date":"2026-02-03","time":"02:46:37"},{"rt":null,"stimulus":"<p style=\"font-size: 50px; margin: 0; text-align: center;\">+</p>","response":null,"trial_type":"html-keyboard-response","trial_index":90,"plugin_version":"2.1.0","time_elapsed":211695,"subject_id":"92613","group":"Group2","condition":"1_Rep","full_date":"2026-02-03T02:46:37.802Z","date":"2026-02-03","time":"02:46:37"},{"task":"memory_phase","broad_category":"S","image_png":"S_Conglomerate_14.png","image_id":382,"category_name":"Conglomerate","category":24,"distinct_rating":6.86,"distinct_type":"Top","rt":null,"stimulus":"Stimuli_Rocks480/S_Conglomerate_14.png","response":null,"trial_type":"image-keyboard-response","trial_index":91,"plugin_version":"2.1.0","time_elapsed":214213,"subject_id":"92613","group":"Group2","condition":"1_Rep","full_date":"2026-02-03T02:46:37.802Z","date":"2026-02-03","time":"02:46:37"},{"rt":null,"stimulus":"<p style=\"font-size: 50px; margin: 0; text-align: center;\">+</p>","response":null,"trial_type":"html-keyboard-response","trial_index":92,"plugin_version":"2.1.0","time_elapsed":215215,"subject_id":"92613","group":"Group2","condition":"1_Rep","full_date":"2026-02-03T02:46:37.802Z","date":"2026-02-03","time":"02:46:37"},{"task":"memory_phase","broad_category":"S","image_png":"S_Rock Salt_13.png","image_id":445,"category_name":"Rock Salt","category":28,"distinct_rating":7.58,"distinct_type":"Top","rt":null,"stimulus":"Stimuli_Rocks480/S_Rock Salt_13.png","response":null,"trial_type":"image-keyboard-response","trial_index":93,"plugin_version":"2.1.0","time_elapsed":217733,"subject_id":"92613","group":"Group2","condition":"1_Rep","full_date":"2026-02-03T02:46:37.802Z","date":"2026-02-03","time":"02:46:37"},{"rt":null,"stimulus":"<p style=\"font-size: 50px; margin: 0; text-align: center;\">+</p>","response":null,"trial_type":"html-keyboard-response","trial_index":94,"plugin_version":"2.1.0","time_elapsed":218736,"subject_id":"92613","group":"Group2","condition":"1_Rep","full_date":"2026-02-03T02:46:37.802Z","date":"2026-02-03","time":"02:46:37"},{"task":"memory_phase","broad_category":"I","image_png":"I_Pumice_13.png","image_id":141,"category_name":"Pumice","category":9,"distinct_rating":3.12,"distinct_type":"Bottom","rt":null,"stimulus":"Stimuli_Rocks480/I_Pumice_13.png","response":null,"trial_type":"image-keyboard-response","trial_index":95,"plugin_version":"2.1.0","time_elapsed":221254,"subject_id":"92613","group":"Group2","condition":"1_Rep","full_date":"2026-02-03T02:46:37.802Z","date":"2026-02-03","time":"02:46:37"},{"rt":null,"stimulus":"<p style=\"font-size: 50px; margin: 0; text-align: center;\">+</p>","response":null,"trial_type":"html-keyboard-response","trial_index":96,"plugin_version":"2.1.0","time_elapsed":222256,"subject_id":"92613","group":"Group2","condition":"1_Rep","full_date":"2026-02-03T02:46:37.802Z","date":"2026-02-03","time":"02:46:37"},{"task":"memory_phase","broad_category":"S","image_png":"S_Dolomite_07.png","image_id":391,"category_name":"Dolomite","category":25,"distinct_rating":1.73,"distinct_type":"Bottom","rt":null,"stimulus":"Stimuli_Rocks480/S_Dolomite_07.png","response":null,"trial_type":"image-keyboard-response","trial_index":97,"plugin_version":"2.1.0","time_elapsed":224771,"subject_id":"92613","group":"Group2","condition":"1_Rep","full_date":"2026-02-03T02:46:37.802Z","date":"2026-02-03","time":"02:46:37"},{"rt":null,"stimulus":"<p style=\"font-size: 50px; margin: 0; text-align: center;\">+</p>","response":null,"trial_type":"html-keyboard-response","trial_index":98,"plugin_version":"2.1.0","time_elapsed":225774,"subject_id":"92613","group":"Group2","condition":"1_Rep","full_date":"2026-02-03T02:46:37.802Z","date":"2026-02-03","time":"02:46:37"},{"task":"memory_phase","broad_category":"M","image_png":"M_Gneiss_14.png","image_id":206,"category_name":"Gneiss","category":13,"distinct_rating":3.41,"distinct_type":"Bottom","rt":null,"stimulus":"Stimuli_Rocks480/M_Gneiss_14.png","response":null,"trial_type":"image-keyboard-response","trial_index":99,"plugin_version":"2.1.0","time_elapsed":228290,"subject_id":"92613","group":"Group2","condition":"1_Rep","full_date":"2026-02-03T02:46:37.802Z","date":"2026-02-03","time":"02:46:37"},{"rt":null,"stimulus":"<p style=\"font-size: 50px; margin: 0; text-align: center;\">+</p>","response":null,"trial_type":"html-keyboard-response","trial_index":100,"plugin_version":"2.1.0","time_elapsed":229292,"subject_id":"92613","group":"Group2","condition":"1_Rep","full_date":"2026-02-03T02:46:37.802Z","date":"2026-02-03","time":"02:46:37"},{"task":"memory_phase","broad_category":"I","image_png":"I_Gabbro_14.png","image_id":62,"category_name":"Gabbro","category":4,"distinct_rating":2.95,"distinct_type":"Bottom","rt":null,"stimulus":"Stimuli_Rocks480/I_Gabbro_14.png","response":null,"trial_type":"image-keyboard-response","trial_index":101,"plugin_version":"2.1.0","time_elapsed":231811,"subject_id":"92613","group":"Group2","condition":"1_Rep","full_date":"2026-02-03T02:46:37.802Z","date":"2026-02-03","time":"02:46:37"},{"rt":null,"stimulus":"<p style=\"font-size: 50px; margin: 0; text-align: center;\">+</p>","response":null,"trial_type":"html-keyboard-response","trial_index":102,"plugin_version":"2.1.0","time_elapsed":232814,"subject_id":"92613","group":"Group2","condition":"1_Rep","full_date":"2026-02-03T02:46:37.802Z","date":"2026-02-03","time":"02:46:37"},{"task":"memory_phase","broad_category":"I","image_png":"I_Obsidian_06.png","image_id":86,"category_name":"Obsidian","category":6,"distinct_rating":8.01,"distinct_type":"Top","rt":null,"stimulus":"Stimuli_Rocks480/I_Obsidian_06.png","response":null,"trial_type":"image-keyboard-response","trial_index":103,"plugin_version":"2.1.0","time_elapsed":235332,"subject_id":"92613","group":"Group2","condition":"1_Rep","full_date":"2026-02-03T02:46:37.802Z","date":"2026-02-03","time":"02:46:37"},{"rt":null,"stimulus":"<p style=\"font-size: 50px; margin: 0; text-align: center;\">+</p>","response":null,"trial_type":"html-keyboard-response","trial_index":104,"plugin_version":"2.1.0","time_elapsed":236334,"subject_id":"92613","group":"Group2","condition":"1_Rep","full_date":"2026-02-03T02:46:37.802Z","date":"2026-02-03","time":"02:46:37"},{"task":"memory_phase","broad_category":"I","image_png":"I_Basalt_10.png","image_id":26,"category_name":"Basalt","category":2,"distinct_rating":2.76,"distinct_type":"Bottom","rt":null,"stimulus":"Stimuli_Rocks480/I_Basalt_10.png","response":null,"trial_type":"image-keyboard-response","trial_index":105,"plugin_version":"2.1.0","time_elapsed":238850,"subject_id":"92613","group":"Group2","condition":"1_Rep","full_date":"2026-02-03T02:46:37.802Z","date":"2026-02-03","time":"02:46:37"},{"rt":2892,"stimulus":"<div style=\"max-width: 760px; margin: auto; font-size: 20px; line-height: 1.5;\">\n      <h1 style=\"text-align:center; font-size: 30px;\">Instructions for the Test Phase</h1>\n      <p>\n        The study phase is now complete.\n      </p>\n      <p>\n        In the test phase, you will again see a series of rock images. \n        Some will be ones you saw before - during the study phase, while others will be new.  \n        <b>Your task</b> is to decide whether you have seen each image before by pressing the corresponding key on your keyboard:<br><br>\n          <b>A</b> - NO (you did not see this image before)<br>\n          <b>L</b> - YES (you saw this image before)<br><br>\n        The test will proceed at your own pace. You will receive feedback after each response.  \n        Please try to respond <b>as accurately as possible</b>.\n      </p>\n      <p>\n        <b>Reminder:</b> If your computer has multiple language settings (e.g., English and another language),\n        please ensure it is set to English during the test phase.\n      </p>\n      <p>\n        You can track your progress using the <b>completion bar</b> at the top of the screen.  \n        Note that it has been refreshed to reflect your progress during this final phase.\n      </p>\n      <p>\n        Press the button below when you are ready to continue.\n      </p>\n    </div>","response":0,"trial_type":"html-button-response","trial_index":106,"plugin_version":"2.1.0","time_elapsed":241745,"subject_id":"92613","group":"Group2","condition":"1_Rep","full_date":"2026-02-03T02:46:37.802Z","date":"2026-02-03","time":"02:46:37"},{"correct_response":"l","task":"test_phase","broad_category":"S","image_png":"S_Shale_02.png","image_id":466,"category_name":"Shale","category":30,"distinct_rating":2.9,"distinct_type":"Bottom","item_type":"Target","rt":2296,"stimulus":"Stimuli_Rocks480/S_Shale_02.png","response":"a","trial_type":"image-keyboard-response","trial_index":107,"plugin_version":"2.1.0","time_elapsed":244055,"subject_id":"92613","group":"Group2","condition":"1_Rep","full_date":"2026-02-03T02:46:37.802Z","date":"2026-02-03","time":"02:46:37","cor_ans":false},{"trial_type":"html-keyboard-response","rt":null,"stimulus":"<p style=\"color: red; font-size: 50px; font-weight: bold;\">Incorrect</p>","response":null,"trial_index":108,"plugin_version":"2.1.0","time_elapsed":244558,"subject_id":"92613","group":"Group2","condition":"1_Rep","full_date":"2026-02-03T02:46:37.802Z","date":"2026-02-03","time":"02:46:37"},{"correct_response":"l","task":"test_phase","broad_category":"M","image_png":"M_Quartzite_15.png","image_id":287,"category_name":"Quartzite","category":18,"distinct_rating":2.19,"distinct_type":"Bottom","item_type":"Target","rt":4594,"stimulus":"Stimuli_Rocks480/M_Quartzite_15.png","response":"l","trial_type":"image-keyboard-response","trial_index":109,"plugin_version":"2.1.0","time_elapsed":249166,"subject_id":"92613","group":"Group2","condition":"1_Rep","full_date":"2026-02-03T02:46:37.802Z","date":"2026-02-03","time":"02:46:37","cor_ans":true},{"trial_type":"html-keyboard-response","rt":null,"stimulus":"<p style=\"color: green; font-size: 50px; font-weight: bold;\">Correct</p>","response":null,"trial_index":110,"plugin_version":"2.1.0","time_elapsed":249669,"subject_id":"92613","group":"Group2","condition":"1_Rep","full_date":"2026-02-03T02:46:37.802Z","date":"2026-02-03","time":"02:46:37"},{"correct_response":"l","task":"test_phase","broad_category":"M","image_png":"M_Quartzite_07.png","image_id":279,"category_name":"Quartzite","category":18,"distinct_rating":1.97,"distinct_type":"Bottom","item_type":"Target","rt":1519,"stimulus":"Stimuli_Rocks480/M_Quartzite_07.png","response":"l","trial_type":"image-keyboard-response","trial_index":111,"plugin_version":"2.1.0","time_elapsed":251204,"subject_id":"92613","group":"Group2","condition":"1_Rep","full_date":"2026-02-03T02:46:37.802Z","date":"2026-02-03","time":"02:46:37","cor_ans":true},{"trial_type":"html-keyboard-response","rt":null,"stimulus":"<p style=\"color: green; font-size: 50px; font-weight: bold;\">Correct</p>","response":null,"trial_index":112,"plugin_version":"2.1.0","time_elapsed":251706,"subject_id":"92613","group":"Group2","condition":"1_Rep","full_date":"2026-02-03T02:46:37.802Z","date":"2026-02-03","time":"02:46:37"},{"correct_response":"l","task":"test_phase","broad_category":"I","image_png":"I_Rhyolite_10.png","image_id":154,"category_name":"Rhyolite","category":10,"distinct_rating":2.88,"distinct_type":"Bottom","item_type":"Target","rt":1087,"stimulus":"Stimuli_Rocks480/I_Rhyolite_10.png","response":"l","trial_type":"image-keyboard-response","trial_index":113,"plugin_version":"2.1.0","time_elapsed":252813,"subject_id":"92613","group":"Group2","condition":"1_Rep","full_date":"2026-02-03T02:46:37.802Z","date":"2026-02-03","time":"02:46:37","cor_ans":true},{"trial_type":"html-keyboard-response","rt":null,"stimulus":"<p style=\"color: green; font-size: 50px; font-weight: bold;\">Correct</p>","response":null,"trial_index":114,"plugin_version":"2.1.0","time_elapsed":253315,"subject_id":"92613","group":"Group2","condition":"1_Rep","full_date":"2026-02-03T02:46:37.802Z","date":"2026-02-03","time":"02:46:37"},{"correct_response":"a","task":"test_phase","broad_category":"S","image_png":"S_Dolomite_14.png","image_id":398,"category_name":"Dolomite","category":25,"distinct_rating":1.43,"distinct_type":"Bottom","item_type":"Foil","rt":1833,"stimulus":"Stimuli_Rocks480/S_Dolomite_14.png","response":"a","trial_type":"image-keyboard-response","trial_index":115,"plugin_version":"2.1.0","time_elapsed":255163,"subject_id":"92613","group":"Group2","condition":"1_Rep","full_date":"2026-02-03T02:46:37.802Z","date":"2026-02-03","time":"02:46:37","cor_ans":true},{"trial_type":"html-keyboard-response","rt":null,"stimulus":"<p style=\"color: green; font-size: 50px; font-weight: bold;\">Correct</p>","response":null,"trial_index":116,"plugin_version":"2.1.0","time_elapsed":255666,"subject_id":"92613","group":"Group2","condition":"1_Rep","full_date":"2026-02-03T02:46:37.802Z","date":"2026-02-03","time":"02:46:37"},{"correct_response":"l","task":"test_phase","broad_category":"I","image_png":"I_Pumice_01.png","image_id":129,"category_name":"Pumice","category":9,"distinct_rating":3.25,"distinct_type":"Bottom","item_type":"Target","rt":1195,"stimulus":"Stimuli_Rocks480/I_Pumice_01.png","response":"l","trial_type":"image-keyboard-response","trial_index":117,"plugin_version":"2.1.0","time_elapsed":256875,"subject_id":"92613","group":"Group2","condition":"1_Rep","full_date":"2026-02-03T02:46:37.802Z","date":"2026-02-03","time":"02:46:37","cor_ans":true},{"trial_type":"html-keyboard-response","rt":null,"stimulus":"<p style=\"color: green; font-size: 50px; font-weight: bold;\">Correct</p>","response":null,"trial_index":118,"plugin_version":"2.1.0","time_elapsed":257377,"subject_id":"92613","group":"Group2","condition":"1_Rep","full_date":"2026-02-03T02:46:37.802Z","date":"2026-02-03","time":"02:46:37"},{"correct_response":"l","task":"test_phase","broad_category":"I","image_png":"I_Obsidian_06.png","image_id":86,"category_name":"Obsidian","category":6,"distinct_rating":8.01,"distinct_type":"Top","item_type":"Target","rt":738,"stimulus":"Stimuli_Rocks480/I_Obsidian_06.png","response":"l","trial_type":"image-keyboard-response","trial_index":119,"plugin_version":"2.1.0","time_elapsed":258118,"subject_id":"92613","group":"Group2","condition":"1_Rep","full_date":"2026-02-03T02:46:37.802Z","date":"2026-02-03","time":"02:46:37","cor_ans":true},{"trial_type":"html-keyboard-response","rt":null,"stimulus":"<p style=\"color: green; font-size: 50px; font-weight: bold;\">Correct</p>","response":null,"trial_index":120,"plugin_version":"2.1.0","time_elapsed":258620,"subject_id":"92613","group":"Group2","condition":"1_Rep","full_date":"2026-02-03T02:46:37.802Z","date":"2026-02-03","time":"02:46:37"},{"correct_response":"a","task":"test_phase","broad_category":"S","image_png":"S_Dolomite_13.png","image_id":397,"category_name":"Dolomite","category":25,"distinct_rating":1.77,"distinct_type":"Bottom","item_type":"Foil","rt":1421,"stimulus":"Stimuli_Rocks480/S_Dolomite_13.png","response":"a","trial_type":"image-keyboard-response","trial_index":121,"plugin_version":"2.1.0","time_elapsed":260054,"subject_id":"92613","group":"Group2","condition":"1_Rep","full_date":"2026-02-03T02:46:37.802Z","date":"2026-02-03","time":"02:46:37","cor_ans":true},{"trial_type":"html-keyboard-response","rt":null,"stimulus":"<p style=\"color: green; font-size: 50px; font-weight: bold;\">Correct</p>","response":null,"trial_index":122,"plugin_version":"2.1.0","time_elapsed":260557,"subject_id":"92613","group":"Group2","condition":"1_Rep","full_date":"2026-02-03T02:46:37.802Z","date":"2026-02-03","time":"02:46:37"},{"correct_response":"l","task":"test_phase","broad_category":"I","image_png":"I_Basalt_10.png","image_id":26,"category_name":"Basalt","category":2,"distinct_rating":2.76,"distinct_type":"Bottom","item_type":"Target","rt":1038,"stimulus":"Stimuli_Rocks480/I_Basalt_10.png","response":"l","trial_type":"image-keyboard-response","trial_index":123,"plugin_version":"2.1.0","time_elapsed":261597,"subject_id":"92613","group":"Group2","condition":"1_Rep","full_date":"2026-02-03T02:46:37.802Z","date":"2026-02-03","time":"02:46:37","cor_ans":true},{"trial_type":"html-keyboard-response","rt":null,"stimulus":"<p style=\"color: green; font-size: 50px; font-weight: bold;\">Correct</p>","response":null,"trial_index":124,"plugin_version":"2.1.0","time_elapsed":262099,"subject_id":"92613","group":"Group2","condition":"1_Rep","full_date":"2026-02-03T02:46:37.802Z","date":"2026-02-03","time":"02:46:37"},{"correct_response":"l","task":"test_phase","broad_category":"S","image_png":"S_Dolomite_16.png","image_id":400,"category_name":"Dolomite","category":25,"distinct_rating":1.71,"distinct_type":"Bottom","item_type":"Target","rt":1006,"stimulus":"Stimuli_Rocks480/S_Dolomite_16.png","response":"l","trial_type":"image-keyboard-response","trial_index":125,"plugin_version":"2.1.0","time_elapsed":263120,"subject_id":"92613","group":"Group2","condition":"1_Rep","full_date":"2026-02-03T02:46:37.802Z","date":"2026-02-03","time":"02:46:37","cor_ans":true},{"trial_type":"html-keyboard-response","rt":null,"stimulus":"<p style=\"color: green; font-size: 50px; font-weight: bold;\">Correct</p>","response":null,"trial_index":126,"plugin_version":"2.1.0","time_elapsed":263622,"subject_id":"92613","group":"Group2","condition":"1_Rep","full_date":"2026-02-03T02:46:37.802Z","date":"2026-02-03","time":"02:46:37"},{"correct_response":"l","task":"test_phase","broad_category":"S","image_png":"S_Shale_03.png","image_id":467,"category_name":"Shale","category":30,"distinct_rating":1.95,"distinct_type":"Bottom","item_type":"Target","rt":790,"stimulus":"Stimuli_Rocks480/S_Shale_03.png","response":"l","trial_type":"image-keyboard-response","trial_index":127,"plugin_version":"2.1.0","time_elapsed":264430,"subject_id":"92613","group":"Group2","condition":"1_Rep","full_date":"2026-02-03T02:46:37.802Z","date":"2026-02-03","time":"02:46:37","cor_ans":true},{"trial_type":"html-keyboard-response","rt":null,"stimulus":"<p style=\"color: green; font-size: 50px; font-weight: bold;\">Correct</p>","response":null,"trial_index":128,"plugin_version":"2.1.0","time_elapsed":264932,"subject_id":"92613","group":"Group2","condition":"1_Rep","full_date":"2026-02-03T02:46:37.802Z","date":"2026-02-03","time":"02:46:37"},{"correct_response":"a","task":"test_phase","broad_category":"S","image_png":"S_Shale_12.png","image_id":476,"category_name":"Shale","category":30,"distinct_rating":2.48,"distinct_type":"Bottom","item_type":"Foil","rt":1069,"stimulus":"Stimuli_Rocks480/S_Shale_12.png","response":"a","trial_type":"image-keyboard-response","trial_index":129,"plugin_version":"2.1.0","time_elapsed":266016,"subject_id":"92613","group":"Group2","condition":"1_Rep","full_date":"2026-02-03T02:46:37.802Z","date":"2026-02-03","time":"02:46:37","cor_ans":true},{"trial_type":"html-keyboard-response","rt":null,"stimulus":"<p style=\"color: green; font-size: 50px; font-weight: bold;\">Correct</p>","response":null,"trial_index":130,"plugin_version":"2.1.0","time_elapsed":266518,"subject_id":"92613","group":"Group2","condition":"1_Rep","full_date":"2026-02-03T02:46:37.802Z","date":"2026-02-03","time":"02:46:37"},{"correct_response":"a","task":"test_phase","broad_category":"S","image_png":"S_Chert_10.png","image_id":362,"category_name":"Chert","category":23,"distinct_rating":7.17,"distinct_type":"Top","item_type":"Foil","rt":1230,"stimulus":"Stimuli_Rocks480/S_Chert_10.png","response":"a","trial_type":"image-keyboard-response","trial_index":131,"plugin_version":"2.1.0","time_elapsed":267762,"subject_id":"92613","group":"Group2","condition":"1_Rep","full_date":"2026-02-03T02:46:37.802Z","date":"2026-02-03","time":"02:46:37","cor_ans":true},{"trial_type":"html-keyboard-response","rt":null,"stimulus":"<p style=\"color: green; font-size: 50px; font-weight: bold;\">Correct</p>","response":null,"trial_index":132,"plugin_version":"2.1.0","time_elapsed":268264,"subject_id":"92613","group":"Group2","condition":"1_Rep","full_date":"2026-02-03T02:46:37.802Z","date":"2026-02-03","time":"02:46:37"},{"correct_response":"a","task":"test_phase","broad_category":"S","image_png":"S_Sandstone_16.png","image_id":464,"category_name":"Sandstone","category":29,"distinct_rating":1.93,"distinct_type":"Bottom","item_type":"Foil","rt":1107,"stimulus":"Stimuli_Rocks480/S_Sandstone_16.png","response":"a","trial_type":"image-keyboard-response","trial_index":133,"plugin_version":"2.1.0","time_elapsed":269384,"subject_id":"92613","group":"Group2","condition":"1_Rep","full_date":"2026-02-03T02:46:37.802Z","date":"2026-02-03","time":"02:46:37","cor_ans":true},{"trial_type":"html-keyboard-response","rt":null,"stimulus":"<p style=\"color: green; font-size: 50px; font-weight: bold;\">Correct</p>","response":null,"trial_index":134,"plugin_version":"2.1.0","time_elapsed":269886,"subject_id":"92613","group":"Group2","condition":"1_Rep","full_date":"2026-02-03T02:46:37.802Z","date":"2026-02-03","time":"02:46:37"},{"correct_response":"l","task":"test_phase","broad_category":"M","image_png":"M_Gneiss_10.png","image_id":202,"category_name":"Gneiss","category":13,"distinct_rating":3.09,"distinct_type":"Bottom","item_type":"Target","rt":1070,"stimulus":"Stimuli_Rocks480/M_Gneiss_10.png","response":"l","trial_type":"image-keyboard-response","trial_index":135,"plugin_version":"2.1.0","time_elapsed":270972,"subject_id":"92613","group":"Group2","condition":"1_Rep","full_date":"2026-02-03T02:46:37.802Z","date":"2026-02-03","time":"02:46:37","cor_ans":true},{"trial_type":"html-keyboard-response","rt":null,"stimulus":"<p style=\"color: green; font-size: 50px; font-weight: bold;\">Correct</p>","response":null,"trial_index":136,"plugin_version":"2.1.0","time_elapsed":271475,"subject_id":"92613","group":"Group2","condition":"1_Rep","full_date":"2026-02-03T02:46:37.802Z","date":"2026-02-03","time":"02:46:37"},{"correct_response":"a","task":"test_phase","broad_category":"I","image_png":"I_Basalt_01.png","image_id":17,"category_name":"Basalt","category":2,"distinct_rating":1.92,"distinct_type":"Bottom","item_type":"Foil","rt":1263,"stimulus":"Stimuli_Rocks480/I_Basalt_01.png","response":"a","trial_type":"image-keyboard-response","trial_index":137,"plugin_version":"2.1.0","time_elapsed":272756,"subject_id":"92613","group":"Group2","condition":"1_Rep","full_date":"2026-02-03T02:46:37.802Z","date":"2026-02-03","time":"02:46:37","cor_ans":true},{"trial_type":"html-keyboard-response","rt":null,"stimulus":"<p style=\"color: green; font-size: 50px; font-weight: bold;\">Correct</p>","response":null,"trial_index":138,"plugin_version":"2.1.0","time_elapsed":273261,"subject_id":"92613","group":"Group2","condition":"1_Rep","full_date":"2026-02-03T02:46:37.802Z","date":"2026-02-03","time":"02:46:37"},{"correct_response":"l","task":"test_phase","broad_category":"I","image_png":"I_Basalt_13.png","image_id":29,"category_name":"Basalt","category":2,"distinct_rating":2.68,"distinct_type":"Bottom","item_type":"Target","rt":903,"stimulus":"Stimuli_Rocks480/I_Basalt_13.png","response":"l","trial_type":"image-keyboard-response","trial_index":139,"plugin_version":"2.1.0","time_elapsed":274177,"subject_id":"92613","group":"Group2","condition":"1_Rep","full_date":"2026-02-03T02:46:37.802Z","date":"2026-02-03","time":"02:46:37","cor_ans":true},{"trial_type":"html-keyboard-response","rt":null,"stimulus":"<p style=\"color: green; font-size: 50px; font-weight: bold;\">Correct</p>","response":null,"trial_index":140,"plugin_version":"2.1.0","time_elapsed":274680,"subject_id":"92613","group":"Group2","condition":"1_Rep","full_date":"2026-02-03T02:46:37.802Z","date":"2026-02-03","time":"02:46:37"},{"correct_response":"a","task":"test_phase","broad_category":"M","image_png":"M_Gneiss_05.png","image_id":197,"category_name":"Gneiss","category":13,"distinct_rating":2.97,"distinct_type":"Bottom","item_type":"Foil","rt":754,"stimulus":"Stimuli_Rocks480/M_Gneiss_05.png","response":"l","trial_type":"image-keyboard-response","trial_index":141,"plugin_version":"2.1.0","time_elapsed":275457,"subject_id":"92613","group":"Group2","condition":"1_Rep","full_date":"2026-02-03T02:46:37.802Z","date":"2026-02-03","time":"02:46:37","cor_ans":false},{"trial_type":"html-keyboard-response","rt":null,"stimulus":"<p style=\"color: red; font-size: 50px; font-weight: bold;\">Incorrect</p>","response":null,"trial_index":142,"plugin_version":"2.1.0","time_elapsed":275960,"subject_id":"92613","group":"Group2","condition":"1_Rep","full_date":"2026-02-03T02:46:37.802Z","date":"2026-02-03","time":"02:46:37"},{"correct_response":"a","task":"test_phase","broad_category":"M","image_png":"M_Quartzite_13.png","image_id":285,"category_name":"Quartzite","category":18,"distinct_rating":2.27,"distinct_type":"Bottom","item_type":"Foil","rt":1745,"stimulus":"Stimuli_Rocks480/M_Quartzite_13.png","response":"a","trial_type":"image-keyboard-response","trial_index":143,"plugin_version":"2.1.0","time_elapsed":277719,"subject_id":"92613","group":"Group2","condition":"1_Rep","full_date":"2026-02-03T02:46:37.802Z","date":"2026-02-03","time":"02:46:37","cor_ans":true},{"trial_type":"html-keyboard-response","rt":null,"stimulus":"<p style=\"color: green; font-size: 50px; font-weight: bold;\">Correct</p>","response":null,"trial_index":144,"plugin_version":"2.1.0","time_elapsed":278221,"subject_id":"92613","group":"Group2","condition":"1_Rep","full_date":"2026-02-03T02:46:37.802Z","date":"2026-02-03","time":"02:46:37"},{"correct_response":"a","task":"test_phase","broad_category":"M","image_png":"M_Phyllite_03.png","image_id":259,"category_name":"Phyllite","category":17,"distinct_rating":2.5,"distinct_type":"Bottom","item_type":"Foil","rt":1295,"stimulus":"Stimuli_Rocks480/M_Phyllite_03.png","response":"a","trial_type":"image-keyboard-response","trial_index":145,"plugin_version":"2.1.0","time_elapsed":279536,"subject_id":"92613","group":"Group2","condition":"1_Rep","full_date":"2026-02-03T02:46:37.802Z","date":"2026-02-03","time":"02:46:37","cor_ans":true},{"trial_type":"html-keyboard-response","rt":null,"stimulus":"<p style=\"color: green; font-size: 50px; font-weight: bold;\">Correct</p>","response":null,"trial_index":146,"plugin_version":"2.1.0","time_elapsed":280038,"subject_id":"92613","group":"Group2","condition":"1_Rep","full_date":"2026-02-03T02:46:37.802Z","date":"2026-02-03","time":"02:46:37"},{"correct_response":"a","task":"test_phase","broad_category":"I","image_png":"I_Pumice_08.png","image_id":136,"category_name":"Pumice","category":9,"distinct_rating":3.1,"distinct_type":"Bottom","item_type":"Foil","rt":1069,"stimulus":"Stimuli_Rocks480/I_Pumice_08.png","response":"a","trial_type":"image-keyboard-response","trial_index":147,"plugin_version":"2.1.0","time_elapsed":281122,"subject_id":"92613","group":"Group2","condition":"1_Rep","full_date":"2026-02-03T02:46:37.802Z","date":"2026-02-03","time":"02:46:37","cor_ans":true},{"trial_type":"html-keyboard-response","rt":null,"stimulus":"<p style=\"color: green; font-size: 50px; font-weight: bold;\">Correct</p>","response":null,"trial_index":148,"plugin_version":"2.1.0","time_elapsed":281625,"subject_id":"92613","group":"Group2","condition":"1_Rep","full_date":"2026-02-03T02:46:37.802Z","date":"2026-02-03","time":"02:46:37"},{"correct_response":"a","task":"test_phase","broad_category":"I","image_png":"I_Diorite_05.png","image_id":37,"category_name":"Diorite","category":3,"distinct_rating":3.08,"distinct_type":"Bottom","item_type":"Foil","rt":1050,"stimulus":"Stimuli_Rocks480/I_Diorite_05.png","response":"a","trial_type":"image-keyboard-response","trial_index":149,"plugin_version":"2.1.0","time_elapsed":282688,"subject_id":"92613","group":"Group2","condition":"1_Rep","full_date":"2026-02-03T02:46:37.802Z","date":"2026-02-03","time":"02:46:37","cor_ans":true},{"trial_type":"html-keyboard-response","rt":null,"stimulus":"<p style=\"color: green; font-size: 50px; font-weight: bold;\">Correct</p>","response":null,"trial_index":150,"plugin_version":"2.1.0","time_elapsed":283191,"subject_id":"92613","group":"Group2","condition":"1_Rep","full_date":"2026-02-03T02:46:37.802Z","date":"2026-02-03","time":"02:46:37"},{"correct_response":"a","task":"test_phase","broad_category":"M","image_png":"M_Phyllite_07.png","image_id":263,"category_name":"Phyllite","category":17,"distinct_rating":2.59,"distinct_type":"Bottom","item_type":"Foil","rt":1022,"stimulus":"Stimuli_Rocks480/M_Phyllite_07.png","response":"a","trial_type":"image-keyboard-response","trial_index":151,"plugin_version":"2.1.0","time_elapsed":284227,"subject_id":"92613","group":"Group2","condition":"1_Rep","full_date":"2026-02-03T02:46:37.802Z","date":"2026-02-03","time":"02:46:37","cor_ans":true},{"trial_type":"html-keyboard-response","rt":null,"stimulus":"<p style=\"color: green; font-size: 50px; font-weight: bold;\">Correct</p>","response":null,"trial_index":152,"plugin_version":"2.1.0","time_elapsed":284729,"subject_id":"92613","group":"Group2","condition":"1_Rep","full_date":"2026-02-03T02:46:37.802Z","date":"2026-02-03","time":"02:46:37"},{"correct_response":"l","task":"test_phase","broad_category":"S","image_png":"S_Sandstone_04.png","image_id":452,"category_name":"Sandstone","category":29,"distinct_rating":1.8,"distinct_type":"Bottom","item_type":"Target","rt":1005,"stimulus":"Stimuli_Rocks480/S_Sandstone_04.png","response":"a","trial_type":"image-keyboard-response","trial_index":153,"plugin_version":"2.1.0","time_elapsed":285749,"subject_id":"92613","group":"Group2","condition":"1_Rep","full_date":"2026-02-03T02:46:37.802Z","date":"2026-02-03","time":"02:46:37","cor_ans":false},{"trial_type":"html-keyboard-response","rt":null,"stimulus":"<p style=\"color: red; font-size: 50px; font-weight: bold;\">Incorrect</p>","response":null,"trial_index":154,"plugin_version":"2.1.0","time_elapsed":286251,"subject_id":"92613","group":"Group2","condition":"1_Rep","full_date":"2026-02-03T02:46:37.802Z","date":"2026-02-03","time":"02:46:37"},{"correct_response":"a","task":"test_phase","broad_category":"M","image_png":"M_Slate_03.png","image_id":307,"category_name":"Slate","category":20,"distinct_rating":1.87,"distinct_type":"Bottom","item_type":"Foil","rt":955,"stimulus":"Stimuli_Rocks480/M_Slate_03.png","response":"a","trial_type":"image-keyboard-response","trial_index":155,"plugin_version":"2.1.0","time_elapsed":287222,"subject_id":"92613","group":"Group2","condition":"1_Rep","full_date":"2026-02-03T02:46:37.802Z","date":"2026-02-03","time":"02:46:37","cor_ans":true},{"trial_type":"html-keyboard-response","rt":null,"stimulus":"<p style=\"color: green; font-size: 50px; font-weight: bold;\">Correct</p>","response":null,"trial_index":156,"plugin_version":"2.1.0","time_elapsed":287724,"subject_id":"92613","group":"Group2","condition":"1_Rep","full_date":"2026-02-03T02:46:37.802Z","date":"2026-02-03","time":"02:46:37"},{"correct_response":"l","task":"test_phase","broad_category":"S","image_png":"S_Rock Salt_15.png","image_id":447,"category_name":"Rock Salt","category":28,"distinct_rating":7.79,"distinct_type":"Top","item_type":"Target","rt":1129,"stimulus":"Stimuli_Rocks480/S_Rock Salt_15.png","response":"l","trial_type":"image-keyboard-response","trial_index":157,"plugin_version":"2.1.0","time_elapsed":288868,"subject_id":"92613","group":"Group2","condition":"1_Rep","full_date":"2026-02-03T02:46:37.802Z","date":"2026-02-03","time":"02:46:37","cor_ans":true},{"trial_type":"html-keyboard-response","rt":null,"stimulus":"<p style=\"color: green; font-size: 50px; font-weight: bold;\">Correct</p>","response":null,"trial_index":158,"plugin_version":"2.1.0","time_elapsed":289370,"subject_id":"92613","group":"Group2","condition":"1_Rep","full_date":"2026-02-03T02:46:37.802Z","date":"2026-02-03","time":"02:46:37"},{"correct_response":"l","task":"test_phase","broad_category":"S","image_png":"S_Conglomerate_14.png","image_id":382,"category_name":"Conglomerate","category":24,"distinct_rating":6.86,"distinct_type":"Top","item_type":"Target","rt":1026,"stimulus":"Stimuli_Rocks480/S_Conglomerate_14.png","response":"a","trial_type":"image-keyboard-response","trial_index":159,"plugin_version":"2.1.0","time_elapsed":290407,"subject_id":"92613","group":"Group2","condition":"1_Rep","full_date":"2026-02-03T02:46:37.802Z","date":"2026-02-03","time":"02:46:37","cor_ans":false},{"trial_type":"html-keyboard-response","rt":null,"stimulus":"<p style=\"color: red; font-size: 50px; font-weight: bold;\">Incorrect</p>","response":null,"trial_index":160,"plugin_version":"2.1.0","time_elapsed":290910,"subject_id":"92613","group":"Group2","condition":"1_Rep","full_date":"2026-02-03T02:46:37.802Z","date":"2026-02-03","time":"02:46:37"},{"correct_response":"l","task":"test_phase","broad_category":"S","image_png":"S_Sandstone_08.png","image_id":456,"category_name":"Sandstone","category":29,"distinct_rating":1.5,"distinct_type":"Bottom","item_type":"Target","rt":1565,"stimulus":"Stimuli_Rocks480/S_Sandstone_08.png","response":"a","trial_type":"image-keyboard-response","trial_index":161,"plugin_version":"2.1.0","time_elapsed":292491,"subject_id":"92613","group":"Group2","condition":"1_Rep","full_date":"2026-02-03T02:46:37.802Z","date":"2026-02-03","time":"02:46:37","cor_ans":false},{"trial_type":"html-keyboard-response","rt":null,"stimulus":"<p style=\"color: red; font-size: 50px; font-weight: bold;\">Incorrect</p>","response":null,"trial_index":162,"plugin_version":"2.1.0","time_elapsed":292993,"subject_id":"92613","group":"Group2","condition":"1_Rep","full_date":"2026-02-03T02:46:37.802Z","date":"2026-02-03","time":"02:46:37"},{"correct_response":"l","task":"test_phase","broad_category":"M","image_png":"M_Marble_02.png","image_id":226,"category_name":"Marble","category":15,"distinct_rating":3.2,"distinct_type":"Bottom","item_type":"Target","rt":1412,"stimulus":"Stimuli_Rocks480/M_Marble_02.png","response":"l","trial_type":"image-keyboard-response","trial_index":163,"plugin_version":"2.1.0","time_elapsed":294418,"subject_id":"92613","group":"Group2","condition":"1_Rep","full_date":"2026-02-03T02:46:37.802Z","date":"2026-02-03","time":"02:46:37","cor_ans":true},{"trial_type":"html-keyboard-response","rt":null,"stimulus":"<p style=\"color: green; font-size: 50px; font-weight: bold;\">Correct</p>","response":null,"trial_index":164,"plugin_version":"2.1.0","time_elapsed":294921,"subject_id":"92613","group":"Group2","condition":"1_Rep","full_date":"2026-02-03T02:46:37.802Z","date":"2026-02-03","time":"02:46:37"},{"correct_response":"a","task":"test_phase","broad_category":"I","image_png":"I_Rhyolite_16.png","image_id":160,"category_name":"Rhyolite","category":10,"distinct_rating":2.19,"distinct_type":"Bottom","item_type":"Foil","rt":1117,"stimulus":"Stimuli_Rocks480/I_Rhyolite_16.png","response":"a","trial_type":"image-keyboard-response","trial_index":165,"plugin_version":"2.1.0","time_elapsed":296049,"subject_id":"92613","group":"Group2","condition":"1_Rep","full_date":"2026-02-03T02:46:37.802Z","date":"2026-02-03","time":"02:46:37","cor_ans":true},{"trial_type":"html-keyboard-response","rt":null,"stimulus":"<p style=\"color: green; font-size: 50px; font-weight: bold;\">Correct</p>","response":null,"trial_index":166,"plugin_version":"2.1.0","time_elapsed":296551,"subject_id":"92613","group":"Group2","condition":"1_Rep","full_date":"2026-02-03T02:46:37.802Z","date":"2026-02-03","time":"02:46:37"},{"correct_response":"l","task":"test_phase","broad_category":"I","image_png":"I_Andesite_04.png","image_id":4,"category_name":"Andesite","category":1,"distinct_rating":3.18,"distinct_type":"Bottom","item_type":"Target","rt":1002,"stimulus":"Stimuli_Rocks480/I_Andesite_04.png","response":"a","trial_type":"image-keyboard-response","trial_index":167,"plugin_version":"2.1.0","time_elapsed":297567,"subject_id":"92613","group":"Group2","condition":"1_Rep","full_date":"2026-02-03T02:46:37.802Z","date":"2026-02-03","time":"02:46:37","cor_ans":false},{"trial_type":"html-keyboard-response","rt":null,"stimulus":"<p style=\"color: red; font-size: 50px; font-weight: bold;\">Incorrect</p>","response":null,"trial_index":168,"plugin_version":"2.1.0","time_elapsed":298069,"subject_id":"92613","group":"Group2","condition":"1_Rep","full_date":"2026-02-03T02:46:37.802Z","date":"2026-02-03","time":"02:46:37"},{"correct_response":"a","task":"test_phase","broad_category":"I","image_png":"I_Pumice_11.png","image_id":139,"category_name":"Pumice","category":9,"distinct_rating":1.74,"distinct_type":"Bottom","item_type":"Foil","rt":1004,"stimulus":"Stimuli_Rocks480/I_Pumice_11.png","response":"a","trial_type":"image-keyboard-response","trial_index":169,"plugin_version":"2.1.0","time_elapsed":299082,"subject_id":"92613","group":"Group2","condition":"1_Rep","full_date":"2026-02-03T02:46:37.802Z","date":"2026-02-03","time":"02:46:37","cor_ans":true},{"trial_type":"html-keyboard-response","rt":null,"stimulus":"<p style=\"color: green; font-size: 50px; font-weight: bold;\">Correct</p>","response":null,"trial_index":170,"plugin_version":"2.1.0","time_elapsed":299585,"subject_id":"92613","group":"Group2","condition":"1_Rep","full_date":"2026-02-03T02:46:37.802Z","date":"2026-02-03","time":"02:46:37"},{"correct_response":"a","task":"test_phase","broad_category":"M","image_png":"M_Gneiss_13.png","image_id":205,"category_name":"Gneiss","category":13,"distinct_rating":3.26,"distinct_type":"Bottom","item_type":"Foil","rt":2001,"stimulus":"Stimuli_Rocks480/M_Gneiss_13.png","response":"l","trial_type":"image-keyboard-response","trial_index":171,"plugin_version":"2.1.0","time_elapsed":301597,"subject_id":"92613","group":"Group2","condition":"1_Rep","full_date":"2026-02-03T02:46:37.802Z","date":"2026-02-03","time":"02:46:37","cor_ans":false},{"trial_type":"html-keyboard-response","rt":null,"stimulus":"<p style=\"color: red; font-size: 50px; font-weight: bold;\">Incorrect</p>","response":null,"trial_index":172,"plugin_version":"2.1.0","time_elapsed":302099,"subject_id":"92613","group":"Group2","condition":"1_Rep","full_date":"2026-02-03T02:46:37.802Z","date":"2026-02-03","time":"02:46:37"},{"correct_response":"l","task":"test_phase","broad_category":"M","image_png":"M_Slate_14.png","image_id":318,"category_name":"Slate","category":20,"distinct_rating":2.58,"distinct_type":"Bottom","item_type":"Target","rt":976,"stimulus":"Stimuli_Rocks480/M_Slate_14.png","response":"l","trial_type":"image-keyboard-response","trial_index":173,"plugin_version":"2.1.0","time_elapsed":303088,"subject_id":"92613","group":"Group2","condition":"1_Rep","full_date":"2026-02-03T02:46:37.802Z","date":"2026-02-03","time":"02:46:37","cor_ans":true},{"trial_type":"html-keyboard-response","rt":null,"stimulus":"<p style=\"color: green; font-size: 50px; font-weight: bold;\">Correct</p>","response":null,"trial_index":174,"plugin_version":"2.1.0","time_elapsed":303591,"subject_id":"92613","group":"Group2","condition":"1_Rep","full_date":"2026-02-03T02:46:37.802Z","date":"2026-02-03","time":"02:46:37"},{"correct_response":"a","task":"test_phase","broad_category":"I","image_png":"I_Gabbro_16.png","image_id":64,"category_name":"Gabbro","category":4,"distinct_rating":2.52,"distinct_type":"Bottom","item_type":"Foil","rt":1000,"stimulus":"Stimuli_Rocks480/I_Gabbro_16.png","response":"l","trial_type":"image-keyboard-response","trial_index":175,"plugin_version":"2.1.0","time_elapsed":304604,"subject_id":"92613","group":"Group2","condition":"1_Rep","full_date":"2026-02-03T02:46:37.802Z","date":"2026-02-03","time":"02:46:37","cor_ans":false},{"trial_type":"html-keyboard-response","rt":null,"stimulus":"<p style=\"color: red; font-size: 50px; font-weight: bold;\">Incorrect</p>","response":null,"trial_index":176,"plugin_version":"2.1.0","time_elapsed":305107,"subject_id":"92613","group":"Group2","condition":"1_Rep","full_date":"2026-02-03T02:46:37.802Z","date":"2026-02-03","time":"02:46:37"},{"correct_response":"l","task":"test_phase","broad_category":"M","image_png":"M_Phyllite_13.png","image_id":269,"category_name":"Phyllite","category":17,"distinct_rating":2.8,"distinct_type":"Bottom","item_type":"Target","rt":708,"stimulus":"Stimuli_Rocks480/M_Phyllite_13.png","response":"l","trial_type":"image-keyboard-response","trial_index":177,"plugin_version":"2.1.0","time_elapsed":305827,"subject_id":"92613","group":"Group2","condition":"1_Rep","full_date":"2026-02-03T02:46:37.802Z","date":"2026-02-03","time":"02:46:37","cor_ans":true},{"trial_type":"html-keyboard-response","rt":null,"stimulus":"<p style=\"color: green; font-size: 50px; font-weight: bold;\">Correct</p>","response":null,"trial_index":178,"plugin_version":"2.1.0","time_elapsed":306330,"subject_id":"92613","group":"Group2","condition":"1_Rep","full_date":"2026-02-03T02:46:37.802Z","date":"2026-02-03","time":"02:46:37"},{"correct_response":"a","task":"test_phase","broad_category":"S","image_png":"S_Rock Gypsum_04.png","image_id":420,"category_name":"Rock Gypsum","category":27,"distinct_rating":7.61,"distinct_type":"Top","item_type":"Foil","rt":1158,"stimulus":"Stimuli_Rocks480/S_Rock Gypsum_04.png","response":"a","trial_type":"image-keyboard-response","trial_index":179,"plugin_version":"2.1.0","time_elapsed":307503,"subject_id":"92613","group":"Group2","condition":"1_Rep","full_date":"2026-02-03T02:46:37.802Z","date":"2026-02-03","time":"02:46:37","cor_ans":true},{"trial_type":"html-keyboard-response","rt":null,"stimulus":"<p style=\"color: green; font-size: 50px; font-weight: bold;\">Correct</p>","response":null,"trial_index":180,"plugin_version":"2.1.0","time_elapsed":308005,"subject_id":"92613","group":"Group2","condition":"1_Rep","full_date":"2026-02-03T02:46:37.802Z","date":"2026-02-03","time":"02:46:37"},{"correct_response":"l","task":"test_phase","broad_category":"I","image_png":"I_Gabbro_12.png","image_id":60,"category_name":"Gabbro","category":4,"distinct_rating":2.6,"distinct_type":"Bottom","item_type":"Target","rt":1107,"stimulus":"Stimuli_Rocks480/I_Gabbro_12.png","response":"l","trial_type":"image-keyboard-response","trial_index":181,"plugin_version":"2.1.0","time_elapsed":309128,"subject_id":"92613","group":"Group2","condition":"1_Rep","full_date":"2026-02-03T02:46:37.802Z","date":"2026-02-03","time":"02:46:37","cor_ans":true},{"trial_type":"html-keyboard-response","rt":null,"stimulus":"<p style=\"color: green; font-size: 50px; font-weight: bold;\">Correct</p>","response":null,"trial_index":182,"plugin_version":"2.1.0","time_elapsed":309631,"subject_id":"92613","group":"Group2","condition":"1_Rep","full_date":"2026-02-03T02:46:37.802Z","date":"2026-02-03","time":"02:46:37"},{"correct_response":"l","task":"test_phase","broad_category":"I","image_png":"I_Basalt_08.png","image_id":24,"category_name":"Basalt","category":2,"distinct_rating":2.31,"distinct_type":"Bottom","item_type":"Target","rt":816,"stimulus":"Stimuli_Rocks480/I_Basalt_08.png","response":"l","trial_type":"image-keyboard-response","trial_index":183,"plugin_version":"2.1.0","time_elapsed":310468,"subject_id":"92613","group":"Group2","condition":"1_Rep","full_date":"2026-02-03T02:46:37.802Z","date":"2026-02-03","time":"02:46:37","cor_ans":true},{"trial_type":"html-keyboard-response","rt":null,"stimulus":"<p style=\"color: green; font-size: 50px; font-weight: bold;\">Correct</p>","response":null,"trial_index":184,"plugin_version":"2.1.0","time_elapsed":310970,"subject_id":"92613","group":"Group2","condition":"1_Rep","full_date":"2026-02-03T02:46:37.802Z","date":"2026-02-03","time":"02:46:37"},{"correct_response":"a","task":"test_phase","broad_category":"I","image_png":"I_Pegmatite_16.png","image_id":112,"category_name":"Pegmatite","category":7,"distinct_rating":7.03,"distinct_type":"Top","item_type":"Foil","rt":1199,"stimulus":"Stimuli_Rocks480/I_Pegmatite_16.png","response":"a","trial_type":"image-keyboard-response","trial_index":185,"plugin_version":"2.1.0","time_elapsed":312183,"subject_id":"92613","group":"Group2","condition":"1_Rep","full_date":"2026-02-03T02:46:37.802Z","date":"2026-02-03","time":"02:46:37","cor_ans":true},{"trial_type":"html-keyboard-response","rt":null,"stimulus":"<p style=\"color: green; font-size: 50px; font-weight: bold;\">Correct</p>","response":null,"trial_index":186,"plugin_version":"2.1.0","time_elapsed":312686,"subject_id":"92613","group":"Group2","condition":"1_Rep","full_date":"2026-02-03T02:46:37.802Z","date":"2026-02-03","time":"02:46:37"},{"correct_response":"l","task":"test_phase","broad_category":"I","image_png":"I_Andesite_03.png","image_id":3,"category_name":"Andesite","category":1,"distinct_rating":3.17,"distinct_type":"Bottom","item_type":"Target","rt":1031,"stimulus":"Stimuli_Rocks480/I_Andesite_03.png","response":"a","trial_type":"image-keyboard-response","trial_index":187,"plugin_version":"2.1.0","time_elapsed":313728,"subject_id":"92613","group":"Group2","condition":"1_Rep","full_date":"2026-02-03T02:46:37.802Z","date":"2026-02-03","time":"02:46:37","cor_ans":false},{"trial_type":"html-keyboard-response","rt":null,"stimulus":"<p style=\"color: red; font-size: 50px; font-weight: bold;\">Incorrect</p>","response":null,"trial_index":188,"plugin_version":"2.1.0","time_elapsed":314230,"subject_id":"92613","group":"Group2","condition":"1_Rep","full_date":"2026-02-03T02:46:37.802Z","date":"2026-02-03","time":"02:46:37"},{"correct_response":"a","task":"test_phase","broad_category":"S","image_png":"S_Breccia_11.png","image_id":347,"category_name":"Breccia","category":22,"distinct_rating":6.7,"distinct_type":"Top","item_type":"Foil","rt":1186,"stimulus":"Stimuli_Rocks480/S_Breccia_11.png","response":"a","trial_type":"image-keyboard-response","trial_index":189,"plugin_version":"2.1.0","time_elapsed":315439,"subject_id":"92613","group":"Group2","condition":"1_Rep","full_date":"2026-02-03T02:46:37.802Z","date":"2026-02-03","time":"02:46:37","cor_ans":true},{"trial_type":"html-keyboard-response","rt":null,"stimulus":"<p style=\"color: green; font-size: 50px; font-weight: bold;\">Correct</p>","response":null,"trial_index":190,"plugin_version":"2.1.0","time_elapsed":315941,"subject_id":"92613","group":"Group2","condition":"1_Rep","full_date":"2026-02-03T02:46:37.802Z","date":"2026-02-03","time":"02:46:37"},{"correct_response":"l","task":"test_phase","broad_category":"M","image_png":"M_Slate_10.png","image_id":314,"category_name":"Slate","category":20,"distinct_rating":1.94,"distinct_type":"Bottom","item_type":"Target","rt":1335,"stimulus":"Stimuli_Rocks480/M_Slate_10.png","response":"l","trial_type":"image-keyboard-response","trial_index":191,"plugin_version":"2.1.0","time_elapsed":317287,"subject_id":"92613","group":"Group2","condition":"1_Rep","full_date":"2026-02-03T02:46:37.802Z","date":"2026-02-03","time":"02:46:37","cor_ans":true},{"trial_type":"html-keyboard-response","rt":null,"stimulus":"<p style=\"color: green; font-size: 50px; font-weight: bold;\">Correct</p>","response":null,"trial_index":192,"plugin_version":"2.1.0","time_elapsed":317789,"subject_id":"92613","group":"Group2","condition":"1_Rep","full_date":"2026-02-03T02:46:37.802Z","date":"2026-02-03","time":"02:46:37"},{"correct_response":"a","task":"test_phase","broad_category":"M","image_png":"M_Slate_11.png","image_id":315,"category_name":"Slate","category":20,"distinct_rating":2.75,"distinct_type":"Bottom","item_type":"Foil","rt":816,"stimulus":"Stimuli_Rocks480/M_Slate_11.png","response":"l","trial_type":"image-keyboard-response","trial_index":193,"plugin_version":"2.1.0","time_elapsed":318616,"subject_id":"92613","group":"Group2","condition":"1_Rep","full_date":"2026-02-03T02:46:37.802Z","date":"2026-02-03","time":"02:46:37","cor_ans":false},{"trial_type":"html-keyboard-response","rt":null,"stimulus":"<p style=\"color: red; font-size: 50px; font-weight: bold;\">Incorrect</p>","response":null,"trial_index":194,"plugin_version":"2.1.0","time_elapsed":319118,"subject_id":"92613","group":"Group2","condition":"1_Rep","full_date":"2026-02-03T02:46:37.802Z","date":"2026-02-03","time":"02:46:37"},{"correct_response":"a","task":"test_phase","broad_category":"I","image_png":"I_Pegmatite_10.png","image_id":106,"category_name":"Pegmatite","category":7,"distinct_rating":7.66,"distinct_type":"Top","item_type":"Foil","rt":1029,"stimulus":"Stimuli_Rocks480/I_Pegmatite_10.png","response":"a","trial_type":"image-keyboard-response","trial_index":195,"plugin_version":"2.1.0","time_elapsed":320160,"subject_id":"92613","group":"Group2","condition":"1_Rep","full_date":"2026-02-03T02:46:37.802Z","date":"2026-02-03","time":"02:46:37","cor_ans":true},{"trial_type":"html-keyboard-response","rt":null,"stimulus":"<p style=\"color: green; font-size: 50px; font-weight: bold;\">Correct</p>","response":null,"trial_index":196,"plugin_version":"2.1.0","time_elapsed":320662,"subject_id":"92613","group":"Group2","condition":"1_Rep","full_date":"2026-02-03T02:46:37.802Z","date":"2026-02-03","time":"02:46:37"},{"correct_response":"a","task":"test_phase","broad_category":"S","image_png":"S_Shale_01.png","image_id":465,"category_name":"Shale","category":30,"distinct_rating":2.7,"distinct_type":"Bottom","item_type":"Foil","rt":1204,"stimulus":"Stimuli_Rocks480/S_Shale_01.png","response":"a","trial_type":"image-keyboard-response","trial_index":197,"plugin_version":"2.1.0","time_elapsed":321882,"subject_id":"92613","group":"Group2","condition":"1_Rep","full_date":"2026-02-03T02:46:37.802Z","date":"2026-02-03","time":"02:46:37","cor_ans":true},{"trial_type":"html-keyboard-response","rt":null,"stimulus":"<p style=\"color: green; font-size: 50px; font-weight: bold;\">Correct</p>","response":null,"trial_index":198,"plugin_version":"2.1.0","time_elapsed":322385,"subject_id":"92613","group":"Group2","condition":"1_Rep","full_date":"2026-02-03T02:46:37.802Z","date":"2026-02-03","time":"02:46:37"},{"correct_response":"l","task":"test_phase","broad_category":"I","image_png":"I_Pumice_14.png","image_id":142,"category_name":"Pumice","category":9,"distinct_rating":3.22,"distinct_type":"Bottom","item_type":"Target","rt":932,"stimulus":"Stimuli_Rocks480/I_Pumice_14.png","response":"a","trial_type":"image-keyboard-response","trial_index":199,"plugin_version":"2.1.0","time_elapsed":323333,"subject_id":"92613","group":"Group2","condition":"1_Rep","full_date":"2026-02-03T02:46:37.802Z","date":"2026-02-03","time":"02:46:37","cor_ans":false},{"trial_type":"html-keyboard-response","rt":null,"stimulus":"<p style=\"color: red; font-size: 50px; font-weight: bold;\">Incorrect</p>","response":null,"trial_index":200,"plugin_version":"2.1.0","time_elapsed":323835,"subject_id":"92613","group":"Group2","condition":"1_Rep","full_date":"2026-02-03T02:46:37.802Z","date":"2026-02-03","time":"02:46:37"},{"correct_response":"a","task":"test_phase","broad_category":"S","image_png":"S_Sandstone_03.png","image_id":451,"category_name":"Sandstone","category":29,"distinct_rating":1.86,"distinct_type":"Bottom","item_type":"Foil","rt":1487,"stimulus":"Stimuli_Rocks480/S_Sandstone_03.png","response":"a","trial_type":"image-keyboard-response","trial_index":201,"plugin_version":"2.1.0","time_elapsed":325339,"subject_id":"92613","group":"Group2","condition":"1_Rep","full_date":"2026-02-03T02:46:37.802Z","date":"2026-02-03","time":"02:46:37","cor_ans":true},{"trial_type":"html-keyboard-response","rt":null,"stimulus":"<p style=\"color: green; font-size: 50px; font-weight: bold;\">Correct</p>","response":null,"trial_index":202,"plugin_version":"2.1.0","time_elapsed":325841,"subject_id":"92613","group":"Group2","condition":"1_Rep","full_date":"2026-02-03T02:46:37.802Z","date":"2026-02-03","time":"02:46:37"},{"correct_response":"a","task":"test_phase","broad_category":"M","image_png":"M_Phyllite_10.png","image_id":266,"category_name":"Phyllite","category":17,"distinct_rating":2.6,"distinct_type":"Bottom","item_type":"Foil","rt":1028,"stimulus":"Stimuli_Rocks480/M_Phyllite_10.png","response":"a","trial_type":"image-keyboard-response","trial_index":203,"plugin_version":"2.1.0","time_elapsed":326882,"subject_id":"92613","group":"Group2","condition":"1_Rep","full_date":"2026-02-03T02:46:37.802Z","date":"2026-02-03","time":"02:46:37","cor_ans":true},{"trial_type":"html-keyboard-response","rt":null,"stimulus":"<p style=\"color: green; font-size: 50px; font-weight: bold;\">Correct</p>","response":null,"trial_index":204,"plugin_version":"2.1.0","time_elapsed":327384,"subject_id":"92613","group":"Group2","condition":"1_Rep","full_date":"2026-02-03T02:46:37.802Z","date":"2026-02-03","time":"02:46:37"},{"correct_response":"l","task":"test_phase","broad_category":"S","image_png":"S_Rock Salt_13.png","image_id":445,"category_name":"Rock Salt","category":28,"distinct_rating":7.58,"distinct_type":"Top","item_type":"Target","rt":1285,"stimulus":"Stimuli_Rocks480/S_Rock Salt_13.png","response":"a","trial_type":"image-keyboard-response","trial_index":205,"plugin_version":"2.1.0","time_elapsed":328685,"subject_id":"92613","group":"Group2","condition":"1_Rep","full_date":"2026-02-03T02:46:37.802Z","date":"2026-02-03","time":"02:46:37","cor_ans":false},{"trial_type":"html-keyboard-response","rt":null,"stimulus":"<p style=\"color: red; font-size: 50px; font-weight: bold;\">Incorrect</p>","response":null,"trial_index":206,"plugin_version":"2.1.0","time_elapsed":329187,"subject_id":"92613","group":"Group2","condition":"1_Rep","full_date":"2026-02-03T02:46:37.802Z","date":"2026-02-03","time":"02:46:37"},{"correct_response":"a","task":"test_phase","broad_category":"I","image_png":"I_Gabbro_08.png","image_id":56,"category_name":"Gabbro","category":4,"distinct_rating":3.02,"distinct_type":"Bottom","item_type":"Foil","rt":1027,"stimulus":"Stimuli_Rocks480/I_Gabbro_08.png","response":"a","trial_type":"image-keyboard-response","trial_index":207,"plugin_version":"2.1.0","time_elapsed":330226,"subject_id":"92613","group":"Group2","condition":"1_Rep","full_date":"2026-02-03T02:46:37.802Z","date":"2026-02-03","time":"02:46:37","cor_ans":true},{"trial_type":"html-keyboard-response","rt":null,"stimulus":"<p style=\"color: green; font-size: 50px; font-weight: bold;\">Correct</p>","response":null,"trial_index":208,"plugin_version":"2.1.0","time_elapsed":330728,"subject_id":"92613","group":"Group2","condition":"1_Rep","full_date":"2026-02-03T02:46:37.802Z","date":"2026-02-03","time":"02:46:37"},{"correct_response":"l","task":"test_phase","broad_category":"I","image_png":"I_Pegmatite_11.png","image_id":107,"category_name":"Pegmatite","category":7,"distinct_rating":7.11,"distinct_type":"Top","item_type":"Target","rt":1031,"stimulus":"Stimuli_Rocks480/I_Pegmatite_11.png","response":"a","trial_type":"image-keyboard-response","trial_index":209,"plugin_version":"2.1.0","time_elapsed":331777,"subject_id":"92613","group":"Group2","condition":"1_Rep","full_date":"2026-02-03T02:46:37.802Z","date":"2026-02-03","time":"02:46:37","cor_ans":false},{"trial_type":"html-keyboard-response","rt":null,"stimulus":"<p style=\"color: red; font-size: 50px; font-weight: bold;\">Incorrect</p>","response":null,"trial_index":210,"plugin_version":"2.1.0","time_elapsed":332279,"subject_id":"92613","group":"Group2","condition":"1_Rep","full_date":"2026-02-03T02:46:37.802Z","date":"2026-02-03","time":"02:46:37"},{"correct_response":"a","task":"test_phase","broad_category":"M","image_png":"M_Marble_16.png","image_id":240,"category_name":"Marble","category":15,"distinct_rating":2.57,"distinct_type":"Bottom","item_type":"Foil","rt":1658,"stimulus":"Stimuli_Rocks480/M_Marble_16.png","response":"a","trial_type":"image-keyboard-response","trial_index":211,"plugin_version":"2.1.0","time_elapsed":333959,"subject_id":"92613","group":"Group2","condition":"1_Rep","full_date":"2026-02-03T02:46:37.802Z","date":"2026-02-03","time":"02:46:37","cor_ans":true},{"trial_type":"html-keyboard-response","rt":null,"stimulus":"<p style=\"color: green; font-size: 50px; font-weight: bold;\">Correct</p>","response":null,"trial_index":212,"plugin_version":"2.1.0","time_elapsed":334461,"subject_id":"92613","group":"Group2","condition":"1_Rep","full_date":"2026-02-03T02:46:37.802Z","date":"2026-02-03","time":"02:46:37"},{"correct_response":"a","task":"test_phase","broad_category":"I","image_png":"I_Obsidian_05.png","image_id":85,"category_name":"Obsidian","category":6,"distinct_rating":7.32,"distinct_type":"Top","item_type":"Foil","rt":1708,"stimulus":"Stimuli_Rocks480/I_Obsidian_05.png","response":"a","trial_type":"image-keyboard-response","trial_index":213,"plugin_version":"2.1.0","time_elapsed":336185,"subject_id":"92613","group":"Group2","condition":"1_Rep","full_date":"2026-02-03T02:46:37.802Z","date":"2026-02-03","time":"02:46:37","cor_ans":true},{"trial_type":"html-keyboard-response","rt":null,"stimulus":"<p style=\"color: green; font-size: 50px; font-weight: bold;\">Correct</p>","response":null,"trial_index":214,"plugin_version":"2.1.0","time_elapsed":336687,"subject_id":"92613","group":"Group2","condition":"1_Rep","full_date":"2026-02-03T02:46:37.802Z","date":"2026-02-03","time":"02:46:37"},{"correct_response":"a","task":"test_phase","broad_category":"I","image_png":"I_Diorite_04.png","image_id":36,"category_name":"Diorite","category":3,"distinct_rating":2.98,"distinct_type":"Bottom","item_type":"Foil","rt":1071,"stimulus":"Stimuli_Rocks480/I_Diorite_04.png","response":"l","trial_type":"image-keyboard-response","trial_index":215,"plugin_version":"2.1.0","time_elapsed":337773,"subject_id":"92613","group":"Group2","condition":"1_Rep","full_date":"2026-02-03T02:46:37.802Z","date":"2026-02-03","time":"02:46:37","cor_ans":false},{"trial_type":"html-keyboard-response","rt":null,"stimulus":"<p style=\"color: red; font-size: 50px; font-weight: bold;\">Incorrect</p>","response":null,"trial_index":216,"plugin_version":"2.1.0","time_elapsed":338275,"subject_id":"92613","group":"Group2","condition":"1_Rep","full_date":"2026-02-03T02:46:37.802Z","date":"2026-02-03","time":"02:46:37"},{"correct_response":"l","task":"test_phase","broad_category":"S","image_png":"S_Shale_07.png","image_id":471,"category_name":"Shale","category":30,"distinct_rating":2.73,"distinct_type":"Bottom","item_type":"Target","rt":741,"stimulus":"Stimuli_Rocks480/S_Shale_07.png","response":"l","trial_type":"image-keyboard-response","trial_index":217,"plugin_version":"2.1.0","time_elapsed":339029,"subject_id":"92613","group":"Group2","condition":"1_Rep","full_date":"2026-02-03T02:46:37.802Z","date":"2026-02-03","time":"02:46:37","cor_ans":true},{"trial_type":"html-keyboard-response","rt":null,"stimulus":"<p style=\"color: green; font-size: 50px; font-weight: bold;\">Correct</p>","response":null,"trial_index":218,"plugin_version":"2.1.0","time_elapsed":339531,"subject_id":"92613","group":"Group2","condition":"1_Rep","full_date":"2026-02-03T02:46:37.802Z","date":"2026-02-03","time":"02:46:37"},{"correct_response":"a","task":"test_phase","broad_category":"I","image_png":"I_Rhyolite_14.png","image_id":158,"category_name":"Rhyolite","category":10,"distinct_rating":2.59,"distinct_type":"Bottom","item_type":"Foil","rt":1033,"stimulus":"Stimuli_Rocks480/I_Rhyolite_14.png","response":"a","trial_type":"image-keyboard-response","trial_index":219,"plugin_version":"2.1.0","time_elapsed":340576,"subject_id":"92613","group":"Group2","condition":"1_Rep","full_date":"2026-02-03T02:46:37.802Z","date":"2026-02-03","time":"02:46:37","cor_ans":true},{"trial_type":"html-keyboard-response","rt":null,"stimulus":"<p style=\"color: green; font-size: 50px; font-weight: bold;\">Correct</p>","response":null,"trial_index":220,"plugin_version":"2.1.0","time_elapsed":341078,"subject_id":"92613","group":"Group2","condition":"1_Rep","full_date":"2026-02-03T02:46:37.802Z","date":"2026-02-03","time":"02:46:37"},{"correct_response":"l","task":"test_phase","broad_category":"S","image_png":"S_Chert_13.png","image_id":365,"category_name":"Chert","category":23,"distinct_rating":6.57,"distinct_type":"Top","item_type":"Target","rt":991,"stimulus":"Stimuli_Rocks480/S_Chert_13.png","response":"l","trial_type":"image-keyboard-response","trial_index":221,"plugin_version":"2.1.0","time_elapsed":342081,"subject_id":"92613","group":"Group2","condition":"1_Rep","full_date":"2026-02-03T02:46:37.802Z","date":"2026-02-03","time":"02:46:37","cor_ans":true},{"trial_type":"html-keyboard-response","rt":null,"stimulus":"<p style=\"color: green; font-size: 50px; font-weight: bold;\">Correct</p>","response":null,"trial_index":222,"plugin_version":"2.1.0","time_elapsed":342583,"subject_id":"92613","group":"Group2","condition":"1_Rep","full_date":"2026-02-03T02:46:37.802Z","date":"2026-02-03","time":"02:46:37"},{"correct_response":"a","task":"test_phase","broad_category":"I","image_png":"I_Basalt_09.png","image_id":25,"category_name":"Basalt","category":2,"distinct_rating":1.89,"distinct_type":"Bottom","item_type":"Foil","rt":691,"stimulus":"Stimuli_Rocks480/I_Basalt_09.png","response":"l","trial_type":"image-keyboard-response","trial_index":223,"plugin_version":"2.1.0","time_elapsed":343287,"subject_id":"92613","group":"Group2","condition":"1_Rep","full_date":"2026-02-03T02:46:37.802Z","date":"2026-02-03","time":"02:46:37","cor_ans":false},{"trial_type":"html-keyboard-response","rt":null,"stimulus":"<p style=\"color: red; font-size: 50px; font-weight: bold;\">Incorrect</p>","response":null,"trial_index":224,"plugin_version":"2.1.0","time_elapsed":343790,"subject_id":"92613","group":"Group2","condition":"1_Rep","full_date":"2026-02-03T02:46:37.802Z","date":"2026-02-03","time":"02:46:37"},{"correct_response":"a","task":"test_phase","broad_category":"I","image_png":"I_Basalt