[{"width":1536,"height":730,"webaudio":true,"browser":"chrome","browser_version":"145.0.0","mobile":false,"os":"Windows 10","fullscreen":true,"vsync_rate":60.33,"webcam":true,"microphone":false,"trial_type":"browser-check","trial_index":0,"plugin_version":"2.1.0","time_elapsed":1011,"subject_id":"91923","group":"Group2","condition":"1_Rep","full_date":"2026-02-25T17:09:14.591Z","date":"2026-02-25","time":"17:09:14"},{"success":true,"timeout":false,"failed_images":[],"failed_audio":[],"failed_video":[],"trial_type":"preload","trial_index":1,"plugin_version":"2.1.0","time_elapsed":2975,"subject_id":"91923","group":"Group2","condition":"1_Rep","full_date":"2026-02-25T17:09:14.591Z","date":"2026-02-25","time":"17:09:14"},{"rt":14759,"url":"SONA_consent_memorability.html","trial_type":"external-html","trial_index":2,"plugin_version":"2.1.0","time_elapsed":17875,"subject_id":"91923","group":"Group2","condition":"1_Rep","full_date":"2026-02-25T17:09:14.591Z","date":"2026-02-25","time":"17:09:14"},{"success":true,"rt":2508,"trial_type":"fullscreen","trial_index":3,"plugin_version":"2.1.0","time_elapsed":21388,"subject_id":"91923","group":"Group2","condition":"1_Rep","full_date":"2026-02-25T17:09:14.591Z","date":"2026-02-25","time":"17:09:14"},{"rt":18349,"stimulus":"<div style=\"max-width: 760px; margin: auto; font-size: 20px; line-height: 1.5;\">\n      <h1 style=\"text-align:center; font-size: 30px;\">Instructions</h1>\n      <p>\n        Welcome to the study on <b>visual memory</b>. This experiment consists of <b>two phases</b>: \n        a <b>study phase</b> and a <b>test phase</b>.\n      </p>\n      <p>\n        In the study phase, you will see a series of rock images along with their category labels.\n        The images will appear one at a time.\n        <b>Your task</b> is to learn the categories to which the rock images belong \n        and to remember each image as accurately as possible.\n      </p> \n      <p>\n        Note that you will see each image only <b>once</b> during the study phase. \n          So, please pay close attention and try to remember each image carefully.\n      </p>\n      <p>\n        After the study phase, <b>your memory will be tested</b>. \n        Additional instructions for the test phase will be provided at that time.\n      </p>\n      <p>\n        If your computer has multiple <b>language settings</b> (e.g., English and another language),\n        please make sure it is set to English before starting.\n      </p>\n      <p>\n        You can track your progress using the <b>completion bar</b> at the top of the screen. \n        Please note that the bar will refresh when the test phase begins \n        to give you an accurate sense of your progress in both phases.\n      </p> \n      <p>\n        Press the button below when you are ready to begin.\n      </p>\n    </div>","response":0,"trial_type":"html-button-response","trial_index":4,"plugin_version":"2.1.0","time_elapsed":39732,"subject_id":"91923","group":"Group2","condition":"1_Rep","full_date":"2026-02-25T17:09:14.591Z","date":"2026-02-25","time":"17:09:14"},{"rt":null,"stimulus":"<p style=\"font-size: 50px; margin: 0; text-align: center;\">+</p>","response":null,"trial_type":"html-keyboard-response","trial_index":5,"plugin_version":"2.1.0","time_elapsed":40741,"subject_id":"91923","group":"Group2","condition":"1_Rep","full_date":"2026-02-25T17:09:14.591Z","date":"2026-02-25","time":"17:09:14"},{"task":"memory_phase","broad_category":"I","image_png":"I_Pumice_13.png","image_id":141,"category_name":"Pumice","category":9,"distinct_rating":3.12,"distinct_type":"Bottom","rt":null,"stimulus":"Stimuli_Rocks480/I_Pumice_13.png","response":null,"trial_type":"image-keyboard-response","trial_index":6,"plugin_version":"2.1.0","time_elapsed":43254,"subject_id":"91923","group":"Group2","condition":"1_Rep","full_date":"2026-02-25T17:09:14.591Z","date":"2026-02-25","time":"17:09:14"},{"rt":null,"stimulus":"<p style=\"font-size: 50px; margin: 0; text-align: center;\">+</p>","response":null,"trial_type":"html-keyboard-response","trial_index":7,"plugin_version":"2.1.0","time_elapsed":44266,"subject_id":"91923","group":"Group2","condition":"1_Rep","full_date":"2026-02-25T17:09:14.591Z","date":"2026-02-25","time":"17:09:14"},{"task":"memory_phase","broad_category":"S","image_png":"S_Dolomite_07.png","image_id":391,"category_name":"Dolomite","category":25,"distinct_rating":1.73,"distinct_type":"Bottom","rt":null,"stimulus":"Stimuli_Rocks480/S_Dolomite_07.png","response":null,"trial_type":"image-keyboard-response","trial_index":8,"plugin_version":"2.1.0","time_elapsed":46771,"subject_id":"91923","group":"Group2","condition":"1_Rep","full_date":"2026-02-25T17:09:14.591Z","date":"2026-02-25","time":"17:09:14"},{"rt":null,"stimulus":"<p style=\"font-size: 50px; margin: 0; text-align: center;\">+</p>","response":null,"trial_type":"html-keyboard-response","trial_index":9,"plugin_version":"2.1.0","time_elapsed":47784,"subject_id":"91923","group":"Group2","condition":"1_Rep","full_date":"2026-02-25T17:09:14.591Z","date":"2026-02-25","time":"17:09:14"},{"task":"memory_phase","broad_category":"M","image_png":"M_Quartzite_07.png","image_id":279,"category_name":"Quartzite","category":18,"distinct_rating":1.97,"distinct_type":"Bottom","rt":null,"stimulus":"Stimuli_Rocks480/M_Quartzite_07.png","response":null,"trial_type":"image-keyboard-response","trial_index":10,"plugin_version":"2.1.0","time_elapsed":50299,"subject_id":"91923","group":"Group2","condition":"1_Rep","full_date":"2026-02-25T17:09:14.591Z","date":"2026-02-25","time":"17:09:14"},{"rt":null,"stimulus":"<p style=\"font-size: 50px; margin: 0; text-align: center;\">+</p>","response":null,"trial_type":"html-keyboard-response","trial_index":11,"plugin_version":"2.1.0","time_elapsed":51302,"subject_id":"91923","group":"Group2","condition":"1_Rep","full_date":"2026-02-25T17:09:14.591Z","date":"2026-02-25","time":"17:09:14"},{"task":"memory_phase","broad_category":"M","image_png":"M_Slate_14.png","image_id":318,"category_name":"Slate","category":20,"distinct_rating":2.58,"distinct_type":"Bottom","rt":null,"stimulus":"Stimuli_Rocks480/M_Slate_14.png","response":null,"trial_type":"image-keyboard-response","trial_index":12,"plugin_version":"2.1.0","time_elapsed":53807,"subject_id":"91923","group":"Group2","condition":"1_Rep","full_date":"2026-02-25T17:09:14.591Z","date":"2026-02-25","time":"17:09:14"},{"rt":null,"stimulus":"<p style=\"font-size: 50px; margin: 0; text-align: center;\">+</p>","response":null,"trial_type":"html-keyboard-response","trial_index":13,"plugin_version":"2.1.0","time_elapsed":54819,"subject_id":"91923","group":"Group2","condition":"1_Rep","full_date":"2026-02-25T17:09:14.591Z","date":"2026-02-25","time":"17:09:14"},{"task":"memory_phase","broad_category":"S","image_png":"S_Sandstone_11.png","image_id":459,"category_name":"Sandstone","category":29,"distinct_rating":1.82,"distinct_type":"Bottom","rt":null,"stimulus":"Stimuli_Rocks480/S_Sandstone_11.png","response":null,"trial_type":"image-keyboard-response","trial_index":14,"plugin_version":"2.1.0","time_elapsed":57330,"subject_id":"91923","group":"Group2","condition":"1_Rep","full_date":"2026-02-25T17:09:14.591Z","date":"2026-02-25","time":"17:09:14"},{"rt":null,"stimulus":"<p style=\"font-size: 50px; margin: 0; text-align: center;\">+</p>","response":null,"trial_type":"html-keyboard-response","trial_index":15,"plugin_version":"2.1.0","time_elapsed":58346,"subject_id":"91923","group":"Group2","condition":"1_Rep","full_date":"2026-02-25T17:09:14.591Z","date":"2026-02-25","time":"17:09:14"},{"task":"memory_phase","broad_category":"S","image_png":"S_Sandstone_08.png","image_id":456,"category_name":"Sandstone","category":29,"distinct_rating":1.5,"distinct_type":"Bottom","rt":null,"stimulus":"Stimuli_Rocks480/S_Sandstone_08.png","response":null,"trial_type":"image-keyboard-response","trial_index":16,"plugin_version":"2.1.0","time_elapsed":60860,"subject_id":"91923","group":"Group2","condition":"1_Rep","full_date":"2026-02-25T17:09:14.591Z","date":"2026-02-25","time":"17:09:14"},{"rt":null,"stimulus":"<p style=\"font-size: 50px; margin: 0; text-align: center;\">+</p>","response":null,"trial_type":"html-keyboard-response","trial_index":17,"plugin_version":"2.1.0","time_elapsed":61872,"subject_id":"91923","group":"Group2","condition":"1_Rep","full_date":"2026-02-25T17:09:14.591Z","date":"2026-02-25","time":"17:09:14"},{"task":"memory_phase","broad_category":"M","image_png":"M_Gneiss_15.png","image_id":207,"category_name":"Gneiss","category":13,"distinct_rating":3.11,"distinct_type":"Bottom","rt":null,"stimulus":"Stimuli_Rocks480/M_Gneiss_15.png","response":null,"trial_type":"image-keyboard-response","trial_index":18,"plugin_version":"2.1.0","time_elapsed":64383,"subject_id":"91923","group":"Group2","condition":"1_Rep","full_date":"2026-02-25T17:09:14.591Z","date":"2026-02-25","time":"17:09:14"},{"rt":null,"stimulus":"<p style=\"font-size: 50px; margin: 0; text-align: center;\">+</p>","response":null,"trial_type":"html-keyboard-response","trial_index":19,"plugin_version":"2.1.0","time_elapsed":65386,"subject_id":"91923","group":"Group2","condition":"1_Rep","full_date":"2026-02-25T17:09:14.591Z","date":"2026-02-25","time":"17:09:14"},{"task":"memory_phase","broad_category":"I","image_png":"I_Basalt_13.png","image_id":29,"category_name":"Basalt","category":2,"distinct_rating":2.68,"distinct_type":"Bottom","rt":null,"stimulus":"Stimuli_Rocks480/I_Basalt_13.png","response":null,"trial_type":"image-keyboard-response","trial_index":20,"plugin_version":"2.1.0","time_elapsed":67892,"subject_id":"91923","group":"Group2","condition":"1_Rep","full_date":"2026-02-25T17:09:14.591Z","date":"2026-02-25","time":"17:09:14"},{"rt":null,"stimulus":"<p style=\"font-size: 50px; margin: 0; text-align: center;\">+</p>","response":null,"trial_type":"html-keyboard-response","trial_index":21,"plugin_version":"2.1.0","time_elapsed":68910,"subject_id":"91923","group":"Group2","condition":"1_Rep","full_date":"2026-02-25T17:09:14.591Z","date":"2026-02-25","time":"17:09:14"},{"task":"memory_phase","broad_category":"I","image_png":"I_Andesite_03.png","image_id":3,"category_name":"Andesite","category":1,"distinct_rating":3.17,"distinct_type":"Bottom","rt":null,"stimulus":"Stimuli_Rocks480/I_Andesite_03.png","response":null,"trial_type":"image-keyboard-response","trial_index":22,"plugin_version":"2.1.0","time_elapsed":71417,"subject_id":"91923","group":"Group2","condition":"1_Rep","full_date":"2026-02-25T17:09:14.591Z","date":"2026-02-25","time":"17:09:14"},{"rt":null,"stimulus":"<p style=\"font-size: 50px; margin: 0; text-align: center;\">+</p>","response":null,"trial_type":"html-keyboard-response","trial_index":23,"plugin_version":"2.1.0","time_elapsed":72427,"subject_id":"91923","group":"Group2","condition":"1_Rep","full_date":"2026-02-25T17:09:14.591Z","date":"2026-02-25","time":"17:09:14"},{"task":"memory_phase","broad_category":"I","image_png":"I_Pegmatite_03.png","image_id":99,"category_name":"Pegmatite","category":7,"distinct_rating":7.24,"distinct_type":"Top","rt":null,"stimulus":"Stimuli_Rocks480/I_Pegmatite_03.png","response":null,"trial_type":"image-keyboard-response","trial_index":24,"plugin_version":"2.1.0","time_elapsed":74932,"subject_id":"91923","group":"Group2","condition":"1_Rep","full_date":"2026-02-25T17:09:14.591Z","date":"2026-02-25","time":"17:09:14"},{"rt":null,"stimulus":"<p style=\"font-size: 50px; margin: 0; text-align: center;\">+</p>","response":null,"trial_type":"html-keyboard-response","trial_index":25,"plugin_version":"2.1.0","time_elapsed":75936,"subject_id":"91923","group":"Group2","condition":"1_Rep","full_date":"2026-02-25T17:09:14.591Z","date":"2026-02-25","time":"17:09:14"},{"task":"memory_phase","broad_category":"M","image_png":"M_Slate_04.png","image_id":308,"category_name":"Slate","category":20,"distinct_rating":2.2,"distinct_type":"Bottom","rt":null,"stimulus":"Stimuli_Rocks480/M_Slate_04.png","response":null,"trial_type":"image-keyboard-response","trial_index":26,"plugin_version":"2.1.0","time_elapsed":78443,"subject_id":"91923","group":"Group2","condition":"1_Rep","full_date":"2026-02-25T17:09:14.591Z","date":"2026-02-25","time":"17:09:14"},{"rt":null,"stimulus":"<p style=\"font-size: 50px; margin: 0; text-align: center;\">+</p>","response":null,"trial_type":"html-keyboard-response","trial_index":27,"plugin_version":"2.1.0","time_elapsed":79454,"subject_id":"91923","group":"Group2","condition":"1_Rep","full_date":"2026-02-25T17:09:14.591Z","date":"2026-02-25","time":"17:09:14"},{"task":"memory_phase","broad_category":"M","image_png":"M_Marble_14.png","image_id":238,"category_name":"Marble","category":15,"distinct_rating":3.31,"distinct_type":"Bottom","rt":null,"stimulus":"Stimuli_Rocks480/M_Marble_14.png","response":null,"trial_type":"image-keyboard-response","trial_index":28,"plugin_version":"2.1.0","time_elapsed":81957,"subject_id":"91923","group":"Group2","condition":"1_Rep","full_date":"2026-02-25T17:09:14.591Z","date":"2026-02-25","time":"17:09:14"},{"rt":null,"stimulus":"<p style=\"font-size: 50px; margin: 0; text-align: center;\">+</p>","response":null,"trial_type":"html-keyboard-response","trial_index":29,"plugin_version":"2.1.0","time_elapsed":82961,"subject_id":"91923","group":"Group2","condition":"1_Rep","full_date":"2026-02-25T17:09:14.591Z","date":"2026-02-25","time":"17:09:14"},{"task":"memory_phase","broad_category":"S","image_png":"S_Rock Salt_13.png","image_id":445,"category_name":"Rock Salt","category":28,"distinct_rating":7.58,"distinct_type":"Top","rt":null,"stimulus":"Stimuli_Rocks480/S_Rock Salt_13.png","response":null,"trial_type":"image-keyboard-response","trial_index":30,"plugin_version":"2.1.0","time_elapsed":85466,"subject_id":"91923","group":"Group2","condition":"1_Rep","full_date":"2026-02-25T17:09:14.591Z","date":"2026-02-25","time":"17:09:14"},{"rt":null,"stimulus":"<p style=\"font-size: 50px; margin: 0; text-align: center;\">+</p>","response":null,"trial_type":"html-keyboard-response","trial_index":31,"plugin_version":"2.1.0","time_elapsed":86480,"subject_id":"91923","group":"Group2","condition":"1_Rep","full_date":"2026-02-25T17:09:14.591Z","date":"2026-02-25","time":"17:09:14"},{"task":"memory_phase","broad_category":"I","image_png":"I_Pumice_14.png","image_id":142,"category_name":"Pumice","category":9,"distinct_rating":3.22,"distinct_type":"Bottom","rt":null,"stimulus":"Stimuli_Rocks480/I_Pumice_14.png","response":null,"trial_type":"image-keyboard-response","trial_index":32,"plugin_version":"2.1.0","time_elapsed":88984,"subject_id":"91923","group":"Group2","condition":"1_Rep","full_date":"2026-02-25T17:09:14.591Z","date":"2026-02-25","time":"17:09:14"},{"rt":null,"stimulus":"<p style=\"font-size: 50px; margin: 0; text-align: center;\">+</p>","response":null,"trial_type":"html-keyboard-response","trial_index":33,"plugin_version":"2.1.0","time_elapsed":89993,"subject_id":"91923","group":"Group2","condition":"1_Rep","full_date":"2026-02-25T17:09:14.591Z","date":"2026-02-25","time":"17:09:14"},{"task":"memory_phase","broad_category":"M","image_png":"M_Quartzite_12.png","image_id":284,"category_name":"Quartzite","category":18,"distinct_rating":1.92,"distinct_type":"Bottom","rt":null,"stimulus":"Stimuli_Rocks480/M_Quartzite_12.png","response":null,"trial_type":"image-keyboard-response","trial_index":34,"plugin_version":"2.1.0","time_elapsed":92507,"subject_id":"91923","group":"Group2","condition":"1_Rep","full_date":"2026-02-25T17:09:14.591Z","date":"2026-02-25","time":"17:09:14"},{"rt":null,"stimulus":"<p style=\"font-size: 50px; margin: 0; text-align: center;\">+</p>","response":null,"trial_type":"html-keyboard-response","trial_index":35,"plugin_version":"2.1.0","time_elapsed":93517,"subject_id":"91923","group":"Group2","condition":"1_Rep","full_date":"2026-02-25T17:09:14.591Z","date":"2026-02-25","time":"17:09:14"},{"task":"memory_phase","broad_category":"I","image_png":"I_Diorite_01.png","image_id":33,"category_name":"Diorite","category":3,"distinct_rating":2.97,"distinct_type":"Bottom","rt":null,"stimulus":"Stimuli_Rocks480/I_Diorite_01.png","response":null,"trial_type":"image-keyboard-response","trial_index":36,"plugin_version":"2.1.0","time_elapsed":96029,"subject_id":"91923","group":"Group2","condition":"1_Rep","full_date":"2026-02-25T17:09:14.591Z","date":"2026-02-25","time":"17:09:14"},{"rt":null,"stimulus":"<p style=\"font-size: 50px; margin: 0; text-align: center;\">+</p>","response":null,"trial_type":"html-keyboard-response","trial_index":37,"plugin_version":"2.1.0","time_elapsed":97042,"subject_id":"91923","group":"Group2","condition":"1_Rep","full_date":"2026-02-25T17:09:14.591Z","date":"2026-02-25","time":"17:09:14"},{"task":"memory_phase","broad_category":"I","image_png":"I_Gabbro_14.png","image_id":62,"category_name":"Gabbro","category":4,"distinct_rating":2.95,"distinct_type":"Bottom","rt":null,"stimulus":"Stimuli_Rocks480/I_Gabbro_14.png","response":null,"trial_type":"image-keyboard-response","trial_index":38,"plugin_version":"2.1.0","time_elapsed":99548,"subject_id":"91923","group":"Group2","condition":"1_Rep","full_date":"2026-02-25T17:09:14.591Z","date":"2026-02-25","time":"17:09:14"},{"rt":null,"stimulus":"<p style=\"font-size: 50px; margin: 0; text-align: center;\">+</p>","response":null,"trial_type":"html-keyboard-response","trial_index":39,"plugin_version":"2.1.0","time_elapsed":100558,"subject_id":"91923","group":"Group2","condition":"1_Rep","full_date":"2026-02-25T17:09:14.591Z","date":"2026-02-25","time":"17:09:14"},{"task":"memory_phase","broad_category":"S","image_png":"S_Shale_03.png","image_id":467,"category_name":"Shale","category":30,"distinct_rating":1.95,"distinct_type":"Bottom","rt":null,"stimulus":"Stimuli_Rocks480/S_Shale_03.png","response":null,"trial_type":"image-keyboard-response","trial_index":40,"plugin_version":"2.1.0","time_elapsed":103066,"subject_id":"91923","group":"Group2","condition":"1_Rep","full_date":"2026-02-25T17:09:14.591Z","date":"2026-02-25","time":"17:09:14"},{"rt":null,"stimulus":"<p style=\"font-size: 50px; margin: 0; text-align: center;\">+</p>","response":null,"trial_type":"html-keyboard-response","trial_index":41,"plugin_version":"2.1.0","time_elapsed":104078,"subject_id":"91923","group":"Group2","condition":"1_Rep","full_date":"2026-02-25T17:09:14.591Z","date":"2026-02-25","time":"17:09:14"},{"task":"memory_phase","broad_category":"I","image_png":"I_Basalt_08.png","image_id":24,"category_name":"Basalt","category":2,"distinct_rating":2.31,"distinct_type":"Bottom","rt":null,"stimulus":"Stimuli_Rocks480/I_Basalt_08.png","response":null,"trial_type":"image-keyboard-response","trial_index":42,"plugin_version":"2.1.0","time_elapsed":106588,"subject_id":"91923","group":"Group2","condition":"1_Rep","full_date":"2026-02-25T17:09:14.591Z","date":"2026-02-25","time":"17:09:14"},{"rt":null,"stimulus":"<p style=\"font-size: 50px; margin: 0; text-align: center;\">+</p>","response":null,"trial_type":"html-keyboard-response","trial_index":43,"plugin_version":"2.1.0","time_elapsed":107604,"subject_id":"91923","group":"Group2","condition":"1_Rep","full_date":"2026-02-25T17:09:14.591Z","date":"2026-02-25","time":"17:09:14"},{"task":"memory_phase","broad_category":"S","image_png":"S_Chert_13.png","image_id":365,"category_name":"Chert","category":23,"distinct_rating":6.57,"distinct_type":"Top","rt":null,"stimulus":"Stimuli_Rocks480/S_Chert_13.png","response":null,"trial_type":"image-keyboard-response","trial_index":44,"plugin_version":"2.1.0","time_elapsed":110117,"subject_id":"91923","group":"Group2","condition":"1_Rep","full_date":"2026-02-25T17:09:14.591Z","date":"2026-02-25","time":"17:09:14"},{"rt":null,"stimulus":"<p style=\"font-size: 50px; margin: 0; text-align: center;\">+</p>","response":null,"trial_type":"html-keyboard-response","trial_index":45,"plugin_version":"2.1.0","time_elapsed":111132,"subject_id":"91923","group":"Group2","condition":"1_Rep","full_date":"2026-02-25T17:09:14.591Z","date":"2026-02-25","time":"17:09:14"},{"task":"memory_phase","broad_category":"I","image_png":"I_Andesite_09.png","image_id":9,"category_name":"Andesite","category":1,"distinct_rating":2.49,"distinct_type":"Bottom","rt":null,"stimulus":"Stimuli_Rocks480/I_Andesite_09.png","response":null,"trial_type":"image-keyboard-response","trial_index":46,"plugin_version":"2.1.0","time_elapsed":113643,"subject_id":"91923","group":"Group2","condition":"1_Rep","full_date":"2026-02-25T17:09:14.591Z","date":"2026-02-25","time":"17:09:14"},{"rt":null,"stimulus":"<p style=\"font-size: 50px; margin: 0; text-align: center;\">+</p>","response":null,"trial_type":"html-keyboard-response","trial_index":47,"plugin_version":"2.1.0","time_elapsed":114659,"subject_id":"91923","group":"Group2","condition":"1_Rep","full_date":"2026-02-25T17:09:14.591Z","date":"2026-02-25","time":"17:09:14"},{"task":"memory_phase","broad_category":"S","image_png":"S_Conglomerate_14.png","image_id":382,"category_name":"Conglomerate","category":24,"distinct_rating":6.86,"distinct_type":"Top","rt":null,"stimulus":"Stimuli_Rocks480/S_Conglomerate_14.png","response":null,"trial_type":"image-keyboard-response","trial_index":48,"plugin_version":"2.1.0","time_elapsed":117168,"subject_id":"91923","group":"Group2","condition":"1_Rep","full_date":"2026-02-25T17:09:14.591Z","date":"2026-02-25","time":"17:09:14"},{"rt":null,"stimulus":"<p style=\"font-size: 50px; margin: 0; text-align: center;\">+</p>","response":null,"trial_type":"html-keyboard-response","trial_index":49,"plugin_version":"2.1.0","time_elapsed":118178,"subject_id":"91923","group":"Group2","condition":"1_Rep","full_date":"2026-02-25T17:09:14.591Z","date":"2026-02-25","time":"17:09:14"},{"task":"memory_phase","broad_category":"I","image_png":"I_Peridotite_13.png","image_id":125,"category_name":"Peridotite","category":8,"distinct_rating":7.28,"distinct_type":"Top","rt":null,"stimulus":"Stimuli_Rocks480/I_Peridotite_13.png","response":null,"trial_type":"image-keyboard-response","trial_index":50,"plugin_version":"2.1.0","time_elapsed":120694,"subject_id":"91923","group":"Group2","condition":"1_Rep","full_date":"2026-02-25T17:09:14.591Z","date":"2026-02-25","time":"17:09:14"},{"rt":null,"stimulus":"<p style=\"font-size: 50px; margin: 0; text-align: center;\">+</p>","response":null,"trial_type":"html-keyboard-response","trial_index":51,"plugin_version":"2.1.0","time_elapsed":121711,"subject_id":"91923","group":"Group2","condition":"1_Rep","full_date":"2026-02-25T17:09:14.591Z","date":"2026-02-25","time":"17:09:14"},{"task":"memory_phase","broad_category":"M","image_png":"M_Slate_10.png","image_id":314,"category_name":"Slate","category":20,"distinct_rating":1.94,"distinct_type":"Bottom","rt":null,"stimulus":"Stimuli_Rocks480/M_Slate_10.png","response":null,"trial_type":"image-keyboard-response","trial_index":52,"plugin_version":"2.1.0","time_elapsed":124218,"subject_id":"91923","group":"Group2","condition":"1_Rep","full_date":"2026-02-25T17:09:14.591Z","date":"2026-02-25","time":"17:09:14"},{"rt":null,"stimulus":"<p style=\"font-size: 50px; margin: 0; text-align: center;\">+</p>","response":null,"trial_type":"html-keyboard-response","trial_index":53,"plugin_version":"2.1.0","time_elapsed":125220,"subject_id":"91923","group":"Group2","condition":"1_Rep","full_date":"2026-02-25T17:09:14.591Z","date":"2026-02-25","time":"17:09:14"},{"task":"memory_phase","broad_category":"I","image_png":"I_Pegmatite_11.png","image_id":107,"category_name":"Pegmatite","category":7,"distinct_rating":7.11,"distinct_type":"Top","rt":null,"stimulus":"Stimuli_Rocks480/I_Pegmatite_11.png","response":null,"trial_type":"image-keyboard-response","trial_index":54,"plugin_version":"2.1.0","time_elapsed":127733,"subject_id":"91923","group":"Group2","condition":"1_Rep","full_date":"2026-02-25T17:09:14.591Z","date":"2026-02-25","time":"17:09:14"},{"rt":1837,"stimulus":"<p style=\"max-width: 760px; margin: auto; font-size: 35px; line-height: 1.5;\">\n                Press SPACE to continue study phase\n              </p>","response":" ","trial_type":"html-keyboard-response","trial_index":55,"plugin_version":"2.1.0","time_elapsed":129572,"subject_id":"91923","group":"Group2","condition":"1_Rep","full_date":"2026-02-25T17:09:14.591Z","date":"2026-02-25","time":"17:09:14"},{"rt":null,"stimulus":"<p style=\"font-size: 50px; margin: 0; text-align: center;\">+</p>","response":null,"trial_type":"html-keyboard-response","trial_index":56,"plugin_version":"2.1.0","time_elapsed":130577,"subject_id":"91923","group":"Group2","condition":"1_Rep","full_date":"2026-02-25T17:09:14.591Z","date":"2026-02-25","time":"17:09:14"},{"task":"memory_phase","broad_category":"I","image_png":"I_Rhyolite_05.png","image_id":149,"category_name":"Rhyolite","category":10,"distinct_rating":3.02,"distinct_type":"Bottom","rt":null,"stimulus":"Stimuli_Rocks480/I_Rhyolite_05.png","response":null,"trial_type":"image-keyboard-response","trial_index":57,"plugin_version":"2.1.0","time_elapsed":133082,"subject_id":"91923","group":"Group2","condition":"1_Rep","full_date":"2026-02-25T17:09:14.591Z","date":"2026-02-25","time":"17:09:14"},{"rt":null,"stimulus":"<p style=\"font-size: 50px; margin: 0; text-align: center;\">+</p>","response":null,"trial_type":"html-keyboard-response","trial_index":58,"plugin_version":"2.1.0","time_elapsed":134085,"subject_id":"91923","group":"Group2","condition":"1_Rep","full_date":"2026-02-25T17:09:14.591Z","date":"2026-02-25","time":"17:09:14"},{"task":"memory_phase","broad_category":"M","image_png":"M_Phyllite_02.png","image_id":258,"category_name":"Phyllite","category":17,"distinct_rating":2.89,"distinct_type":"Bottom","rt":null,"stimulus":"Stimuli_Rocks480/M_Phyllite_02.png","response":null,"trial_type":"image-keyboard-response","trial_index":59,"plugin_version":"2.1.0","time_elapsed":136595,"subject_id":"91923","group":"Group2","condition":"1_Rep","full_date":"2026-02-25T17:09:14.591Z","date":"2026-02-25","time":"17:09:14"},{"rt":null,"stimulus":"<p style=\"font-size: 50px; margin: 0; text-align: center;\">+</p>","response":null,"trial_type":"html-keyboard-response","trial_index":60,"plugin_version":"2.1.0","time_elapsed":137603,"subject_id":"91923","group":"Group2","condition":"1_Rep","full_date":"2026-02-25T17:09:14.591Z","date":"2026-02-25","time":"17:09:14"},{"task":"memory_phase","broad_category":"M","image_png":"M_Marble_02.png","image_id":226,"category_name":"Marble","category":15,"distinct_rating":3.2,"distinct_type":"Bottom","rt":null,"stimulus":"Stimuli_Rocks480/M_Marble_02.png","response":null,"trial_type":"image-keyboard-response","trial_index":61,"plugin_version":"2.1.0","time_elapsed":140116,"subject_id":"91923","group":"Group2","condition":"1_Rep","full_date":"2026-02-25T17:09:14.591Z","date":"2026-02-25","time":"17:09:14"},{"rt":null,"stimulus":"<p style=\"font-size: 50px; margin: 0; text-align: center;\">+</p>","response":null,"trial_type":"html-keyboard-response","trial_index":62,"plugin_version":"2.1.0","time_elapsed":141129,"subject_id":"91923","group":"Group2","condition":"1_Rep","full_date":"2026-02-25T17:09:14.591Z","date":"2026-02-25","time":"17:09:14"},{"task":"memory_phase","broad_category":"I","image_png":"I_Rhyolite_08.png","image_id":152,"category_name":"Rhyolite","category":10,"distinct_rating":1.38,"distinct_type":"Bottom","rt":null,"stimulus":"Stimuli_Rocks480/I_Rhyolite_08.png","response":null,"trial_type":"image-keyboard-response","trial_index":63,"plugin_version":"2.1.0","time_elapsed":143625,"subject_id":"91923","group":"Group2","condition":"1_Rep","full_date":"2026-02-25T17:09:14.591Z","date":"2026-02-25","time":"17:09:14"},{"rt":null,"stimulus":"<p style=\"font-size: 50px; margin: 0; text-align: center;\">+</p>","response":null,"trial_type":"html-keyboard-response","trial_index":64,"plugin_version":"2.1.0","time_elapsed":144636,"subject_id":"91923","group":"Group2","condition":"1_Rep","full_date":"2026-02-25T17:09:14.591Z","date":"2026-02-25","time":"17:09:14"},{"task":"memory_phase","broad_category":"S","image_png":"S_Dolomite_01.png","image_id":385,"category_name":"Dolomite","category":25,"distinct_rating":1.43,"distinct_type":"Bottom","rt":null,"stimulus":"Stimuli_Rocks480/S_Dolomite_01.png","response":null,"trial_type":"image-keyboard-response","trial_index":65,"plugin_version":"2.1.0","time_elapsed":147144,"subject_id":"91923","group":"Group2","condition":"1_Rep","full_date":"2026-02-25T17:09:14.591Z","date":"2026-02-25","time":"17:09:14"},{"rt":null,"stimulus":"<p style=\"font-size: 50px; margin: 0; text-align: center;\">+</p>","response":null,"trial_type":"html-keyboard-response","trial_index":66,"plugin_version":"2.1.0","time_elapsed":148149,"subject_id":"91923","group":"Group2","condition":"1_Rep","full_date":"2026-02-25T17:09:14.591Z","date":"2026-02-25","time":"17:09:14"},{"task":"memory_phase","broad_category":"S","image_png":"S_Dolomite_16.png","image_id":400,"category_name":"Dolomite","category":25,"distinct_rating":1.71,"distinct_type":"Bottom","rt":null,"stimulus":"Stimuli_Rocks480/S_Dolomite_16.png","response":null,"trial_type":"image-keyboard-response","trial_index":67,"plugin_version":"2.1.0","time_elapsed":150653,"subject_id":"91923","group":"Group2","condition":"1_Rep","full_date":"2026-02-25T17:09:14.591Z","date":"2026-02-25","time":"17:09:14"},{"rt":null,"stimulus":"<p style=\"font-size: 50px; margin: 0; text-align: center;\">+</p>","response":null,"trial_type":"html-keyboard-response","trial_index":68,"plugin_version":"2.1.0","time_elapsed":151667,"subject_id":"91923","group":"Group2","condition":"1_Rep","full_date":"2026-02-25T17:09:14.591Z","date":"2026-02-25","time":"17:09:14"},{"task":"memory_phase","broad_category":"I","image_png":"I_Gabbro_12.png","image_id":60,"category_name":"Gabbro","category":4,"distinct_rating":2.6,"distinct_type":"Bottom","rt":null,"stimulus":"Stimuli_Rocks480/I_Gabbro_12.png","response":null,"trial_type":"image-keyboard-response","trial_index":69,"plugin_version":"2.1.0","time_elapsed":154173,"subject_id":"91923","group":"Group2","condition":"1_Rep","full_date":"2026-02-25T17:09:14.591Z","date":"2026-02-25","time":"17:09:14"},{"rt":null,"stimulus":"<p style=\"font-size: 50px; margin: 0; text-align: center;\">+</p>","response":null,"trial_type":"html-keyboard-response","trial_index":70,"plugin_version":"2.1.0","time_elapsed":155176,"subject_id":"91923","group":"Group2","condition":"1_Rep","full_date":"2026-02-25T17:09:14.591Z","date":"2026-02-25","time":"17:09:14"},{"task":"memory_phase","broad_category":"I","image_png":"I_Obsidian_06.png","image_id":86,"category_name":"Obsidian","category":6,"distinct_rating":8.01,"distinct_type":"Top","rt":null,"stimulus":"Stimuli_Rocks480/I_Obsidian_06.png","response":null,"trial_type":"image-keyboard-response","trial_index":71,"plugin_version":"2.1.0","time_elapsed":157684,"subject_id":"91923","group":"Group2","condition":"1_Rep","full_date":"2026-02-25T17:09:14.591Z","date":"2026-02-25","time":"17:09:14"},{"rt":null,"stimulus":"<p style=\"font-size: 50px; margin: 0; text-align: center;\">+</p>","response":null,"trial_type":"html-keyboard-response","trial_index":72,"plugin_version":"2.1.0","time_elapsed":158693,"subject_id":"91923","group":"Group2","condition":"1_Rep","full_date":"2026-02-25T17:09:14.591Z","date":"2026-02-25","time":"17:09:14"},{"task":"memory_phase","broad_category":"I","image_png":"I_Diorite_15.png","image_id":47,"category_name":"Diorite","category":3,"distinct_rating":3.05,"distinct_type":"Bottom","rt":null,"stimulus":"Stimuli_Rocks480/I_Diorite_15.png","response":null,"trial_type":"image-keyboard-response","trial_index":73,"plugin_version":"2.1.0","time_elapsed":161202,"subject_id":"91923","group":"Group2","condition":"1_Rep","full_date":"2026-02-25T17:09:14.591Z","date":"2026-02-25","time":"17:09:14"},{"rt":null,"stimulus":"<p style=\"font-size: 50px; margin: 0; text-align: center;\">+</p>","response":null,"trial_type":"html-keyboard-response","trial_index":74,"plugin_version":"2.1.0","time_elapsed":162221,"subject_id":"91923","group":"Group2","condition":"1_Rep","full_date":"2026-02-25T17:09:14.591Z","date":"2026-02-25","time":"17:09:14"},{"task":"memory_phase","broad_category":"I","image_png":"I_Andesite_04.png","image_id":4,"category_name":"Andesite","category":1,"distinct_rating":3.18,"distinct_type":"Bottom","rt":null,"stimulus":"Stimuli_Rocks480/I_Andesite_04.png","response":null,"trial_type":"image-keyboard-response","trial_index":75,"plugin_version":"2.1.0","time_elapsed":164735,"subject_id":"91923","group":"Group2","condition":"1_Rep","full_date":"2026-02-25T17:09:14.591Z","date":"2026-02-25","time":"17:09:14"},{"rt":null,"stimulus":"<p style=\"font-size: 50px; margin: 0; text-align: center;\">+</p>","response":null,"trial_type":"html-keyboard-response","trial_index":76,"plugin_version":"2.1.0","time_elapsed":165747,"subject_id":"91923","group":"Group2","condition":"1_Rep","full_date":"2026-02-25T17:09:14.591Z","date":"2026-02-25","time":"17:09:14"},{"task":"memory_phase","broad_category":"S","image_png":"S_Shale_07.png","image_id":471,"category_name":"Shale","category":30,"distinct_rating":2.73,"distinct_type":"Bottom","rt":null,"stimulus":"Stimuli_Rocks480/S_Shale_07.png","response":null,"trial_type":"image-keyboard-response","trial_index":77,"plugin_version":"2.1.0","time_elapsed":168262,"subject_id":"91923","group":"Group2","condition":"1_Rep","full_date":"2026-02-25T17:09:14.591Z","date":"2026-02-25","time":"17:09:14"},{"rt":null,"stimulus":"<p style=\"font-size: 50px; margin: 0; text-align: center;\">+</p>","response":null,"trial_type":"html-keyboard-response","trial_index":78,"plugin_version":"2.1.0","time_elapsed":169278,"subject_id":"91923","group":"Group2","condition":"1_Rep","full_date":"2026-02-25T17:09:14.591Z","date":"2026-02-25","time":"17:09:14"},{"task":"memory_phase","broad_category":"M","image_png":"M_Phyllite_13.png","image_id":269,"category_name":"Phyllite","category":17,"distinct_rating":2.8,"distinct_type":"Bottom","rt":null,"stimulus":"Stimuli_Rocks480/M_Phyllite_13.png","response":null,"trial_type":"image-keyboard-response","trial_index":79,"plugin_version":"2.1.0","time_elapsed":171791,"subject_id":"91923","group":"Group2","condition":"1_Rep","full_date":"2026-02-25T17:09:14.591Z","date":"2026-02-25","time":"17:09:14"},{"rt":null,"stimulus":"<p style=\"font-size: 50px; margin: 0; text-align: center;\">+</p>","response":null,"trial_type":"html-keyboard-response","trial_index":80,"plugin_version":"2.1.0","time_elapsed":172805,"subject_id":"91923","group":"Group2","condition":"1_Rep","full_date":"2026-02-25T17:09:14.591Z","date":"2026-02-25","time":"17:09:14"},{"task":"memory_phase","broad_category":"M","image_png":"M_Marble_03.png","image_id":227,"category_name":"Marble","category":15,"distinct_rating":2.67,"distinct_type":"Bottom","rt":null,"stimulus":"Stimuli_Rocks480/M_Marble_03.png","response":null,"trial_type":"image-keyboard-response","trial_index":81,"plugin_version":"2.1.0","time_elapsed":175313,"subject_id":"91923","group":"Group2","condition":"1_Rep","full_date":"2026-02-25T17:09:14.591Z","date":"2026-02-25","time":"17:09:14"},{"rt":null,"stimulus":"<p style=\"font-size: 50px; margin: 0; text-align: center;\">+</p>","response":null,"trial_type":"html-keyboard-response","trial_index":82,"plugin_version":"2.1.0","time_elapsed":176327,"subject_id":"91923","group":"Group2","condition":"1_Rep","full_date":"2026-02-25T17:09:14.591Z","date":"2026-02-25","time":"17:09:14"},{"task":"memory_phase","broad_category":"I","image_png":"I_Pumice_01.png","image_id":129,"category_name":"Pumice","category":9,"distinct_rating":3.25,"distinct_type":"Bottom","rt":null,"stimulus":"Stimuli_Rocks480/I_Pumice_01.png","response":null,"trial_type":"image-keyboard-response","trial_index":83,"plugin_version":"2.1.0","time_elapsed":178833,"subject_id":"91923","group":"Group2","condition":"1_Rep","full_date":"2026-02-25T17:09:14.591Z","date":"2026-02-25","time":"17:09:14"},{"rt":null,"stimulus":"<p style=\"font-size: 50px; margin: 0; text-align: center;\">+</p>","response":null,"trial_type":"html-keyboard-response","trial_index":84,"plugin_version":"2.1.0","time_elapsed":179836,"subject_id":"91923","group":"Group2","condition":"1_Rep","full_date":"2026-02-25T17:09:14.591Z","date":"2026-02-25","time":"17:09:14"},{"task":"memory_phase","broad_category":"I","image_png":"I_Basalt_10.png","image_id":26,"category_name":"Basalt","category":2,"distinct_rating":2.76,"distinct_type":"Bottom","rt":null,"stimulus":"Stimuli_Rocks480/I_Basalt_10.png","response":null,"trial_type":"image-keyboard-response","trial_index":85,"plugin_version":"2.1.0","time_elapsed":182340,"subject_id":"91923","group":"Group2","condition":"1_Rep","full_date":"2026-02-25T17:09:14.591Z","date":"2026-02-25","time":"17:09:14"},{"rt":null,"stimulus":"<p style=\"font-size: 50px; margin: 0; text-align: center;\">+</p>","response":null,"trial_type":"html-keyboard-response","trial_index":86,"plugin_version":"2.1.0","time_elapsed":183353,"subject_id":"91923","group":"Group2","condition":"1_Rep","full_date":"2026-02-25T17:09:14.591Z","date":"2026-02-25","time":"17:09:14"},{"task":"memory_phase","broad_category":"I","image_png":"I_Rhyolite_10.png","image_id":154,"category_name":"Rhyolite","category":10,"distinct_rating":2.88,"distinct_type":"Bottom","rt":null,"stimulus":"Stimuli_Rocks480/I_Rhyolite_10.png","response":null,"trial_type":"image-keyboard-response","trial_index":87,"plugin_version":"2.1.0","time_elapsed":185860,"subject_id":"91923","group":"Group2","condition":"1_Rep","full_date":"2026-02-25T17:09:14.591Z","date":"2026-02-25","time":"17:09:14"},{"rt":null,"stimulus":"<p style=\"font-size: 50px; margin: 0; text-align: center;\">+</p>","response":null,"trial_type":"html-keyboard-response","trial_index":88,"plugin_version":"2.1.0","time_elapsed":186870,"subject_id":"91923","group":"Group2","condition":"1_Rep","full_date":"2026-02-25T17:09:14.591Z","date":"2026-02-25","time":"17:09:14"},{"task":"memory_phase","broad_category":"S","image_png":"S_Shale_02.png","image_id":466,"category_name":"Shale","category":30,"distinct_rating":2.9,"distinct_type":"Bottom","rt":null,"stimulus":"Stimuli_Rocks480/S_Shale_02.png","response":null,"trial_type":"image-keyboard-response","trial_index":89,"plugin_version":"2.1.0","time_elapsed":189388,"subject_id":"91923","group":"Group2","condition":"1_Rep","full_date":"2026-02-25T17:09:14.591Z","date":"2026-02-25","time":"17:09:14"},{"rt":null,"stimulus":"<p style=\"font-size: 50px; margin: 0; text-align: center;\">+</p>","response":null,"trial_type":"html-keyboard-response","trial_index":90,"plugin_version":"2.1.0","time_elapsed":190399,"subject_id":"91923","group":"Group2","condition":"1_Rep","full_date":"2026-02-25T17:09:14.591Z","date":"2026-02-25","time":"17:09:14"},{"task":"memory_phase","broad_category":"M","image_png":"M_Gneiss_10.png","image_id":202,"category_name":"Gneiss","category":13,"distinct_rating":3.09,"distinct_type":"Bottom","rt":null,"stimulus":"Stimuli_Rocks480/M_Gneiss_10.png","response":null,"trial_type":"image-keyboard-response","trial_index":91,"plugin_version":"2.1.0","time_elapsed":192909,"subject_id":"91923","group":"Group2","condition":"1_Rep","full_date":"2026-02-25T17:09:14.591Z","date":"2026-02-25","time":"17:09:14"},{"rt":null,"stimulus":"<p style=\"font-size: 50px; margin: 0; text-align: center;\">+</p>","response":null,"trial_type":"html-keyboard-response","trial_index":92,"plugin_version":"2.1.0","time_elapsed":193919,"subject_id":"91923","group":"Group2","condition":"1_Rep","full_date":"2026-02-25T17:09:14.591Z","date":"2026-02-25","time":"17:09:14"},{"task":"memory_phase","broad_category":"M","image_png":"M_Quartzite_15.png","image_id":287,"category_name":"Quartzite","category":18,"distinct_rating":2.19,"distinct_type":"Bottom","rt":null,"stimulus":"Stimuli_Rocks480/M_Quartzite_15.png","response":null,"trial_type":"image-keyboard-response","trial_index":93,"plugin_version":"2.1.0","time_elapsed":196426,"subject_id":"91923","group":"Group2","condition":"1_Rep","full_date":"2026-02-25T17:09:14.591Z","date":"2026-02-25","time":"17:09:14"},{"rt":null,"stimulus":"<p style=\"font-size: 50px; margin: 0; text-align: center;\">+</p>","response":null,"trial_type":"html-keyboard-response","trial_index":94,"plugin_version":"2.1.0","time_elapsed":197443,"subject_id":"91923","group":"Group2","condition":"1_Rep","full_date":"2026-02-25T17:09:14.591Z","date":"2026-02-25","time":"17:09:14"},{"task":"memory_phase","broad_category":"S","image_png":"S_Rock Salt_15.png","image_id":447,"category_name":"Rock Salt","category":28,"distinct_rating":7.79,"distinct_type":"Top","rt":null,"stimulus":"Stimuli_Rocks480/S_Rock Salt_15.png","response":null,"trial_type":"image-keyboard-response","trial_index":95,"plugin_version":"2.1.0","time_elapsed":199958,"subject_id":"91923","group":"Group2","condition":"1_Rep","full_date":"2026-02-25T17:09:14.591Z","date":"2026-02-25","time":"17:09:14"},{"rt":null,"stimulus":"<p style=\"font-size: 50px; margin: 0; text-align: center;\">+</p>","response":null,"trial_type":"html-keyboard-response","trial_index":96,"plugin_version":"2.1.0","time_elapsed":200971,"subject_id":"91923","group":"Group2","condition":"1_Rep","full_date":"2026-02-25T17:09:14.591Z","date":"2026-02-25","time":"17:09:14"},{"task":"memory_phase","broad_category":"M","image_png":"M_Gneiss_14.png","image_id":206,"category_name":"Gneiss","category":13,"distinct_rating":3.41,"distinct_type":"Bottom","rt":null,"stimulus":"Stimuli_Rocks480/M_Gneiss_14.png","response":null,"trial_type":"image-keyboard-response","trial_index":97,"plugin_version":"2.1.0","time_elapsed":203475,"subject_id":"91923","group":"Group2","condition":"1_Rep","full_date":"2026-02-25T17:09:14.591Z","date":"2026-02-25","time":"17:09:14"},{"rt":null,"stimulus":"<p style=\"font-size: 50px; margin: 0; text-align: center;\">+</p>","response":null,"trial_type":"html-keyboard-response","trial_index":98,"plugin_version":"2.1.0","time_elapsed":204470,"subject_id":"91923","group":"Group2","condition":"1_Rep","full_date":"2026-02-25T17:09:14.591Z","date":"2026-02-25","time":"17:09:14"},{"task":"memory_phase","broad_category":"M","image_png":"M_Phyllite_05.png","image_id":261,"category_name":"Phyllite","category":17,"distinct_rating":2.14,"distinct_type":"Bottom","rt":null,"stimulus":"Stimuli_Rocks480/M_Phyllite_05.png","response":null,"trial_type":"image-keyboard-response","trial_index":99,"plugin_version":"2.1.0","time_elapsed":206983,"subject_id":"91923","group":"Group2","condition":"1_Rep","full_date":"2026-02-25T17:09:14.591Z","date":"2026-02-25","time":"17:09:14"},{"rt":null,"stimulus":"<p style=\"font-size: 50px; margin: 0; text-align: center;\">+</p>","response":null,"trial_type":"html-keyboard-response","trial_index":100,"plugin_version":"2.1.0","time_elapsed":207995,"subject_id":"91923","group":"Group2","condition":"1_Rep","full_date":"2026-02-25T17:09:14.591Z","date":"2026-02-25","time":"17:09:14"},{"task":"memory_phase","broad_category":"I","image_png":"I_Gabbro_02.png","image_id":50,"category_name":"Gabbro","category":4,"distinct_rating":2.73,"distinct_type":"Bottom","rt":null,"stimulus":"Stimuli_Rocks480/I_Gabbro_02.png","response":null,"trial_type":"image-keyboard-response","trial_index":101,"plugin_version":"2.1.0","time_elapsed":210513,"subject_id":"91923","group":"Group2","condition":"1_Rep","full_date":"2026-02-25T17:09:14.591Z","date":"2026-02-25","time":"17:09:14"},{"rt":null,"stimulus":"<p style=\"font-size: 50px; margin: 0; text-align: center;\">+</p>","response":null,"trial_type":"html-keyboard-response","trial_index":102,"plugin_version":"2.1.0","time_elapsed":211529,"subject_id":"91923","group":"Group2","condition":"1_Rep","full_date":"2026-02-25T17:09:14.591Z","date":"2026-02-25","time":"17:09:14"},{"task":"memory_phase","broad_category":"I","image_png":"I_Diorite_10.png","image_id":42,"category_name":"Diorite","category":3,"distinct_rating":2.84,"distinct_type":"Bottom","rt":null,"stimulus":"Stimuli_Rocks480/I_Diorite_10.png","response":null,"trial_type":"image-keyboard-response","trial_index":103,"plugin_version":"2.1.0","time_elapsed":214035,"subject_id":"91923","group":"Group2","condition":"1_Rep","full_date":"2026-02-25T17:09:14.591Z","date":"2026-02-25","time":"17:09:14"},{"rt":null,"stimulus":"<p style=\"font-size: 50px; margin: 0; text-align: center;\">+</p>","response":null,"trial_type":"html-keyboard-response","trial_index":104,"plugin_version":"2.1.0","time_elapsed":215053,"subject_id":"91923","group":"Group2","condition":"1_Rep","full_date":"2026-02-25T17:09:14.591Z","date":"2026-02-25","time":"17:09:14"},{"task":"memory_phase","broad_category":"S","image_png":"S_Sandstone_04.png","image_id":452,"category_name":"Sandstone","category":29,"distinct_rating":1.8,"distinct_type":"Bottom","rt":null,"stimulus":"Stimuli_Rocks480/S_Sandstone_04.png","response":null,"trial_type":"image-keyboard-response","trial_index":105,"plugin_version":"2.1.0","time_elapsed":217566,"subject_id":"91923","group":"Group2","condition":"1_Rep","full_date":"2026-02-25T17:09:14.591Z","date":"2026-02-25","time":"17:09:14"},{"rt":29303,"stimulus":"<div style=\"max-width: 760px; margin: auto; font-size: 20px; line-height: 1.5;\">\n      <h1 style=\"text-align:center; font-size: 30px;\">Instructions for the Test Phase</h1>\n      <p>\n        The study phase is now complete.\n      </p>\n      <p>\n        In the test phase, you will again see a series of rock images. \n        Some will be ones you saw before - during the study phase, while others will be new.  \n        <b>Your task</b> is to decide whether you have seen each image before by pressing the corresponding key on your keyboard:<br><br>\n          <b>A</b> - NO (you did not see this image before)<br>\n          <b>L</b> - YES (you saw this image before)<br><br>\n        The test will proceed at your own pace. You will receive feedback after each response.  \n        Please try to respond <b>as accurately as possible</b>.\n      </p>\n      <p>\n        <b>Reminder:</b> If your computer has multiple language settings (e.g., English and another language),\n        please ensure it is set to English during the test phase.\n      </p>\n      <p>\n        You can track your progress using the <b>completion bar</b> at the top of the screen.  \n        Note that it has been refreshed to reflect your progress during this final phase.\n      </p>\n      <p>\n        Press the button below when you are ready to continue.\n      </p>\n    </div>","response":0,"trial_type":"html-button-response","trial_index":106,"plugin_version":"2.1.0","time_elapsed":246872,"subject_id":"91923","group":"Group2","condition":"1_Rep","full_date":"2026-02-25T17:09:14.591Z","date":"2026-02-25","time":"17:09:14"},{"correct_response":"l","task":"test_phase","broad_category":"I","image_png":"I_Diorite_01.png","image_id":33,"category_name":"Diorite","category":3,"distinct_rating":2.97,"distinct_type":"Bottom","item_type":"Target","rt":4343,"stimulus":"Stimuli_Rocks480/I_Diorite_01.png","response":"l","trial_type":"image-keyboard-response","trial_index":107,"plugin_version":"2.1.0","time_elapsed":251216,"subject_id":"91923","group":"Group2","condition":"1_Rep","full_date":"2026-02-25T17:09:14.591Z","date":"2026-02-25","time":"17:09:14","cor_ans":true},{"trial_type":"html-keyboard-response","rt":null,"stimulus":"<p style=\"color: green; font-size: 50px; font-weight: bold;\">Correct</p>","response":null,"trial_index":108,"plugin_version":"2.1.0","time_elapsed":251719,"subject_id":"91923","group":"Group2","condition":"1_Rep","full_date":"2026-02-25T17:09:14.591Z","date":"2026-02-25","time":"17:09:14"},{"correct_response":"a","task":"test_phase","broad_category":"I","image_png":"I_Andesite_08.png","image_id":8,"category_name":"Andesite","category":1,"distinct_rating":1.95,"distinct_type":"Bottom","item_type":"Foil","rt":1185,"stimulus":"Stimuli_Rocks480/I_Andesite_08.png","response":"l","trial_type":"image-keyboard-response","trial_index":109,"plugin_version":"2.1.0","time_elapsed":252906,"subject_id":"91923","group":"Group2","condition":"1_Rep","full_date":"2026-02-25T17:09:14.591Z","date":"2026-02-25","time":"17:09:14","cor_ans":false},{"trial_type":"html-keyboard-response","rt":null,"stimulus":"<p style=\"color: red; font-size: 50px; font-weight: bold;\">Incorrect</p>","response":null,"trial_index":110,"plugin_version":"2.1.0","time_elapsed":253413,"subject_id":"91923","group":"Group2","condition":"1_Rep","full_date":"2026-02-25T17:09:14.591Z","date":"2026-02-25","time":"17:09:14"},{"correct_response":"l","task":"test_phase","broad_category":"I","image_png":"I_Pegmatite_03.png","image_id":99,"category_name":"Pegmatite","category":7,"distinct_rating":7.24,"distinct_type":"Top","item_type":"Target","rt":1362,"stimulus":"Stimuli_Rocks480/I_Pegmatite_03.png","response":"a","trial_type":"image-keyboard-response","trial_index":111,"plugin_version":"2.1.0","time_elapsed":254776,"subject_id":"91923","group":"Group2","condition":"1_Rep","full_date":"2026-02-25T17:09:14.591Z","date":"2026-02-25","time":"17:09:14","cor_ans":false},{"trial_type":"html-keyboard-response","rt":null,"stimulus":"<p style=\"color: red; font-size: 50px; font-weight: bold;\">Incorrect</p>","response":null,"trial_index":112,"plugin_version":"2.1.0","time_elapsed":255294,"subject_id":"91923","group":"Group2","condition":"1_Rep","full_date":"2026-02-25T17:09:14.591Z","date":"2026-02-25","time":"17:09:14"},{"correct_response":"l","task":"test_phase","broad_category":"M","image_png":"M_Gneiss_10.png","image_id":202,"category_name":"Gneiss","category":13,"distinct_rating":3.09,"distinct_type":"Bottom","item_type":"Target","rt":1543,"stimulus":"Stimuli_Rocks480/M_Gneiss_10.png","response":"l","trial_type":"image-keyboard-response","trial_index":113,"plugin_version":"2.1.0","time_elapsed":256846,"subject_id":"91923","group":"Group2","condition":"1_Rep","full_date":"2026-02-25T17:09:14.591Z","date":"2026-02-25","time":"17:09:14","cor_ans":true},{"trial_type":"html-keyboard-response","rt":null,"stimulus":"<p style=\"color: green; font-size: 50px; font-weight: bold;\">Correct</p>","response":null,"trial_index":114,"plugin_version":"2.1.0","time_elapsed":257357,"subject_id":"91923","group":"Group2","condition":"1_Rep","full_date":"2026-02-25T17:09:14.591Z","date":"2026-02-25","time":"17:09:14"},{"correct_response":"l","task":"test_phase","broad_category":"I","image_png":"I_Diorite_10.png","image_id":42,"category_name":"Diorite","category":3,"distinct_rating":2.84,"distinct_type":"Bottom","item_type":"Target","rt":1649,"stimulus":"Stimuli_Rocks480/I_Diorite_10.png","response":"l","trial_type":"image-keyboard-response","trial_index":115,"plugin_version":"2.1.0","time_elapsed":259009,"subject_id":"91923","group":"Group2","condition":"1_Rep","full_date":"2026-02-25T17:09:14.591Z","date":"2026-02-25","time":"17:09:14","cor_ans":true},{"trial_type":"html-keyboard-response","rt":null,"stimulus":"<p style=\"color: green; font-size: 50px; font-weight: bold;\">Correct</p>","response":null,"trial_index":116,"plugin_version":"2.1.0","time_elapsed":259525,"subject_id":"91923","group":"Group2","condition":"1_Rep","full_date":"2026-02-25T17:09:14.591Z","date":"2026-02-25","time":"17:09:14"},{"correct_response":"l","task":"test_phase","broad_category":"I","image_png":"I_Pumice_14.png","image_id":142,"category_name":"Pumice","category":9,"distinct_rating":3.22,"distinct_type":"Bottom","item_type":"Target","rt":1383,"stimulus":"Stimuli_Rocks480/I_Pumice_14.png","response":"l","trial_type":"image-keyboard-response","trial_index":117,"plugin_version":"2.1.0","time_elapsed":260911,"subject_id":"91923","group":"Group2","condition":"1_Rep","full_date":"2026-02-25T17:09:14.591Z","date":"2026-02-25","time":"17:09:14","cor_ans":true},{"trial_type":"html-keyboard-response","rt":null,"stimulus":"<p style=\"color: green; font-size: 50px; font-weight: bold;\">Correct</p>","response":null,"trial_index":118,"plugin_version":"2.1.0","time_elapsed":261422,"subject_id":"91923","group":"Group2","condition":"1_Rep","full_date":"2026-02-25T17:09:14.591Z","date":"2026-02-25","time":"17:09:14"},{"correct_response":"l","task":"test_phase","broad_category":"M","image_png":"M_Gneiss_14.png","image_id":206,"category_name":"Gneiss","category":13,"distinct_rating":3.41,"distinct_type":"Bottom","item_type":"Target","rt":1083,"stimulus":"Stimuli_Rocks480/M_Gneiss_14.png","response":"a","trial_type":"image-keyboard-response","trial_index":119,"plugin_version":"2.1.0","time_elapsed":262507,"subject_id":"91923","group":"Group2","condition":"1_Rep","full_date":"2026-02-25T17:09:14.591Z","date":"2026-02-25","time":"17:09:14","cor_ans":false},{"trial_type":"html-keyboard-response","rt":null,"stimulus":"<p style=\"color: red; font-size: 50px; font-weight: bold;\">Incorrect</p>","response":null,"trial_index":120,"plugin_version":"2.1.0","time_elapsed":263016,"subject_id":"91923","group":"Group2","condition":"1_Rep","full_date":"2026-02-25T17:09:14.591Z","date":"2026-02-25","time":"17:09:14"},{"correct_response":"l","task":"test_phase","broad_category":"S","image_png":"S_Shale_02.png","image_id":466,"category_name":"Shale","category":30,"distinct_rating":2.9,"distinct_type":"Bottom","item_type":"Target","rt":1165,"stimulus":"Stimuli_Rocks480/S_Shale_02.png","response":"a","trial_type":"image-keyboard-response","trial_index":121,"plugin_version":"2.1.0","time_elapsed":264183,"subject_id":"91923","group":"Group2","condition":"1_Rep","full_date":"2026-02-25T17:09:14.591Z","date":"2026-02-25","time":"17:09:14","cor_ans":false},{"trial_type":"html-keyboard-response","rt":null,"stimulus":"<p style=\"color: red; font-size: 50px; font-weight: bold;\">Incorrect</p>","response":null,"trial_index":122,"plugin_version":"2.1.0","time_elapsed":264684,"subject_id":"91923","group":"Group2","condition":"1_Rep","full_date":"2026-02-25T17:09:14.591Z","date":"2026-02-25","time":"17:09:14"},{"correct_response":"l","task":"test_phase","broad_category":"I","image_png":"I_Basalt_10.png","image_id":26,"category_name":"Basalt","category":2,"distinct_rating":2.76,"distinct_type":"Bottom","item_type":"Target","rt":838,"stimulus":"Stimuli_Rocks480/I_Basalt_10.png","response":"a","trial_type":"image-keyboard-response","trial_index":123,"plugin_version":"2.1.0","time_elapsed":265525,"subject_id":"91923","group":"Group2","condition":"1_Rep","full_date":"2026-02-25T17:09:14.591Z","date":"2026-02-25","time":"17:09:14","cor_ans":false},{"trial_type":"html-keyboard-response","rt":null,"stimulus":"<p style=\"color: red; font-size: 50px; font-weight: bold;\">Incorrect</p>","response":null,"trial_index":124,"plugin_version":"2.1.0","time_elapsed":266035,"subject_id":"91923","group":"Group2","condition":"1_Rep","full_date":"2026-02-25T17:09:14.591Z","date":"2026-02-25","time":"17:09:14"},{"correct_response":"l","task":"test_phase","broad_category":"S","image_png":"S_Rock Salt_13.png","image_id":445,"category_name":"Rock Salt","category":28,"distinct_rating":7.58,"distinct_type":"Top","item_type":"Target","rt":1003,"stimulus":"Stimuli_Rocks480/S_Rock Salt_13.png","response":"l","trial_type":"image-keyboard-response","trial_index":125,"plugin_version":"2.1.0","time_elapsed":267041,"subject_id":"91923","group":"Group2","condition":"1_Rep","full_date":"2026-02-25T17:09:14.591Z","date":"2026-02-25","time":"17:09:14","cor_ans":true},{"trial_type":"html-keyboard-response","rt":null,"stimulus":"<p style=\"color: green; font-size: 50px; font-weight: bold;\">Correct</p>","response":null,"trial_index":126,"plugin_version":"2.1.0","time_elapsed":267558,"subject_id":"91923","group":"Group2","condition":"1_Rep","full_date":"2026-02-25T17:09:14.591Z","date":"2026-02-25","time":"17:09:14"},{"correct_response":"l","task":"test_phase","broad_category":"S","image_png":"S_Dolomite_16.png","image_id":400,"category_name":"Dolomite","category":25,"distinct_rating":1.71,"distinct_type":"Bottom","item_type":"Target","rt":2647,"stimulus":"Stimuli_Rocks480/S_Dolomite_16.png","response":"l","trial_type":"image-keyboard-response","trial_index":127,"plugin_version":"2.1.0","time_elapsed":270208,"subject_id":"91923","group":"Group2","condition":"1_Rep","full_date":"2026-02-25T17:09:14.591Z","date":"2026-02-25","time":"17:09:14","cor_ans":true},{"trial_type":"html-keyboard-response","rt":null,"stimulus":"<p style=\"color: green; font-size: 50px; font-weight: bold;\">Correct</p>","response":null,"trial_index":128,"plugin_version":"2.1.0","time_elapsed":270711,"subject_id":"91923","group":"Group2","condition":"1_Rep","full_date":"2026-02-25T17:09:14.591Z","date":"2026-02-25","time":"17:09:14"},{"correct_response":"l","task":"test_phase","broad_category":"I","image_png":"I_Gabbro_12.png","image_id":60,"category_name":"Gabbro","category":4,"distinct_rating":2.6,"distinct_type":"Bottom","item_type":"Target","rt":1128,"stimulus":"Stimuli_Rocks480/I_Gabbro_12.png","response":"l","trial_type":"image-keyboard-response","trial_index":129,"plugin_version":"2.1.0","time_elapsed":271841,"subject_id":"91923","group":"Group2","condition":"1_Rep","full_date":"2026-02-25T17:09:14.591Z","date":"2026-02-25","time":"17:09:14","cor_ans":true},{"trial_type":"html-keyboard-response","rt":null,"stimulus":"<p style=\"color: green; font-size: 50px; font-weight: bold;\">Correct</p>","response":null,"trial_index":130,"plugin_version":"2.1.0","time_elapsed":272350,"subject_id":"91923","group":"Group2","condition":"1_Rep","full_date":"2026-02-25T17:09:14.591Z","date":"2026-02-25","time":"17:09:14"},{"correct_response":"a","task":"test_phase","broad_category":"I","image_png":"I_Pegmatite_16.png","image_id":112,"category_name":"Pegmatite","category":7,"distinct_rating":7.03,"distinct_type":"Top","item_type":"Foil","rt":1160,"stimulus":"Stimuli_Rocks480/I_Pegmatite_16.png","response":"a","trial_type":"image-keyboard-response","trial_index":131,"plugin_version":"2.1.0","time_elapsed":273513,"subject_id":"91923","group":"Group2","condition":"1_Rep","full_date":"2026-02-25T17:09:14.591Z","date":"2026-02-25","time":"17:09:14","cor_ans":true},{"trial_type":"html-keyboard-response","rt":null,"stimulus":"<p style=\"color: green; font-size: 50px; font-weight: bold;\">Correct</p>","response":null,"trial_index":132,"plugin_version":"2.1.0","time_elapsed":274019,"subject_id":"91923","group":"Group2","condition":"1_Rep","full_date":"2026-02-25T17:09:14.591Z","date":"2026-02-25","time":"17:09:14"},{"correct_response":"a","task":"test_phase","broad_category":"S","image_png":"S_Dolomite_14.png","image_id":398,"category_name":"Dolomite","category":25,"distinct_rating":1.43,"distinct_type":"Bottom","item_type":"Foil","rt":1606,"stimulus":"Stimuli_Rocks480/S_Dolomite_14.png","response":"l","trial_type":"image-keyboard-response","trial_index":133,"plugin_version":"2.1.0","time_elapsed":275628,"subject_id":"91923","group":"Group2","condition":"1_Rep","full_date":"2026-02-25T17:09:14.591Z","date":"2026-02-25","time":"17:09:14","cor_ans":false},{"trial_type":"html-keyboard-response","rt":null,"stimulus":"<p style=\"color: red; font-size: 50px; font-weight: bold;\">Incorrect</p>","response":null,"trial_index":134,"plugin_version":"2.1.0","time_elapsed":276131,"subject_id":"91923","group":"Group2","condition":"1_Rep","full_date":"2026-02-25T17:09:14.591Z","date":"2026-02-25","time":"17:09:14"},{"correct_response":"l","task":"test_phase","broad_category":"M","image_png":"M_Gneiss_15.png","image_id":207,"category_name":"Gneiss","category":13,"distinct_rating":3.11,"distinct_type":"Bottom","item_type":"Target","rt":1198,"stimulus":"Stimuli_Rocks480/M_Gneiss_15.png","response":"l","trial_type":"image-keyboard-response","trial_index":135,"plugin_version":"2.1.0","time_elapsed":277331,"subject_id":"91923","group":"Group2","condition":"1_Rep","full_date":"2026-02-25T17:09:14.591Z","date":"2026-02-25","time":"17:09:14","cor_ans":true},{"trial_type":"html-keyboard-response","rt":null,"stimulus":"<p style=\"color: green; font-size: 50px; font-weight: bold;\">Correct</p>","response":null,"trial_index":136,"plugin_version":"2.1.0","time_elapsed":277837,"subject_id":"91923","group":"Group2","condition":"1_Rep","full_date":"2026-02-25T17:09:14.591Z","date":"2026-02-25","time":"17:09:14"},{"correct_response":"l","task":"test_phase","broad_category":"I","image_png":"I_Diorite_15.png","image_id":47,"category_name":"Diorite","category":3,"distinct_rating":3.05,"distinct_type":"Bottom","item_type":"Target","rt":3352,"stimulus":"Stimuli_Rocks480/I_Diorite_15.png","response":"l","trial_type":"image-keyboard-response","trial_index":137,"plugin_version":"2.1.0","time_elapsed":281192,"subject_id":"91923","group":"Group2","condition":"1_Rep","full_date":"2026-02-25T17:09:14.591Z","date":"2026-02-25","time":"17:09:14","cor_ans":true},{"trial_type":"html-keyboard-response","rt":null,"stimulus":"<p style=\"color: green; font-size: 50px; font-weight: bold;\">Correct</p>","response":null,"trial_index":138,"plugin_version":"2.1.0","time_elapsed":281694,"subject_id":"91923","group":"Group2","condition":"1_Rep","full_date":"2026-02-25T17:09:14.591Z","date":"2026-02-25","time":"17:09:14"},{"correct_response":"l","task":"test_phase","broad_category":"S","image_png":"S_Sandstone_08.png","image_id":456,"category_name":"Sandstone","category":29,"distinct_rating":1.5,"distinct_type":"Bottom","item_type":"Target","rt":1792,"stimulus":"Stimuli_Rocks480/S_Sandstone_08.png","response":"l","trial_type":"image-keyboard-response","trial_index":139,"plugin_version":"2.1.0","time_elapsed":283489,"subject_id":"91923","group":"Group2","condition":"1_Rep","full_date":"2026-02-25T17:09:14.591Z","date":"2026-02-25","time":"17:09:14","cor_ans":true},{"trial_type":"html-keyboard-response","rt":null,"stimulus":"<p style=\"color: green; font-size: 50px; font-weight: bold;\">Correct</p>","response":null,"trial_index":140,"plugin_version":"2.1.0","time_elapsed":283993,"subject_id":"91923","group":"Group2","condition":"1_Rep","full_date":"2026-02-25T17:09:14.591Z","date":"2026-02-25","time":"17:09:14"},{"correct_response":"l","task":"test_phase","broad_category":"S","image_png":"S_Dolomite_07.png","image_id":391,"category_name":"Dolomite","category":25,"distinct_rating":1.73,"distinct_type":"Bottom","item_type":"Target","rt":2568,"stimulus":"Stimuli_Rocks480/S_Dolomite_07.png","response":"a","trial_type":"image-keyboard-response","trial_index":141,"plugin_version":"2.1.0","time_elapsed":286564,"subject_id":"91923","group":"Group2","condition":"1_Rep","full_date":"2026-02-25T17:09:14.591Z","date":"2026-02-25","time":"17:09:14","cor_ans":false},{"trial_type":"html-keyboard-response","rt":null,"stimulus":"<p style=\"color: red; font-size: 50px; font-weight: bold;\">Incorrect</p>","response":null,"trial_index":142,"plugin_version":"2.1.0","time_elapsed":287075,"subject_id":"91923","group":"Group2","condition":"1_Rep","full_date":"2026-02-25T17:09:14.591Z","date":"2026-02-25","time":"17:09:14"},{"correct_response":"a","task":"test_phase","broad_category":"I","image_png":"I_Obsidian_05.png","image_id":85,"category_name":"Obsidian","category":6,"distinct_rating":7.32,"distinct_type":"Top","item_type":"Foil","rt":1102,"stimulus":"Stimuli_Rocks480/I_Obsidian_05.png","response":"a","trial_type":"image-keyboard-response","trial_index":143,"plugin_version":"2.1.0","time_elapsed":288179,"subject_id":"91923","group":"Group2","condition":"1_Rep","full_date":"2026-02-25T17:09:14.591Z","date":"2026-02-25","time":"17:09:14","cor_ans":true},{"trial_type":"html-keyboard-response","rt":null,"stimulus":"<p style=\"color: green; font-size: 50px; font-weight: bold;\">Correct</p>","response":null,"trial_index":144,"plugin_version":"2.1.0","time_elapsed":288683,"subject_id":"91923","group":"Group2","condition":"1_Rep","full_date":"2026-02-25T17:09:14.591Z","date":"2026-02-25","time":"17:09:14"},{"correct_response":"a","task":"test_phase","broad_category":"S","image_png":"S_Shale_01.png","image_id":465,"category_name":"Shale","category":30,"distinct_rating":2.7,"distinct_type":"Bottom","item_type":"Foil","rt":2330,"stimulus":"Stimuli_Rocks480/S_Shale_01.png","response":"l","trial_type":"image-keyboard-response","trial_index":145,"plugin_version":"2.1.0","time_elapsed":291015,"subject_id":"91923","group":"Group2","condition":"1_Rep","full_date":"2026-02-25T17:09:14.591Z","date":"2026-02-25","time":"17:09:14","cor_ans":false},{"trial_type":"html-keyboard-response","rt":null,"stimulus":"<p style=\"color: red; font-size: 50px; font-weight: bold;\">Incorrect</p>","response":null,"trial_index":146,"plugin_version":"2.1.0","time_elapsed":291520,"subject_id":"91923","group":"Group2","condition":"1_Rep","full_date":"2026-02-25T17:09:14.591Z","date":"2026-02-25","time":"17:09:14"},{"correct_response":"a","task":"test_phase","broad_category":"S","image_png":"S_Rock Salt_01.png","image_id":433,"category_name":"Rock Salt","category":28,"distinct_rating":7.18,"distinct_type":"Top","item_type":"Foil","rt":1399,"stimulus":"Stimuli_Rocks480/S_Rock Salt_01.png","response":"a","trial_type":"image-keyboard-response","trial_index":147,"plugin_version":"2.1.0","time_elapsed":292922,"subject_id":"91923","group":"Group2","condition":"1_Rep","full_date":"2026-02-25T17:09:14.591Z","date":"2026-02-25","time":"17:09:14","cor_ans":true},{"trial_type":"html-keyboard-response","rt":null,"stimulus":"<p style=\"color: green; font-size: 50px; font-weight: bold;\">Correct</p>","response":null,"trial_index":148,"plugin_version":"2.1.0","time_elapsed":293426,"subject_id":"91923","group":"Group2","condition":"1_Rep","full_date":"2026-02-25T17:09:14.591Z","date":"2026-02-25","time":"17:09:14"},{"correct_response":"a","task":"test_phase","broad_category":"I","image_png":"I_Diorite_05.png","image_id":37,"category_name":"Diorite","category":3,"distinct_rating":3.08,"distinct_type":"Bottom","item_type":"Foil","rt":1825,"stimulus":"Stimuli_Rocks480/I_Diorite_05.png","response":"l","trial_type":"image-keyboard-response","trial_index":149,"plugin_version":"2.1.0","time_elapsed":295255,"subject_id":"91923","group":"Group2","condition":"1_Rep","full_date":"2026-02-25T17:09:14.591Z","date":"2026-02-25","time":"17:09:14","cor_ans":false},{"trial_type":"html-keyboard-response","rt":null,"stimulus":"<p style=\"color: red; font-size: 50px; font-weight: bold;\">Incorrect</p>","response":null,"trial_index":150,"plugin_version":"2.1.0","time_elapsed":295766,"subject_id":"91923","group":"Group2","condition":"1_Rep","full_date":"2026-02-25T17:09:14.591Z","date":"2026-02-25","time":"17:09:14"},{"correct_response":"l","task":"test_phase","broad_category":"M","image_png":"M_Phyllite_13.png","image_id":269,"category_name":"Phyllite","category":17,"distinct_rating":2.8,"distinct_type":"Bottom","item_type":"Target","rt":872,"stimulus":"Stimuli_Rocks480/M_Phyllite_13.png","response":"l","trial_type":"image-keyboard-response","trial_index":151,"plugin_version":"2.1.0","time_elapsed":296640,"subject_id":"91923","group":"Group2","condition":"1_Rep","full_date":"2026-02-25T17:09:14.591Z","date":"2026-02-25","time":"17:09:14","cor_ans":true},{"trial_type":"html-keyboard-response","rt":null,"stimulus":"<p style=\"color: green; font-size: 50px; font-weight: bold;\">Correct</p>","response":null,"trial_index":152,"plugin_version":"2.1.0","time_elapsed":297152,"subject_id":"91923","group":"Group2","condition":"1_Rep","full_date":"2026-02-25T17:09:14.591Z","date":"2026-02-25","time":"17:09:14"},{"correct_response":"l","task":"test_phase","broad_category":"M","image_png":"M_Phyllite_02.png","image_id":258,"category_name":"Phyllite","category":17,"distinct_rating":2.89,"distinct_type":"Bottom","item_type":"Target","rt":1045,"stimulus":"Stimuli_Rocks480/M_Phyllite_02.png","response":"l","trial_type":"image-keyboard-response","trial_index":153,"plugin_version":"2.1.0","time_elapsed":298200,"subject_id":"91923","group":"Group2","condition":"1_Rep","full_date":"2026-02-25T17:09:14.591Z","date":"2026-02-25","time":"17:09:14","cor_ans":true},{"trial_type":"html-keyboard-response","rt":null,"stimulus":"<p style=\"color: green; font-size: 50px; font-weight: bold;\">Correct</p>","response":null,"trial_index":154,"plugin_version":"2.1.0","time_elapsed":298703,"subject_id":"91923","group":"Group2","condition":"1_Rep","full_date":"2026-02-25T17:09:14.591Z","date":"2026-02-25","time":"17:09:14"},{"correct_response":"l","task":"test_phase","broad_category":"S","image_png":"S_Shale_03.png","image_id":467,"category_name":"Shale","category":30,"distinct_rating":1.95,"distinct_type":"Bottom","item_type":"Target","rt":1029,"stimulus":"Stimuli_Rocks480/S_Shale_03.png","response":"l","trial_type":"image-keyboard-response","trial_index":155,"plugin_version":"2.1.0","time_elapsed":299736,"subject_id":"91923","group":"Group2","condition":"1_Rep","full_date":"2026-02-25T17:09:14.591Z","date":"2026-02-25","time":"17:09:14","cor_ans":true},{"trial_type":"html-keyboard-response","rt":null,"stimulus":"<p style=\"color: green; font-size: 50px; font-weight: bold;\">Correct</p>","response":null,"trial_index":156,"plugin_version":"2.1.0","time_elapsed":300252,"subject_id":"91923","group":"Group2","condition":"1_Rep","full_date":"2026-02-25T17:09:14.591Z","date":"2026-02-25","time":"17:09:14"},{"correct_response":"a","task":"test_phase","broad_category":"S","image_png":"S_Sandstone_16.png","image_id":464,"category_name":"Sandstone","category":29,"distinct_rating":1.93,"distinct_type":"Bottom","item_type":"Foil","rt":962,"stimulus":"Stimuli_Rocks480/S_Sandstone_16.png","response":"l","trial_type":"image-keyboard-response","trial_index":157,"plugin_version":"2.1.0","time_elapsed":301216,"subject_id":"91923","group":"Group2","condition":"1_Rep","full_date":"2026-02-25T17:09:14.591Z","date":"2026-02-25","time":"17:09:14","cor_ans":false},{"trial_type":"html-keyboard-response","rt":null,"stimulus":"<p style=\"color: red; font-size: 50px; font-weight: bold;\">Incorrect</p>","response":null,"trial_index":158,"plugin_version":"2.1.0","time_elapsed":301727,"subject_id":"91923","group":"Group2","condition":"1_Rep","full_date":"2026-02-25T17:09:14.591Z","date":"2026-02-25","time":"17:09:14"},{"correct_response":"a","task":"test_phase","broad_category":"M","image_png":"M_Marble_16.png","image_id":240,"category_name":"Marble","category":15,"distinct_rating":2.57,"distinct_type":"Bottom","item_type":"Foil","rt":1118,"stimulus":"Stimuli_Rocks480/M_Marble_16.png","response":"l","trial_type":"image-keyboard-response","trial_index":159,"plugin_version":"2.1.0","time_elapsed":302847,"subject_id":"91923","group":"Group2","condition":"1_Rep","full_date":"2026-02-25T17:09:14.591Z","date":"2026-02-25","time":"17:09:14","cor_ans":false},{"trial_type":"html-keyboard-response","rt":null,"stimulus":"<p style=\"color: red; font-size: 50px; font-weight: bold;\">Incorrect</p>","response":null,"trial_index":160,"plugin_version":"2.1.0","time_elapsed":303350,"subject_id":"91923","group":"Group2","condition":"1_Rep","full_date":"2026-02-25T17:09:14.591Z","date":"2026-02-25","time":"17:09:14"},{"correct_response":"a","task":"test_phase","broad_category":"S","image_png":"S_Dolomite_13.png","image_id":397,"category_name":"Dolomite","category":25,"distinct_rating":1.77,"distinct_type":"Bottom","item_type":"Foil","rt":830,"stimulus":"Stimuli_Rocks480/S_Dolomite_13.png","response":"l","trial_type":"image-keyboard-response","trial_index":161,"plugin_version":"2.1.0","time_elapsed":304181,"subject_id":"91923","group":"Group2","condition":"1_Rep","full_date":"2026-02-25T17:09:14.591Z","date":"2026-02-25","time":"17:09:14","cor_ans":false},{"trial_type":"html-keyboard-response","rt":null,"stimulus":"<p style=\"color: red; font-size: 50px; font-weight: bold;\">Incorrect</p>","response":null,"trial_index":162,"plugin_version":"2.1.0","time_elapsed":304692,"subject_id":"91923","group":"Group2","condition":"1_Rep","full_date":"2026-02-25T17:09:14.591Z","date":"2026-02-25","time":"17:09:14"},{"correct_response":"l","task":"test_phase","broad_category":"M","image_png":"M_Marble_03.png","image_id":227,"category_name":"Marble","category":15,"distinct_rating":2.67,"distinct_type":"Bottom","item_type":"Target","rt":1433,"stimulus":"Stimuli_Rocks480/M_Marble_03.png","response":"a","trial_type":"image-keyboard-response","trial_index":163,"plugin_version":"2.1.0","time_elapsed":306128,"subject_id":"91923","group":"Group2","condition":"1_Rep","full_date":"2026-02-25T17:09:14.591Z","date":"2026-02-25","time":"17:09:14","cor_ans":false},{"trial_type":"html-keyboard-response","rt":null,"stimulus":"<p style=\"color: red; font-size: 50px; font-weight: bold;\">Incorrect</p>","response":null,"trial_index":164,"plugin_version":"2.1.0","time_elapsed":306636,"subject_id":"91923","group":"Group2","condition":"1_Rep","full_date":"2026-02-25T17:09:14.591Z","date":"2026-02-25","time":"17:09:14"},{"correct_response":"a","task":"test_phase","broad_category":"S","image_png":"S_Breccia_11.png","image_id":347,"category_name":"Breccia","category":22,"distinct_rating":6.7,"distinct_type":"Top","item_type":"Foil","rt":1166,"stimulus":"Stimuli_Rocks480/S_Breccia_11.png","response":"a","trial_type":"image-keyboard-response","trial_index":165,"plugin_version":"2.1.0","time_elapsed":307804,"subject_id":"91923","group":"Group2","condition":"1_Rep","full_date":"2026-02-25T17:09:14.591Z","date":"2026-02-25","time":"17:09:14","cor_ans":true},{"trial_type":"html-keyboard-response","rt":null,"stimulus":"<p style=\"color: green; font-size: 50px; font-weight: bold;\">Correct</p>","response":null,"trial_index":166,"plugin_version":"2.1.0","time_elapsed":308307,"subject_id":"91923","group":"Group2","condition":"1_Rep","full_date":"2026-02-25T17:09:14.591Z","date":"2026-02-25","time":"17:09:14"},{"correct_response":"a","task":"test_phase","broad_category":"M","image_png":"M_Slate_03.png","image_id":307,"category_name":"Slate","category":20,"distinct_rating":1.87,"distinct_type":"Bottom","item_type":"Foil","rt":2026,"stimulus":"Stimuli_Rocks480/M_Slate_03.png","response":"l","trial_type":"image-keyboard-response","trial_index":167,"plugin_version":"2.1.0","time_elapsed":310335,"subject_id":"91923","group":"Group2","condition":"1_Rep","full_date":"2026-02-25T17:09:14.591Z","date":"2026-02-25","time":"17:09:14","cor_ans":false},{"trial_type":"html-keyboard-response","rt":null,"stimulus":"<p style=\"color: red; font-size: 50px; font-weight: bold;\">Incorrect</p>","response":null,"trial_index":168,"plugin_version":"2.1.0","time_elapsed":310851,"subject_id":"91923","group":"Group2","condition":"1_Rep","full_date":"2026-02-25T17:09:14.591Z","date":"2026-02-25","time":"17:09:14"},{"correct_response":"a","task":"test_phase","broad_category":"I","image_png":"I_Basalt_01.png","image_id":17,"category_name":"Basalt","category":2,"distinct_rating":1.92,"distinct_type":"Bottom","item_type":"Foil","rt":5626,"stimulus":"Stimuli_Rocks480/I_Basalt_01.png","response":"a","trial_type":"image-keyboard-response","trial_index":169,"plugin_version":"2.1.0","time_elapsed":316480,"subject_id":"91923","group":"Group2","condition":"1_Rep","full_date":"2026-02-25T17:09:14.591Z","date":"2026-02-25","time":"17:09:14","cor_ans":true},{"trial_type":"html-keyboard-response","rt":null,"stimulus":"<p style=\"color: green; font-size: 50px; font-weight: bold;\">Correct</p>","response":null,"trial_index":170,"plugin_version":"2.1.0","time_elapsed":316993,"subject_id":"91923","group":"Group2","condition":"1_Rep","full_date":"2026-02-25T17:09:14.591Z","date":"2026-02-25","time":"17:09:14"},{"correct_response":"a","task":"test_phase","broad_category":"M","image_png":"M_Gneiss_06.png","image_id":198,"category_name":"Gneiss","category":13,"distinct_rating":2.65,"distinct_type":"Bottom","item_type":"Foil","rt":1647,"stimulus":"Stimuli_Rocks480/M_Gneiss_06.png","response":"l","trial_type":"image-keyboard-response","trial_index":171,"plugin_version":"2.1.0","time_elapsed":318642,"subject_id":"91923","group":"Group2","condition":"1_Rep","full_date":"2026-02-25T17:09:14.591Z","date":"2026-02-25","time":"17:09:14","cor_ans":false},{"trial_type":"html-keyboard-response","rt":null,"stimulus":"<p style=\"color: red; font-size: 50px; font-weight: bold;\">Incorrect</p>","response":null,"trial_index":172,"plugin_version":"2.1.0","time_elapsed":319158,"subject_id":"91923","group":"Group2","condition":"1_Rep","full_date":"2026-02-25T17:09:14.591Z","date":"2026-02-25","time":"17:09:14"},{"correct_response":"l","task":"test_phase","broad_category":"M","image_png":"M_Phyllite_05.png","image_id":261,"category_name":"Phyllite","category":17,"distinct_rating":2.14,"distinct_type":"Bottom","item_type":"Target","rt":1085,"stimulus":"Stimuli_Rocks480/M_Phyllite_05.png","response":"l","trial_type":"image-keyboard-response","trial_index":173,"plugin_version":"2.1.0","time_elapsed":320246,"subject_id":"91923","group":"Group2","condition":"1_Rep","full_date":"2026-02-25T17:09:14.591Z","date":"2026-02-25","time":"17:09:14","cor_ans":true},{"trial_type":"html-keyboard-response","rt":null,"stimulus":"<p style=\"color: green; font-size: 50px; font-weight: bold;\">Correct</p>","response":null,"trial_index":174,"plugin_version":"2.1.0","time_elapsed":320760,"subject_id":"91923","group":"Group2","condition":"1_Rep","full_date":"2026-02-25T17:09:14.591Z","date":"2026-02-25","time":"17:09:14"},{"correct_response":"a","task":"test_phase","broad_category":"M","image_png":"M_Gneiss_05.png","image_id":197,"category_name":"Gneiss","category":13,"distinct_rating":2.97,"distinct_type":"Bottom","item_type":"Foil","rt":1725,"stimulus":"Stimuli_Rocks480/M_Gneiss_05.png","response":"l","trial_type":"image-keyboard-response","trial_index":175,"plugin_version":"2.1.0","time_elapsed":322487,"subject_id":"91923","group":"Group2","condition":"1_Rep","full_date":"2026-02-25T17:09:14.591Z","date":"2026-02-25","time":"17:09:14","cor_ans":false},{"trial_type":"html-keyboard-response","rt":null,"stimulus":"<p style=\"color: red; font-size: 50px; font-weight: bold;\">Incorrect</p>","response":null,"trial_index":176,"plugin_version":"2.1.0","time_elapsed":322992,"subject_id":"91923","group":"Group2","condition":"1_Rep","full_date":"2026-02-25T17:09:14.591Z","date":"2026-02-25","time":"17:09:14"},{"correct_response":"a","task":"test_phase","broad_category":"I","image_png":"I_Rhyolite_11.png","image_id":155,"category_name":"Rhyolite","category":10,"distinct_rating":1.73,"distinct_type":"Bottom","item_type":"Foil","rt":1620,"stimulus":"Stimuli_Rocks480/I_Rhyolite_11.png","response":"l","trial_type":"image-keyboard-response","trial_index":177,"plugin_version":"2.1.0","time_elapsed":324615,"subject_id":"91923","group":"Group2","condition":"1_Rep","full_date":"2026-02-25T17:09:14.591Z","date":"2026-02-25","time":"17:09:14","cor_ans":false},{"trial_type":"html-keyboard-response","rt":null,"stimulus":"<p style=\"color: red; font-size: 50px; font-weight: bold;\">Incorrect</p>","response":null,"trial_index":178,"plugin_version":"2.1.0","time_elapsed":325119,"subject_id":"91923","group":"Group2","condition":"1_Rep","full_date":"2026-02-25T17:09:14.591Z","date":"2026-02-25","time":"17:09:14"},{"correct_response":"a","task":"test_phase","broad_category":"I","image_png":"I_Rhyolite_16.png","image_id":160,"category_name":"Rhyolite","category":10,"distinct_rating":2.19,"distinct_type":"Bottom","item_type":"Foil","rt":1037,"stimulus":"Stimuli_Rocks480/I_Rhyolite_16.png","response":"l","trial_type":"image-keyboard-response","trial_index":179,"plugin_version":"2.1.0","time_elapsed":326159,"subject_id":"91923","group":"Group2","condition":"1_Rep","full_date":"2026-02-25T17:09:14.591Z","date":"2026-02-25","time":"17:09:14","cor_ans":false},{"trial_type":"html-keyboard-response","rt":null,"stimulus":"<p style=\"color: red; font-size: 50px; font-weight: bold;\">Incorrect</p>","response":null,"trial_index":180,"plugin_version":"2.1.0","time_elapsed":326662,"subject_id":"91923","group":"Group2","condition":"1_Rep","full_date":"2026-02-25T17:09:14.591Z","date":"2026-02-25","time":"17:09:14"},{"correct_response":"a","task":"test_phase","broad_category":"I","image_png":"I_Pumice_11.png","image_id":139,"category_name":"Pumice","category":9,"distinct_rating":1.74,"distinct_type":"Bottom","item_type":"Foil","rt":1362,"stimulus":"Stimuli_Rocks480/I_Pumice_11.png","response":"l","trial_type":"image-keyboard-response","trial_index":181,"plugin_version":"2.1.0","time_elapsed":328027,"subject_id":"91923","group":"Group2","condition":"1_Rep","full_date":"2026-02-25T17:09:14.591Z","date":"2026-02-25","time":"17:09:14","cor_ans":false},{"trial_type":"html-keyboard-response","rt":null,"stimulus":"<p style=\"color: red; font-size: 50px; font-weight: bold;\">Incorrect</p>","response":null,"trial_index":182,"plugin_version":"2.1.0","time_elapsed":328535,"subject_id":"91923","group":"Group2","condition":"1_Rep","full_date":"2026-02-25T17:09:14.591Z","date":"2026-02-25","time":"17:09:14"},{"correct_response":"a","task":"test_phase","broad_category":"M","image_png":"M_Marble_04.png","image_id":228,"category_name":"Marble","category":15,"distinct_rating":3.15,"distinct_type":"Bottom","item_type":"Foil","rt":950,"stimulus":"Stimuli_Rocks480/M_Marble_04.png","response":"l","trial_type":"image-keyboard-response","trial_index":183,"plugin_version":"2.1.0","time_elapsed":329488,"subject_id":"91923","group":"Group2","condition":"1_Rep","full_date":"2026-02-25T17:09:14.591Z","date":"2026-02-25","time":"17:09:14","cor_ans":false},{"trial_type":"html-keyboard-response","rt":null,"stimulus":"<p style=\"color: red; font-size: 50px; font-weight: bold;\">Incorrect</p>","response":null,"trial_index":184,"plugin_version":"2.1.0","time_elapsed":329995,"subject_id":"91923","group":"Group2","condition":"1_Rep","full_date":"2026-02-25T17:09:14.591Z","date":"2026-02-25","time":"17:09:14"},{"correct_response":"a","task":"test_phase","broad_category":"S","image_png":"S_Dolomite_12.png","image_id":396,"category_name":"Dolomite","category":25,"distinct_rating":1.85,"distinct_type":"Bottom","item_type":"Foil","rt":1126,"stimulus":"Stimuli_Rocks480/S_Dolomite_12.png","response":"a","trial_type":"image-keyboard-response","trial_index":185,"plugin_version":"2.1.0","time_elapsed":331124,"subject_id":"91923","group":"Group2","condition":"1_Rep","full_date":"2026-02-25T17:09:14.591Z","date":"2026-02-25","time":"17:09:14","cor_ans":true},{"trial_type":"html-keyboard-response","rt":null,"stimulus":"<p style=\"color: green; font-size: 50px; font-weight: bold;\">Correct</p>","response":null,"trial_index":186,"plugin_version":"2.1.0","time_elapsed":331627,"subject_id":"91923","group":"Group2","condition":"1_Rep","full_date":"2026-02-25T17:09:14.591Z","date":"2026-02-25","time":"17:09:14"},{"correct_response":"l","task":"test_phase","broad_category":"S","image_png":"S_Rock Salt_15.png","image_id":447,"category_name":"Rock Salt","category":28,"distinct_rating":7.79,"distinct_type":"Top","item_type":"Target","rt":2902,"stimulus":"Stimuli_Rocks480/S_Rock Salt_15.png","response":"a","trial_type":"image-keyboard-response","trial_index":187,"plugin_version":"2.1.0","time_elapsed":334533,"subject_id":"91923","group":"Group2","condition":"1_Rep","full_date":"2026-02-25T17:09:14.591Z","date":"2026-02-25","time":"17:09:14","cor_ans":false},{"trial_type":"html-keyboard-response","rt":null,"stimulus":"<p style=\"color: red; font-size: 50px; font-weight: bold;\">Incorrect</p>","response":null,"trial_index":188,"plugin_version":"2.1.0","time_elapsed":335046,"subject_id":"91923","group":"Group2","condition":"1_Rep","full_date":"2026-02-25T17:09:14.591Z","date":"2026-02-25","time":"17:09:14"},{"correct_response":"l","task":"test_phase","broad_category":"M","image_png":"M_Slate_14.png","image_id":318,"category_name":"Slate","category":20,"distinct_rating":2.58,"distinct_type":"Bottom","item_type":"Target","rt":2555,"stimulus":"Stimuli_Rocks480/M_Slate_14.png","response":"l","trial_type":"image-keyboard-response","trial_index":189,"plugin_version":"2.1.0","time_elapsed":337603,"subject_id":"91923","group":"Group2","condition":"1_Rep","full_date":"2026-02-25T17:09:14.591Z","date":"2026-02-25","time":"17:09:14","cor_ans":true},{"trial_type":"html-keyboard-response","rt":null,"stimulus":"<p style=\"color: green; font-size: 50px; font-weight: bold;\">Correct</p>","response":null,"trial_index":190,"plugin_version":"2.1.0","time_elapsed":338114,"subject_id":"91923","group":"Group2","condition":"1_Rep","full_date":"2026-02-25T17:09:14.591Z","date":"2026-02-25","time":"17:09:14"},{"correct_response":"a","task":"test_phase","broad_category":"M","image_png":"M_Quartzite_05.png","image_id":277,"category_name":"Quartzite","category":18,"distinct_rating":2.23,"distinct_type":"Bottom","item_type":"Foil","rt":3375,"stimulus":"Stimuli_Rocks480/M_Quartzite_05.png","response":"a","trial_type":"image-keyboard-response","trial_index":191,"plugin_version":"2.1.0","time_elapsed":341491,"subject_id":"91923","group":"Group2","condition":"1_Rep","full_date":"2026-02-25T17:09:14.591Z","date":"2026-02-25","time":"17:09:14","cor_ans":true},{"trial_type":"html-keyboard-response","rt":null,"stimulus":"<p style=\"color: green; font-size: 50px; font-weight: bold;\">Correct</p>","response":null,"trial_index":192,"plugin_version":"2.1.0","time_elapsed":342003,"subject_id":"91923","group":"Group2","condition":"1_Rep","full_date":"2026-02-25T17:09:14.591Z","date":"2026-02-25","time":"17:09:14"},{"correct_response":"a","task":"test_phase","broad_category":"I","image_png":"I_Andesite_06.png","image_id":6,"category_name":"Andesite","category":1,"distinct_rating":3.17,"distinct_type":"Bottom","item_type":"Foil","rt":1394,"stimulus":"Stimuli_Rocks480/I_Andesite_06.png","response":"a","trial_type":"image-keyboard-response","trial_index":193,"plugin_version":"2.1.0","time_elapsed":343400,"subject_id":"91923","group":"Group2","condition":"1_Rep","full_date":"2026-02-25T17:09:14.591Z","date":"2026-02-25","time":"17:09:14","cor_ans":true},{"trial_type":"html-keyboard-response","rt":null,"stimulus":"<p style=\"color: green; font-size: 50px; font-weight: bold;\">Correct</p>","response":null,"trial_index":194,"plugin_version":"2.1.0","time_elapsed":343912,"subject_id":"91923","group":"Group2","condition":"1_Rep","full_date":"2026-02-25T17:09:14.591Z","date":"2026-02-25","time":"17:09:14"},{"correct_response":"a","task":"test_phase","broad_category":"M","image_png":"M_Quartzite_13.png","image_id":285,"category_name":"Quartzite","category":18,"distinct_rating":2.27,"distinct_type":"Bottom","item_type":"Foil","rt":3640,"stimulus":"Stimuli_Rocks480/M_Quartzite_13.png","response":"a","trial_type":"image-keyboard-response","trial_index":195,"plugin_version":"2.1.0","time_elapsed":347554,"subject_id":"91923","group":"Group2","condition":"1_Rep","full_date":"2026-02-25T17:09:14.591Z","date":"2026-02-25","time":"17:09:14","cor_ans":true},{"trial_type":"html-keyboard-response","rt":null,"stimulus":"<p style=\"color: green; font-size: 50px; font-weight: bold;\">Correct</p>","response":null,"trial_index":196,"plugin_version":"2.1.0","time_elapsed":348060,"subject_id":"91923","group":"Group2","condition":"1_Rep","full_date":"2026-02-25T17:09:14.591Z","date":"2026-02-25","time":"17:09:14"},{"correct_response":"a","task":"test_phase","broad_category":"S","image_png":"S_Rock Gypsum_04.png","image_id":420,"category_name":"Rock Gypsum","category":27,"distinct_rating":7.61,"distinct_type":"Top","item_type":"Foil","rt":2994,"stimulus":"Stimuli_Rocks480/S_Rock Gypsum_04.png","response":"a","trial_type":"image-keyboard-response","trial_index":197,"plugin_version":"2.1.0","time_elapsed":351057,"subject_id":"91923","group":"Group2","condition":"1_Rep","full_date":"2026-02-25T17:09:14.591Z","date":"2026-02-25","time":"17:09:14","cor_ans":true},{"trial_type":"html-keyboard-response","rt":null,"stimulus":"<p style=\"color: green; font-size: 50px; font-weight: bold;\">Correct</p>","response":null,"trial_index":198,"plugin_version":"2.1.0","time_elapsed":351573,"subject_id":"91923","group":"Group2","condition":"1_Rep","full_date":"2026-02-25T17:09:14.591Z","date":"2026-02-25","time":"17:09:14"},{"correct_response":"l","task":"test_phase","broad_category":"I","image_png":"I_Pumice_01.png","image_id":129,"category_name":"Pumice","category":9,"distinct_rating":3.25,"distinct_type":"Bottom","item_type":"Target","rt":957,"stimulus":"Stimuli_Rocks480/I_Pumice_01.png","response":"a","trial_type":"image-keyboard-response","trial_index":199,"plugin_version":"2.1.0","time_elapsed":352533,"subject_id":"91923","group":"Group2","condition":"1_Rep","full_date":"2026-02-25T17:09:14.591Z","date":"2026-02-25","time":"17:09:14","cor_ans":false},{"trial_type":"html-keyboard-response","rt":null,"stimulus":"<p style=\"color: red; font-size: 50px; font-weight: bold;\">Incorrect</p>","response":null,"trial_index":200,"plugin_version":"2.1.0","time_elapsed":353043,"subject_id":"91923","group":"Group2","condition":"1_Rep","full_date":"2026-02-25T17:09:14.591Z","date":"2026-02-25","time":"17:09:14"},{"correct_response":"l","task":"test_phase","broad_category":"I","image_png":"I_Rhyolite_10.png","image_id":154,"category_name":"Rhyolite","category":10,"distinct_rating":2.88,"distinct_type":"Bottom","item_type":"Target","rt":1387,"stimulus":"Stimuli_Rocks480/I_Rhyolite_10.png","response":"a","trial_type":"image-keyboard-response","trial_index":201,"plugin_version":"2.1.0","time_elapsed":354434,"subject_id":"91923","group":"Group2","condition":"1_Rep","full_date":"2026-02-25T17:09:14.591Z","date":"2026-02-25","time":"17:09:14","cor_ans":false},{"trial_type":"html-keyboard-response","rt":null,"stimulus":"<p style=\"color: red; font-size: 50px; font-weight: bold;\">Incorrect</p>","response":null,"trial_index":202,"plugin_version":"2.1.0","time_elapsed":354938,"subject_id":"91923","group":"Group2","condition":"1_Rep","full_date":"2026-02-25T17:09:14.591Z","date":"2026-02-25","time":"17:09:14"},{"correct_response":"a","task":"test_phase","broad_category":"I","image_png":"I_Diorite_03.png","image_id":35,"category_name":"Diorite","category":3,"distinct_rating":3.14,"distinct_type":"Bottom","item_type":"Foil","rt":1502,"stimulus":"Stimuli_Rocks480/I_Diorite_03.png","response":"l","trial_type":"image-keyboard-response","trial_index":203,"plugin_version":"2.1.0","time_elapsed":356442,"subject_id":"91923","group":"Group2","condition":"1_Rep","full_date":"2026-02-25T17:09:14.591Z","date":"2026-02-25","time":"17:09:14","cor_ans":false},{"trial_type":"html-keyboard-response","rt":null,"stimulus":"<p style=\"color: red; font-size: 50px; font-weight: bold;\">Incorrect</p>","response":null,"trial_index":204,"plugin_version":"2.1.0","time_elapsed":356953,"subject_id":"91923","group":"Group2","condition":"1_Rep","full_date":"2026-02-25T17:09:14.591Z","date":"2026-02-25","time":"17:09:14"},{"correct_response":"l","task":"test_phase","broad_category":"M","image_png":"M_Marble_02.png","image_id":226,"category_name":"Marble","category":15,"distinct_rating":3.2,"distinct_type":"Bottom","item_type":"Target","rt":1051,"stimulus":"Stimuli_Rocks480/M_Marble_02.png","response":"l","trial_type":"image-keyboard-response","trial_index":205,"plugin_version":"2.1.0","time_elapsed":358007,"subject_id":"91923","group":"Group2","condition":"1_Rep","full_date":"2026-02-25T17:09:14.591Z","date":"2026-02-25","time":"17:09:14","cor_ans":true},{"trial_type":"html-keyboard-response","rt":null,"stimulus":"<p style=\"color: green; font-size: 50px; font-weight: bold;\">Correct</p>","response":null,"trial_index":206,"plugin_version":"2.1.0","time_elapsed":358511,"subject_id":"91923","group":"Group2","condition":"1_Rep","full_date":"2026-02-25T17:09:14.591Z","date":"2026-02-25","time":"17:09:14"},{"correct_response":"a","task":"test_phase","broad_category":"S","image_png":"S_Sandstone_15.png","image_id":463,"category_name":"Sandstone","category":29,"distinct_rating":2,"distinct_type":"Bottom","item_type":"Foil","rt":1503,"stimulus":"Stimuli_Rocks480/S_Sandstone_15.png","response":"a","trial_type":"image-keyboard-response","trial_index":207,"plugin_version":"2.1.0","time_elapsed":360016,"subject_id":"91923","group":"Group2","condition":"1_Rep","full_date":"2026-02-25T17:09:14.591Z","date":"2026-02-25","time":"17:09:14","cor_ans":true},{"trial_type":"html-keyboard-response","rt":null,"stimulus":"<p style=\"color: green; font-size: 50px; font-weight: bold;\">Correct</p>","response":null,"trial_index":208,"plugin_version":"2.1.0","time_elapsed":360529,"subject_id":"91923","group":"Group2","condition":"1_Rep","full_date":"2026-02-25T17:09:14.591Z","date":"2026-02-25","time":"17:09:14"},{"correct_response":"a","task":"test_phase","broad_category":"S","image_png":"S_Shale_08.png","image_id":472,"category_name":"Shale","category":30,"distinct_rating":2.55,"distinct_type":"Bottom","item_type":"Foil","rt":1095,"stimulus":"Stimuli_Rocks480/S_Shale_08.png","response":"a","trial_type":"image-keyboard-response","trial_index":209,"plugin_version":"2.1.0","time_elapsed":361627,"subject_id":"91923","group":"Group2","condition":"1_Rep","full_date":"2026-02-25T17:09:14.591Z","date":"2026-02-25","time":"17:09:14","cor_ans":true},{"trial_type":"html-keyboard-response","rt":null,"stimulus":"<p style=\"color: green; font-size: 50px; font-weight: bold;\">Correct</p>","response":null,"trial_index":210,"plugin_version":"2.1.0","time_elapsed":362142,"subject_id":"91923","group":"Group2","condition":"1_Rep","full_date":"2026-02-25T17:09:14.591Z","date":"2026-02-25","time":"17:09:14"},{"correct_response":"l","task":"test_phase","broad_category":"M","image_png":"M_Marble_14.png","image_id":238,"category_name":"Marble","category":15,"distinct_rating":3.31,"distinct_type":"Bottom","item_type":"Target","rt":2979,"stimulus":"Stimuli_Rocks480/M_Marble_14.png","response":"l","trial_type":"image-keyboard-response","trial_index":211,"plugin_version":"2.1.0","time_elapsed":365124,"subject_id":"91923","group":"Group2","condition":"1_Rep","full_date":"2026-02-25T17:09:14.591Z","date":"2026-02-25","time":"17:09:14","cor_ans":true},{"trial_type":"html-keyboard-response","rt":null,"stimulus":"<p style=\"color: green; font-size: 50px; font-weight: bold;\">Correct</p>","response":null,"trial_index":212,"plugin_version":"2.1.0","time_elapsed":365635,"subject_id":"91923","group":"Group2","condition":"1_Rep","full_date":"2026-02-25T17:09:14.591Z","date":"2026-02-25","time":"17:09:14"},{"correct_response":"l","task":"test_phase","broad_category":"I","image_png":"I_Andesite_04.png","image_id":4,"category_name":"Andesite","category":1,"distinct_rating":3.18,"distinct_type":"Bottom","item_type":"Target","rt":2194,"stimulus":"Stimuli_Rocks480/I_Andesite_04.png","response":"a","trial_type":"image-keyboard-response","trial_index":213,"plugin_version":"2.1.0","time_elapsed":367832,"subject_id":"91923","group":"Group2","condition":"1_Rep","full_date":"2026-02-25T17:09:14.591Z","date":"2026-02-25","time":"17:09:14","cor_ans":false},{"trial_type":"html-keyboard-response","rt":null,"stimulus":"<p style=\"color: red; font-size: 50px; font-weight: bold;\">Incorrect</p>","response":null,"trial_index":214,"plugin_version":"2.1.0","time_elapsed":368336,"subject_id":"91923","group":"Group2","condition":"1_Rep","full_date":"2026-02-25T17:09:14.591Z","date":"2026-02-25","time":"17:09:14"},{"correct_response":"a","task":"test_phase","broad_category":"S","image_png":"S_Shale_12.png","image_id":476,"category_name":"Shale","category":30,"distinct_rating":2.48,"distinct_type":"Bottom","item_type":"Foil","rt":1094,"stimulus":"Stimuli_Rocks480/S_Shale_12.png","response":"a","trial_type":"image-keyboard-response","trial_index":215,"plugin_version":"2.1.0","time_elapsed":369432,"subject_id":"91923","group":"Group2","condition":"1_Rep","full_date":"2026-02-25T17:09:14.591Z","date":"2026-02-25","time":"17:09:14","cor_ans":true},{"trial_type":"html-keyboard-response","rt":null,"stimulus":"<p style=\"color: green; font-size: 50px; font-weight: bold;\">Correct</p>","response":null,"trial_index":216,"plugin_version":"2.1.0","time_elapsed":369944,"subject_id":"91923","group":"Group2","condition":"1_Rep","full_date":"2026-02-25T17:09:14.591Z","date":"2026-02-25","time":"17:09:14"},{"correct_response":"l","task":"test_phase","broad_category":"M","image_png":"M_Slate_10.png","image_id":314,"category_name":"Slate","category":20,"distinct_rating":1.94,"distinct_type":"Bottom","item_type":"Target","rt":3789,"stimulus":"Stimuli_Rocks480/M_Slate_10.png","response":"l","trial_type":"image-keyboard-response","trial_index":217,"plugin_version":"2.1.0","time_elapsed":373736,"subject_id":"91923","group":"Group2","condition":"1_Rep","full_date":"2026-02-25T17:09:14.591Z","date":"2026-02-25","time":"17:09:14","cor_ans":true},{"trial_type":"html-keyboard-response","rt":null,"stimulus":"<p style=\"color: green; font-size: 50px; font-weight: bold;\">Correct</p>","response":null,"trial_index":218,"plugin_version":"2.1.0","time_elapsed":374253,"subject_id":"91923","group":"Group2","condition":"1_Rep","full_date":"2026-02-25T17:09:14.591Z","date":"2026-02-25","time":"17:09:14"},{"correct_response":"l","task":"test_phase","broad_category":"I","image_png":"I_Rhyolite_05.png","image_id":149,"category_name":"Rhyolite","category":10,"distinct_rating":3.02,"distinct_type":"Bottom","item_type":"Target","rt":1630,"stimulus":"Stimuli_Rocks480/I_Rhyolite_05.png","response":"a","trial_type":"image-keyboard-response","trial_index":219,"plugin_version":"2.1.0","time_elapsed":375885,"subject_id":"91923","group":"Group2","condition":"1_Rep","full_date":"2026-02-25T17:09:14.591Z","date":"2026-02-25","time":"17:09:14","cor_ans":false},{"trial_type":"html-keyboard-response","rt":null,"stimulus":"<p style=\"color: red; font-size: 50px; font-weight: bold;\">Incorrect</p>","response":null,"trial_index":220,"plugin_version":"2.1.0","time_elapsed":376387,"subject_id":"91923","group":"Group2","condition":"1_Rep","full_date":"2026-02-25T17:09:14.591Z","date":"2026-02-25","time":"17:09:14"},{"correct_response":"l","task":"test_phase","broad_category":"I","image_png":"I_Pumice_13.png","image_id":141,"category_name":"Pumice","category":9,"distinct_rating":3.12,"distinct_type":"Bottom","item_type":"Target","rt":1741,"stimulus":"Stimuli_Rocks480/I_Pumice_13.png","response":"a","trial_type":"image-keyboard-response","trial_index":221,"plugin_version":"2.1.0","time_elapsed":378130,"subject_id":"91923","group":"Group2","condition":"1_Rep","full_date":"2026-02-25T17:09:14.591Z","date":"2026-02-25","time":"17:09:14","cor_ans":false},{"trial_type":"html-keyboard-response","rt":null,"stimulus":"<p style=\"color: red; font-size: 50px; font-weight: bold;\">Incorrect</p>","response":null,"trial_index":222,"plugin_version":"2.1.0","time_elapsed":378642,"subject_id":"91923","group":"Group2","condition":"1_Rep","full_date":"2026-02-25T17:09:14.591Z","date":"2026-02-25","time":"17:09:14"},{"correct_response":"a","task":"test_phase","broad_category":"M","image_png":"M_Marble_06.png","image_id":230,"category_name":"Marble","category":15,"distinct_rating":3.4,"distinct_type":"Bottom","item_type":"Foil","rt":1014,"stimulus":"Stimuli_Rocks480/M_Marble_06.png","response":"l","trial_type":"image-keyboard-response","trial_index":223,"plugin_version":"2.1.0","time_elapsed":379658,"subject_id":"91923","group":"Group2","condition":"1_Rep","full_date":"2026-02-25T17:09:14.591Z","date":"2026-02-25","time":"17:09:14","cor_ans":false},{"trial_type":"html-keyboard-response","rt":null,"stimulus":"<p style=\"color: red; font-size: 50px; font-weight: bold;\">Incorrect</p>","response":null,"trial_index":224,"plugin_version":"2.1.0","time_elapsed":380170,"subject_id":"91923","group":"Group2","condition":"1_Rep","full_date":"2026-02-25T17:09:14.591Z","date":"2026-02-25","time":"17:09:14"},{"correct_response":"a","task":"test_phase","broad_catego