[{"width":1470,"height":817,"webaudio":true,"browser":"safari","browser_version":"18.0.1","mobile":false,"os":"Mac OS","fullscreen":true,"vsync_rate":60.12,"webcam":true,"microphone":true,"trial_type":"browser-check","trial_index":0,"plugin_version":"2.1.0","time_elapsed":1006,"subject_id":"91504","group":"Group1","condition":"1_Rep","full_date":"2026-02-27T21:32:39.574Z","date":"2026-02-27","time":"21:32:39"},{"success":true,"timeout":false,"failed_images":[],"failed_audio":[],"failed_video":[],"trial_type":"preload","trial_index":1,"plugin_version":"2.1.0","time_elapsed":2017,"subject_id":"91504","group":"Group1","condition":"1_Rep","full_date":"2026-02-27T21:32:39.574Z","date":"2026-02-27","time":"21:32:39"},{"rt":11281,"url":"SONA_consent_memorability.html","trial_type":"external-html","trial_index":2,"plugin_version":"2.1.0","time_elapsed":13351,"subject_id":"91504","group":"Group1","condition":"1_Rep","full_date":"2026-02-27T21:32:39.574Z","date":"2026-02-27","time":"21:32:39"},{"success":true,"rt":1469,"trial_type":"fullscreen","trial_index":3,"plugin_version":"2.1.0","time_elapsed":15826,"subject_id":"91504","group":"Group1","condition":"1_Rep","full_date":"2026-02-27T21:32:39.574Z","date":"2026-02-27","time":"21:32:39"},{"rt":39758,"stimulus":"<div style=\"max-width: 760px; margin: auto; font-size: 20px; line-height: 1.5;\">\n      <h1 style=\"text-align:center; font-size: 30px;\">Instructions</h1>\n      <p>\n        Welcome to the study on <b>visual memory</b>. This experiment consists of <b>two phases</b>: \n        a <b>study phase</b> and a <b>test phase</b>.\n      </p>\n      <p>\n        In the study phase, you will see a series of rock images along with their category labels.\n        The images will appear one at a time.\n        <b>Your task</b> is to learn the categories to which the rock images belong \n        and to remember each image as accurately as possible.\n      </p> \n      <p>\n        Note that you will see each image only <b>once</b> during the study phase. \n          So, please pay close attention and try to remember each image carefully.\n      </p>\n      <p>\n        After the study phase, <b>your memory will be tested</b>. \n        Additional instructions for the test phase will be provided at that time.\n      </p>\n      <p>\n        If your computer has multiple <b>language settings</b> (e.g., English and another language),\n        please make sure it is set to English before starting.\n      </p>\n      <p>\n        You can track your progress using the <b>completion bar</b> at the top of the screen. \n        Please note that the bar will refresh when the test phase begins \n        to give you an accurate sense of your progress in both phases.\n      </p> \n      <p>\n        Press the button below when you are ready to begin.\n      </p>\n    </div>","response":0,"trial_type":"html-button-response","trial_index":4,"plugin_version":"2.1.0","time_elapsed":55588,"subject_id":"91504","group":"Group1","condition":"1_Rep","full_date":"2026-02-27T21:32:39.574Z","date":"2026-02-27","time":"21:32:39"},{"rt":null,"stimulus":"<p style=\"font-size: 50px; margin: 0; text-align: center;\">+</p>","response":null,"trial_type":"html-keyboard-response","trial_index":5,"plugin_version":"2.1.0","time_elapsed":56593,"subject_id":"91504","group":"Group1","condition":"1_Rep","full_date":"2026-02-27T21:32:39.574Z","date":"2026-02-27","time":"21:32:39"},{"task":"memory_phase","broad_category":"I","image_png":"I_Basalt_01.png","image_id":17,"category_name":"Basalt","category":2,"distinct_rating":1.92,"distinct_type":"Bottom","rt":null,"stimulus":"Stimuli_Rocks480/I_Basalt_01.png","response":null,"trial_type":"image-keyboard-response","trial_index":6,"plugin_version":"2.1.0","time_elapsed":59123,"subject_id":"91504","group":"Group1","condition":"1_Rep","full_date":"2026-02-27T21:32:39.574Z","date":"2026-02-27","time":"21:32:39"},{"rt":null,"stimulus":"<p style=\"font-size: 50px; margin: 0; text-align: center;\">+</p>","response":null,"trial_type":"html-keyboard-response","trial_index":7,"plugin_version":"2.1.0","time_elapsed":60127,"subject_id":"91504","group":"Group1","condition":"1_Rep","full_date":"2026-02-27T21:32:39.574Z","date":"2026-02-27","time":"21:32:39"},{"task":"memory_phase","broad_category":"I","image_png":"I_Diorite_03.png","image_id":35,"category_name":"Diorite","category":3,"distinct_rating":3.14,"distinct_type":"Bottom","rt":null,"stimulus":"Stimuli_Rocks480/I_Diorite_03.png","response":null,"trial_type":"image-keyboard-response","trial_index":8,"plugin_version":"2.1.0","time_elapsed":62653,"subject_id":"91504","group":"Group1","condition":"1_Rep","full_date":"2026-02-27T21:32:39.574Z","date":"2026-02-27","time":"21:32:39"},{"rt":null,"stimulus":"<p style=\"font-size: 50px; margin: 0; text-align: center;\">+</p>","response":null,"trial_type":"html-keyboard-response","trial_index":9,"plugin_version":"2.1.0","time_elapsed":63656,"subject_id":"91504","group":"Group1","condition":"1_Rep","full_date":"2026-02-27T21:32:39.574Z","date":"2026-02-27","time":"21:32:39"},{"task":"memory_phase","broad_category":"I","image_png":"I_Diorite_05.png","image_id":37,"category_name":"Diorite","category":3,"distinct_rating":3.08,"distinct_type":"Bottom","rt":null,"stimulus":"Stimuli_Rocks480/I_Diorite_05.png","response":null,"trial_type":"image-keyboard-response","trial_index":10,"plugin_version":"2.1.0","time_elapsed":66176,"subject_id":"91504","group":"Group1","condition":"1_Rep","full_date":"2026-02-27T21:32:39.574Z","date":"2026-02-27","time":"21:32:39"},{"rt":null,"stimulus":"<p style=\"font-size: 50px; margin: 0; text-align: center;\">+</p>","response":null,"trial_type":"html-keyboard-response","trial_index":11,"plugin_version":"2.1.0","time_elapsed":67180,"subject_id":"91504","group":"Group1","condition":"1_Rep","full_date":"2026-02-27T21:32:39.574Z","date":"2026-02-27","time":"21:32:39"},{"task":"memory_phase","broad_category":"M","image_png":"M_Quartzite_13.png","image_id":285,"category_name":"Quartzite","category":18,"distinct_rating":2.27,"distinct_type":"Bottom","rt":null,"stimulus":"Stimuli_Rocks480/M_Quartzite_13.png","response":null,"trial_type":"image-keyboard-response","trial_index":12,"plugin_version":"2.1.0","time_elapsed":69699,"subject_id":"91504","group":"Group1","condition":"1_Rep","full_date":"2026-02-27T21:32:39.574Z","date":"2026-02-27","time":"21:32:39"},{"rt":null,"stimulus":"<p style=\"font-size: 50px; margin: 0; text-align: center;\">+</p>","response":null,"trial_type":"html-keyboard-response","trial_index":13,"plugin_version":"2.1.0","time_elapsed":70703,"subject_id":"91504","group":"Group1","condition":"1_Rep","full_date":"2026-02-27T21:32:39.574Z","date":"2026-02-27","time":"21:32:39"},{"task":"memory_phase","broad_category":"I","image_png":"I_Pumice_12.png","image_id":140,"category_name":"Pumice","category":9,"distinct_rating":2.97,"distinct_type":"Bottom","rt":null,"stimulus":"Stimuli_Rocks480/I_Pumice_12.png","response":null,"trial_type":"image-keyboard-response","trial_index":14,"plugin_version":"2.1.0","time_elapsed":73219,"subject_id":"91504","group":"Group1","condition":"1_Rep","full_date":"2026-02-27T21:32:39.574Z","date":"2026-02-27","time":"21:32:39"},{"rt":null,"stimulus":"<p style=\"font-size: 50px; margin: 0; text-align: center;\">+</p>","response":null,"trial_type":"html-keyboard-response","trial_index":15,"plugin_version":"2.1.0","time_elapsed":74222,"subject_id":"91504","group":"Group1","condition":"1_Rep","full_date":"2026-02-27T21:32:39.574Z","date":"2026-02-27","time":"21:32:39"},{"task":"memory_phase","broad_category":"S","image_png":"S_Shale_12.png","image_id":476,"category_name":"Shale","category":30,"distinct_rating":2.48,"distinct_type":"Bottom","rt":null,"stimulus":"Stimuli_Rocks480/S_Shale_12.png","response":null,"trial_type":"image-keyboard-response","trial_index":16,"plugin_version":"2.1.0","time_elapsed":76740,"subject_id":"91504","group":"Group1","condition":"1_Rep","full_date":"2026-02-27T21:32:39.574Z","date":"2026-02-27","time":"21:32:39"},{"rt":null,"stimulus":"<p style=\"font-size: 50px; margin: 0; text-align: center;\">+</p>","response":null,"trial_type":"html-keyboard-response","trial_index":17,"plugin_version":"2.1.0","time_elapsed":77744,"subject_id":"91504","group":"Group1","condition":"1_Rep","full_date":"2026-02-27T21:32:39.574Z","date":"2026-02-27","time":"21:32:39"},{"task":"memory_phase","broad_category":"M","image_png":"M_Phyllite_10.png","image_id":266,"category_name":"Phyllite","category":17,"distinct_rating":2.6,"distinct_type":"Bottom","rt":null,"stimulus":"Stimuli_Rocks480/M_Phyllite_10.png","response":null,"trial_type":"image-keyboard-response","trial_index":18,"plugin_version":"2.1.0","time_elapsed":80262,"subject_id":"91504","group":"Group1","condition":"1_Rep","full_date":"2026-02-27T21:32:39.574Z","date":"2026-02-27","time":"21:32:39"},{"rt":null,"stimulus":"<p style=\"font-size: 50px; margin: 0; text-align: center;\">+</p>","response":null,"trial_type":"html-keyboard-response","trial_index":19,"plugin_version":"2.1.0","time_elapsed":81266,"subject_id":"91504","group":"Group1","condition":"1_Rep","full_date":"2026-02-27T21:32:39.574Z","date":"2026-02-27","time":"21:32:39"},{"task":"memory_phase","broad_category":"I","image_png":"I_Rhyolite_16.png","image_id":160,"category_name":"Rhyolite","category":10,"distinct_rating":2.19,"distinct_type":"Bottom","rt":null,"stimulus":"Stimuli_Rocks480/I_Rhyolite_16.png","response":null,"trial_type":"image-keyboard-response","trial_index":20,"plugin_version":"2.1.0","time_elapsed":83785,"subject_id":"91504","group":"Group1","condition":"1_Rep","full_date":"2026-02-27T21:32:39.574Z","date":"2026-02-27","time":"21:32:39"},{"rt":null,"stimulus":"<p style=\"font-size: 50px; margin: 0; text-align: center;\">+</p>","response":null,"trial_type":"html-keyboard-response","trial_index":21,"plugin_version":"2.1.0","time_elapsed":84788,"subject_id":"91504","group":"Group1","condition":"1_Rep","full_date":"2026-02-27T21:32:39.574Z","date":"2026-02-27","time":"21:32:39"},{"task":"memory_phase","broad_category":"M","image_png":"M_Gneiss_13.png","image_id":205,"category_name":"Gneiss","category":13,"distinct_rating":3.26,"distinct_type":"Bottom","rt":null,"stimulus":"Stimuli_Rocks480/M_Gneiss_13.png","response":null,"trial_type":"image-keyboard-response","trial_index":22,"plugin_version":"2.1.0","time_elapsed":87306,"subject_id":"91504","group":"Group1","condition":"1_Rep","full_date":"2026-02-27T21:32:39.574Z","date":"2026-02-27","time":"21:32:39"},{"rt":null,"stimulus":"<p style=\"font-size: 50px; margin: 0; text-align: center;\">+</p>","response":null,"trial_type":"html-keyboard-response","trial_index":23,"plugin_version":"2.1.0","time_elapsed":88309,"subject_id":"91504","group":"Group1","condition":"1_Rep","full_date":"2026-02-27T21:32:39.574Z","date":"2026-02-27","time":"21:32:39"},{"task":"memory_phase","broad_category":"I","image_png":"I_Basalt_02.png","image_id":18,"category_name":"Basalt","category":2,"distinct_rating":1.84,"distinct_type":"Bottom","rt":null,"stimulus":"Stimuli_Rocks480/I_Basalt_02.png","response":null,"trial_type":"image-keyboard-response","trial_index":24,"plugin_version":"2.1.0","time_elapsed":90830,"subject_id":"91504","group":"Group1","condition":"1_Rep","full_date":"2026-02-27T21:32:39.574Z","date":"2026-02-27","time":"21:32:39"},{"rt":null,"stimulus":"<p style=\"font-size: 50px; margin: 0; text-align: center;\">+</p>","response":null,"trial_type":"html-keyboard-response","trial_index":25,"plugin_version":"2.1.0","time_elapsed":91833,"subject_id":"91504","group":"Group1","condition":"1_Rep","full_date":"2026-02-27T21:32:39.574Z","date":"2026-02-27","time":"21:32:39"},{"task":"memory_phase","broad_category":"S","image_png":"S_Rock Gypsum_04.png","image_id":420,"category_name":"Rock Gypsum","category":27,"distinct_rating":7.61,"distinct_type":"Top","rt":null,"stimulus":"Stimuli_Rocks480/S_Rock Gypsum_04.png","response":null,"trial_type":"image-keyboard-response","trial_index":26,"plugin_version":"2.1.0","time_elapsed":94354,"subject_id":"91504","group":"Group1","condition":"1_Rep","full_date":"2026-02-27T21:32:39.574Z","date":"2026-02-27","time":"21:32:39"},{"rt":null,"stimulus":"<p style=\"font-size: 50px; margin: 0; text-align: center;\">+</p>","response":null,"trial_type":"html-keyboard-response","trial_index":27,"plugin_version":"2.1.0","time_elapsed":95357,"subject_id":"91504","group":"Group1","condition":"1_Rep","full_date":"2026-02-27T21:32:39.574Z","date":"2026-02-27","time":"21:32:39"},{"task":"memory_phase","broad_category":"S","image_png":"S_Sandstone_16.png","image_id":464,"category_name":"Sandstone","category":29,"distinct_rating":1.93,"distinct_type":"Bottom","rt":null,"stimulus":"Stimuli_Rocks480/S_Sandstone_16.png","response":null,"trial_type":"image-keyboard-response","trial_index":28,"plugin_version":"2.1.0","time_elapsed":97874,"subject_id":"91504","group":"Group1","condition":"1_Rep","full_date":"2026-02-27T21:32:39.574Z","date":"2026-02-27","time":"21:32:39"},{"rt":null,"stimulus":"<p style=\"font-size: 50px; margin: 0; text-align: center;\">+</p>","response":null,"trial_type":"html-keyboard-response","trial_index":29,"plugin_version":"2.1.0","time_elapsed":98877,"subject_id":"91504","group":"Group1","condition":"1_Rep","full_date":"2026-02-27T21:32:39.574Z","date":"2026-02-27","time":"21:32:39"},{"task":"memory_phase","broad_category":"I","image_png":"I_Gabbro_16.png","image_id":64,"category_name":"Gabbro","category":4,"distinct_rating":2.52,"distinct_type":"Bottom","rt":null,"stimulus":"Stimuli_Rocks480/I_Gabbro_16.png","response":null,"trial_type":"image-keyboard-response","trial_index":30,"plugin_version":"2.1.0","time_elapsed":101396,"subject_id":"91504","group":"Group1","condition":"1_Rep","full_date":"2026-02-27T21:32:39.574Z","date":"2026-02-27","time":"21:32:39"},{"rt":null,"stimulus":"<p style=\"font-size: 50px; margin: 0; text-align: center;\">+</p>","response":null,"trial_type":"html-keyboard-response","trial_index":31,"plugin_version":"2.1.0","time_elapsed":102399,"subject_id":"91504","group":"Group1","condition":"1_Rep","full_date":"2026-02-27T21:32:39.574Z","date":"2026-02-27","time":"21:32:39"},{"task":"memory_phase","broad_category":"S","image_png":"S_Sandstone_15.png","image_id":463,"category_name":"Sandstone","category":29,"distinct_rating":2,"distinct_type":"Bottom","rt":null,"stimulus":"Stimuli_Rocks480/S_Sandstone_15.png","response":null,"trial_type":"image-keyboard-response","trial_index":32,"plugin_version":"2.1.0","time_elapsed":104925,"subject_id":"91504","group":"Group1","condition":"1_Rep","full_date":"2026-02-27T21:32:39.574Z","date":"2026-02-27","time":"21:32:39"},{"rt":null,"stimulus":"<p style=\"font-size: 50px; margin: 0; text-align: center;\">+</p>","response":null,"trial_type":"html-keyboard-response","trial_index":33,"plugin_version":"2.1.0","time_elapsed":105928,"subject_id":"91504","group":"Group1","condition":"1_Rep","full_date":"2026-02-27T21:32:39.574Z","date":"2026-02-27","time":"21:32:39"},{"task":"memory_phase","broad_category":"I","image_png":"I_Basalt_09.png","image_id":25,"category_name":"Basalt","category":2,"distinct_rating":1.89,"distinct_type":"Bottom","rt":null,"stimulus":"Stimuli_Rocks480/I_Basalt_09.png","response":null,"trial_type":"image-keyboard-response","trial_index":34,"plugin_version":"2.1.0","time_elapsed":108446,"subject_id":"91504","group":"Group1","condition":"1_Rep","full_date":"2026-02-27T21:32:39.574Z","date":"2026-02-27","time":"21:32:39"},{"rt":null,"stimulus":"<p style=\"font-size: 50px; margin: 0; text-align: center;\">+</p>","response":null,"trial_type":"html-keyboard-response","trial_index":35,"plugin_version":"2.1.0","time_elapsed":109450,"subject_id":"91504","group":"Group1","condition":"1_Rep","full_date":"2026-02-27T21:32:39.574Z","date":"2026-02-27","time":"21:32:39"},{"task":"memory_phase","broad_category":"S","image_png":"S_Sandstone_03.png","image_id":451,"category_name":"Sandstone","category":29,"distinct_rating":1.86,"distinct_type":"Bottom","rt":null,"stimulus":"Stimuli_Rocks480/S_Sandstone_03.png","response":null,"trial_type":"image-keyboard-response","trial_index":36,"plugin_version":"2.1.0","time_elapsed":111970,"subject_id":"91504","group":"Group1","condition":"1_Rep","full_date":"2026-02-27T21:32:39.574Z","date":"2026-02-27","time":"21:32:39"},{"rt":null,"stimulus":"<p style=\"font-size: 50px; margin: 0; text-align: center;\">+</p>","response":null,"trial_type":"html-keyboard-response","trial_index":37,"plugin_version":"2.1.0","time_elapsed":112973,"subject_id":"91504","group":"Group1","condition":"1_Rep","full_date":"2026-02-27T21:32:39.574Z","date":"2026-02-27","time":"21:32:39"},{"task":"memory_phase","broad_category":"M","image_png":"M_Quartzite_08.png","image_id":280,"category_name":"Quartzite","category":18,"distinct_rating":2.15,"distinct_type":"Bottom","rt":null,"stimulus":"Stimuli_Rocks480/M_Quartzite_08.png","response":null,"trial_type":"image-keyboard-response","trial_index":38,"plugin_version":"2.1.0","time_elapsed":115492,"subject_id":"91504","group":"Group1","condition":"1_Rep","full_date":"2026-02-27T21:32:39.574Z","date":"2026-02-27","time":"21:32:39"},{"rt":null,"stimulus":"<p style=\"font-size: 50px; margin: 0; text-align: center;\">+</p>","response":null,"trial_type":"html-keyboard-response","trial_index":39,"plugin_version":"2.1.0","time_elapsed":116496,"subject_id":"91504","group":"Group1","condition":"1_Rep","full_date":"2026-02-27T21:32:39.574Z","date":"2026-02-27","time":"21:32:39"},{"task":"memory_phase","broad_category":"M","image_png":"M_Phyllite_03.png","image_id":259,"category_name":"Phyllite","category":17,"distinct_rating":2.5,"distinct_type":"Bottom","rt":null,"stimulus":"Stimuli_Rocks480/M_Phyllite_03.png","response":null,"trial_type":"image-keyboard-response","trial_index":40,"plugin_version":"2.1.0","time_elapsed":119020,"subject_id":"91504","group":"Group1","condition":"1_Rep","full_date":"2026-02-27T21:32:39.574Z","date":"2026-02-27","time":"21:32:39"},{"rt":null,"stimulus":"<p style=\"font-size: 50px; margin: 0; text-align: center;\">+</p>","response":null,"trial_type":"html-keyboard-response","trial_index":41,"plugin_version":"2.1.0","time_elapsed":120024,"subject_id":"91504","group":"Group1","condition":"1_Rep","full_date":"2026-02-27T21:32:39.574Z","date":"2026-02-27","time":"21:32:39"},{"task":"memory_phase","broad_category":"S","image_png":"S_Dolomite_12.png","image_id":396,"category_name":"Dolomite","category":25,"distinct_rating":1.85,"distinct_type":"Bottom","rt":null,"stimulus":"Stimuli_Rocks480/S_Dolomite_12.png","response":null,"trial_type":"image-keyboard-response","trial_index":42,"plugin_version":"2.1.0","time_elapsed":122545,"subject_id":"91504","group":"Group1","condition":"1_Rep","full_date":"2026-02-27T21:32:39.574Z","date":"2026-02-27","time":"21:32:39"},{"rt":null,"stimulus":"<p style=\"font-size: 50px; margin: 0; text-align: center;\">+</p>","response":null,"trial_type":"html-keyboard-response","trial_index":43,"plugin_version":"2.1.0","time_elapsed":123548,"subject_id":"91504","group":"Group1","condition":"1_Rep","full_date":"2026-02-27T21:32:39.574Z","date":"2026-02-27","time":"21:32:39"},{"task":"memory_phase","broad_category":"M","image_png":"M_Marble_04.png","image_id":228,"category_name":"Marble","category":15,"distinct_rating":3.15,"distinct_type":"Bottom","rt":null,"stimulus":"Stimuli_Rocks480/M_Marble_04.png","response":null,"trial_type":"image-keyboard-response","trial_index":44,"plugin_version":"2.1.0","time_elapsed":126070,"subject_id":"91504","group":"Group1","condition":"1_Rep","full_date":"2026-02-27T21:32:39.574Z","date":"2026-02-27","time":"21:32:39"},{"rt":null,"stimulus":"<p style=\"font-size: 50px; margin: 0; text-align: center;\">+</p>","response":null,"trial_type":"html-keyboard-response","trial_index":45,"plugin_version":"2.1.0","time_elapsed":127073,"subject_id":"91504","group":"Group1","condition":"1_Rep","full_date":"2026-02-27T21:32:39.574Z","date":"2026-02-27","time":"21:32:39"},{"task":"memory_phase","broad_category":"M","image_png":"M_Gneiss_05.png","image_id":197,"category_name":"Gneiss","category":13,"distinct_rating":2.97,"distinct_type":"Bottom","rt":null,"stimulus":"Stimuli_Rocks480/M_Gneiss_05.png","response":null,"trial_type":"image-keyboard-response","trial_index":46,"plugin_version":"2.1.0","time_elapsed":129603,"subject_id":"91504","group":"Group1","condition":"1_Rep","full_date":"2026-02-27T21:32:39.574Z","date":"2026-02-27","time":"21:32:39"},{"rt":null,"stimulus":"<p style=\"font-size: 50px; margin: 0; text-align: center;\">+</p>","response":null,"trial_type":"html-keyboard-response","trial_index":47,"plugin_version":"2.1.0","time_elapsed":130607,"subject_id":"91504","group":"Group1","condition":"1_Rep","full_date":"2026-02-27T21:32:39.574Z","date":"2026-02-27","time":"21:32:39"},{"task":"memory_phase","broad_category":"S","image_png":"S_Dolomite_14.png","image_id":398,"category_name":"Dolomite","category":25,"distinct_rating":1.43,"distinct_type":"Bottom","rt":null,"stimulus":"Stimuli_Rocks480/S_Dolomite_14.png","response":null,"trial_type":"image-keyboard-response","trial_index":48,"plugin_version":"2.1.0","time_elapsed":133128,"subject_id":"91504","group":"Group1","condition":"1_Rep","full_date":"2026-02-27T21:32:39.574Z","date":"2026-02-27","time":"21:32:39"},{"rt":null,"stimulus":"<p style=\"font-size: 50px; margin: 0; text-align: center;\">+</p>","response":null,"trial_type":"html-keyboard-response","trial_index":49,"plugin_version":"2.1.0","time_elapsed":134132,"subject_id":"91504","group":"Group1","condition":"1_Rep","full_date":"2026-02-27T21:32:39.574Z","date":"2026-02-27","time":"21:32:39"},{"task":"memory_phase","broad_category":"M","image_png":"M_Quartzite_05.png","image_id":277,"category_name":"Quartzite","category":18,"distinct_rating":2.23,"distinct_type":"Bottom","rt":null,"stimulus":"Stimuli_Rocks480/M_Quartzite_05.png","response":null,"trial_type":"image-keyboard-response","trial_index":50,"plugin_version":"2.1.0","time_elapsed":136656,"subject_id":"91504","group":"Group1","condition":"1_Rep","full_date":"2026-02-27T21:32:39.574Z","date":"2026-02-27","time":"21:32:39"},{"rt":null,"stimulus":"<p style=\"font-size: 50px; margin: 0; text-align: center;\">+</p>","response":null,"trial_type":"html-keyboard-response","trial_index":51,"plugin_version":"2.1.0","time_elapsed":137658,"subject_id":"91504","group":"Group1","condition":"1_Rep","full_date":"2026-02-27T21:32:39.574Z","date":"2026-02-27","time":"21:32:39"},{"task":"memory_phase","broad_category":"S","image_png":"S_Shale_08.png","image_id":472,"category_name":"Shale","category":30,"distinct_rating":2.55,"distinct_type":"Bottom","rt":null,"stimulus":"Stimuli_Rocks480/S_Shale_08.png","response":null,"trial_type":"image-keyboard-response","trial_index":52,"plugin_version":"2.1.0","time_elapsed":140181,"subject_id":"91504","group":"Group1","condition":"1_Rep","full_date":"2026-02-27T21:32:39.574Z","date":"2026-02-27","time":"21:32:39"},{"rt":null,"stimulus":"<p style=\"font-size: 50px; margin: 0; text-align: center;\">+</p>","response":null,"trial_type":"html-keyboard-response","trial_index":53,"plugin_version":"2.1.0","time_elapsed":141184,"subject_id":"91504","group":"Group1","condition":"1_Rep","full_date":"2026-02-27T21:32:39.574Z","date":"2026-02-27","time":"21:32:39"},{"task":"memory_phase","broad_category":"I","image_png":"I_Gabbro_08.png","image_id":56,"category_name":"Gabbro","category":4,"distinct_rating":3.02,"distinct_type":"Bottom","rt":null,"stimulus":"Stimuli_Rocks480/I_Gabbro_08.png","response":null,"trial_type":"image-keyboard-response","trial_index":54,"plugin_version":"2.1.0","time_elapsed":143702,"subject_id":"91504","group":"Group1","condition":"1_Rep","full_date":"2026-02-27T21:32:39.574Z","date":"2026-02-27","time":"21:32:39"},{"rt":5375,"stimulus":"<p style=\"max-width: 760px; margin: auto; font-size: 35px; line-height: 1.5;\">\n                Press SPACE to continue study phase\n              </p>","response":" ","trial_type":"html-keyboard-response","trial_index":55,"plugin_version":"2.1.0","time_elapsed":149080,"subject_id":"91504","group":"Group1","condition":"1_Rep","full_date":"2026-02-27T21:32:39.574Z","date":"2026-02-27","time":"21:32:39"},{"rt":null,"stimulus":"<p style=\"font-size: 50px; margin: 0; text-align: center;\">+</p>","response":null,"trial_type":"html-keyboard-response","trial_index":56,"plugin_version":"2.1.0","time_elapsed":150084,"subject_id":"91504","group":"Group1","condition":"1_Rep","full_date":"2026-02-27T21:32:39.574Z","date":"2026-02-27","time":"21:32:39"},{"task":"memory_phase","broad_category":"I","image_png":"I_Andesite_06.png","image_id":6,"category_name":"Andesite","category":1,"distinct_rating":3.17,"distinct_type":"Bottom","rt":null,"stimulus":"Stimuli_Rocks480/I_Andesite_06.png","response":null,"trial_type":"image-keyboard-response","trial_index":57,"plugin_version":"2.1.0","time_elapsed":152608,"subject_id":"91504","group":"Group1","condition":"1_Rep","full_date":"2026-02-27T21:32:39.574Z","date":"2026-02-27","time":"21:32:39"},{"rt":null,"stimulus":"<p style=\"font-size: 50px; margin: 0; text-align: center;\">+</p>","response":null,"trial_type":"html-keyboard-response","trial_index":58,"plugin_version":"2.1.0","time_elapsed":153611,"subject_id":"91504","group":"Group1","condition":"1_Rep","full_date":"2026-02-27T21:32:39.574Z","date":"2026-02-27","time":"21:32:39"},{"task":"memory_phase","broad_category":"S","image_png":"S_Shale_01.png","image_id":465,"category_name":"Shale","category":30,"distinct_rating":2.7,"distinct_type":"Bottom","rt":null,"stimulus":"Stimuli_Rocks480/S_Shale_01.png","response":null,"trial_type":"image-keyboard-response","trial_index":59,"plugin_version":"2.1.0","time_elapsed":156131,"subject_id":"91504","group":"Group1","condition":"1_Rep","full_date":"2026-02-27T21:32:39.574Z","date":"2026-02-27","time":"21:32:39"},{"rt":null,"stimulus":"<p style=\"font-size: 50px; margin: 0; text-align: center;\">+</p>","response":null,"trial_type":"html-keyboard-response","trial_index":60,"plugin_version":"2.1.0","time_elapsed":157134,"subject_id":"91504","group":"Group1","condition":"1_Rep","full_date":"2026-02-27T21:32:39.574Z","date":"2026-02-27","time":"21:32:39"},{"task":"memory_phase","broad_category":"M","image_png":"M_Slate_15.png","image_id":319,"category_name":"Slate","category":20,"distinct_rating":2.13,"distinct_type":"Bottom","rt":null,"stimulus":"Stimuli_Rocks480/M_Slate_15.png","response":null,"trial_type":"image-keyboard-response","trial_index":61,"plugin_version":"2.1.0","time_elapsed":159648,"subject_id":"91504","group":"Group1","condition":"1_Rep","full_date":"2026-02-27T21:32:39.574Z","date":"2026-02-27","time":"21:32:39"},{"rt":null,"stimulus":"<p style=\"font-size: 50px; margin: 0; text-align: center;\">+</p>","response":null,"trial_type":"html-keyboard-response","trial_index":62,"plugin_version":"2.1.0","time_elapsed":160651,"subject_id":"91504","group":"Group1","condition":"1_Rep","full_date":"2026-02-27T21:32:39.574Z","date":"2026-02-27","time":"21:32:39"},{"task":"memory_phase","broad_category":"S","image_png":"S_Conglomerate_05.png","image_id":373,"category_name":"Conglomerate","category":24,"distinct_rating":7.32,"distinct_type":"Top","rt":null,"stimulus":"Stimuli_Rocks480/S_Conglomerate_05.png","response":null,"trial_type":"image-keyboard-response","trial_index":63,"plugin_version":"2.1.0","time_elapsed":163173,"subject_id":"91504","group":"Group1","condition":"1_Rep","full_date":"2026-02-27T21:32:39.574Z","date":"2026-02-27","time":"21:32:39"},{"rt":null,"stimulus":"<p style=\"font-size: 50px; margin: 0; text-align: center;\">+</p>","response":null,"trial_type":"html-keyboard-response","trial_index":64,"plugin_version":"2.1.0","time_elapsed":164176,"subject_id":"91504","group":"Group1","condition":"1_Rep","full_date":"2026-02-27T21:32:39.574Z","date":"2026-02-27","time":"21:32:39"},{"task":"memory_phase","broad_category":"S","image_png":"S_Breccia_11.png","image_id":347,"category_name":"Breccia","category":22,"distinct_rating":6.7,"distinct_type":"Top","rt":null,"stimulus":"Stimuli_Rocks480/S_Breccia_11.png","response":null,"trial_type":"image-keyboard-response","trial_index":65,"plugin_version":"2.1.0","time_elapsed":166707,"subject_id":"91504","group":"Group1","condition":"1_Rep","full_date":"2026-02-27T21:32:39.574Z","date":"2026-02-27","time":"21:32:39"},{"rt":null,"stimulus":"<p style=\"font-size: 50px; margin: 0; text-align: center;\">+</p>","response":null,"trial_type":"html-keyboard-response","trial_index":66,"plugin_version":"2.1.0","time_elapsed":167710,"subject_id":"91504","group":"Group1","condition":"1_Rep","full_date":"2026-02-27T21:32:39.574Z","date":"2026-02-27","time":"21:32:39"},{"task":"memory_phase","broad_category":"S","image_png":"S_Chert_10.png","image_id":362,"category_name":"Chert","category":23,"distinct_rating":7.17,"distinct_type":"Top","rt":null,"stimulus":"Stimuli_Rocks480/S_Chert_10.png","response":null,"trial_type":"image-keyboard-response","trial_index":67,"plugin_version":"2.1.0","time_elapsed":170231,"subject_id":"91504","group":"Group1","condition":"1_Rep","full_date":"2026-02-27T21:32:39.574Z","date":"2026-02-27","time":"21:32:39"},{"rt":null,"stimulus":"<p style=\"font-size: 50px; margin: 0; text-align: center;\">+</p>","response":null,"trial_type":"html-keyboard-response","trial_index":68,"plugin_version":"2.1.0","time_elapsed":171234,"subject_id":"91504","group":"Group1","condition":"1_Rep","full_date":"2026-02-27T21:32:39.574Z","date":"2026-02-27","time":"21:32:39"},{"task":"memory_phase","broad_category":"I","image_png":"I_Diorite_04.png","image_id":36,"category_name":"Diorite","category":3,"distinct_rating":2.98,"distinct_type":"Bottom","rt":null,"stimulus":"Stimuli_Rocks480/I_Diorite_04.png","response":null,"trial_type":"image-keyboard-response","trial_index":69,"plugin_version":"2.1.0","time_elapsed":173756,"subject_id":"91504","group":"Group1","condition":"1_Rep","full_date":"2026-02-27T21:32:39.574Z","date":"2026-02-27","time":"21:32:39"},{"rt":null,"stimulus":"<p style=\"font-size: 50px; margin: 0; text-align: center;\">+</p>","response":null,"trial_type":"html-keyboard-response","trial_index":70,"plugin_version":"2.1.0","time_elapsed":174759,"subject_id":"91504","group":"Group1","condition":"1_Rep","full_date":"2026-02-27T21:32:39.574Z","date":"2026-02-27","time":"21:32:39"},{"task":"memory_phase","broad_category":"I","image_png":"I_Obsidian_05.png","image_id":85,"category_name":"Obsidian","category":6,"distinct_rating":7.32,"distinct_type":"Top","rt":null,"stimulus":"Stimuli_Rocks480/I_Obsidian_05.png","response":null,"trial_type":"image-keyboard-response","trial_index":71,"plugin_version":"2.1.0","time_elapsed":177281,"subject_id":"91504","group":"Group1","condition":"1_Rep","full_date":"2026-02-27T21:32:39.574Z","date":"2026-02-27","time":"21:32:39"},{"rt":null,"stimulus":"<p style=\"font-size: 50px; margin: 0; text-align: center;\">+</p>","response":null,"trial_type":"html-keyboard-response","trial_index":72,"plugin_version":"2.1.0","time_elapsed":178284,"subject_id":"91504","group":"Group1","condition":"1_Rep","full_date":"2026-02-27T21:32:39.574Z","date":"2026-02-27","time":"21:32:39"},{"task":"memory_phase","broad_category":"I","image_png":"I_Pumice_08.png","image_id":136,"category_name":"Pumice","category":9,"distinct_rating":3.1,"distinct_type":"Bottom","rt":null,"stimulus":"Stimuli_Rocks480/I_Pumice_08.png","response":null,"trial_type":"image-keyboard-response","trial_index":73,"plugin_version":"2.1.0","time_elapsed":180804,"subject_id":"91504","group":"Group1","condition":"1_Rep","full_date":"2026-02-27T21:32:39.574Z","date":"2026-02-27","time":"21:32:39"},{"rt":null,"stimulus":"<p style=\"font-size: 50px; margin: 0; text-align: center;\">+</p>","response":null,"trial_type":"html-keyboard-response","trial_index":74,"plugin_version":"2.1.0","time_elapsed":181807,"subject_id":"91504","group":"Group1","condition":"1_Rep","full_date":"2026-02-27T21:32:39.574Z","date":"2026-02-27","time":"21:32:39"},{"task":"memory_phase","broad_category":"S","image_png":"S_Rock Salt_01.png","image_id":433,"category_name":"Rock Salt","category":28,"distinct_rating":7.18,"distinct_type":"Top","rt":null,"stimulus":"Stimuli_Rocks480/S_Rock Salt_01.png","response":null,"trial_type":"image-keyboard-response","trial_index":75,"plugin_version":"2.1.0","time_elapsed":184330,"subject_id":"91504","group":"Group1","condition":"1_Rep","full_date":"2026-02-27T21:32:39.574Z","date":"2026-02-27","time":"21:32:39"},{"rt":null,"stimulus":"<p style=\"font-size: 50px; margin: 0; text-align: center;\">+</p>","response":null,"trial_type":"html-keyboard-response","trial_index":76,"plugin_version":"2.1.0","time_elapsed":185332,"subject_id":"91504","group":"Group1","condition":"1_Rep","full_date":"2026-02-27T21:32:39.574Z","date":"2026-02-27","time":"21:32:39"},{"task":"memory_phase","broad_category":"I","image_png":"I_Andesite_10.png","image_id":10,"category_name":"Andesite","category":1,"distinct_rating":3.15,"distinct_type":"Bottom","rt":null,"stimulus":"Stimuli_Rocks480/I_Andesite_10.png","response":null,"trial_type":"image-keyboard-response","trial_index":77,"plugin_version":"2.1.0","time_elapsed":187846,"subject_id":"91504","group":"Group1","condition":"1_Rep","full_date":"2026-02-27T21:32:39.574Z","date":"2026-02-27","time":"21:32:39"},{"rt":null,"stimulus":"<p style=\"font-size: 50px; margin: 0; text-align: center;\">+</p>","response":null,"trial_type":"html-keyboard-response","trial_index":78,"plugin_version":"2.1.0","time_elapsed":188850,"subject_id":"91504","group":"Group1","condition":"1_Rep","full_date":"2026-02-27T21:32:39.574Z","date":"2026-02-27","time":"21:32:39"},{"task":"memory_phase","broad_category":"M","image_png":"M_Marble_16.png","image_id":240,"category_name":"Marble","category":15,"distinct_rating":2.57,"distinct_type":"Bottom","rt":null,"stimulus":"Stimuli_Rocks480/M_Marble_16.png","response":null,"trial_type":"image-keyboard-response","trial_index":79,"plugin_version":"2.1.0","time_elapsed":191370,"subject_id":"91504","group":"Group1","condition":"1_Rep","full_date":"2026-02-27T21:32:39.574Z","date":"2026-02-27","time":"21:32:39"},{"rt":null,"stimulus":"<p style=\"font-size: 50px; margin: 0; text-align: center;\">+</p>","response":null,"trial_type":"html-keyboard-response","trial_index":80,"plugin_version":"2.1.0","time_elapsed":192377,"subject_id":"91504","group":"Group1","condition":"1_Rep","full_date":"2026-02-27T21:32:39.574Z","date":"2026-02-27","time":"21:32:39"},{"task":"memory_phase","broad_category":"I","image_png":"I_Pumice_11.png","image_id":139,"category_name":"Pumice","category":9,"distinct_rating":1.74,"distinct_type":"Bottom","rt":null,"stimulus":"Stimuli_Rocks480/I_Pumice_11.png","response":null,"trial_type":"image-keyboard-response","trial_index":81,"plugin_version":"2.1.0","time_elapsed":194892,"subject_id":"91504","group":"Group1","condition":"1_Rep","full_date":"2026-02-27T21:32:39.574Z","date":"2026-02-27","time":"21:32:39"},{"rt":null,"stimulus":"<p style=\"font-size: 50px; margin: 0; text-align: center;\">+</p>","response":null,"trial_type":"html-keyboard-response","trial_index":82,"plugin_version":"2.1.0","time_elapsed":195896,"subject_id":"91504","group":"Group1","condition":"1_Rep","full_date":"2026-02-27T21:32:39.574Z","date":"2026-02-27","time":"21:32:39"},{"task":"memory_phase","broad_category":"I","image_png":"I_Rhyolite_11.png","image_id":155,"category_name":"Rhyolite","category":10,"distinct_rating":1.73,"distinct_type":"Bottom","rt":null,"stimulus":"Stimuli_Rocks480/I_Rhyolite_11.png","response":null,"trial_type":"image-keyboard-response","trial_index":83,"plugin_version":"2.1.0","time_elapsed":198415,"subject_id":"91504","group":"Group1","condition":"1_Rep","full_date":"2026-02-27T21:32:39.574Z","date":"2026-02-27","time":"21:32:39"},{"rt":null,"stimulus":"<p style=\"font-size: 50px; margin: 0; text-align: center;\">+</p>","response":null,"trial_type":"html-keyboard-response","trial_index":84,"plugin_version":"2.1.0","time_elapsed":199418,"subject_id":"91504","group":"Group1","condition":"1_Rep","full_date":"2026-02-27T21:32:39.574Z","date":"2026-02-27","time":"21:32:39"},{"task":"memory_phase","broad_category":"I","image_png":"I_Rhyolite_14.png","image_id":158,"category_name":"Rhyolite","category":10,"distinct_rating":2.59,"distinct_type":"Bottom","rt":null,"stimulus":"Stimuli_Rocks480/I_Rhyolite_14.png","response":null,"trial_type":"image-keyboard-response","trial_index":85,"plugin_version":"2.1.0","time_elapsed":201936,"subject_id":"91504","group":"Group1","condition":"1_Rep","full_date":"2026-02-27T21:32:39.574Z","date":"2026-02-27","time":"21:32:39"},{"rt":null,"stimulus":"<p style=\"font-size: 50px; margin: 0; text-align: center;\">+</p>","response":null,"trial_type":"html-keyboard-response","trial_index":86,"plugin_version":"2.1.0","time_elapsed":202939,"subject_id":"91504","group":"Group1","condition":"1_Rep","full_date":"2026-02-27T21:32:39.574Z","date":"2026-02-27","time":"21:32:39"},{"task":"memory_phase","broad_category":"I","image_png":"I_Gabbro_11.png","image_id":59,"category_name":"Gabbro","category":4,"distinct_rating":1.99,"distinct_type":"Bottom","rt":null,"stimulus":"Stimuli_Rocks480/I_Gabbro_11.png","response":null,"trial_type":"image-keyboard-response","trial_index":87,"plugin_version":"2.1.0","time_elapsed":205455,"subject_id":"91504","group":"Group1","condition":"1_Rep","full_date":"2026-02-27T21:32:39.574Z","date":"2026-02-27","time":"21:32:39"},{"rt":null,"stimulus":"<p style=\"font-size: 50px; margin: 0; text-align: center;\">+</p>","response":null,"trial_type":"html-keyboard-response","trial_index":88,"plugin_version":"2.1.0","time_elapsed":206458,"subject_id":"91504","group":"Group1","condition":"1_Rep","full_date":"2026-02-27T21:32:39.574Z","date":"2026-02-27","time":"21:32:39"},{"task":"memory_phase","broad_category":"I","image_png":"I_Andesite_08.png","image_id":8,"category_name":"Andesite","category":1,"distinct_rating":1.95,"distinct_type":"Bottom","rt":null,"stimulus":"Stimuli_Rocks480/I_Andesite_08.png","response":null,"trial_type":"image-keyboard-response","trial_index":89,"plugin_version":"2.1.0","time_elapsed":208983,"subject_id":"91504","group":"Group1","condition":"1_Rep","full_date":"2026-02-27T21:32:39.574Z","date":"2026-02-27","time":"21:32:39"},{"rt":null,"stimulus":"<p style=\"font-size: 50px; margin: 0; text-align: center;\">+</p>","response":null,"trial_type":"html-keyboard-response","trial_index":90,"plugin_version":"2.1.0","time_elapsed":209987,"subject_id":"91504","group":"Group1","condition":"1_Rep","full_date":"2026-02-27T21:32:39.574Z","date":"2026-02-27","time":"21:32:39"},{"task":"memory_phase","broad_category":"I","image_png":"I_Pegmatite_16.png","image_id":112,"category_name":"Pegmatite","category":7,"distinct_rating":7.03,"distinct_type":"Top","rt":null,"stimulus":"Stimuli_Rocks480/I_Pegmatite_16.png","response":null,"trial_type":"image-keyboard-response","trial_index":91,"plugin_version":"2.1.0","time_elapsed":212510,"subject_id":"91504","group":"Group1","condition":"1_Rep","full_date":"2026-02-27T21:32:39.574Z","date":"2026-02-27","time":"21:32:39"},{"rt":null,"stimulus":"<p style=\"font-size: 50px; margin: 0; text-align: center;\">+</p>","response":null,"trial_type":"html-keyboard-response","trial_index":92,"plugin_version":"2.1.0","time_elapsed":213514,"subject_id":"91504","group":"Group1","condition":"1_Rep","full_date":"2026-02-27T21:32:39.574Z","date":"2026-02-27","time":"21:32:39"},{"task":"memory_phase","broad_category":"M","image_png":"M_Gneiss_06.png","image_id":198,"category_name":"Gneiss","category":13,"distinct_rating":2.65,"distinct_type":"Bottom","rt":null,"stimulus":"Stimuli_Rocks480/M_Gneiss_06.png","response":null,"trial_type":"image-keyboard-response","trial_index":93,"plugin_version":"2.1.0","time_elapsed":216038,"subject_id":"91504","group":"Group1","condition":"1_Rep","full_date":"2026-02-27T21:32:39.574Z","date":"2026-02-27","time":"21:32:39"},{"rt":null,"stimulus":"<p style=\"font-size: 50px; margin: 0; text-align: center;\">+</p>","response":null,"trial_type":"html-keyboard-response","trial_index":94,"plugin_version":"2.1.0","time_elapsed":217041,"subject_id":"91504","group":"Group1","condition":"1_Rep","full_date":"2026-02-27T21:32:39.574Z","date":"2026-02-27","time":"21:32:39"},{"task":"memory_phase","broad_category":"M","image_png":"M_Phyllite_07.png","image_id":263,"category_name":"Phyllite","category":17,"distinct_rating":2.59,"distinct_type":"Bottom","rt":null,"stimulus":"Stimuli_Rocks480/M_Phyllite_07.png","response":null,"trial_type":"image-keyboard-response","trial_index":95,"plugin_version":"2.1.0","time_elapsed":219558,"subject_id":"91504","group":"Group1","condition":"1_Rep","full_date":"2026-02-27T21:32:39.574Z","date":"2026-02-27","time":"21:32:39"},{"rt":null,"stimulus":"<p style=\"font-size: 50px; margin: 0; text-align: center;\">+</p>","response":null,"trial_type":"html-keyboard-response","trial_index":96,"plugin_version":"2.1.0","time_elapsed":220561,"subject_id":"91504","group":"Group1","condition":"1_Rep","full_date":"2026-02-27T21:32:39.574Z","date":"2026-02-27","time":"21:32:39"},{"task":"memory_phase","broad_category":"I","image_png":"I_Pegmatite_10.png","image_id":106,"category_name":"Pegmatite","category":7,"distinct_rating":7.66,"distinct_type":"Top","rt":null,"stimulus":"Stimuli_Rocks480/I_Pegmatite_10.png","response":null,"trial_type":"image-keyboard-response","trial_index":97,"plugin_version":"2.1.0","time_elapsed":223080,"subject_id":"91504","group":"Group1","condition":"1_Rep","full_date":"2026-02-27T21:32:39.574Z","date":"2026-02-27","time":"21:32:39"},{"rt":null,"stimulus":"<p style=\"font-size: 50px; margin: 0; text-align: center;\">+</p>","response":null,"trial_type":"html-keyboard-response","trial_index":98,"plugin_version":"2.1.0","time_elapsed":224083,"subject_id":"91504","group":"Group1","condition":"1_Rep","full_date":"2026-02-27T21:32:39.574Z","date":"2026-02-27","time":"21:32:39"},{"task":"memory_phase","broad_category":"S","image_png":"S_Dolomite_13.png","image_id":397,"category_name":"Dolomite","category":25,"distinct_rating":1.77,"distinct_type":"Bottom","rt":null,"stimulus":"Stimuli_Rocks480/S_Dolomite_13.png","response":null,"trial_type":"image-keyboard-response","trial_index":99,"plugin_version":"2.1.0","time_elapsed":226603,"subject_id":"91504","group":"Group1","condition":"1_Rep","full_date":"2026-02-27T21:32:39.574Z","date":"2026-02-27","time":"21:32:39"},{"rt":null,"stimulus":"<p style=\"font-size: 50px; margin: 0; text-align: center;\">+</p>","response":null,"trial_type":"html-keyboard-response","trial_index":100,"plugin_version":"2.1.0","time_elapsed":227606,"subject_id":"91504","group":"Group1","condition":"1_Rep","full_date":"2026-02-27T21:32:39.574Z","date":"2026-02-27","time":"21:32:39"},{"task":"memory_phase","broad_category":"M","image_png":"M_Marble_06.png","image_id":230,"category_name":"Marble","category":15,"distinct_rating":3.4,"distinct_type":"Bottom","rt":null,"stimulus":"Stimuli_Rocks480/M_Marble_06.png","response":null,"trial_type":"image-keyboard-response","trial_index":101,"plugin_version":"2.1.0","time_elapsed":230123,"subject_id":"91504","group":"Group1","condition":"1_Rep","full_date":"2026-02-27T21:32:39.574Z","date":"2026-02-27","time":"21:32:39"},{"rt":null,"stimulus":"<p style=\"font-size: 50px; margin: 0; text-align: center;\">+</p>","response":null,"trial_type":"html-keyboard-response","trial_index":102,"plugin_version":"2.1.0","time_elapsed":231126,"subject_id":"91504","group":"Group1","condition":"1_Rep","full_date":"2026-02-27T21:32:39.574Z","date":"2026-02-27","time":"21:32:39"},{"task":"memory_phase","broad_category":"M","image_png":"M_Slate_03.png","image_id":307,"category_name":"Slate","category":20,"distinct_rating":1.87,"distinct_type":"Bottom","rt":null,"stimulus":"Stimuli_Rocks480/M_Slate_03.png","response":null,"trial_type":"image-keyboard-response","trial_index":103,"plugin_version":"2.1.0","time_elapsed":233648,"subject_id":"91504","group":"Group1","condition":"1_Rep","full_date":"2026-02-27T21:32:39.574Z","date":"2026-02-27","time":"21:32:39"},{"rt":null,"stimulus":"<p style=\"font-size: 50px; margin: 0; text-align: center;\">+</p>","response":null,"trial_type":"html-keyboard-response","trial_index":104,"plugin_version":"2.1.0","time_elapsed":234651,"subject_id":"91504","group":"Group1","condition":"1_Rep","full_date":"2026-02-27T21:32:39.574Z","date":"2026-02-27","time":"21:32:39"},{"task":"memory_phase","broad_category":"M","image_png":"M_Slate_11.png","image_id":315,"category_name":"Slate","category":20,"distinct_rating":2.75,"distinct_type":"Bottom","rt":null,"stimulus":"Stimuli_Rocks480/M_Slate_11.png","response":null,"trial_type":"image-keyboard-response","trial_index":105,"plugin_version":"2.1.0","time_elapsed":237169,"subject_id":"91504","group":"Group1","condition":"1_Rep","full_date":"2026-02-27T21:32:39.574Z","date":"2026-02-27","time":"21:32:39"},{"rt":29884,"stimulus":"<div style=\"max-width: 760px; margin: auto; font-size: 20px; line-height: 1.5;\">\n      <h1 style=\"text-align:center; font-size: 30px;\">Instructions for the Test Phase</h1>\n      <p>\n        The study phase is now complete.\n      </p>\n      <p>\n        In the test phase, you will again see a series of rock images. \n        Some will be ones you saw before - during the study phase, while others will be new.  \n        <b>Your task</b> is to decide whether you have seen each image before by pressing the corresponding key on your keyboard:<br><br>\n          <b>A</b> - NO (you did not see this image before)<br>\n          <b>L</b> - YES (you saw this image before)<br><br>\n        The test will proceed at your own pace. You will receive feedback after each response.  \n        Please try to respond <b>as accurately as possible</b>.\n      </p>\n      <p>\n        <b>Reminder:</b> If your computer has multiple language settings (e.g., English and another language),\n        please ensure it is set to English during the test phase.\n      </p>\n      <p>\n        You can track your progress using the <b>completion bar</b> at the top of the screen.  \n        Note that it has been refreshed to reflect your progress during this final phase.\n      </p>\n      <p>\n        Press the button below when you are ready to continue.\n      </p>\n    </div>","response":0,"trial_type":"html-button-response","trial_index":106,"plugin_version":"2.1.0","time_elapsed":267057,"subject_id":"91504","group":"Group1","condition":"1_Rep","full_date":"2026-02-27T21:32:39.574Z","date":"2026-02-27","time":"21:32:39"},{"correct_response":"a","task":"test_phase","broad_category":"I","image_png":"I_Rhyolite_10.png","image_id":154,"category_name":"Rhyolite","category":10,"distinct_rating":2.88,"distinct_type":"Bottom","item_type":"Foil","rt":3784,"stimulus":"Stimuli_Rocks480/I_Rhyolite_10.png","response":"l","trial_type":"image-keyboard-response","trial_index":107,"plugin_version":"2.1.0","time_elapsed":270871,"subject_id":"91504","group":"Group1","condition":"1_Rep","full_date":"2026-02-27T21:32:39.574Z","date":"2026-02-27","time":"21:32:39","cor_ans":false},{"trial_type":"html-keyboard-response","rt":null,"stimulus":"<p style=\"color: red; font-size: 50px; font-weight: bold;\">Incorrect</p>","response":null,"trial_index":108,"plugin_version":"2.1.0","time_elapsed":271375,"subject_id":"91504","group":"Group1","condition":"1_Rep","full_date":"2026-02-27T21:32:39.574Z","date":"2026-02-27","time":"21:32:39"},{"correct_response":"a","task":"test_phase","broad_category":"M","image_png":"M_Phyllite_02.png","image_id":258,"category_name":"Phyllite","category":17,"distinct_rating":2.89,"distinct_type":"Bottom","item_type":"Foil","rt":4436,"stimulus":"Stimuli_Rocks480/M_Phyllite_02.png","response":"a","trial_type":"image-keyboard-response","trial_index":109,"plugin_version":"2.1.0","time_elapsed":275833,"subject_id":"91504","group":"Group1","condition":"1_Rep","full_date":"2026-02-27T21:32:39.574Z","date":"2026-02-27","time":"21:32:39","cor_ans":true},{"trial_type":"html-keyboard-response","rt":null,"stimulus":"<p style=\"color: green; font-size: 50px; font-weight: bold;\">Correct</p>","response":null,"trial_index":110,"plugin_version":"2.1.0","time_elapsed":276335,"subject_id":"91504","group":"Group1","condition":"1_Rep","full_date":"2026-02-27T21:32:39.574Z","date":"2026-02-27","time":"21:32:39"},{"correct_response":"a","task":"test_phase","broad_category":"I","image_png":"I_Pumice_01.png","image_id":129,"category_name":"Pumice","category":9,"distinct_rating":3.25,"distinct_type":"Bottom","item_type":"Foil","rt":1792,"stimulus":"Stimuli_Rocks480/I_Pumice_01.png","response":"a","trial_type":"image-keyboard-response","trial_index":111,"plugin_version":"2.1.0","time_elapsed":278141,"subject_id":"91504","group":"Group1","condition":"1_Rep","full_date":"2026-02-27T21:32:39.574Z","date":"2026-02-27","time":"21:32:39","cor_ans":true},{"trial_type":"html-keyboard-response","rt":null,"stimulus":"<p style=\"color: green; font-size: 50px; font-weight: bold;\">Correct</p>","response":null,"trial_index":112,"plugin_version":"2.1.0","time_elapsed":278643,"subject_id":"91504","group":"Group1","condition":"1_Rep","full_date":"2026-02-27T21:32:39.574Z","date":"2026-02-27","time":"21:32:39"},{"correct_response":"l","task":"test_phase","broad_category":"M","image_png":"M_Marble_04.png","image_id":228,"category_name":"Marble","category":15,"distinct_rating":3.15,"distinct_type":"Bottom","item_type":"Target","rt":1485,"stimulus":"Stimuli_Rocks480/M_Marble_04.png","response":"l","trial_type":"image-keyboard-response","trial_index":113,"plugin_version":"2.1.0","time_elapsed":280149,"subject_id":"91504","group":"Group1","condition":"1_Rep","full_date":"2026-02-27T21:32:39.574Z","date":"2026-02-27","time":"21:32:39","cor_ans":true},{"trial_type":"html-keyboard-response","rt":null,"stimulus":"<p style=\"color: green; font-size: 50px; font-weight: bold;\">Correct</p>","response":null,"trial_index":114,"plugin_version":"2.1.0","time_elapsed":280653,"subject_id":"91504","group":"Group1","condition":"1_Rep","full_date":"2026-02-27T21:32:39.574Z","date":"2026-02-27","time":"21:32:39"},{"correct_response":"a","task":"test_phase","broad_category":"M","image_png":"M_Marble_03.png","image_id":227,"category_name":"Marble","category":15,"distinct_rating":2.67,"distinct_type":"Bottom","item_type":"Foil","rt":1325,"stimulus":"Stimuli_Rocks480/M_Marble_03.png","response":"a","trial_type":"image-keyboard-response","trial_index":115,"plugin_version":"2.1.0","time_elapsed":281999,"subject_id":"91504","group":"Group1","condition":"1_Rep","full_date":"2026-02-27T21:32:39.574Z","date":"2026-02-27","time":"21:32:39","cor_ans":true},{"trial_type":"html-keyboard-response","rt":null,"stimulus":"<p style=\"color: green; font-size: 50px; font-weight: bold;\">Correct</p>","response":null,"trial_index":116,"plugin_version":"2.1.0","time_elapsed":282501,"subject_id":"91504","group":"Group1","condition":"1_Rep","full_date":"2026-02-27T21:32:39.574Z","date":"2026-02-27","time":"21:32:39"},{"correct_response":"a","task":"test_phase","broad_category":"M","image_png":"M_Quartzite_12.png","image_id":284,"category_name":"Quartzite","category":18,"distinct_rating":1.92,"distinct_type":"Bottom","item_type":"Foil","rt":2039,"stimulus":"Stimuli_Rocks480/M_Quartzite_12.png","response":"l","trial_type":"image-keyboard-response","trial_index":117,"plugin_version":"2.1.0","time_elapsed":284558,"subject_id":"91504","group":"Group1","condition":"1_Rep","full_date":"2026-02-27T21:32:39.574Z","date":"2026-02-27","time":"21:32:39","cor_ans":false},{"trial_type":"html-keyboard-response","rt":null,"stimulus":"<p style=\"color: red; font-size: 50px; font-weight: bold;\">Incorrect</p>","response":null,"trial_index":118,"plugin_version":"2.1.0","time_elapsed":285060,"subject_id":"91504","group":"Group1","condition":"1_Rep","full_date":"2026-02-27T21:32:39.574Z","date":"2026-02-27","time":"21:32:39"},{"correct_response":"a","task":"test_phase","broad_category":"I","image_png":"I_Basalt_08.png","image_id":24,"category_name":"Basalt","category":2,"distinct_rating":2.31,"distinct_type":"Bottom","item_type":"Foil","rt":2287,"stimulus":"Stimuli_Rocks480/I_Basalt_08.png","response":"a","trial_type":"image-keyboard-response","trial_index":119,"plugin_version":"2.1.0","time_elapsed":287377,"subject_id":"91504","group":"Group1","condition":"1_Rep","full_date":"2026-02-27T21:32:39.574Z","date":"2026-02-27","time":"21:32:39","cor_ans":true},{"trial_type":"html-keyboard-response","rt":null,"stimulus":"<p style=\"color: green; font-size: 50px; font-weight: bold;\">Correct</p>","response":null,"trial_index":120,"plugin_version":"2.1.0","time_elapsed":287881,"subject_id":"91504","group":"Group1","condition":"1_Rep","full_date":"2026-02-27T21:32:39.574Z","date":"2026-02-27","time":"21:32:39"},{"correct_response":"l","task":"test_phase","broad_category":"S","image_png":"S_Rock Salt_01.png","image_id":433,"category_name":"Rock Salt","category":28,"distinct_rating":7.18,"distinct_type":"Top","item_type":"Target","rt":1837,"stimulus":"Stimuli_Rocks480/S_Rock Salt_01.png","response":"l","trial_type":"image-keyboard-response","trial_index":121,"plugin_version":"2.1.0","time_elapsed":289740,"subject_id":"91504","group":"Group1","condition":"1_Rep","full_date":"2026-02-27T21:32:39.574Z","date":"2026-02-27","time":"21:32:39","cor_ans":true},{"trial_type":"html-keyboard-response","rt":null,"stimulus":"<p style=\"color: green; font-size: 50px; font-weight: bold;\">Correct</p>","response":null,"trial_index":122,"plugin_version":"2.1.0","time_elapsed":290243,"subject_id":"91504","group":"Group1","condition":"1_Rep","full_date":"2026-02-27T21:32:39.574Z","date":"2026-02-27","time":"21:32:39"},{"correct_response":"a","task":"test_phase","broad_category":"I","image_png":"I_Diorite_01.png","image_id":33,"category_name":"Diorite","category":3,"distinct_rating":2.97,"distinct_type":"Bottom","item_type":"Foil","rt":2075,"stimulus":"Stimuli_Rocks480/I_Diorite_01.png","response":"a","trial_type":"image-keyboard-response","trial_index":123,"plugin_version":"2.1.0","time_elapsed":292343,"subject_id":"91504","group":"Group1","condition":"1_Rep","full_date":"2026-02-27T21:32:39.574Z","date":"2026-02-27","time":"21:32:39","cor_ans":true},{"trial_type":"html-keyboard-response","rt":null,"stimulus":"<p style=\"color: green; font-size: 50px; font-weight: bold;\">Correct</p>","response":null,"trial_index":124,"plugin_version":"2.1.0","time_elapsed":292846,"subject_id":"91504","group":"Group1","condition":"1_Rep","full_date":"2026-02-27T21:32:39.574Z","date":"2026-02-27","time":"21:32:39"},{"correct_response":"a","task":"test_phase","broad_category":"I","image_png":"I_Peridotite_13.png","image_id":125,"category_name":"Peridotite","category":8,"distinct_rating":7.28,"distinct_type":"Top","item_type":"Foil","rt":1050,"stimulus":"Stimuli_Rocks480/I_Peridotite_13.png","response":"a","trial_type":"image-keyboard-response","trial_index":125,"plugin_version":"2.1.0","time_elapsed":293920,"subject_id":"91504","group":"Group1","condition":"1_Rep","full_date":"2026-02-27T21:32:39.574Z","date":"2026-02-27","time":"21:32:39","cor_ans":true},{"trial_type":"html-keyboard-response","rt":null,"stimulus":"<p style=\"color: green; font-size: 50px; font-weight: bold;\">Correct</p>","response":null,"trial_index":126,"plugin_version":"2.1.0","time_elapsed":294423,"subject_id":"91504","group":"Group1","condition":"1_Rep","full_date":"2026-02-27T21:32:39.574Z","date":"2026-02-27","time":"21:32:39"},{"correct_response":"l","task":"test_phase","broad_category":"I","image_png":"I_Andesite_08.png","image_id":8,"category_name":"Andesite","category":1,"distinct_rating":1.95,"distinct_type":"Bottom","item_type":"Target","rt":881,"stimulus":"Stimuli_Rocks480/I_Andesite_08.png","response":"l","trial_type":"image-keyboard-response","trial_index":127,"plugin_version":"2.1.0","time_elapsed":295307,"subject_id":"91504","group":"Group1","condition":"1_Rep","full_date":"2026-02-27T21:32:39.574Z","date":"2026-02-27","time":"21:32:39","cor_ans":true},{"trial_type":"html-keyboard-response","rt":null,"stimulus":"<p style=\"color: green; font-size: 50px; font-weight: bold;\">Correct</p>","response":null,"trial_index":128,"plugin_version":"2.1.0","time_elapsed":295810,"subject_id":"91504","group":"Group1","condition":"1_Rep","full_date":"2026-02-27T21:32:39.574Z","date":"2026-02-27","time":"21:32:39"},{"correct_response":"a","task":"test_phase","broad_category":"I","image_png":"I_Diorite_10.png","image_id":42,"category_name":"Diorite","category":3,"distinct_rating":2.84,"distinct_type":"Bottom","item_type":"Foil","rt":1210,"stimulus":"Stimuli_Rocks480/I_Diorite_10.png","response":"l","trial_type":"image-keyboard-response","trial_index":129,"plugin_version":"2.1.0","time_elapsed":297040,"subject_id":"91504","group":"Group1","condition":"1_Rep","full_date":"2026-02-27T21:32:39.574Z","date":"2026-02-27","time":"21:32:39","cor_ans":false},{"trial_type":"html-keyboard-response","rt":null,"stimulus":"<p style=\"color: red; font-size: 50px; font-weight: bold;\">Incorrect</p>","response":null,"trial_index":130,"plugin_version":"2.1.0","time_elapsed":297543,"subject_id":"91504","group":"Group1","condition":"1_Rep","full_date":"2026-02-27T21:32:39.574Z","date":"2026-02-27","time":"21:32:39"},{"correct_response":"l","task":"test_phase","broad_category":"I","image_png":"I_Pumice_08.png","image_id":136,"category_name":"Pumice","category":9,"distinct_rating":3.1,"distinct_type":"Bottom","item_type":"Target","rt":5480,"stimulus":"Stimuli_Rocks480/I_Pumice_08.png","response":"l","trial_type":"image-keyboard-response","trial_index":131,"plugin_version":"2.1.0","time_elapsed":303042,"subject_id":"91504","group":"Group1","condition":"1_Rep","full_date":"2026-02-27T21:32:39.574Z","date":"2026-02-27","time":"21:32:39","cor_ans":true},{"trial_type":"html-keyboard-response","rt":null,"stimulus":"<p style=\"color: green; font-size: 50px; font-weight: bold;\">Correct</p>","response":null,"trial_index":132,"plugin_version":"2.1.0","time_elapsed":303545,"subject_id":"91504","group":"Group1","condition":"1_Rep","full_date":"2026-02-27T21:32:39.574Z","date":"2026-02-27","time":"21:32:39"},{"correct_response":"l","task":"test_phase","broad_category":"M","image_png":"M_Marble_06.png","image_id":230,"category_name":"Marble","category":15,"distinct_rating":3.4,"distinct_type":"Bottom","item_type":"Target","rt":1115,"stimulus":"Stimuli_Rocks480/M_Marble_06.png","response":"l","trial_type":"image-keyboard-response","trial_index":133,"plugin_version":"2.1.0","time_elapsed":304663,"subject_id":"91504","group":"Group1","condition":"1_Rep","full_date":"2026-02-27T21:32:39.574Z","date":"2026-02-27","time":"21:32:39","cor_ans":true},{"trial_type":"html-keyboard-response","rt":null,"stimulus":"<p style=\"color: green; font-size: 50px; font-weight: bold;\">Correct</p>","response":null,"trial_index":134,"plugin_version":"2.1.0","time_elapsed":305167,"subject_id":"91504","group":"Group1","condition":"1_Rep","full_date":"2026-02-27T21:32:39.574Z","date":"2026-02-27","time":"21:32:39"},{"correct_response":"a","task":"test_phase","broad_category":"M","image_png":"M_Quartzite_07.png","image_id":279,"category_name":"Quartzite","category":18,"distinct_rating":1.97,"distinct_type":"Bottom","item_type":"Foil","rt":1035,"stimulus":"Stimuli_Rocks480/M_Quartzite_07.png","response":"l","trial_type":"image-keyboard-response","trial_index":135,"plugin_version":"2.1.0","time_elapsed":306223,"subject_id":"91504","group":"Group1","condition":"1_Rep","full_date":"2026-02-27T21:32:39.574Z","date":"2026-02-27","time":"21:32:39","cor_ans":false},{"trial_type":"html-keyboard-response","rt":null,"stimulus":"<p style=\"color: red; font-size: 50px; font-weight: bold;\">Incorrect</p>","response":null,"trial_index":136,"plugin_version":"2.1.0","time_elapsed":306727,"subject_id":"91504","group":"Group1","condition":"1_Rep","full_date":"2026-02-27T21:32:39.574Z","date":"2026-02-27","time":"21:32:39"},{"correct_response":"l","task":"test_phase","broad_category":"I","image_png":"I_Rhyolite_14.png","image_id":158,"category_name":"Rhyolite","category":10,"distinct_rating":2.59,"distinct_type":"Bottom","item_type":"Target","rt":2189,"stimulus":"Stimuli_Rocks480/I_Rhyolite_14.png","response":"l","trial_type":"image-keyboard-response","trial_index":137,"plugin_version":"2.1.0","time_elapsed":308932,"subject_id":"91504","group":"Group1","condition":"1_Rep","full_date":"2026-02-27T21:32:39.574Z","date":"2026-02-27","time":"21:32:39","cor_ans":true},{"trial_type":"html-keyboard-response","rt":null,"stimulus":"<p style=\"color: green; font-size: 50px; font-weight: bold;\">Correct</p>","response":null,"trial_index":138,"plugin_version":"2.1.0","time_elapsed":309435,"subject_id":"91504","group":"Group1","condition":"1_Rep","full_date":"2026-02-27T21:32:39.574Z","date":"2026-02-27","time":"21:32:39"},{"correct_response":"l","task":"test_phase","broad_category":"S","image_png":"S_Sandstone_03.png","image_id":451,"category_name":"Sandstone","category":29,"distinct_rating":1.86,"distinct_type":"Bottom","item_type":"Target","rt":1120,"stimulus":"Stimuli_Rocks480/S_Sandstone_03.png","response":"l","trial_type":"image-keyboard-response","trial_index":139,"plugin_version":"2.1.0","time_elapsed":310574,"subject_id":"91504","group":"Group1","condition":"1_Rep","full_date":"2026-02-27T21:32:39.574Z","date":"2026-02-27","time":"21:32:39","cor_ans":true},{"trial_type":"html-keyboard-response","rt":null,"stimulus":"<p style=\"color: green; font-size: 50px; font-weight: bold;\">Correct</p>","response":null,"trial_index":140,"plugin_version":"2.1.0","time_elapsed":311077,"subject_id":"91504","group":"Group1","condition":"1_Rep","full_date":"2026-02-27T21:32:39.574Z","date":"2026-02-27","time":"21:32:39"},{"correct_response":"a","task":"test_phase","broad_category":"I","image_png":"I_Diorite_15.png","image_id":47,"category_name":"Diorite","category":3,"distinct_rating":3.05,"distinct_type":"Bottom","item_type":"Foil","rt":1108,"stimulus":"Stimuli_Rocks480/I_Diorite_15.png","response":"l","trial_type":"image-keyboard-response","trial_index":141,"plugin_version":"2.1.0","time_elapsed":312198,"subject_id":"91504","group":"Group1","condition":"1_Rep","full_date":"2026-02-27T21:32:39.574Z","date":"2026-02-27","time":"21:32:39","cor_ans":false},{"trial_type":"html-keyboard-response","rt":null,"stimulus":"<p style=\"color: red; font-size: 50px; font-weight: bold;\">Incorrect</p>","response":null,"trial_index":142,"plugin_version":"2.1.0","time_elapsed":312701,"subject_id":"91504","group":"Group1","condition":"1_Rep","full_date":"2026-02-27T21:32:39.574Z","date":"2026-02-27","time":"21:32:39"},{"correct_response":"a","task":"test_phase","broad_category":"S","image_png":"S_Conglomerate_14.png","image_id":382,"category_name":"Conglomerate","category":24,"distinct_rating":6.86,"distinct_type":"Top","item_type":"Foil","rt":1546,"stimulus":"Stimuli_Rocks480/S_Conglomerate_14.png","response":"a","trial_type":"image-keyboard-response","trial_index":143,"plugin_version":"2.1.0","time_elapsed":314267,"subject_id":"91504","group":"Group1","condition":"1_Rep","full_date":"2026-02-27T21:32:39.574Z","date":"2026-02-27","time":"21:32:39","cor_ans":true},{"trial_type":"html-keyboard-response","rt":null,"stimulus":"<p style=\"color: green; font-size: 50px; font-weight: bold;\">Correct</p>","response":null,"trial_index":144,"plugin_version":"2.1.0","time_elapsed":314769,"subject_id":"91504","group":"Group1","condition":"1_Rep","full_date":"2026-02-27T21:32:39.574Z","date":"2026-02-27","time":"21:32:39"},{"correct_response":"a","task":"test_phase","broad_category":"M","image_png":"M_Phyllite_05.png","image_id":261,"category_name":"Phyllite","category":17,"distinct_rating":2.14,"distinct_type":"Bottom","item_type":"Foil","rt":2563,"stimulus":"Stimuli_Rocks480/M_Phyllite_05.png","response":"l","trial_type":"image-keyboard-response","trial_index":145,"plugin_version":"2.1.0","time_elapsed":317348,"subject_id":"91504","group":"Group1","condition":"1_Rep","full_date":"2026-02-27T21:32:39.574Z","date":"2026-02-27","time":"21:32:39","cor_ans":false},{"trial_type":"html-keyboard-response","rt":null,"stimulus":"<p style=\"color: red; font-size: 50px; font-weight: bold;\">Incorrect</p>","response":null,"trial_index":146,"plugin_version":"2.1.0","time_elapsed":317852,"subject_id":"91504","group":"Group1","condition":"1_Rep","full_date":"2026-02-27T21:32:39.574Z","date":"2026-02-27","time":"21:32:39"},{"correct_response":"l","task":"test_phase","broad_category":"I","image_png":"I_Pumice_12.png","image_id":140,"category_name":"Pumice","category":9,"distinct_rating":2.97,"distinct_type":"Bottom","item_type":"Target","rt":2915,"stimulus":"Stimuli_Rocks480/I_Pumice_12.png","response":"a","trial_type":"image-keyboard-response","trial_index":147,"plugin_version":"2.1.0","time_elapsed":320778,"subject_id":"91504","group":"Group1","condition":"1_Rep","full_date":"2026-02-27T21:32:39.574Z","date":"2026-02-27","time":"21:32:39","cor_ans":false},{"trial_type":"html-keyboard-response","rt":null,"stimulus":"<p style=\"color: red; font-size: 50px; font-weight: bold;\">Incorrect</p>","response":null,"trial_index":148,"plugin_version":"2.1.0","time_elapsed":321281,"subject_id":"91504","group":"Group1","condition":"1_Rep","full_date":"2026-02-27T21:32:39.574Z","date":"2026-02-27","time":"21:32:39"},{"correct_response":"a","task":"test_phase","broad_category":"I","image_png":"I_Rhyolite_05.png","image_id":149,"category_name":"Rhyolite","category":10,"distinct_rating":3.02,"distinct_type":"Bottom","item_type":"Foil","rt":4196,"stimulus":"Stimuli_Rocks480/I_Rhyolite_05.png","response":"a","trial_type":"image-keyboard-response","trial_index":149,"plugin_version":"2.1.0","time_elapsed":325500,"subject_id":"91504","group":"Group1","condition":"1_Rep","full_date":"2026-02-27T21:32:39.574Z","date":"2026-02-27","time":"21:32:39","cor_ans":true},{"trial_type":"html-keyboard-response","rt":null,"stimulus":"<p style=\"color: green; font-size: 50px; font-weight: bold;\">Correct</p>","response":null,"trial_index":150,"plugin_version":"2.1.0","time_elapsed":326004,"subject_id":"91504","group":"Group1","condition":"1_Rep","full_date":"2026-02-27T21:32:39.574Z","date":"2026-02-27","time":"21:32:39"},{"correct_response":"a","task":"test_phase","broad_category":"I","image_png":"I_Gabbro_12.png","image_id":60,"category_name":"Gabbro","category":4,"distinct_rating":2.6,"distinct_type":"Bottom","item_type":"Foil","rt":2426,"stimulus":"Stimuli_Rocks480/I_Gabbro_12.png","response":"a","trial_type":"image-keyboard-response","trial_index":151,"plugin_version":"2.1.0","time_elapsed":328461,"subject_id":"91504","group":"Group1","condition":"1_Rep","full_date":"2026-02-27T21:32:39.574Z","date":"2026-02-27","time":"21:32:39","cor_ans":true},{"trial_type":"html-keyboard-response","rt":null,"stimulus":"<p style=\"color: green; font-size: 50px; font-weight: bold;\">Correct</p>","response":null,"trial_index":152,"plugin_version":"2.1.0","time_elapsed":328965,"subject_id":"91504","group":"Group1","condition":"1_Rep","full_date":"2026-02-27T21:32:39.574Z","date":"2026-02-27","time":"21:32:39"},{"correct_response":"a","task":"test_phase","broad_category":"S","image_png":"S_Dolomite_16.png","image_id":400,"category_name":"Dolomite","category":25,"distinct_rating":1.71,"distinct_type":"Bottom","item_type":"Foil","rt":1443,"stimulus":"Stimuli_Rocks480/S_Dolomite_16.png","response":"l","trial_type":"image-keyboard-response","trial_index":153,"plugin_version":"2.1.0","time_elapsed":330427,"subject_id":"91504","group":"Group1","condition":"1_Rep","full_date":"2026-02-27T21:32:39.574Z","date":"2026-02-27","time":"21:32:39","cor_ans":false},{"trial_type":"html-keyboard-response","rt":null,"stimulus":"<p style=\"color: red; font-size: 50px; font-weight: bold;\">Incorrect</p>","response":null,"trial_index":154,"plugin_version":"2.1.0","time_elapsed":330930,"subject_id":"91504","group":"Group1","condition":"1_Rep","full_date":"2026-02-27T21:32:39.574Z","date":"2026-02-27","time":"21:32:39"},{"correct_response":"a","task":"test_phase","broad_category":"S","image_png":"S_Chert_13.png","image_id":365,"category_name":"Chert","category":23,"distinct_rating":6.57,"distinct_type":"Top","item_type":"Foil","rt":1929,"stimulus":"Stimuli_Rocks480/S_Chert_13.png","response":"a","trial_type":"image-keyboard-response","trial_index":155,"plugin_version":"2.1.0","time_elapsed":332874,"subject_id":"91504","group":"Group1","condition":"1_Rep","full_date":"2026-02-27T21:32:39.574Z","date":"2026-02-27","time":"21:32:39","cor_ans":true},{"trial_type":"html-keyboard-response","rt":null,"stimulus":"<p style=\"color: green; font-size: 50px; font-weight: bold;\">Correct</p>","response":null,"trial_index":156,"plugin_version":"2.1.0","time_elapsed":333378,"subject_id":"91504","group":"Group1","condition":"1_Rep","full_date":"2026-02-27T21:32:39.574Z","date":"2026-02-27","time":"21:32:39"},{"correct_response":"l","task":"test_phase","broad_category":"M","image_png":"M_Marble_16.png","image_id":240,"category_name":"Marble","category":15,"distinct_rating":2.57,"distinct_type":"Bottom","item_type":"Target","rt":1327,"stimulus":"Stimuli_Rocks480/M_Marble_16.png","response":"a","trial_type":"image-keyboard-response","trial_index":157,"plugin_version":"2.1.0","time_elapsed":334723,"subject_id":"91504","group":"Group1","condition":"1_Rep","full_date":"2026-02-27T21:32:39.574Z","date":"2026-02-27","time":"21:32:39","cor_ans":false},{"trial_type":"html-keyboard-response","rt":null,"stimulus":"<p style=\"color: red; font-size: 50px; font-weight: bold;\">Incorrect</p>","response":null,"trial_index":158,"plugin_version":"2.1.0","time_elapsed":335225,"subject_id":"91504","group":"Group1","condition":"1_Rep","full_date":"2026-02-27T21:32:39.574Z","date":"2026-02-27","time":"21:32:39"},{"correct_response":"l","task":"test_phase","broad_category":"S","image_png":"S_Conglomerate_05.png","image_id":373,"category_name":"Conglomerate","category":24,"distinct_rating":7.32,"distinct_type":"Top","item_type":"Target","rt":3667,"stimulus":"Stimuli_Rocks480/S_Conglomerate_05.png","response":"l","trial_type":"image-keyboard-response","trial_index":159,"plugin_version":"2.1.0","time_elapsed":338912,"subject_id":"91504","group":"Group1","condition":"1_Rep","full_date":"2026-02-27T21:32:39.574Z","date":"2026-02-27","time":"21:32:39","cor_ans":true},{"trial_type":"html-keyboard-response","rt":null,"stimulus":"<p style=\"color: green; font-size: 50px; font-weight: bold;\">Correct</p>","response":null,"trial_index":160,"plugin_version":"2.1.0","time_elapsed":339415,"subject_id":"91504","group":"Group1","condition":"1_Rep","full_date":"2026-02-27T21:32:39.574Z","date":"2026-02-27","time":"21:32:39"},{"correct_response":"a","task":"test_phase","broad_category":"S","image_png":"S_Shale_03.png","image_id":467,"category_name":"Shale","category":30,"distinct_rating":1.95,"distinct_type":"Bottom","item_type":"Foil","rt":2632,"stimulus":"Stimuli_Rocks480/S_Shale_03.png","response":"l","trial_type":"image-keyboard-response","trial_index":161,"plugin_version":"2.1.0","time_elapsed":342070,"subject_id":"91504","group":"Group1","condition":"1_Rep","full_date":"2026-02-27T21:32:39.574Z","date":"2026-02-27","time":"21:32:39","cor_ans":false},{"trial_type":"html-keyboard-response","rt":null,"stimulus":"<p style=\"color: red; font-size: 50px; font-weight: bold;\">Incorrect</p>","response":null,"trial_index":162,"plugin_version":"2.1.0","time_elapsed":342572,"subject_id":"91504","group":"Group1","condition":"1_Rep","full_date":"2026-02-27T21:32:39.574Z","date":"2026-02-27","time":"21:32:39"},{"correct_response":"a","task":"test_phase","broad_category":"I","image_png":"I_Andesite_09.png","image_id":9,"category_name":"Andesite","category":1,"distinct_rating":2.49,"distinct_type":"Bottom","item_type":"Foil","rt":3173,"stimulus":"Stimuli_Rocks480/I_Andesite_09.png","response":"l","trial_type":"image-keyboard-response","trial_index":163,"plugin_version":"2.1.0","time_elapsed":345764,"subject_id":"91504","group":"Group1","condition":"1_Rep","full_date":"2026-02-27T21:32:39.574Z","date":"2026-02-27","time":"21:32:39","cor_ans":false},{"trial_type":"html-keyboard-response","rt":null,"stimulus":"<p style=\"color: red; font-size: 50px; font-weight: bold;\">Incorrect</p>","response":null,"trial_index":164,"plugin_version":"2.1.0","time_elapsed":346267,"subject_id":"91504","group":"Group1","condition":"1_Rep","full_date":"2026-02-27T21:32:39.574Z","date":"2026-02-27","time":"21:32:39"},{"correct_response":"l","task":"test_phase","broad_category":"M","image_png":"M_Phyllite_10.png","image_id":266,"category_name":"Phyllite","category":17,"distinct_rating":2.6,"distinct_type":"Bottom","item_type":"Target","rt":1268,"stimulus":"Stimuli_Rocks480/M_Phyllite_10.png","response":"a","trial_type":"image-keyboard-response","trial_index":165,"plugin_version":"2.1.0","time_elapsed":347553,"subject_id":"91504","group":"Group1","condition":"1_Rep","full_date":"2026-02-27T21:32:39.574Z","date":"2026-02-27","time":"21:32:39","cor_ans":false},{"trial_type":"html-keyboard-response","rt":null,"stimulus":"<p style=\"color: red; font-size: 50px; font-weight: bold;\">Incorrect</p>","response":null,"trial_index":166,"plugin_version":"2.1.0","time_elapsed":348056,"subject_id":"91504","group":"Group1","condition":"1_Rep","full_date":"2026-02-27T21:32:39.574Z","date":"2026-02-27","time":"21:32:39"},{"correct_response":"a","task":"test_phase","broad_category":"M","image_png":"M_Gneiss_14.png","image_id":206,"category_name":"Gneiss","category":13,"distinct_rating":3.41,"distinct_type":"Bottom","item_type":"Foil","rt":10838,"stimulus":"Stimuli_Rocks480/M_Gneiss_14.png","response":"a","trial_type":"image-keyboard-response","trial_index":167,"plugin_version":"2.1.0","time_elapsed":358916,"subject_id":"91504","group":"Group1","condition":"1_Rep","full_date":"2026-02-27T21:32:39.574Z","date":"2026-02-27","time":"21:32:39","cor_ans":true},{"trial_type":"html-keyboard-response","rt":null,"stimulus":"<p style=\"color: green; font-size: 50px; font-weight: bold;\">Correct</p>","response":null,"trial_index":168,"plugin_version":"2.1.0","time_elapsed":359419,"subject_id":"91504","group":"Group1","condition":"1_Rep","full_date":"2026-02-27T21:32:39.574Z","date":"2026-02-27","time":"21:32:39"},{"correct_response":"a","task":"test_phase","broad_category":"I","image_png":"I_Pumice_14.png","image_id":142,"category_name":"Pumice","category":9,"distinct_rating":3.22,"distinct_type":"Bottom","item_type":"Foil","rt":1806,"stimulus":"Stimuli_Rocks480/I_Pumice_14.png","response":"a","trial_type":"image-keyboard-response","trial_index":169,"plugin_version":"2.1.0","time_elapsed":361246,"subject_id":"91504","group":"Group1","condition":"1_Rep","full_date":"2026-02-27T21:32:39.574Z","date":"2026-02-27","time":"21:32:39","cor_ans":true},{"trial_type":"html-keyboard-response","rt":null,"stimulus":"<p style=\"color: green; font-size: 50px; font-weight: bold;\">Correct</p>","response":null,"trial_index":170,"plugin_version":"2.1.0","time_elapsed":361749,"subject_id":"91504","group":"Group1","condition":"1_Rep","full_date":"2026-02-27T21:32:39.574Z","date":"2026-02-27","time":"21:32:39"},{"correct_response":"l","task":"test_phase","broad_category":"I","image_png":"I_Pumice_11.png","image_id":139,"category_name":"Pumice","category":9,"distinct_rating":1.74,"distinct_type":"Bottom","item_type":"Target","rt":1419,"stimulus":"Stimuli_Rocks480/I_Pumice_11.png","response":"l","trial_type":"image-keyboard-response","trial_index":171,"plugin_version":"2.1.0","time_elapsed":363177,"subject_id":"91504","group":"Group1","condition":"1_Rep","full_date":"2026-02-27T21:32:39.574Z","date":"2026-02-27","time":"21:32:39","cor_ans":true},{"trial_type":"html-keyboard-response","rt":null,"stimulus":"<p style=\"color: green; font-size: 50px; font-weight: bold;\">Correct</p>","response":null,"trial_index":172,"plugin_version":"2.1.0","time_elapsed":363680,"subject_id":"91504","group":"Group1","condition":"1_Rep","full_date":"2026-02-27T21:32:39.574Z","date":"2026-02-27","time":"21:32:39"},{"correct_response":"l","task":"test_phase","broad_category":"M","image_png":"M_Slate_15.png","image_id":319,"category_name":"Slate","category":20,"distinct_rating":2.13,"distinct_type":"Bottom","item_type":"Target","rt":3420,"stimulus":"Stimuli_Rocks480/M_Slate_15.png","response":"l","trial_type":"image-keyboard-response","trial_index":173,"plugin_version":"2.1.0","time_elapsed":367113,"subject_id":"91504","group":"Group1","condition":"1_Rep","full_date":"2026-02-27T21:32:39.574Z","date":"2026-02-27","time":"21:32:39","cor_ans":true},{"trial_type":"html-keyboard-response","rt":null,"stimulus":"<p style=\"color: green; font-size: 50px; font-weight: bold;\">Correct</p>","response":null,"trial_index":174,"plugin_version":"2.1.0","time_elapsed":367617,"subject_id":"91504","group":"Group1","condition":"1_Rep","full_date":"2026-02-27T21:32:39.574Z","date":"2026-02-27","time":"21:32:39"},{"correct_response":"l","task":"test_phase","broad_category":"I","image_png":"I_Andesite_06.png","image_id":6,"category_name":"Andesite","category":1,"distinct_rating":3.17,"distinct_type":"Bottom","item_type":"Target","rt":1673,"stimulus":"Stimuli_Rocks480/I_Andesite_06.png","response":"l","trial_type":"image-keyboard-response","trial_index":175,"plugin_version":"2.1.0","time_elapsed":369311,"subject_id":"91504","group":"Group1","condition":"1_Rep","full_date":"2026-02-27T21:32:39.574Z","date":"2026-02-27","time":"21:32:39","cor_ans":true},{"trial_type":"html-keyboard-response","rt":null,"stimulus":"<p style=\"color: green; font-size: 50px; font-weight: bold;\">Correct</p>","response":null,"trial_index":176,"plugin_version":"2.1.0","time_elapsed":369814,"subject_id":"91504","group":"Group1","condition":"1_Rep","full_date":"2026-02-27T21:32:39.574Z","date":"2026-02-27","time":"21:32:39"},{"correct_response":"l","task":"test_phase","broad_category":"I","image_png":"I_Pegmatite_10.png","image_id":106,"category_name":"Pegmatite","category":7,"distinct_rating":7.66,"distinct_type":"Top","item_type":"Target","rt":912,"stimulus":"Stimuli_Rocks480/I_Pegmatite_10.png","response":"a","trial_type":"image-keyboard-response","trial_index":177,"plugin_version":"2.1.0","time_elapsed":370741,"subject_id":"91504","group":"Group1","condition":"1_Rep","full_date":"2026-02-27T21:32:39.574Z","date":"2026-02-27","time":"21:32:39","cor_ans":false},{"trial_type":"html-keyboard-response","rt":null,"stimulus":"<p style=\"color: red; font-size: 50px; font-weight: bold;\">Incorrect</p>","response":null,"trial_index":178,"plugin_version":"2.1.0","time_elapsed":371244,"subject_id":"91504","group":"Group1","condition":"1_Rep","full_date":"2026-02-27T21:32:39.574Z","date":"2026-02-27","time":"21:32:39"},{"correct_response":"l","task":"test_phase","broad_category":"M","image_png":"M_Phyllite_03.png","image_id":259,"category_name":"Phyllite","category":17,"distinct_rating":2.5,"distinct_type":"Bottom","item_type":"Target","rt":2487,"stimulus":"Stimuli_Rocks480/M_Phyllite_03.png","response":"a","trial_type":"image-keyboard-response","trial_index":179,"plugin_version":"2.1.0","time_elapsed":373754,"subject_id":"91504","group":"Group1","condition":"1_Rep","full_date":"2026-02-27T21:32:39.574Z","date":"2026-02-27","time":"21:32:39","cor_ans":false},{"trial_type":"html-keyboard-response","rt":null,"stimulus":"<p style=\"color: red; font-size: 50px; font-weight: bold;\">Incorrect</p>","response":null,"trial_index":180,"plugin_version":"2.1.0","time_elapsed":374257,"subject_id":"91504","group":"Group1","condition":"1_Rep","full_date":"2026-02-27T21:32:39.574Z","date":"2026-02-27","time":"21:32:39"},{"correct_response":"a","task":"test_phase","broad_category":"I","image_png":"I_Gabbro_02.png","image_id":50,"category_name":"Gabbro","category":4,"distinct_rating":2.73,"distinct_type":"Bottom","item_type":"Foil","rt":2818,"stimulus":"Stimuli_Rocks480/I_Gabbro_02.png","response":"a","trial_type":"image-keyboard-response","trial_index":181,"plugin_version":"2.1.0","time_elapsed":377092,"subject_id":"91504","group":"Group1","condition":"1_Rep","full_date":"2026-02-27T21:32:39.574Z","date":"2026-02-27","time":"21:32:39","cor_ans":true},{"trial_type":"html-keyboard-response","rt":null,"stimulus":"<p style=\"color: green; font-size: 50px; font-weight: bold;\">Correct</p>","response":null,"trial_index":182,"plugin_version":"2.1.0","time_elapsed":377596,"subject_id":"91504","group":"Group1","condition":"1_Rep","full_date":"2026-02-27T21:32:39.574Z","date":"2026-02-27","time":"21:32:39"},{"correct_response":"l","task":"test_phase","broad_category":"I","image_png":"I_Basalt_09.png","image_id":25,"category_name":"Basalt","category":2,"distinct_rating":1.89,"distinct_type":"Bottom","item_type":"Target","rt":1074,"stimulus":"Stimuli_Rocks480/I_Basalt_09.png","response":"l","trial_type":"image-keyboard-response","trial_index":183,"plugin_version":"2.1.0","time_elapsed":378687,"subject_id":"91504","group":"Group1","condition":"1_Rep","full_date":"2026-02-27T21:32:39.574Z","date":"2026-02-27","time":"21:32:39","cor_ans":true},{"trial_type":"html-keyboard-response","rt":null,"stimulus":"<p style=\"color: green; font-size: 50px; font-weight: bold;\">Correct</p>","response":null,"trial_index":184,"plugin_version":"2.1.0","time_elapsed":379191,"subject_id":"91504","group":"Group1","condition":"1_Rep","full_date":"2026-02-27T21:32:39.574Z","date":"2026-02-27","time":"21:32:39"},{"correct_response":"a","task":"test_phase","broad_category":"S","image_png":"S_Sandstone_11.png","image_id":459,"category_name":"Sandstone","category":29,"distinct_rating":1.82,"distinct_type":"Bottom","item_type":"Foil","rt":2137,"stimulus":"Stimuli_Rocks480/S_Sandstone_11.png","response":"a","trial_type":"image-keyboard-response","trial_index":185,"plugin_version":"2.1.0","time_elapsed":381354,"subject_id":"91504","group":"Group1","condition":"1_Rep","full_date":"2026-02-27T21:32:39.574Z","date":"2026-02-27","time":"21:32:39","cor_ans":true},{"trial_type":"html-keyboard-response","rt":null,"stimulus":"<p style=\"color: green; font-size: 50px; font-weight: bold;\">Correct</p>","response":null,"trial_index":186,"plugin_version":"2.1.0","time_elapsed":381858,"subject_id":"91504","group":"Group1","condition":"1_Rep","full_date":"2026-02-27T21:32:39.574Z","date":"2026-02-27","time":"21:32:39"},{"correct_response":"a","task":"test_phase","broad_category":"M","image_png":"M_Gneiss_10.png","image_id":202,"category_name":"Gneiss","category":13,"distinct_rating":3.09,"distinct_type":"Bottom","item_type":"Foil","rt":1428,"stimulus":"Stimuli_Rocks480/M_Gneiss_10.png","response":"l","trial_type":"image-keyboard-response","trial_index":187,"plugin_version":"2.1.0","time_elapsed":383307,"subject_id":"91504","group":"Group1","condition":"1_Rep","full_date":"2026-02-27T21:32:39.574Z","date":"2026-02-27","time":"21:32:39","cor_ans":false},{"trial_type":"html-keyboard-response","rt":null,"stimulus":"<p style=\"color: red; font-size: 50px; font-weight: bold;\">Incorrect</p>","response":null,"trial_index":188,"plugin_version":"2.1.0","time_elapsed":383810,"subject_id":"91504","group":"Group1","condition":"1_Rep","full_date":"2026-02-27T21:32:39.574Z","date":"2026-02-27","time":"21:32:39"},{"correct_response":"l","task":"test_phase","broad_category":"M","image_png":"M_Quartzite_05.png","image_id":277,"category_name":"Quartzite","category":18,"distinct_rating":2.23,"distinct_type":"Bottom","item_type":"Target","rt":881,"stimulus":"Stimuli_Rocks480/M_Quartzite_05.png","response":"l","trial_type":"image-keyboard-response","trial_index":189,"plugin_version":"2.1.0","time_elapsed":384715,"subject_id":"91504","group":"Group1","condition":"1_Rep","full_date":"2026-02-27T21:32:39.574Z","date":"2026-02-27","time":"21:32:39","cor_ans":true},{"trial_type":"html-keyboard-response","rt":null,"stimulus":"<p style=\"color: green; font-size: 50px; font-weight: bold;\">Correct</p>","response":null,"trial_index":190,"plugin_version":"2.1.0","time_elapsed":385218,"subject_id":"91504","group":"Group1","condition":"1_Rep","full_date":"2026-02-27T21:32:39.574Z","date":"2026-02-27","time":"21:32:39"},{"correct_response":"l","task":"test_phase","broad_category":"I","image_png":"I_Gabbro_08.png","image_id":56,"category_name":"Gabbro","category":4,"distinct_rating":3.02,"distinct_type":"Bottom","item_type":"Target","rt":671,"stimulus":"Stimuli_Rocks480/I_Gabbro_08.png","response":"a","trial_type":"image-keyboard-response","trial_index":191,"plugin_version":"2.1.0","time_elapsed":385903,"subject_id":"91504","group":"Group1","condition":"1_Rep","full_date":"2026-02-27T21:32:39.574Z","date":"2026-02-27","time":"21:32:39","cor_ans":false},{"trial_type":"html-keyboard-response","rt":null,"stimulus":"<p style=\"color: red; font-size: 50px; font-weight: bold;\">Incorrect</p>","response":null,"trial_index":192,"plugin_version":"2.1.0","time_elapsed":386406,"subject_id":"91504","group":"Group1","condition":"1_Rep","full_date":"2026-02-27T21:32:39.574Z","date":"2026-02-27","time":"21:32:39"},{"correct_response":"a","task":"test_phase","broad_category":"M","image_png":"M_Slate_04.png","image_id":308,"category_name":"Slate","category":20,"distinct_rating":2.2,"distinct_type":"Bottom","item_type":"Foil","rt":1205,"stimulus":"Stimuli_Rocks480/M_Slate_04.png","response":"l","trial_type":"image-keyboard-response","trial_index":193,"plugin_version":"2.1.0","time_elapsed":387626,"subject_id":"91504","group":"Group1","condition":"1_Rep","full_date":"2026-02-27T21:32:39.574Z","date":"2026-02-27","time":"21:32:39","cor_ans":false},{"trial_type":"html-keyboard-response","rt":null,"stimulus":"<p style=\"color: red; font-size: 50px; font-weight: bold;\">Incorrect</p>","response":null,"trial_index":194,"plugin_version":"2.1.0","time_elapsed":388129,"subject_id":"91504","group":"Group1","condition":"1_Rep","full_date":"2026-02-27T21:32:39.574Z","date":"2026-02-27","time":"21:32:39"},{"correct_response":"l","task":"test_phase","broad_category":"I","image_png":"I_Rhyolite_11.png","image_id":155,"category_name":"Rhyolite","category":10,"distinct_rating":1.73,"distinct_type":"Bottom","item_type":"Target","rt":2420,"stimulus":"Stimuli_Rocks480/I_Rhyolite_11.png","response":"a","trial_type":"image-keyboard-response","trial_index":195,"plugin_version":"2.1.0","time_elapsed":390565,"subject_id":"91504","group":"Group1","condition":"1_Rep","full_date":"2026-02-27T21:32:39.574Z","date":"2026-02-27","time":"21:32:39","cor_ans":false},{"trial_type":"html-keyboard-response","rt":null,"stimulus":"<p style=\"color: red; font-size: 50px; font-weight: bold;\">Incorrect</p>","response":null,"trial_index":196,"plugin_version":"2.1.0","time_elapsed":391068,"subject_id":"91504","group":"Group1","condition":"1_Rep","full_date":"2026-02-27T21:32:39.574Z","date":"2026-02-27","time":"21:32:39"},{"correct_response":"l","task":"test_phase","broad_category":"M","image_png":"M_Slate_11.png","image_id":315,"category_name":"Slate","category":20,"distinct_rating":2.75,"distinct_type":"Bottom","item_type":"Target","rt":2058,"stimulus":"Stimuli_Rocks480/M_Slate_11.png","response":"a","trial_type":"image-keyboard-response","trial_index":197,"plugin_version":"2.1.0","time_elapsed":393142,"subject_id":"91504","group":"Group1","condition":"1_Rep","full_date":"2026-02-27T21:32:39.574Z","date":"2026-02-27","time":"21:32:39","cor_ans":false},{"trial_type":"html-keyboard-response","rt":null,"stimulus":"<p style=\"color: red; font-size: 50px; font-weight: bold;\">Incorrect</p>","response":null,"trial_index":198,"plugin_version":"2.1.0","time_elapsed":393645,"subject_id":"91504","group":"Group1","condition":"1_Rep","full_date":"2026-02-27T21:32:39.574Z","date":"2026-02-27","time":"21:32:39"},{"correct_response":"a","task":"test_phase","broad_category":"I","image_png":"I_Rhyolite_08.png","image_id":152,"category_name":"Rhyolite","category":10,"distinct_rating":1.38,"distinct_type":"Bottom","item_type":"Foil","rt":9574,"stimulus":"Stimuli_Rocks480/I_Rhyolite_08.png","response":"l","trial_type":"image-keyboard-response","trial_index":199,"plugin_version":"2.1.0","time_elapsed":403236,"subject_id":"91504","group":"Group1","condition":"1_Rep","full_date":"2026-02-27T21:32:39.574Z","date":"2026-02-27","time":"21:32:39","cor_ans":false},{"trial_type":"html-keyboard-response","rt":null,"stimulus":"<p style=\"color: red; font-size: 50px; font-weight: bold;\">Incorrect</p>","response":null,"trial_index":200,"plugin_version":"2.1.0","time_elapsed":403739,"subject_id":"91504","group":"Group1","condition":"1_Rep","full_date":"2026-02-27T21:32:39.574Z","date":"2026-02-27","time":"21:32:39"},{"correct_response":"a","task":"test_phase","broad_category":"S","image_png":"S_Sandstone_08.png","image_id":456,"category_name":"Sandstone","category":29,"distinct_rating":1.5,"distinct_type":"Bottom","item_type":"Foil","rt":1409,"stimulus":"Stimuli_Rocks480/S_Sandstone_08.png","response":"a","trial_type":"image-keyboard-response","trial_index":201,"plugin_version":"2.1.0","time_elapsed":405169,"subject_id":"91504","group":"Group1","condition":"1_Rep","full_date":"2026-02-27T21:32:39.574Z","date":"2026-02-27","time":"21:32:39","cor_ans":true},{"trial_type":"html-keyboard-response","rt":null,"stimulus":"<p style=\"color: green; font-size: 50px; font-weight: bold;\">Correct</p>","response":null,"trial_index":202,"plugin_version":"2.1.0","time_elapsed":405672,"subject_id":"91504","group":"Group1","condition":"1_Rep","full_date":"2026-02-27T21:32:39.574Z","date":"2026-02-27","time":"21:32:39"},{"correct_response":"l","task":"test_phase","broad_category":"M","image_png":"M_Quartzite_13.png","image_id":285,"category_name":"Quartzite","category":18,"distinct_rating":2.27,"distinct_type":"Bottom","item_type":"Target","rt":3040,"stimulus":"Stimuli_Rocks480/M_Quartzite_13.png","response":"a","trial_type":"image-keyboard-response","trial_index":203,"plugin_version":"2.1.0","time_elapsed":408731,"subject_id":"91504","group":"Group1","condition":"1_Rep","full_date":"2026-02-27T21:32:39.574Z","date":"2026-02-27","time":"21:32:39","cor_ans":false},{"trial_type":"html-keyboard-response","rt":null,"stimulus":"<p style=\"color: red; font-size: 50px; font-weight: bold;\">Incorrect</p>","response":null,"trial_index":204,"plugin_version":"2.1.0","time_elapsed":409234,"subject_id":"91504","group":"Group1","condition":"1_Rep","full_date":"2026-02-27T21:32:39.574Z","date":"2026-02-27","time":"21:32:39"},{"correct_response":"l","task":"test_phase","broad_category":"M","image_png":"M_Gneiss_13.png","image_id":205,"category_name":"Gneiss","category":13,"distinct_rating":3.26,"distinct_type":"Bottom","item_type":"Target","rt":2894,"stimulus":"Stimuli_Rocks480/M_Gneiss_13.png","response":"l","trial_type":"image-keyboard-response","trial_index":205,"plugin_version":"2.1.0","time_elapsed":412147,"subject_id":"91504","group":"Group1","condition":"1_Rep","full_date":"2026-02-27T21:32:39.574Z","date":"2026-02-27","time":"21:32:39","cor_ans":true},{"trial_type":"html-keyboard-response","rt":null,"stimulus":"<p style=\"color: green; font-size: 50px; font-weight: bold;\">Correct</p>","response":null,"trial_index":206,"plugin_version":"2.1.0","time_elapsed":412651,"subject_id":"91504","group":"Group1","condition":"1_Rep","full_date":"2026-02-27T21:32:39.574Z","date":"2026-02-27","time":"21:32:39"},{"correct_response":"l","task":"test_phase","broad_category":"S","image_png":"S_Shale_01.png","image_id":465,"category_name":"Shale","category":30,"distinct_rating":2.7,"distinct_type":"Bottom","item_type":"Target","rt":3116,"stimulus":"Stimuli_Rocks480/S_Shale_01.png","response":"a","trial_type":"image-keyboard-response","trial_index":207,"plugin_version":"2.1.0","time_elapsed":415785,"subject_id":"91504","group":"Group1","condition":"1_Rep","full_date":"2026-02-27T21:32:39.574Z","date":"2026-02-27","time":"21:32:39","cor_ans":false},{"trial_type":"html-keyboard-response","rt":null,"stimulus":"<p style=\"color: red; font-size: 50px; font-weight: bold;\">Incorrect</p>","response":null,"trial_index":208,"plugin_version":"2.1.0","time_elapsed":416289,"subject_id":"91504","group":"Group1","condition":"1_Rep","full_date":"2026-02-27T21:32:39.574Z","date":"2026-02-27","time":"21:32:39"},{"correct_response":"l","task":"test_phase","broad_category":"I","image_png":"I_Basalt_01.png","image_id":17,"category_name":"Basalt","category":2,"distinct_rating":1.92,"distinct_type":"Bottom","item_type":"Target","rt":1510,"stimulus":"Stimuli_Rocks480/I_Basalt_01.png","response":"l","trial_type":"image-keyboard-response","trial_index":209,"plugin_version":"2.1.0","time_elapsed":417823,"subject_id":"91504","group":"Group1","condition":"1_Rep","full_date":"2026-02-27T21:32:39.574Z","date":"2026-02-27","time":"21:32:39","cor_ans":true},{"trial_type":"html-keyboard-response","rt":null,"stimulus":"<p style=\"color: green; font-size: 50px; font-weight: bold;\">Correct</p>","response":null,"trial_index":210,"plugin_version":"2.1.0","time_elapsed":418326,"subject_id":"91504","group":"Group1","condition":"1_Rep","full_date":"2026-02-27T21:32:39.574Z","date":"2026-02-27","time":"21:32:39"},{"correct_response":"a","task":"test_phase","broad_category":"M","image_png":"M_Quartzite_15.png","image_id":287,"category_name":"Quartzite","category":18,"distinct_rating":2.19,"distinct_type":"Bottom","item_type":"Foil","rt":1123,"stimulus":"Stimuli_Rocks480/M_Quartzite_15.png","response":"l","trial_type":"image-keyboard-response","trial_index":211,"plugin_version":"2.1.0","time_elapsed":419471,"subject_id":"91504","group":"Group1","condition":"1_Rep","full_date":"2026-02-27T21:32:39.574Z","date":"2026-02-27","time":"21:32:39","cor_ans":false},{"trial_type":"html-keyboard-response","rt":null,"stimulus":"<p style=\"color: red; font-size: 50px; font-weight: bold;\">Incorrect</p>","response":null,"trial_index":212,"plugin_version":"2.1.0","time_elapsed":419974,"subject_id":"91504","group":"Group1","condition":"1_Rep","full_date":"2026-02-27T21:32:39.574Z","date":"2026-02-27","time":"21:32:39"},{"correct_response":"a","task":"test_phase","broad_category":"I","image_png":"I_Andesite_04.png","image_id":4,"category_name":"Andesite","category":1,"distinct_rating":3.18,"distinct_type":"Bottom","item_type":"Foil","rt":3073,"stimulus":"Stimuli_Rocks480/I_Andesite_04.png","response":"l","trial_type":"image-keyboard-response","trial_index":213,"plugin_version":"2.1.0","time_elapsed":423066,"subject_id":"91504","group":"Group1","condition":"1_Rep","full_date":"2026-02-27T21:32:39.574Z","date":"2026-02-27","time":"21:32:39","cor_ans":false},{"trial_type":"html-keyboard-response","rt":null,"stimulus":"<p style=\"color: red; font-size: 50px; font-weight: bold;\">Incorrect</p>","response":null,"trial_index":214,"plugin_version":"2.1.0","time_elapsed":423569,"subject_id":"91504","group":"Group1","condition":"1_Rep","full_date":"2026-02-27T21:32:39.574Z","date":"2026-02-27","time":"21:32:39"},{"correct_response":"l","task":"test_phase","broad_category":"I","image_png":"I_Pegmatite_16.png","image_id":112,"category_name":"Pegmatite","category":7,"distinct_rating":7.03,"distinct_type":"Top","item_type":"Target","rt":1182,"stimulus":"Stimuli_Rocks480/I_Pegmatite_16.png","response":"l","trial_type":"image-keyboard-response","trial_index":215,"plugin_version":"2.1.0","time_elapsed":424774,"subject_id":"91504","group":"Group1","condition":"1_Rep","full_date":"2026-02-27T21:32:39.574Z","date":"2026-02-27","time":"21:32:39","cor_ans":true},{"trial_type":"html-keyboard-response","rt":null,"stimulus":"<p style=\"color: green; font-size: 50px; font-weight: bold;\">Correct</p>","response":null,"trial_index":216,"plugin_version":"2.1.0","time_elapsed":425278,"subject_id":"91504","group":"Group1","condition":"1_Rep","full_date":"2026-02-27T21:32:39.574Z","date":"2026-02-27","time":"21:32:39"},{"correct_response":"l","task":"test_phase","broad_category":"M","image_png":"M_Gneiss_05.png","image_id":197,"category_name":"Gneiss","category":13,"distinct_rating":2.97,"distinct_type":"Bottom","item_type":"Target","rt":1615,"stimulus":"Stimuli_Rocks480/M_Gneiss_05.png","response":"a","trial_type":"image-keyboard-response","trial_index":217,"plugin_version":"2.1.0","time_elapsed":426922,"subject_id":"91504","group":"Group1","condition":"1_Rep","full_date":"2026-02-27T21:32:39.574Z","date":"2026-02-27","time":"21:32:39","cor_ans":false},{"trial_type":"html-keyboard-response","rt":null,"stimulus":"<p style=\"color: red; font-size: 50px; font-weight: bold;\">Incorrect</p>","response":null,"trial_index":218,"plugin_version":"2.1.0","time_elapsed":427425,"subject_id":"91504","group":"Group1","condition":"1_Rep","full_date":"2026-02-27T21:32:39.574Z","date":"2026-02-27","time":"21:32:39"},{"correct_response":"l","task":"test_phase","broad_category":"M","image_png":"M_Slate_03.png","image_id":307,"category_name":"Slate","category":20,"distinct_rating":1.87,"distinct_type":"Bottom","item_type":"Target","rt":4538,"stimulus":"Stimuli_Rocks480/M_Slate_03.png","response":"a","trial_type":"image-keyboard-response","trial_index":219,"plugin_version":"2.1.0","time_elapsed":431985,"subject_id":"91504","group":"Group1","condition":"1_Rep","full_date":"2026-02-27T21:32:39.574Z","date":"2026-02-27","time":"21:32:39","cor_ans":false},{"trial_type":"html-keyboard-response","rt":null,"stimulus":"<p style=\"color: red; font-size: 50px; font-weight: bold;\">Incorrect</p>","response":null,"trial_index":220,"plugin_version":"2.1.0","time_elapsed":432489,"subject_id":"91504","group":"Group1","condition":"1_Rep","full_date":"2026-02-27T21:32:39.574Z","date":"2026-02-27","time":"21:32:39"},{"correct_response":"a","task":"test_phase","broad_category":"I","image_png":"I_Pumice_13.png","image_id":141,"category_name":"Pumice","category":9,"distinct_rating":3.12,"distinct_type":"Bottom","item_type":"Foil","rt":1926,"stimulus":"Stimuli_Rocks480/I_Pumice_13.png","response":"a","trial_type":"image-keyboard-response","trial_index":221,"plugin_version":"2.1.0","time_elapsed":434437,"subject_id":"91504","group":"Group1","condition":"1_Rep","full_date":"2026-02-27T21:32:39.574Z","date":"2026-02-27","time":"21:32:39","cor_ans":true},{"trial_type":"html-keyboard-response","rt":null,"stimulus":"<p style=\"color: green; font-size: 50px; font-weight: bold;\">Correct</p>","response":null,"trial_index":222,"plugin_version":"2.1.0","time_elapsed":434940,"subject_id":"91504","group":"Group1","condition":"1_Rep","full_date":"2026-02-27T21:32:39.574Z","date":"2026-02-27","time":"21:32:39"},{"correct_response":"a","task":"test_phase","broad_category":"M","image_png":"M_Slate_14.png","image_id":318,"category_name":"Slate","category":20,"distinct_rating":2.58,"distinct_type":"Bottom","item_type":"Foil","rt":1831,"stimulus":"Stimuli_Rocks480/M_Slate_14.png","response":"l","trial_type":"image-keyboard-response","trial_index":223,"plugin_version":"2.1.0","time_elapsed":436786,"subject_id":"91504","group":"Group1","condition":"1_Rep","full_date":"2026-02-27T21:32:39.574Z","date":"2026-02-27","time":"21:32:39","cor_ans":false},{"trial_type":"html-keyboard-response","rt":null,"stimulus":"<p style=\"color: red; font-size: 50px; font-weight: bold;\">Incorrect</p>","response":null,"trial_index":224,"plugin_version":"2.1.0","time_elapsed":437290,"subject_id":"91504","group":"Group1","condition":"1_Rep","full_date":"2026-02-27T21:32:39.574Z","date":"2026-02-27","time":"21:32:39"},{"correct_response":"a","task":"test