[{"width":1376,"height":900,"webaudio":true,"browser":"safari","browser_version":"26.4.0","mobile":false,"os":"Mac OS","fullscreen":true,"vsync_rate":61.54,"webcam":true,"microphone":true,"trial_type":"browser-check","trial_index":0,"plugin_version":"2.1.0","time_elapsed":979,"subject_id":"90890","group":"Group2","condition":"1_Rep","full_date":"2026-03-05T18:52:00.750Z","date":"2026-03-05","time":"18:52:00"},{"success":true,"timeout":false,"failed_images":[],"failed_audio":[],"failed_video":[],"trial_type":"preload","trial_index":1,"plugin_version":"2.1.0","time_elapsed":5704,"subject_id":"90890","group":"Group2","condition":"1_Rep","full_date":"2026-03-05T18:52:00.750Z","date":"2026-03-05","time":"18:52:00"},{"rt":8905,"url":"SONA_consent_memorability.html","trial_type":"external-html","trial_index":2,"plugin_version":"2.1.0","time_elapsed":14679,"subject_id":"90890","group":"Group2","condition":"1_Rep","full_date":"2026-03-05T18:52:00.750Z","date":"2026-03-05","time":"18:52:00"},{"success":true,"rt":2062,"trial_type":"fullscreen","trial_index":3,"plugin_version":"2.1.0","time_elapsed":17747,"subject_id":"90890","group":"Group2","condition":"1_Rep","full_date":"2026-03-05T18:52:00.750Z","date":"2026-03-05","time":"18:52:00"},{"rt":2112,"stimulus":"<div style=\"max-width: 760px; margin: auto; font-size: 20px; line-height: 1.5;\">\n      <h1 style=\"text-align:center; font-size: 30px;\">Instructions</h1>\n      <p>\n        Welcome to the study on <b>visual memory</b>. This experiment consists of <b>two phases</b>: \n        a <b>study phase</b> and a <b>test phase</b>.\n      </p>\n      <p>\n        In the study phase, you will see a series of rock images along with their category labels.\n        The images will appear one at a time.\n        <b>Your task</b> is to learn the categories to which the rock images belong \n        and to remember each image as accurately as possible.\n      </p> \n      <p>\n        Note that you will see each image only <b>once</b> during the study phase. \n          So, please pay close attention and try to remember each image carefully.\n      </p>\n      <p>\n        After the study phase, <b>your memory will be tested</b>. \n        Additional instructions for the test phase will be provided at that time.\n      </p>\n      <p>\n        If your computer has multiple <b>language settings</b> (e.g., English and another language),\n        please make sure it is set to English before starting.\n      </p>\n      <p>\n        You can track your progress using the <b>completion bar</b> at the top of the screen. \n        Please note that the bar will refresh when the test phase begins \n        to give you an accurate sense of your progress in both phases.\n      </p> \n      <p>\n        Press the button below when you are ready to begin.\n      </p>\n    </div>","response":0,"trial_type":"html-button-response","trial_index":4,"plugin_version":"2.1.0","time_elapsed":19861,"subject_id":"90890","group":"Group2","condition":"1_Rep","full_date":"2026-03-05T18:52:00.750Z","date":"2026-03-05","time":"18:52:00"},{"rt":null,"stimulus":"<p style=\"font-size: 50px; margin: 0; text-align: center;\">+</p>","response":null,"trial_type":"html-keyboard-response","trial_index":5,"plugin_version":"2.1.0","time_elapsed":20866,"subject_id":"90890","group":"Group2","condition":"1_Rep","full_date":"2026-03-05T18:52:00.750Z","date":"2026-03-05","time":"18:52:00"},{"task":"memory_phase","broad_category":"M","image_png":"M_Phyllite_02.png","image_id":258,"category_name":"Phyllite","category":17,"distinct_rating":2.89,"distinct_type":"Bottom","rt":null,"stimulus":"Stimuli_Rocks480/M_Phyllite_02.png","response":null,"trial_type":"image-keyboard-response","trial_index":6,"plugin_version":"2.1.0","time_elapsed":23384,"subject_id":"90890","group":"Group2","condition":"1_Rep","full_date":"2026-03-05T18:52:00.750Z","date":"2026-03-05","time":"18:52:00"},{"rt":null,"stimulus":"<p style=\"font-size: 50px; margin: 0; text-align: center;\">+</p>","response":null,"trial_type":"html-keyboard-response","trial_index":7,"plugin_version":"2.1.0","time_elapsed":24387,"subject_id":"90890","group":"Group2","condition":"1_Rep","full_date":"2026-03-05T18:52:00.750Z","date":"2026-03-05","time":"18:52:00"},{"task":"memory_phase","broad_category":"S","image_png":"S_Sandstone_04.png","image_id":452,"category_name":"Sandstone","category":29,"distinct_rating":1.8,"distinct_type":"Bottom","rt":null,"stimulus":"Stimuli_Rocks480/S_Sandstone_04.png","response":null,"trial_type":"image-keyboard-response","trial_index":8,"plugin_version":"2.1.0","time_elapsed":26903,"subject_id":"90890","group":"Group2","condition":"1_Rep","full_date":"2026-03-05T18:52:00.750Z","date":"2026-03-05","time":"18:52:00"},{"rt":null,"stimulus":"<p style=\"font-size: 50px; margin: 0; text-align: center;\">+</p>","response":null,"trial_type":"html-keyboard-response","trial_index":9,"plugin_version":"2.1.0","time_elapsed":27905,"subject_id":"90890","group":"Group2","condition":"1_Rep","full_date":"2026-03-05T18:52:00.750Z","date":"2026-03-05","time":"18:52:00"},{"task":"memory_phase","broad_category":"I","image_png":"I_Andesite_04.png","image_id":4,"category_name":"Andesite","category":1,"distinct_rating":3.18,"distinct_type":"Bottom","rt":null,"stimulus":"Stimuli_Rocks480/I_Andesite_04.png","response":null,"trial_type":"image-keyboard-response","trial_index":10,"plugin_version":"2.1.0","time_elapsed":30421,"subject_id":"90890","group":"Group2","condition":"1_Rep","full_date":"2026-03-05T18:52:00.750Z","date":"2026-03-05","time":"18:52:00"},{"rt":null,"stimulus":"<p style=\"font-size: 50px; margin: 0; text-align: center;\">+</p>","response":null,"trial_type":"html-keyboard-response","trial_index":11,"plugin_version":"2.1.0","time_elapsed":31424,"subject_id":"90890","group":"Group2","condition":"1_Rep","full_date":"2026-03-05T18:52:00.750Z","date":"2026-03-05","time":"18:52:00"},{"task":"memory_phase","broad_category":"I","image_png":"I_Andesite_09.png","image_id":9,"category_name":"Andesite","category":1,"distinct_rating":2.49,"distinct_type":"Bottom","rt":null,"stimulus":"Stimuli_Rocks480/I_Andesite_09.png","response":null,"trial_type":"image-keyboard-response","trial_index":12,"plugin_version":"2.1.0","time_elapsed":33940,"subject_id":"90890","group":"Group2","condition":"1_Rep","full_date":"2026-03-05T18:52:00.750Z","date":"2026-03-05","time":"18:52:00"},{"rt":null,"stimulus":"<p style=\"font-size: 50px; margin: 0; text-align: center;\">+</p>","response":null,"trial_type":"html-keyboard-response","trial_index":13,"plugin_version":"2.1.0","time_elapsed":34943,"subject_id":"90890","group":"Group2","condition":"1_Rep","full_date":"2026-03-05T18:52:00.750Z","date":"2026-03-05","time":"18:52:00"},{"task":"memory_phase","broad_category":"M","image_png":"M_Quartzite_07.png","image_id":279,"category_name":"Quartzite","category":18,"distinct_rating":1.97,"distinct_type":"Bottom","rt":null,"stimulus":"Stimuli_Rocks480/M_Quartzite_07.png","response":null,"trial_type":"image-keyboard-response","trial_index":14,"plugin_version":"2.1.0","time_elapsed":37461,"subject_id":"90890","group":"Group2","condition":"1_Rep","full_date":"2026-03-05T18:52:00.750Z","date":"2026-03-05","time":"18:52:00"},{"rt":null,"stimulus":"<p style=\"font-size: 50px; margin: 0; text-align: center;\">+</p>","response":null,"trial_type":"html-keyboard-response","trial_index":15,"plugin_version":"2.1.0","time_elapsed":38464,"subject_id":"90890","group":"Group2","condition":"1_Rep","full_date":"2026-03-05T18:52:00.750Z","date":"2026-03-05","time":"18:52:00"},{"task":"memory_phase","broad_category":"M","image_png":"M_Quartzite_12.png","image_id":284,"category_name":"Quartzite","category":18,"distinct_rating":1.92,"distinct_type":"Bottom","rt":null,"stimulus":"Stimuli_Rocks480/M_Quartzite_12.png","response":null,"trial_type":"image-keyboard-response","trial_index":16,"plugin_version":"2.1.0","time_elapsed":40980,"subject_id":"90890","group":"Group2","condition":"1_Rep","full_date":"2026-03-05T18:52:00.750Z","date":"2026-03-05","time":"18:52:00"},{"rt":null,"stimulus":"<p style=\"font-size: 50px; margin: 0; text-align: center;\">+</p>","response":null,"trial_type":"html-keyboard-response","trial_index":17,"plugin_version":"2.1.0","time_elapsed":41984,"subject_id":"90890","group":"Group2","condition":"1_Rep","full_date":"2026-03-05T18:52:00.750Z","date":"2026-03-05","time":"18:52:00"},{"task":"memory_phase","broad_category":"M","image_png":"M_Gneiss_14.png","image_id":206,"category_name":"Gneiss","category":13,"distinct_rating":3.41,"distinct_type":"Bottom","rt":null,"stimulus":"Stimuli_Rocks480/M_Gneiss_14.png","response":null,"trial_type":"image-keyboard-response","trial_index":18,"plugin_version":"2.1.0","time_elapsed":44500,"subject_id":"90890","group":"Group2","condition":"1_Rep","full_date":"2026-03-05T18:52:00.750Z","date":"2026-03-05","time":"18:52:00"},{"rt":null,"stimulus":"<p style=\"font-size: 50px; margin: 0; text-align: center;\">+</p>","response":null,"trial_type":"html-keyboard-response","trial_index":19,"plugin_version":"2.1.0","time_elapsed":45504,"subject_id":"90890","group":"Group2","condition":"1_Rep","full_date":"2026-03-05T18:52:00.750Z","date":"2026-03-05","time":"18:52:00"},{"task":"memory_phase","broad_category":"S","image_png":"S_Conglomerate_14.png","image_id":382,"category_name":"Conglomerate","category":24,"distinct_rating":6.86,"distinct_type":"Top","rt":null,"stimulus":"Stimuli_Rocks480/S_Conglomerate_14.png","response":null,"trial_type":"image-keyboard-response","trial_index":20,"plugin_version":"2.1.0","time_elapsed":48016,"subject_id":"90890","group":"Group2","condition":"1_Rep","full_date":"2026-03-05T18:52:00.750Z","date":"2026-03-05","time":"18:52:00"},{"rt":null,"stimulus":"<p style=\"font-size: 50px; margin: 0; text-align: center;\">+</p>","response":null,"trial_type":"html-keyboard-response","trial_index":21,"plugin_version":"2.1.0","time_elapsed":49020,"subject_id":"90890","group":"Group2","condition":"1_Rep","full_date":"2026-03-05T18:52:00.750Z","date":"2026-03-05","time":"18:52:00"},{"task":"memory_phase","broad_category":"S","image_png":"S_Rock Salt_15.png","image_id":447,"category_name":"Rock Salt","category":28,"distinct_rating":7.79,"distinct_type":"Top","rt":null,"stimulus":"Stimuli_Rocks480/S_Rock Salt_15.png","response":null,"trial_type":"image-keyboard-response","trial_index":22,"plugin_version":"2.1.0","time_elapsed":51536,"subject_id":"90890","group":"Group2","condition":"1_Rep","full_date":"2026-03-05T18:52:00.750Z","date":"2026-03-05","time":"18:52:00"},{"rt":null,"stimulus":"<p style=\"font-size: 50px; margin: 0; text-align: center;\">+</p>","response":null,"trial_type":"html-keyboard-response","trial_index":23,"plugin_version":"2.1.0","time_elapsed":52540,"subject_id":"90890","group":"Group2","condition":"1_Rep","full_date":"2026-03-05T18:52:00.750Z","date":"2026-03-05","time":"18:52:00"},{"task":"memory_phase","broad_category":"I","image_png":"I_Obsidian_06.png","image_id":86,"category_name":"Obsidian","category":6,"distinct_rating":8.01,"distinct_type":"Top","rt":null,"stimulus":"Stimuli_Rocks480/I_Obsidian_06.png","response":null,"trial_type":"image-keyboard-response","trial_index":24,"plugin_version":"2.1.0","time_elapsed":55060,"subject_id":"90890","group":"Group2","condition":"1_Rep","full_date":"2026-03-05T18:52:00.750Z","date":"2026-03-05","time":"18:52:00"},{"rt":null,"stimulus":"<p style=\"font-size: 50px; margin: 0; text-align: center;\">+</p>","response":null,"trial_type":"html-keyboard-response","trial_index":25,"plugin_version":"2.1.0","time_elapsed":56064,"subject_id":"90890","group":"Group2","condition":"1_Rep","full_date":"2026-03-05T18:52:00.750Z","date":"2026-03-05","time":"18:52:00"},{"task":"memory_phase","broad_category":"I","image_png":"I_Basalt_08.png","image_id":24,"category_name":"Basalt","category":2,"distinct_rating":2.31,"distinct_type":"Bottom","rt":null,"stimulus":"Stimuli_Rocks480/I_Basalt_08.png","response":null,"trial_type":"image-keyboard-response","trial_index":26,"plugin_version":"2.1.0","time_elapsed":58584,"subject_id":"90890","group":"Group2","condition":"1_Rep","full_date":"2026-03-05T18:52:00.750Z","date":"2026-03-05","time":"18:52:00"},{"rt":null,"stimulus":"<p style=\"font-size: 50px; margin: 0; text-align: center;\">+</p>","response":null,"trial_type":"html-keyboard-response","trial_index":27,"plugin_version":"2.1.0","time_elapsed":59588,"subject_id":"90890","group":"Group2","condition":"1_Rep","full_date":"2026-03-05T18:52:00.750Z","date":"2026-03-05","time":"18:52:00"},{"task":"memory_phase","broad_category":"S","image_png":"S_Chert_13.png","image_id":365,"category_name":"Chert","category":23,"distinct_rating":6.57,"distinct_type":"Top","rt":null,"stimulus":"Stimuli_Rocks480/S_Chert_13.png","response":null,"trial_type":"image-keyboard-response","trial_index":28,"plugin_version":"2.1.0","time_elapsed":62100,"subject_id":"90890","group":"Group2","condition":"1_Rep","full_date":"2026-03-05T18:52:00.750Z","date":"2026-03-05","time":"18:52:00"},{"rt":null,"stimulus":"<p style=\"font-size: 50px; margin: 0; text-align: center;\">+</p>","response":null,"trial_type":"html-keyboard-response","trial_index":29,"plugin_version":"2.1.0","time_elapsed":63104,"subject_id":"90890","group":"Group2","condition":"1_Rep","full_date":"2026-03-05T18:52:00.750Z","date":"2026-03-05","time":"18:52:00"},{"task":"memory_phase","broad_category":"S","image_png":"S_Rock Salt_13.png","image_id":445,"category_name":"Rock Salt","category":28,"distinct_rating":7.58,"distinct_type":"Top","rt":null,"stimulus":"Stimuli_Rocks480/S_Rock Salt_13.png","response":null,"trial_type":"image-keyboard-response","trial_index":30,"plugin_version":"2.1.0","time_elapsed":65629,"subject_id":"90890","group":"Group2","condition":"1_Rep","full_date":"2026-03-05T18:52:00.750Z","date":"2026-03-05","time":"18:52:00"},{"rt":null,"stimulus":"<p style=\"font-size: 50px; margin: 0; text-align: center;\">+</p>","response":null,"trial_type":"html-keyboard-response","trial_index":31,"plugin_version":"2.1.0","time_elapsed":66632,"subject_id":"90890","group":"Group2","condition":"1_Rep","full_date":"2026-03-05T18:52:00.750Z","date":"2026-03-05","time":"18:52:00"},{"task":"memory_phase","broad_category":"S","image_png":"S_Dolomite_16.png","image_id":400,"category_name":"Dolomite","category":25,"distinct_rating":1.71,"distinct_type":"Bottom","rt":null,"stimulus":"Stimuli_Rocks480/S_Dolomite_16.png","response":null,"trial_type":"image-keyboard-response","trial_index":32,"plugin_version":"2.1.0","time_elapsed":69148,"subject_id":"90890","group":"Group2","condition":"1_Rep","full_date":"2026-03-05T18:52:00.750Z","date":"2026-03-05","time":"18:52:00"},{"rt":null,"stimulus":"<p style=\"font-size: 50px; margin: 0; text-align: center;\">+</p>","response":null,"trial_type":"html-keyboard-response","trial_index":33,"plugin_version":"2.1.0","time_elapsed":70156,"subject_id":"90890","group":"Group2","condition":"1_Rep","full_date":"2026-03-05T18:52:00.750Z","date":"2026-03-05","time":"18:52:00"},{"task":"memory_phase","broad_category":"S","image_png":"S_Sandstone_08.png","image_id":456,"category_name":"Sandstone","category":29,"distinct_rating":1.5,"distinct_type":"Bottom","rt":null,"stimulus":"Stimuli_Rocks480/S_Sandstone_08.png","response":null,"trial_type":"image-keyboard-response","trial_index":34,"plugin_version":"2.1.0","time_elapsed":72672,"subject_id":"90890","group":"Group2","condition":"1_Rep","full_date":"2026-03-05T18:52:00.750Z","date":"2026-03-05","time":"18:52:00"},{"rt":null,"stimulus":"<p style=\"font-size: 50px; margin: 0; text-align: center;\">+</p>","response":null,"trial_type":"html-keyboard-response","trial_index":35,"plugin_version":"2.1.0","time_elapsed":73676,"subject_id":"90890","group":"Group2","condition":"1_Rep","full_date":"2026-03-05T18:52:00.750Z","date":"2026-03-05","time":"18:52:00"},{"task":"memory_phase","broad_category":"I","image_png":"I_Pumice_01.png","image_id":129,"category_name":"Pumice","category":9,"distinct_rating":3.25,"distinct_type":"Bottom","rt":null,"stimulus":"Stimuli_Rocks480/I_Pumice_01.png","response":null,"trial_type":"image-keyboard-response","trial_index":36,"plugin_version":"2.1.0","time_elapsed":76192,"subject_id":"90890","group":"Group2","condition":"1_Rep","full_date":"2026-03-05T18:52:00.750Z","date":"2026-03-05","time":"18:52:00"},{"rt":null,"stimulus":"<p style=\"font-size: 50px; margin: 0; text-align: center;\">+</p>","response":null,"trial_type":"html-keyboard-response","trial_index":37,"plugin_version":"2.1.0","time_elapsed":77196,"subject_id":"90890","group":"Group2","condition":"1_Rep","full_date":"2026-03-05T18:52:00.750Z","date":"2026-03-05","time":"18:52:00"},{"task":"memory_phase","broad_category":"M","image_png":"M_Slate_04.png","image_id":308,"category_name":"Slate","category":20,"distinct_rating":2.2,"distinct_type":"Bottom","rt":null,"stimulus":"Stimuli_Rocks480/M_Slate_04.png","response":null,"trial_type":"image-keyboard-response","trial_index":38,"plugin_version":"2.1.0","time_elapsed":79712,"subject_id":"90890","group":"Group2","condition":"1_Rep","full_date":"2026-03-05T18:52:00.750Z","date":"2026-03-05","time":"18:52:00"},{"rt":null,"stimulus":"<p style=\"font-size: 50px; margin: 0; text-align: center;\">+</p>","response":null,"trial_type":"html-keyboard-response","trial_index":39,"plugin_version":"2.1.0","time_elapsed":80716,"subject_id":"90890","group":"Group2","condition":"1_Rep","full_date":"2026-03-05T18:52:00.750Z","date":"2026-03-05","time":"18:52:00"},{"task":"memory_phase","broad_category":"M","image_png":"M_Phyllite_05.png","image_id":261,"category_name":"Phyllite","category":17,"distinct_rating":2.14,"distinct_type":"Bottom","rt":null,"stimulus":"Stimuli_Rocks480/M_Phyllite_05.png","response":null,"trial_type":"image-keyboard-response","trial_index":40,"plugin_version":"2.1.0","time_elapsed":83232,"subject_id":"90890","group":"Group2","condition":"1_Rep","full_date":"2026-03-05T18:52:00.750Z","date":"2026-03-05","time":"18:52:00"},{"rt":null,"stimulus":"<p style=\"font-size: 50px; margin: 0; text-align: center;\">+</p>","response":null,"trial_type":"html-keyboard-response","trial_index":41,"plugin_version":"2.1.0","time_elapsed":84239,"subject_id":"90890","group":"Group2","condition":"1_Rep","full_date":"2026-03-05T18:52:00.750Z","date":"2026-03-05","time":"18:52:00"},{"task":"memory_phase","broad_category":"M","image_png":"M_Gneiss_10.png","image_id":202,"category_name":"Gneiss","category":13,"distinct_rating":3.09,"distinct_type":"Bottom","rt":null,"stimulus":"Stimuli_Rocks480/M_Gneiss_10.png","response":null,"trial_type":"image-keyboard-response","trial_index":42,"plugin_version":"2.1.0","time_elapsed":86756,"subject_id":"90890","group":"Group2","condition":"1_Rep","full_date":"2026-03-05T18:52:00.750Z","date":"2026-03-05","time":"18:52:00"},{"rt":null,"stimulus":"<p style=\"font-size: 50px; margin: 0; text-align: center;\">+</p>","response":null,"trial_type":"html-keyboard-response","trial_index":43,"plugin_version":"2.1.0","time_elapsed":87759,"subject_id":"90890","group":"Group2","condition":"1_Rep","full_date":"2026-03-05T18:52:00.750Z","date":"2026-03-05","time":"18:52:00"},{"task":"memory_phase","broad_category":"I","image_png":"I_Gabbro_12.png","image_id":60,"category_name":"Gabbro","category":4,"distinct_rating":2.6,"distinct_type":"Bottom","rt":null,"stimulus":"Stimuli_Rocks480/I_Gabbro_12.png","response":null,"trial_type":"image-keyboard-response","trial_index":44,"plugin_version":"2.1.0","time_elapsed":90280,"subject_id":"90890","group":"Group2","condition":"1_Rep","full_date":"2026-03-05T18:52:00.750Z","date":"2026-03-05","time":"18:52:00"},{"rt":null,"stimulus":"<p style=\"font-size: 50px; margin: 0; text-align: center;\">+</p>","response":null,"trial_type":"html-keyboard-response","trial_index":45,"plugin_version":"2.1.0","time_elapsed":91283,"subject_id":"90890","group":"Group2","condition":"1_Rep","full_date":"2026-03-05T18:52:00.750Z","date":"2026-03-05","time":"18:52:00"},{"task":"memory_phase","broad_category":"I","image_png":"I_Diorite_01.png","image_id":33,"category_name":"Diorite","category":3,"distinct_rating":2.97,"distinct_type":"Bottom","rt":null,"stimulus":"Stimuli_Rocks480/I_Diorite_01.png","response":null,"trial_type":"image-keyboard-response","trial_index":46,"plugin_version":"2.1.0","time_elapsed":93808,"subject_id":"90890","group":"Group2","condition":"1_Rep","full_date":"2026-03-05T18:52:00.750Z","date":"2026-03-05","time":"18:52:00"},{"rt":null,"stimulus":"<p style=\"font-size: 50px; margin: 0; text-align: center;\">+</p>","response":null,"trial_type":"html-keyboard-response","trial_index":47,"plugin_version":"2.1.0","time_elapsed":94812,"subject_id":"90890","group":"Group2","condition":"1_Rep","full_date":"2026-03-05T18:52:00.750Z","date":"2026-03-05","time":"18:52:00"},{"task":"memory_phase","broad_category":"M","image_png":"M_Marble_02.png","image_id":226,"category_name":"Marble","category":15,"distinct_rating":3.2,"distinct_type":"Bottom","rt":null,"stimulus":"Stimuli_Rocks480/M_Marble_02.png","response":null,"trial_type":"image-keyboard-response","trial_index":48,"plugin_version":"2.1.0","time_elapsed":97328,"subject_id":"90890","group":"Group2","condition":"1_Rep","full_date":"2026-03-05T18:52:00.750Z","date":"2026-03-05","time":"18:52:00"},{"rt":null,"stimulus":"<p style=\"font-size: 50px; margin: 0; text-align: center;\">+</p>","response":null,"trial_type":"html-keyboard-response","trial_index":49,"plugin_version":"2.1.0","time_elapsed":98331,"subject_id":"90890","group":"Group2","condition":"1_Rep","full_date":"2026-03-05T18:52:00.750Z","date":"2026-03-05","time":"18:52:00"},{"task":"memory_phase","broad_category":"S","image_png":"S_Shale_07.png","image_id":471,"category_name":"Shale","category":30,"distinct_rating":2.73,"distinct_type":"Bottom","rt":null,"stimulus":"Stimuli_Rocks480/S_Shale_07.png","response":null,"trial_type":"image-keyboard-response","trial_index":50,"plugin_version":"2.1.0","time_elapsed":100848,"subject_id":"90890","group":"Group2","condition":"1_Rep","full_date":"2026-03-05T18:52:00.750Z","date":"2026-03-05","time":"18:52:00"},{"rt":null,"stimulus":"<p style=\"font-size: 50px; margin: 0; text-align: center;\">+</p>","response":null,"trial_type":"html-keyboard-response","trial_index":51,"plugin_version":"2.1.0","time_elapsed":101852,"subject_id":"90890","group":"Group2","condition":"1_Rep","full_date":"2026-03-05T18:52:00.750Z","date":"2026-03-05","time":"18:52:00"},{"task":"memory_phase","broad_category":"I","image_png":"I_Rhyolite_10.png","image_id":154,"category_name":"Rhyolite","category":10,"distinct_rating":2.88,"distinct_type":"Bottom","rt":null,"stimulus":"Stimuli_Rocks480/I_Rhyolite_10.png","response":null,"trial_type":"image-keyboard-response","trial_index":52,"plugin_version":"2.1.0","time_elapsed":104376,"subject_id":"90890","group":"Group2","condition":"1_Rep","full_date":"2026-03-05T18:52:00.750Z","date":"2026-03-05","time":"18:52:00"},{"rt":null,"stimulus":"<p style=\"font-size: 50px; margin: 0; text-align: center;\">+</p>","response":null,"trial_type":"html-keyboard-response","trial_index":53,"plugin_version":"2.1.0","time_elapsed":105380,"subject_id":"90890","group":"Group2","condition":"1_Rep","full_date":"2026-03-05T18:52:00.750Z","date":"2026-03-05","time":"18:52:00"},{"task":"memory_phase","broad_category":"S","image_png":"S_Shale_02.png","image_id":466,"category_name":"Shale","category":30,"distinct_rating":2.9,"distinct_type":"Bottom","rt":null,"stimulus":"Stimuli_Rocks480/S_Shale_02.png","response":null,"trial_type":"image-keyboard-response","trial_index":54,"plugin_version":"2.1.0","time_elapsed":107895,"subject_id":"90890","group":"Group2","condition":"1_Rep","full_date":"2026-03-05T18:52:00.750Z","date":"2026-03-05","time":"18:52:00"},{"rt":2416,"stimulus":"<p style=\"max-width: 760px; margin: auto; font-size: 35px; line-height: 1.5;\">\n                Press SPACE to continue study phase\n              </p>","response":" ","trial_type":"html-keyboard-response","trial_index":55,"plugin_version":"2.1.0","time_elapsed":110313,"subject_id":"90890","group":"Group2","condition":"1_Rep","full_date":"2026-03-05T18:52:00.750Z","date":"2026-03-05","time":"18:52:00"},{"rt":null,"stimulus":"<p style=\"font-size: 50px; margin: 0; text-align: center;\">+</p>","response":null,"trial_type":"html-keyboard-response","trial_index":56,"plugin_version":"2.1.0","time_elapsed":111315,"subject_id":"90890","group":"Group2","condition":"1_Rep","full_date":"2026-03-05T18:52:00.750Z","date":"2026-03-05","time":"18:52:00"},{"task":"memory_phase","broad_category":"I","image_png":"I_Rhyolite_05.png","image_id":149,"category_name":"Rhyolite","category":10,"distinct_rating":3.02,"distinct_type":"Bottom","rt":null,"stimulus":"Stimuli_Rocks480/I_Rhyolite_05.png","response":null,"trial_type":"image-keyboard-response","trial_index":57,"plugin_version":"2.1.0","time_elapsed":113833,"subject_id":"90890","group":"Group2","condition":"1_Rep","full_date":"2026-03-05T18:52:00.750Z","date":"2026-03-05","time":"18:52:00"},{"rt":null,"stimulus":"<p style=\"font-size: 50px; margin: 0; text-align: center;\">+</p>","response":null,"trial_type":"html-keyboard-response","trial_index":58,"plugin_version":"2.1.0","time_elapsed":114836,"subject_id":"90890","group":"Group2","condition":"1_Rep","full_date":"2026-03-05T18:52:00.750Z","date":"2026-03-05","time":"18:52:00"},{"task":"memory_phase","broad_category":"I","image_png":"I_Pumice_13.png","image_id":141,"category_name":"Pumice","category":9,"distinct_rating":3.12,"distinct_type":"Bottom","rt":null,"stimulus":"Stimuli_Rocks480/I_Pumice_13.png","response":null,"trial_type":"image-keyboard-response","trial_index":59,"plugin_version":"2.1.0","time_elapsed":117354,"subject_id":"90890","group":"Group2","condition":"1_Rep","full_date":"2026-03-05T18:52:00.750Z","date":"2026-03-05","time":"18:52:00"},{"rt":null,"stimulus":"<p style=\"font-size: 50px; margin: 0; text-align: center;\">+</p>","response":null,"trial_type":"html-keyboard-response","trial_index":60,"plugin_version":"2.1.0","time_elapsed":118357,"subject_id":"90890","group":"Group2","condition":"1_Rep","full_date":"2026-03-05T18:52:00.750Z","date":"2026-03-05","time":"18:52:00"},{"task":"memory_phase","broad_category":"I","image_png":"I_Pegmatite_03.png","image_id":99,"category_name":"Pegmatite","category":7,"distinct_rating":7.24,"distinct_type":"Top","rt":null,"stimulus":"Stimuli_Rocks480/I_Pegmatite_03.png","response":null,"trial_type":"image-keyboard-response","trial_index":61,"plugin_version":"2.1.0","time_elapsed":120871,"subject_id":"90890","group":"Group2","condition":"1_Rep","full_date":"2026-03-05T18:52:00.750Z","date":"2026-03-05","time":"18:52:00"},{"rt":null,"stimulus":"<p style=\"font-size: 50px; margin: 0; text-align: center;\">+</p>","response":null,"trial_type":"html-keyboard-response","trial_index":62,"plugin_version":"2.1.0","time_elapsed":121874,"subject_id":"90890","group":"Group2","condition":"1_Rep","full_date":"2026-03-05T18:52:00.750Z","date":"2026-03-05","time":"18:52:00"},{"task":"memory_phase","broad_category":"M","image_png":"M_Slate_10.png","image_id":314,"category_name":"Slate","category":20,"distinct_rating":1.94,"distinct_type":"Bottom","rt":null,"stimulus":"Stimuli_Rocks480/M_Slate_10.png","response":null,"trial_type":"image-keyboard-response","trial_index":63,"plugin_version":"2.1.0","time_elapsed":124385,"subject_id":"90890","group":"Group2","condition":"1_Rep","full_date":"2026-03-05T18:52:00.750Z","date":"2026-03-05","time":"18:52:00"},{"rt":null,"stimulus":"<p style=\"font-size: 50px; margin: 0; text-align: center;\">+</p>","response":null,"trial_type":"html-keyboard-response","trial_index":64,"plugin_version":"2.1.0","time_elapsed":125388,"subject_id":"90890","group":"Group2","condition":"1_Rep","full_date":"2026-03-05T18:52:00.750Z","date":"2026-03-05","time":"18:52:00"},{"task":"memory_phase","broad_category":"M","image_png":"M_Quartzite_15.png","image_id":287,"category_name":"Quartzite","category":18,"distinct_rating":2.19,"distinct_type":"Bottom","rt":null,"stimulus":"Stimuli_Rocks480/M_Quartzite_15.png","response":null,"trial_type":"image-keyboard-response","trial_index":65,"plugin_version":"2.1.0","time_elapsed":127906,"subject_id":"90890","group":"Group2","condition":"1_Rep","full_date":"2026-03-05T18:52:00.750Z","date":"2026-03-05","time":"18:52:00"},{"rt":null,"stimulus":"<p style=\"font-size: 50px; margin: 0; text-align: center;\">+</p>","response":null,"trial_type":"html-keyboard-response","trial_index":66,"plugin_version":"2.1.0","time_elapsed":128911,"subject_id":"90890","group":"Group2","condition":"1_Rep","full_date":"2026-03-05T18:52:00.750Z","date":"2026-03-05","time":"18:52:00"},{"task":"memory_phase","broad_category":"I","image_png":"I_Gabbro_14.png","image_id":62,"category_name":"Gabbro","category":4,"distinct_rating":2.95,"distinct_type":"Bottom","rt":null,"stimulus":"Stimuli_Rocks480/I_Gabbro_14.png","response":null,"trial_type":"image-keyboard-response","trial_index":67,"plugin_version":"2.1.0","time_elapsed":131432,"subject_id":"90890","group":"Group2","condition":"1_Rep","full_date":"2026-03-05T18:52:00.750Z","date":"2026-03-05","time":"18:52:00"},{"rt":null,"stimulus":"<p style=\"font-size: 50px; margin: 0; text-align: center;\">+</p>","response":null,"trial_type":"html-keyboard-response","trial_index":68,"plugin_version":"2.1.0","time_elapsed":132436,"subject_id":"90890","group":"Group2","condition":"1_Rep","full_date":"2026-03-05T18:52:00.750Z","date":"2026-03-05","time":"18:52:00"},{"task":"memory_phase","broad_category":"I","image_png":"I_Diorite_10.png","image_id":42,"category_name":"Diorite","category":3,"distinct_rating":2.84,"distinct_type":"Bottom","rt":null,"stimulus":"Stimuli_Rocks480/I_Diorite_10.png","response":null,"trial_type":"image-keyboard-response","trial_index":69,"plugin_version":"2.1.0","time_elapsed":134952,"subject_id":"90890","group":"Group2","condition":"1_Rep","full_date":"2026-03-05T18:52:00.750Z","date":"2026-03-05","time":"18:52:00"},{"rt":null,"stimulus":"<p style=\"font-size: 50px; margin: 0; text-align: center;\">+</p>","response":null,"trial_type":"html-keyboard-response","trial_index":70,"plugin_version":"2.1.0","time_elapsed":135956,"subject_id":"90890","group":"Group2","condition":"1_Rep","full_date":"2026-03-05T18:52:00.750Z","date":"2026-03-05","time":"18:52:00"},{"task":"memory_phase","broad_category":"I","image_png":"I_Basalt_10.png","image_id":26,"category_name":"Basalt","category":2,"distinct_rating":2.76,"distinct_type":"Bottom","rt":null,"stimulus":"Stimuli_Rocks480/I_Basalt_10.png","response":null,"trial_type":"image-keyboard-response","trial_index":71,"plugin_version":"2.1.0","time_elapsed":138472,"subject_id":"90890","group":"Group2","condition":"1_Rep","full_date":"2026-03-05T18:52:00.750Z","date":"2026-03-05","time":"18:52:00"},{"rt":null,"stimulus":"<p style=\"font-size: 50px; margin: 0; text-align: center;\">+</p>","response":null,"trial_type":"html-keyboard-response","trial_index":72,"plugin_version":"2.1.0","time_elapsed":139475,"subject_id":"90890","group":"Group2","condition":"1_Rep","full_date":"2026-03-05T18:52:00.750Z","date":"2026-03-05","time":"18:52:00"},{"task":"memory_phase","broad_category":"I","image_png":"I_Peridotite_13.png","image_id":125,"category_name":"Peridotite","category":8,"distinct_rating":7.28,"distinct_type":"Top","rt":null,"stimulus":"Stimuli_Rocks480/I_Peridotite_13.png","response":null,"trial_type":"image-keyboard-response","trial_index":73,"plugin_version":"2.1.0","time_elapsed":141996,"subject_id":"90890","group":"Group2","condition":"1_Rep","full_date":"2026-03-05T18:52:00.750Z","date":"2026-03-05","time":"18:52:00"},{"rt":null,"stimulus":"<p style=\"font-size: 50px; margin: 0; text-align: center;\">+</p>","response":null,"trial_type":"html-keyboard-response","trial_index":74,"plugin_version":"2.1.0","time_elapsed":143000,"subject_id":"90890","group":"Group2","condition":"1_Rep","full_date":"2026-03-05T18:52:00.750Z","date":"2026-03-05","time":"18:52:00"},{"task":"memory_phase","broad_category":"M","image_png":"M_Gneiss_15.png","image_id":207,"category_name":"Gneiss","category":13,"distinct_rating":3.11,"distinct_type":"Bottom","rt":null,"stimulus":"Stimuli_Rocks480/M_Gneiss_15.png","response":null,"trial_type":"image-keyboard-response","trial_index":75,"plugin_version":"2.1.0","time_elapsed":145513,"subject_id":"90890","group":"Group2","condition":"1_Rep","full_date":"2026-03-05T18:52:00.750Z","date":"2026-03-05","time":"18:52:00"},{"rt":null,"stimulus":"<p style=\"font-size: 50px; margin: 0; text-align: center;\">+</p>","response":null,"trial_type":"html-keyboard-response","trial_index":76,"plugin_version":"2.1.0","time_elapsed":146520,"subject_id":"90890","group":"Group2","condition":"1_Rep","full_date":"2026-03-05T18:52:00.750Z","date":"2026-03-05","time":"18:52:00"},{"task":"memory_phase","broad_category":"S","image_png":"S_Shale_03.png","image_id":467,"category_name":"Shale","category":30,"distinct_rating":1.95,"distinct_type":"Bottom","rt":null,"stimulus":"Stimuli_Rocks480/S_Shale_03.png","response":null,"trial_type":"image-keyboard-response","trial_index":77,"plugin_version":"2.1.0","time_elapsed":149040,"subject_id":"90890","group":"Group2","condition":"1_Rep","full_date":"2026-03-05T18:52:00.750Z","date":"2026-03-05","time":"18:52:00"},{"rt":null,"stimulus":"<p style=\"font-size: 50px; margin: 0; text-align: center;\">+</p>","response":null,"trial_type":"html-keyboard-response","trial_index":78,"plugin_version":"2.1.0","time_elapsed":150043,"subject_id":"90890","group":"Group2","condition":"1_Rep","full_date":"2026-03-05T18:52:00.750Z","date":"2026-03-05","time":"18:52:00"},{"task":"memory_phase","broad_category":"S","image_png":"S_Dolomite_07.png","image_id":391,"category_name":"Dolomite","category":25,"distinct_rating":1.73,"distinct_type":"Bottom","rt":null,"stimulus":"Stimuli_Rocks480/S_Dolomite_07.png","response":null,"trial_type":"image-keyboard-response","trial_index":79,"plugin_version":"2.1.0","time_elapsed":152560,"subject_id":"90890","group":"Group2","condition":"1_Rep","full_date":"2026-03-05T18:52:00.750Z","date":"2026-03-05","time":"18:52:00"},{"rt":null,"stimulus":"<p style=\"font-size: 50px; margin: 0; text-align: center;\">+</p>","response":null,"trial_type":"html-keyboard-response","trial_index":80,"plugin_version":"2.1.0","time_elapsed":153563,"subject_id":"90890","group":"Group2","condition":"1_Rep","full_date":"2026-03-05T18:52:00.750Z","date":"2026-03-05","time":"18:52:00"},{"task":"memory_phase","broad_category":"I","image_png":"I_Rhyolite_08.png","image_id":152,"category_name":"Rhyolite","category":10,"distinct_rating":1.38,"distinct_type":"Bottom","rt":null,"stimulus":"Stimuli_Rocks480/I_Rhyolite_08.png","response":null,"trial_type":"image-keyboard-response","trial_index":81,"plugin_version":"2.1.0","time_elapsed":156080,"subject_id":"90890","group":"Group2","condition":"1_Rep","full_date":"2026-03-05T18:52:00.750Z","date":"2026-03-05","time":"18:52:00"},{"rt":null,"stimulus":"<p style=\"font-size: 50px; margin: 0; text-align: center;\">+</p>","response":null,"trial_type":"html-keyboard-response","trial_index":82,"plugin_version":"2.1.0","time_elapsed":157083,"subject_id":"90890","group":"Group2","condition":"1_Rep","full_date":"2026-03-05T18:52:00.750Z","date":"2026-03-05","time":"18:52:00"},{"task":"memory_phase","broad_category":"I","image_png":"I_Andesite_03.png","image_id":3,"category_name":"Andesite","category":1,"distinct_rating":3.17,"distinct_type":"Bottom","rt":null,"stimulus":"Stimuli_Rocks480/I_Andesite_03.png","response":null,"trial_type":"image-keyboard-response","trial_index":83,"plugin_version":"2.1.0","time_elapsed":159600,"subject_id":"90890","group":"Group2","condition":"1_Rep","full_date":"2026-03-05T18:52:00.750Z","date":"2026-03-05","time":"18:52:00"},{"rt":null,"stimulus":"<p style=\"font-size: 50px; margin: 0; text-align: center;\">+</p>","response":null,"trial_type":"html-keyboard-response","trial_index":84,"plugin_version":"2.1.0","time_elapsed":160603,"subject_id":"90890","group":"Group2","condition":"1_Rep","full_date":"2026-03-05T18:52:00.750Z","date":"2026-03-05","time":"18:52:00"},{"task":"memory_phase","broad_category":"I","image_png":"I_Gabbro_02.png","image_id":50,"category_name":"Gabbro","category":4,"distinct_rating":2.73,"distinct_type":"Bottom","rt":null,"stimulus":"Stimuli_Rocks480/I_Gabbro_02.png","response":null,"trial_type":"image-keyboard-response","trial_index":85,"plugin_version":"2.1.0","time_elapsed":163120,"subject_id":"90890","group":"Group2","condition":"1_Rep","full_date":"2026-03-05T18:52:00.750Z","date":"2026-03-05","time":"18:52:00"},{"rt":null,"stimulus":"<p style=\"font-size: 50px; margin: 0; text-align: center;\">+</p>","response":null,"trial_type":"html-keyboard-response","trial_index":86,"plugin_version":"2.1.0","time_elapsed":164123,"subject_id":"90890","group":"Group2","condition":"1_Rep","full_date":"2026-03-05T18:52:00.750Z","date":"2026-03-05","time":"18:52:00"},{"task":"memory_phase","broad_category":"S","image_png":"S_Sandstone_11.png","image_id":459,"category_name":"Sandstone","category":29,"distinct_rating":1.82,"distinct_type":"Bottom","rt":null,"stimulus":"Stimuli_Rocks480/S_Sandstone_11.png","response":null,"trial_type":"image-keyboard-response","trial_index":87,"plugin_version":"2.1.0","time_elapsed":166647,"subject_id":"90890","group":"Group2","condition":"1_Rep","full_date":"2026-03-05T18:52:00.750Z","date":"2026-03-05","time":"18:52:00"},{"rt":null,"stimulus":"<p style=\"font-size: 50px; margin: 0; text-align: center;\">+</p>","response":null,"trial_type":"html-keyboard-response","trial_index":88,"plugin_version":"2.1.0","time_elapsed":167651,"subject_id":"90890","group":"Group2","condition":"1_Rep","full_date":"2026-03-05T18:52:00.750Z","date":"2026-03-05","time":"18:52:00"},{"task":"memory_phase","broad_category":"I","image_png":"I_Pegmatite_11.png","image_id":107,"category_name":"Pegmatite","category":7,"distinct_rating":7.11,"distinct_type":"Top","rt":null,"stimulus":"Stimuli_Rocks480/I_Pegmatite_11.png","response":null,"trial_type":"image-keyboard-response","trial_index":89,"plugin_version":"2.1.0","time_elapsed":170171,"subject_id":"90890","group":"Group2","condition":"1_Rep","full_date":"2026-03-05T18:52:00.750Z","date":"2026-03-05","time":"18:52:00"},{"rt":null,"stimulus":"<p style=\"font-size: 50px; margin: 0; text-align: center;\">+</p>","response":null,"trial_type":"html-keyboard-response","trial_index":90,"plugin_version":"2.1.0","time_elapsed":171175,"subject_id":"90890","group":"Group2","condition":"1_Rep","full_date":"2026-03-05T18:52:00.750Z","date":"2026-03-05","time":"18:52:00"},{"task":"memory_phase","broad_category":"I","image_png":"I_Pumice_14.png","image_id":142,"category_name":"Pumice","category":9,"distinct_rating":3.22,"distinct_type":"Bottom","rt":null,"stimulus":"Stimuli_Rocks480/I_Pumice_14.png","response":null,"trial_type":"image-keyboard-response","trial_index":91,"plugin_version":"2.1.0","time_elapsed":173695,"subject_id":"90890","group":"Group2","condition":"1_Rep","full_date":"2026-03-05T18:52:00.750Z","date":"2026-03-05","time":"18:52:00"},{"rt":null,"stimulus":"<p style=\"font-size: 50px; margin: 0; text-align: center;\">+</p>","response":null,"trial_type":"html-keyboard-response","trial_index":92,"plugin_version":"2.1.0","time_elapsed":174699,"subject_id":"90890","group":"Group2","condition":"1_Rep","full_date":"2026-03-05T18:52:00.750Z","date":"2026-03-05","time":"18:52:00"},{"task":"memory_phase","broad_category":"S","image_png":"S_Dolomite_01.png","image_id":385,"category_name":"Dolomite","category":25,"distinct_rating":1.43,"distinct_type":"Bottom","rt":null,"stimulus":"Stimuli_Rocks480/S_Dolomite_01.png","response":null,"trial_type":"image-keyboard-response","trial_index":93,"plugin_version":"2.1.0","time_elapsed":177220,"subject_id":"90890","group":"Group2","condition":"1_Rep","full_date":"2026-03-05T18:52:00.750Z","date":"2026-03-05","time":"18:52:00"},{"rt":null,"stimulus":"<p style=\"font-size: 50px; margin: 0; text-align: center;\">+</p>","response":null,"trial_type":"html-keyboard-response","trial_index":94,"plugin_version":"2.1.0","time_elapsed":178223,"subject_id":"90890","group":"Group2","condition":"1_Rep","full_date":"2026-03-05T18:52:00.750Z","date":"2026-03-05","time":"18:52:00"},{"task":"memory_phase","broad_category":"I","image_png":"I_Basalt_13.png","image_id":29,"category_name":"Basalt","category":2,"distinct_rating":2.68,"distinct_type":"Bottom","rt":null,"stimulus":"Stimuli_Rocks480/I_Basalt_13.png","response":null,"trial_type":"image-keyboard-response","trial_index":95,"plugin_version":"2.1.0","time_elapsed":180739,"subject_id":"90890","group":"Group2","condition":"1_Rep","full_date":"2026-03-05T18:52:00.750Z","date":"2026-03-05","time":"18:52:00"},{"rt":null,"stimulus":"<p style=\"font-size: 50px; margin: 0; text-align: center;\">+</p>","response":null,"trial_type":"html-keyboard-response","trial_index":96,"plugin_version":"2.1.0","time_elapsed":181743,"subject_id":"90890","group":"Group2","condition":"1_Rep","full_date":"2026-03-05T18:52:00.750Z","date":"2026-03-05","time":"18:52:00"},{"task":"memory_phase","broad_category":"M","image_png":"M_Slate_14.png","image_id":318,"category_name":"Slate","category":20,"distinct_rating":2.58,"distinct_type":"Bottom","rt":null,"stimulus":"Stimuli_Rocks480/M_Slate_14.png","response":null,"trial_type":"image-keyboard-response","trial_index":97,"plugin_version":"2.1.0","time_elapsed":184260,"subject_id":"90890","group":"Group2","condition":"1_Rep","full_date":"2026-03-05T18:52:00.750Z","date":"2026-03-05","time":"18:52:00"},{"rt":null,"stimulus":"<p style=\"font-size: 50px; margin: 0; text-align: center;\">+</p>","response":null,"trial_type":"html-keyboard-response","trial_index":98,"plugin_version":"2.1.0","time_elapsed":185263,"subject_id":"90890","group":"Group2","condition":"1_Rep","full_date":"2026-03-05T18:52:00.750Z","date":"2026-03-05","time":"18:52:00"},{"task":"memory_phase","broad_category":"M","image_png":"M_Phyllite_13.png","image_id":269,"category_name":"Phyllite","category":17,"distinct_rating":2.8,"distinct_type":"Bottom","rt":null,"stimulus":"Stimuli_Rocks480/M_Phyllite_13.png","response":null,"trial_type":"image-keyboard-response","trial_index":99,"plugin_version":"2.1.0","time_elapsed":187780,"subject_id":"90890","group":"Group2","condition":"1_Rep","full_date":"2026-03-05T18:52:00.750Z","date":"2026-03-05","time":"18:52:00"},{"rt":null,"stimulus":"<p style=\"font-size: 50px; margin: 0; text-align: center;\">+</p>","response":null,"trial_type":"html-keyboard-response","trial_index":100,"plugin_version":"2.1.0","time_elapsed":188783,"subject_id":"90890","group":"Group2","condition":"1_Rep","full_date":"2026-03-05T18:52:00.750Z","date":"2026-03-05","time":"18:52:00"},{"task":"memory_phase","broad_category":"M","image_png":"M_Marble_03.png","image_id":227,"category_name":"Marble","category":15,"distinct_rating":2.67,"distinct_type":"Bottom","rt":null,"stimulus":"Stimuli_Rocks480/M_Marble_03.png","response":null,"trial_type":"image-keyboard-response","trial_index":101,"plugin_version":"2.1.0","time_elapsed":191304,"subject_id":"90890","group":"Group2","condition":"1_Rep","full_date":"2026-03-05T18:52:00.750Z","date":"2026-03-05","time":"18:52:00"},{"rt":null,"stimulus":"<p style=\"font-size: 50px; margin: 0; text-align: center;\">+</p>","response":null,"trial_type":"html-keyboard-response","trial_index":102,"plugin_version":"2.1.0","time_elapsed":192307,"subject_id":"90890","group":"Group2","condition":"1_Rep","full_date":"2026-03-05T18:52:00.750Z","date":"2026-03-05","time":"18:52:00"},{"task":"memory_phase","broad_category":"M","image_png":"M_Marble_14.png","image_id":238,"category_name":"Marble","category":15,"distinct_rating":3.31,"distinct_type":"Bottom","rt":null,"stimulus":"Stimuli_Rocks480/M_Marble_14.png","response":null,"trial_type":"image-keyboard-response","trial_index":103,"plugin_version":"2.1.0","time_elapsed":194823,"subject_id":"90890","group":"Group2","condition":"1_Rep","full_date":"2026-03-05T18:52:00.750Z","date":"2026-03-05","time":"18:52:00"},{"rt":null,"stimulus":"<p style=\"font-size: 50px; margin: 0; text-align: center;\">+</p>","response":null,"trial_type":"html-keyboard-response","trial_index":104,"plugin_version":"2.1.0","time_elapsed":195826,"subject_id":"90890","group":"Group2","condition":"1_Rep","full_date":"2026-03-05T18:52:00.750Z","date":"2026-03-05","time":"18:52:00"},{"task":"memory_phase","broad_category":"I","image_png":"I_Diorite_15.png","image_id":47,"category_name":"Diorite","category":3,"distinct_rating":3.05,"distinct_type":"Bottom","rt":null,"stimulus":"Stimuli_Rocks480/I_Diorite_15.png","response":null,"trial_type":"image-keyboard-response","trial_index":105,"plugin_version":"2.1.0","time_elapsed":198343,"subject_id":"90890","group":"Group2","condition":"1_Rep","full_date":"2026-03-05T18:52:00.750Z","date":"2026-03-05","time":"18:52:00"},{"rt":24897,"stimulus":"<div style=\"max-width: 760px; margin: auto; font-size: 20px; line-height: 1.5;\">\n      <h1 style=\"text-align:center; font-size: 30px;\">Instructions for the Test Phase</h1>\n      <p>\n        The study phase is now complete.\n      </p>\n      <p>\n        In the test phase, you will again see a series of rock images. \n        Some will be ones you saw before - during the study phase, while others will be new.  \n        <b>Your task</b> is to decide whether you have seen each image before by pressing the corresponding key on your keyboard:<br><br>\n          <b>A</b> - NO (you did not see this image before)<br>\n          <b>L</b> - YES (you saw this image before)<br><br>\n        The test will proceed at your own pace. You will receive feedback after each response.  \n        Please try to respond <b>as accurately as possible</b>.\n      </p>\n      <p>\n        <b>Reminder:</b> If your computer has multiple language settings (e.g., English and another language),\n        please ensure it is set to English during the test phase.\n      </p>\n      <p>\n        You can track your progress using the <b>completion bar</b> at the top of the screen.  \n        Note that it has been refreshed to reflect your progress during this final phase.\n      </p>\n      <p>\n        Press the button below when you are ready to continue.\n      </p>\n    </div>","response":0,"trial_type":"html-button-response","trial_index":106,"plugin_version":"2.1.0","time_elapsed":223246,"subject_id":"90890","group":"Group2","condition":"1_Rep","full_date":"2026-03-05T18:52:00.750Z","date":"2026-03-05","time":"18:52:00"},{"correct_response":"a","task":"test_phase","broad_category":"S","image_png":"S_Dolomite_12.png","image_id":396,"category_name":"Dolomite","category":25,"distinct_rating":1.85,"distinct_type":"Bottom","item_type":"Foil","rt":1769,"stimulus":"Stimuli_Rocks480/S_Dolomite_12.png","response":"l","trial_type":"image-keyboard-response","trial_index":107,"plugin_version":"2.1.0","time_elapsed":225028,"subject_id":"90890","group":"Group2","condition":"1_Rep","full_date":"2026-03-05T18:52:00.750Z","date":"2026-03-05","time":"18:52:00","cor_ans":false},{"trial_type":"html-keyboard-response","rt":null,"stimulus":"<p style=\"color: red; font-size: 50px; font-weight: bold;\">Incorrect</p>","response":null,"trial_index":108,"plugin_version":"2.1.0","time_elapsed":225531,"subject_id":"90890","group":"Group2","condition":"1_Rep","full_date":"2026-03-05T18:52:00.750Z","date":"2026-03-05","time":"18:52:00"},{"correct_response":"a","task":"test_phase","broad_category":"M","image_png":"M_Gneiss_13.png","image_id":205,"category_name":"Gneiss","category":13,"distinct_rating":3.26,"distinct_type":"Bottom","item_type":"Foil","rt":968,"stimulus":"Stimuli_Rocks480/M_Gneiss_13.png","response":"l","trial_type":"image-keyboard-response","trial_index":109,"plugin_version":"2.1.0","time_elapsed":226511,"subject_id":"90890","group":"Group2","condition":"1_Rep","full_date":"2026-03-05T18:52:00.750Z","date":"2026-03-05","time":"18:52:00","cor_ans":false},{"trial_type":"html-keyboard-response","rt":null,"stimulus":"<p style=\"color: red; font-size: 50px; font-weight: bold;\">Incorrect</p>","response":null,"trial_index":110,"plugin_version":"2.1.0","time_elapsed":227013,"subject_id":"90890","group":"Group2","condition":"1_Rep","full_date":"2026-03-05T18:52:00.750Z","date":"2026-03-05","time":"18:52:00"},{"correct_response":"l","task":"test_phase","broad_category":"I","image_png":"I_Diorite_01.png","image_id":33,"category_name":"Diorite","category":3,"distinct_rating":2.97,"distinct_type":"Bottom","item_type":"Target","rt":1036,"stimulus":"Stimuli_Rocks480/I_Diorite_01.png","response":"l","trial_type":"image-keyboard-response","trial_index":111,"plugin_version":"2.1.0","time_elapsed":228068,"subject_id":"90890","group":"Group2","condition":"1_Rep","full_date":"2026-03-05T18:52:00.750Z","date":"2026-03-05","time":"18:52:00","cor_ans":true},{"trial_type":"html-keyboard-response","rt":null,"stimulus":"<p style=\"color: green; font-size: 50px; font-weight: bold;\">Correct</p>","response":null,"trial_index":112,"plugin_version":"2.1.0","time_elapsed":228570,"subject_id":"90890","group":"Group2","condition":"1_Rep","full_date":"2026-03-05T18:52:00.750Z","date":"2026-03-05","time":"18:52:00"},{"correct_response":"a","task":"test_phase","broad_category":"S","image_png":"S_Shale_08.png","image_id":472,"category_name":"Shale","category":30,"distinct_rating":2.55,"distinct_type":"Bottom","item_type":"Foil","rt":1159,"stimulus":"Stimuli_Rocks480/S_Shale_08.png","response":"l","trial_type":"image-keyboard-response","trial_index":113,"plugin_version":"2.1.0","time_elapsed":229744,"subject_id":"90890","group":"Group2","condition":"1_Rep","full_date":"2026-03-05T18:52:00.750Z","date":"2026-03-05","time":"18:52:00","cor_ans":false},{"trial_type":"html-keyboard-response","rt":null,"stimulus":"<p style=\"color: red; font-size: 50px; font-weight: bold;\">Incorrect</p>","response":null,"trial_index":114,"plugin_version":"2.1.0","time_elapsed":230245,"subject_id":"90890","group":"Group2","condition":"1_Rep","full_date":"2026-03-05T18:52:00.750Z","date":"2026-03-05","time":"18:52:00"},{"correct_response":"a","task":"test_phase","broad_category":"S","image_png":"S_Sandstone_03.png","image_id":451,"category_name":"Sandstone","category":29,"distinct_rating":1.86,"distinct_type":"Bottom","item_type":"Foil","rt":865,"stimulus":"Stimuli_Rocks480/S_Sandstone_03.png","response":"l","trial_type":"image-keyboard-response","trial_index":115,"plugin_version":"2.1.0","time_elapsed":231124,"subject_id":"90890","group":"Group2","condition":"1_Rep","full_date":"2026-03-05T18:52:00.750Z","date":"2026-03-05","time":"18:52:00","cor_ans":false},{"trial_type":"html-keyboard-response","rt":null,"stimulus":"<p style=\"color: red; font-size: 50px; font-weight: bold;\">Incorrect</p>","response":null,"trial_index":116,"plugin_version":"2.1.0","time_elapsed":231626,"subject_id":"90890","group":"Group2","condition":"1_Rep","full_date":"2026-03-05T18:52:00.750Z","date":"2026-03-05","time":"18:52:00"},{"correct_response":"l","task":"test_phase","broad_category":"S","image_png":"S_Dolomite_07.png","image_id":391,"category_name":"Dolomite","category":25,"distinct_rating":1.73,"distinct_type":"Bottom","item_type":"Target","rt":713,"stimulus":"Stimuli_Rocks480/S_Dolomite_07.png","response":"a","trial_type":"image-keyboard-response","trial_index":117,"plugin_version":"2.1.0","time_elapsed":232353,"subject_id":"90890","group":"Group2","condition":"1_Rep","full_date":"2026-03-05T18:52:00.750Z","date":"2026-03-05","time":"18:52:00","cor_ans":false},{"trial_type":"html-keyboard-response","rt":null,"stimulus":"<p style=\"color: red; font-size: 50px; font-weight: bold;\">Incorrect</p>","response":null,"trial_index":118,"plugin_version":"2.1.0","time_elapsed":232856,"subject_id":"90890","group":"Group2","condition":"1_Rep","full_date":"2026-03-05T18:52:00.750Z","date":"2026-03-05","time":"18:52:00"},{"correct_response":"a","task":"test_phase","broad_category":"I","image_png":"I_Diorite_05.png","image_id":37,"category_name":"Diorite","category":3,"distinct_rating":3.08,"distinct_type":"Bottom","item_type":"Foil","rt":956,"stimulus":"Stimuli_Rocks480/I_Diorite_05.png","response":"a","trial_type":"image-keyboard-response","trial_index":119,"plugin_version":"2.1.0","time_elapsed":233825,"subject_id":"90890","group":"Group2","condition":"1_Rep","full_date":"2026-03-05T18:52:00.750Z","date":"2026-03-05","time":"18:52:00","cor_ans":true},{"trial_type":"html-keyboard-response","rt":null,"stimulus":"<p style=\"color: green; font-size: 50px; font-weight: bold;\">Correct</p>","response":null,"trial_index":120,"plugin_version":"2.1.0","time_elapsed":234327,"subject_id":"90890","group":"Group2","condition":"1_Rep","full_date":"2026-03-05T18:52:00.750Z","date":"2026-03-05","time":"18:52:00"},{"correct_response":"a","task":"test_phase","broad_category":"S","image_png":"S_Conglomerate_05.png","image_id":373,"category_name":"Conglomerate","category":24,"distinct_rating":7.32,"distinct_type":"Top","item_type":"Foil","rt":775,"stimulus":"Stimuli_Rocks480/S_Conglomerate_05.png","response":"a","trial_type":"image-keyboard-response","trial_index":121,"plugin_version":"2.1.0","time_elapsed":235116,"subject_id":"90890","group":"Group2","condition":"1_Rep","full_date":"2026-03-05T18:52:00.750Z","date":"2026-03-05","time":"18:52:00","cor_ans":true},{"trial_type":"html-keyboard-response","rt":null,"stimulus":"<p style=\"color: green; font-size: 50px; font-weight: bold;\">Correct</p>","response":null,"trial_index":122,"plugin_version":"2.1.0","time_elapsed":235618,"subject_id":"90890","group":"Group2","condition":"1_Rep","full_date":"2026-03-05T18:52:00.750Z","date":"2026-03-05","time":"18:52:00"},{"correct_response":"a","task":"test_phase","broad_category":"S","image_png":"S_Dolomite_14.png","image_id":398,"category_name":"Dolomite","category":25,"distinct_rating":1.43,"distinct_type":"Bottom","item_type":"Foil","rt":762,"stimulus":"Stimuli_Rocks480/S_Dolomite_14.png","response":"l","trial_type":"image-keyboard-response","trial_index":123,"plugin_version":"2.1.0","time_elapsed":236393,"subject_id":"90890","group":"Group2","condition":"1_Rep","full_date":"2026-03-05T18:52:00.750Z","date":"2026-03-05","time":"18:52:00","cor_ans":false},{"trial_type":"html-keyboard-response","rt":null,"stimulus":"<p style=\"color: red; font-size: 50px; font-weight: bold;\">Incorrect</p>","response":null,"trial_index":124,"plugin_version":"2.1.0","time_elapsed":236895,"subject_id":"90890","group":"Group2","condition":"1_Rep","full_date":"2026-03-05T18:52:00.750Z","date":"2026-03-05","time":"18:52:00"},{"correct_response":"l","task":"test_phase","broad_category":"M","image_png":"M_Gneiss_14.png","image_id":206,"category_name":"Gneiss","category":13,"distinct_rating":3.41,"distinct_type":"Bottom","item_type":"Target","rt":883,"stimulus":"Stimuli_Rocks480/M_Gneiss_14.png","response":"l","trial_type":"image-keyboard-response","trial_index":125,"plugin_version":"2.1.0","time_elapsed":237792,"subject_id":"90890","group":"Group2","condition":"1_Rep","full_date":"2026-03-05T18:52:00.750Z","date":"2026-03-05","time":"18:52:00","cor_ans":true},{"trial_type":"html-keyboard-response","rt":null,"stimulus":"<p style=\"color: green; font-size: 50px; font-weight: bold;\">Correct</p>","response":null,"trial_index":126,"plugin_version":"2.1.0","time_elapsed":238294,"subject_id":"90890","group":"Group2","condition":"1_Rep","full_date":"2026-03-05T18:52:00.750Z","date":"2026-03-05","time":"18:52:00"},{"correct_response":"a","task":"test_phase","broad_category":"M","image_png":"M_Gneiss_05.png","image_id":197,"category_name":"Gneiss","category":13,"distinct_rating":2.97,"distinct_type":"Bottom","item_type":"Foil","rt":1621,"stimulus":"Stimuli_Rocks480/M_Gneiss_05.png","response":"l","trial_type":"image-keyboard-response","trial_index":127,"plugin_version":"2.1.0","time_elapsed":239935,"subject_id":"90890","group":"Group2","condition":"1_Rep","full_date":"2026-03-05T18:52:00.750Z","date":"2026-03-05","time":"18:52:00","cor_ans":false},{"trial_type":"html-keyboard-response","rt":null,"stimulus":"<p style=\"color: red; font-size: 50px; font-weight: bold;\">Incorrect</p>","response":null,"trial_index":128,"plugin_version":"2.1.0","time_elapsed":240438,"subject_id":"90890","group":"Group2","condition":"1_Rep","full_date":"2026-03-05T18:52:00.750Z","date":"2026-03-05","time":"18:52:00"},{"correct_response":"l","task":"test_phase","broad_category":"M","image_png":"M_Quartzite_12.png","image_id":284,"category_name":"Quartzite","category":18,"distinct_rating":1.92,"distinct_type":"Bottom","item_type":"Target","rt":623,"stimulus":"Stimuli_Rocks480/M_Quartzite_12.png","response":"a","trial_type":"image-keyboard-response","trial_index":129,"plugin_version":"2.1.0","time_elapsed":241074,"subject_id":"90890","group":"Group2","condition":"1_Rep","full_date":"2026-03-05T18:52:00.750Z","date":"2026-03-05","time":"18:52:00","cor_ans":false},{"trial_type":"html-keyboard-response","rt":null,"stimulus":"<p style=\"color: red; font-size: 50px; font-weight: bold;\">Incorrect</p>","response":null,"trial_index":130,"plugin_version":"2.1.0","time_elapsed":241577,"subject_id":"90890","group":"Group2","condition":"1_Rep","full_date":"2026-03-05T18:52:00.750Z","date":"2026-03-05","time":"18:52:00"},{"correct_response":"a","task":"test_phase","broad_category":"M","image_png":"M_Marble_06.png","image_id":230,"category_name":"Marble","category":15,"distinct_rating":3.4,"distinct_type":"Bottom","item_type":"Foil","rt":757,"stimulus":"Stimuli_Rocks480/M_Marble_06.png","response":"a","trial_type":"image-keyboard-response","trial_index":131,"plugin_version":"2.1.0","time_elapsed":242347,"subject_id":"90890","group":"Group2","condition":"1_Rep","full_date":"2026-03-05T18:52:00.750Z","date":"2026-03-05","time":"18:52:00","cor_ans":true},{"trial_type":"html-keyboard-response","rt":null,"stimulus":"<p style=\"color: green; font-size: 50px; font-weight: bold;\">Correct</p>","response":null,"trial_index":132,"plugin_version":"2.1.0","time_elapsed":242850,"subject_id":"90890","group":"Group2","condition":"1_Rep","full_date":"2026-03-05T18:52:00.750Z","date":"2026-03-05","time":"18:52:00"},{"correct_response":"l","task":"test_phase","broad_category":"I","image_png":"I_Basalt_13.png","image_id":29,"category_name":"Basalt","category":2,"distinct_rating":2.68,"distinct_type":"Bottom","item_type":"Target","rt":1554,"stimulus":"Stimuli_Rocks480/I_Basalt_13.png","response":"l","trial_type":"image-keyboard-response","trial_index":133,"plugin_version":"2.1.0","time_elapsed":244416,"subject_id":"90890","group":"Group2","condition":"1_Rep","full_date":"2026-03-05T18:52:00.750Z","date":"2026-03-05","time":"18:52:00","cor_ans":true},{"trial_type":"html-keyboard-response","rt":null,"stimulus":"<p style=\"color: green; font-size: 50px; font-weight: bold;\">Correct</p>","response":null,"trial_index":134,"plugin_version":"2.1.0","time_elapsed":244919,"subject_id":"90890","group":"Group2","condition":"1_Rep","full_date":"2026-03-05T18:52:00.750Z","date":"2026-03-05","time":"18:52:00"},{"correct_response":"a","task":"test_phase","broad_category":"I","image_png":"I_Gabbro_11.png","image_id":59,"category_name":"Gabbro","category":4,"distinct_rating":1.99,"distinct_type":"Bottom","item_type":"Foil","rt":4539,"stimulus":"Stimuli_Rocks480/I_Gabbro_11.png","response":"l","trial_type":"image-keyboard-response","trial_index":135,"plugin_version":"2.1.0","time_elapsed":249468,"subject_id":"90890","group":"Group2","condition":"1_Rep","full_date":"2026-03-05T18:52:00.750Z","date":"2026-03-05","time":"18:52:00","cor_ans":false},{"trial_type":"html-keyboard-response","rt":null,"stimulus":"<p style=\"color: red; font-size: 50px; font-weight: bold;\">Incorrect</p>","response":null,"trial_index":136,"plugin_version":"2.1.0","time_elapsed":249972,"subject_id":"90890","group":"Group2","condition":"1_Rep","full_date":"2026-03-05T18:52:00.750Z","date":"2026-03-05","time":"18:52:00"},{"correct_response":"l","task":"test_phase","broad_category":"I","image_png":"I_Obsidian_06.png","image_id":86,"category_name":"Obsidian","category":6,"distinct_rating":8.01,"distinct_type":"Top","item_type":"Target","rt":664,"stimulus":"Stimuli_Rocks480/I_Obsidian_06.png","response":"a","trial_type":"image-keyboard-response","trial_index":137,"plugin_version":"2.1.0","time_elapsed":250652,"subject_id":"90890","group":"Group2","condition":"1_Rep","full_date":"2026-03-05T18:52:00.750Z","date":"2026-03-05","time":"18:52:00","cor_ans":false},{"trial_type":"html-keyboard-response","rt":null,"stimulus":"<p style=\"color: red; font-size: 50px; font-weight: bold;\">Incorrect</p>","response":null,"trial_index":138,"plugin_version":"2.1.0","time_elapsed":251155,"subject_id":"90890","group":"Group2","condition":"1_Rep","full_date":"2026-03-05T18:52:00.750Z","date":"2026-03-05","time":"18:52:00"},{"correct_response":"a","task":"test_phase","broad_category":"I","image_png":"I_Rhyolite_14.png","image_id":158,"category_name":"Rhyolite","category":10,"distinct_rating":2.59,"distinct_type":"Bottom","item_type":"Foil","rt":1459,"stimulus":"Stimuli_Rocks480/I_Rhyolite_14.png","response":"l","trial_type":"image-keyboard-response","trial_index":139,"plugin_version":"2.1.0","time_elapsed":252626,"subject_id":"90890","group":"Group2","condition":"1_Rep","full_date":"2026-03-05T18:52:00.750Z","date":"2026-03-05","time":"18:52:00","cor_ans":false},{"trial_type":"html-keyboard-response","rt":null,"stimulus":"<p style=\"color: red; font-size: 50px; font-weight: bold;\">Incorrect</p>","response":null,"trial_index":140,"plugin_version":"2.1.0","time_elapsed":253129,"subject_id":"90890","group":"Group2","condition":"1_Rep","full_date":"2026-03-05T18:52:00.750Z","date":"2026-03-05","time":"18:52:00"},{"correct_response":"a","task":"test_phase","broad_category":"S","image_png":"S_Shale_12.png","image_id":476,"category_name":"Shale","category":30,"distinct_rating":2.48,"distinct_type":"Bottom","item_type":"Foil","rt":2172,"stimulus":"Stimuli_Rocks480/S_Shale_12.png","response":"l","trial_type":"image-keyboard-response","trial_index":141,"plugin_version":"2.1.0","time_elapsed":255316,"subject_id":"90890","group":"Group2","condition":"1_Rep","full_date":"2026-03-05T18:52:00.750Z","date":"2026-03-05","time":"18:52:00","cor_ans":false},{"trial_type":"html-keyboard-response","rt":null,"stimulus":"<p style=\"color: red; font-size: 50px; font-weight: bold;\">Incorrect</p>","response":null,"trial_index":142,"plugin_version":"2.1.0","time_elapsed":255818,"subject_id":"90890","group":"Group2","condition":"1_Rep","full_date":"2026-03-05T18:52:00.750Z","date":"2026-03-05","time":"18:52:00"},{"correct_response":"a","task":"test_phase","broad_category":"I","image_png":"I_Andesite_10.png","image_id":10,"category_name":"Andesite","category":1,"distinct_rating":3.15,"distinct_type":"Bottom","item_type":"Foil","rt":697,"stimulus":"Stimuli_Rocks480/I_Andesite_10.png","response":"a","trial_type":"image-keyboard-response","trial_index":143,"plugin_version":"2.1.0","time_elapsed":256526,"subject_id":"90890","group":"Group2","condition":"1_Rep","full_date":"2026-03-05T18:52:00.750Z","date":"2026-03-05","time":"18:52:00","cor_ans":true},{"trial_type":"html-keyboard-response","rt":null,"stimulus":"<p style=\"color: green; font-size: 50px; font-weight: bold;\">Correct</p>","response":null,"trial_index":144,"plugin_version":"2.1.0","time_elapsed":257027,"subject_id":"90890","group":"Group2","condition":"1_Rep","full_date":"2026-03-05T18:52:00.750Z","date":"2026-03-05","time":"18:52:00"},{"correct_response":"l","task":"test_phase","broad_category":"I","image_png":"I_Gabbro_12.png","image_id":60,"category_name":"Gabbro","category":4,"distinct_rating":2.6,"distinct_type":"Bottom","item_type":"Target","rt":745,"stimulus":"Stimuli_Rocks480/I_Gabbro_12.png","response":"l","trial_type":"image-keyboard-response","trial_index":145,"plugin_version":"2.1.0","time_elapsed":257788,"subject_id":"90890","group":"Group2","condition":"1_Rep","full_date":"2026-03-05T18:52:00.750Z","date":"2026-03-05","time":"18:52:00","cor_ans":true},{"trial_type":"html-keyboard-response","rt":null,"stimulus":"<p style=\"color: green; font-size: 50px; font-weight: bold;\">Correct</p>","response":null,"trial_index":146,"plugin_version":"2.1.0","time_elapsed":258291,"subject_id":"90890","group":"Group2","condition":"1_Rep","full_date":"2026-03-05T18:52:00.750Z","date":"2026-03-05","time":"18:52:00"},{"correct_response":"l","task":"test_phase","broad_category":"I","image_png":"I_Diorite_10.png","image_id":42,"category_name":"Diorite","category":3,"distinct_rating":2.84,"distinct_type":"Bottom","item_type":"Target","rt":746,"stimulus":"Stimuli_Rocks480/I_Diorite_10.png","response":"l","trial_type":"image-keyboard-response","trial_index":147,"plugin_version":"2.1.0","time_elapsed":259050,"subject_id":"90890","group":"Group2","condition":"1_Rep","full_date":"2026-03-05T18:52:00.750Z","date":"2026-03-05","time":"18:52:00","cor_ans":true},{"trial_type":"html-keyboard-response","rt":null,"stimulus":"<p style=\"color: green; font-size: 50px; font-weight: bold;\">Correct</p>","response":null,"trial_index":148,"plugin_version":"2.1.0","time_elapsed":259552,"subject_id":"90890","group":"Group2","condition":"1_Rep","full_date":"2026-03-05T18:52:00.750Z","date":"2026-03-05","time":"18:52:00"},{"correct_response":"a","task":"test_phase","broad_category":"M","image_png":"M_Marble_04.png","image_id":228,"category_name":"Marble","category":15,"distinct_rating":3.15,"distinct_type":"Bottom","item_type":"Foil","rt":675,"stimulus":"Stimuli_Rocks480/M_Marble_04.png","response":"a","trial_type":"image-keyboard-response","trial_index":149,"plugin_version":"2.1.0","time_elapsed":260241,"subject_id":"90890","group":"Group2","condition":"1_Rep","full_date":"2026-03-05T18:52:00.750Z","date":"2026-03-05","time":"18:52:00","cor_ans":true},{"trial_type":"html-keyboard-response","rt":null,"stimulus":"<p style=\"color: green; font-size: 50px; font-weight: bold;\">Correct</p>","response":null,"trial_index":150,"plugin_version":"2.1.0","time_elapsed":260743,"subject_id":"90890","group":"Group2","condition":"1_Rep","full_date":"2026-03-05T18:52:00.750Z","date":"2026-03-05","time":"18:52:00"},{"correct_response":"l","task":"test_phase","broad_category":"S","image_png":"S_Rock Salt_15.png","image_id":447,"category_name":"Rock Salt","category":28,"distinct_rating":7.79,"distinct_type":"Top","item_type":"Target","rt":1355,"stimulus":"Stimuli_Rocks480/S_Rock Salt_15.png","response":"a","trial_type":"image-keyboard-response","trial_index":151,"plugin_version":"2.1.0","time_elapsed":262112,"subject_id":"90890","group":"Group2","condition":"1_Rep","full_date":"2026-03-05T18:52:00.750Z","date":"2026-03-05","time":"18:52:00","cor_ans":false},{"trial_type":"html-keyboard-response","rt":null,"stimulus":"<p style=\"color: red; font-size: 50px; font-weight: bold;\">Incorrect</p>","response":null,"trial_index":152,"plugin_version":"2.1.0","time_elapsed":262615,"subject_id":"90890","group":"Group2","condition":"1_Rep","full_date":"2026-03-05T18:52:00.750Z","date":"2026-03-05","time":"18:52:00"},{"correct_response":"a","task":"test_phase","broad_category":"I","image_png":"I_Gabbro_08.png","image_id":56,"category_name":"Gabbro","category":4,"distinct_rating":3.02,"distinct_type":"Bottom","item_type":"Foil","rt":772,"stimulus":"Stimuli_Rocks480/I_Gabbro_08.png","response":"l","trial_type":"image-keyboard-response","trial_index":153,"plugin_version":"2.1.0","time_elapsed":263399,"subject_id":"90890","group":"Group2","condition":"1_Rep","full_date":"2026-03-05T18:52:00.750Z","date":"2026-03-05","time":"18:52:00","cor_ans":false},{"trial_type":"html-keyboard-response","rt":null,"stimulus":"<p style=\"color: red; font-size: 50px; font-weight: bold;\">Incorrect</p>","response":null,"trial_index":154,"plugin_version":"2.1.0","time_elapsed":263902,"subject_id":"90890","group":"Group2","condition":"1_Rep","full_date":"2026-03-05T18:52:00.750Z","date":"2026-03-05","time":"18:52:00"},{"correct_response":"l","task":"test_phase","broad_category":"I","image_png":"I_Peridotite_13.png","image_id":125,"category_name":"Peridotite","category":8,"distinct_rating":7.28,"distinct_type":"Top","item_type":"Target","rt":999,"stimulus":"Stimuli_Rocks480/I_Peridotite_13.png","response":"a","trial_type":"image-keyboard-response","trial_index":155,"plugin_version":"2.1.0","time_elapsed":264917,"subject_id":"90890","group":"Group2","condition":"1_Rep","full_date":"2026-03-05T18:52:00.750Z","date":"2026-03-05","time":"18:52:00","cor_ans":false},{"trial_type":"html-keyboard-response","rt":null,"stimulus":"<p style=\"color: red; font-size: 50px; font-weight: bold;\">Incorrect</p>","response":null,"trial_index":156,"plugin_version":"2.1.0","time_elapsed":265418,"subject_id":"90890","group":"Group2","condition":"1_Rep","full_date":"2026-03-05T18:52:00.750Z","date":"2026-03-05","time":"18:52:00"},{"correct_response":"l","task":"test_phase","broad_category":"I","image_png":"I_Pegmatite_11.png","image_id":107,"category_name":"Pegmatite","category":7,"distinct_rating":7.11,"distinct_type":"Top","item_type":"Target","rt":1030,"stimulus":"Stimuli_Rocks480/I_Pegmatite_11.png","response":"l","trial_type":"image-keyboard-response","trial_index":157,"plugin_version":"2.1.0","time_elapsed":266466,"subject_id":"90890","group":"Group2","condition":"1_Rep","full_date":"2026-03-05T18:52:00.750Z","date":"2026-03-05","time":"18:52:00","cor_ans":true},{"trial_type":"html-keyboard-response","rt":null,"stimulus":"<p style=\"color: green; font-size: 50px; font-weight: bold;\">Correct</p>","response":null,"trial_index":158,"plugin_version":"2.1.0","time_elapsed":266968,"subject_id":"90890","group":"Group2","condition":"1_Rep","full_date":"2026-03-05T18:52:00.750Z","date":"2026-03-05","time":"18:52:00"},{"correct_response":"l","task":"test_phase","broad_category":"M","image_png":"M_Phyllite_02.png","image_id":258,"category_name":"Phyllite","category":17,"distinct_rating":2.89,"distinct_type":"Bottom","item_type":"Target","rt":774,"stimulus":"Stimuli_Rocks480/M_Phyllite_02.png","response":"l","trial_type":"image-keyboard-response","trial_index":159,"plugin_version":"2.1.0","time_elapsed":267757,"subject_id":"90890","group":"Group2","condition":"1_Rep","full_date":"2026-03-05T18:52:00.750Z","date":"2026-03-05","time":"18:52:00","cor_ans":true},{"trial_type":"html-keyboard-response","rt":null,"stimulus":"<p style=\"color: green; font-size: 50px; font-weight: bold;\">Correct</p>","response":null,"trial_index":160,"plugin_version":"2.1.0","time_elapsed":268259,"subject_id":"90890","group":"Group2","condition":"1_Rep","full_date":"2026-03-05T18:52:00.750Z","date":"2026-03-05","time":"18:52:00"},{"correct_response":"a","task":"test_phase","broad_category":"M","image_png":"M_Phyllite_10.png","image_id":266,"category_name":"Phyllite","category":17,"distinct_rating":2.6,"distinct_type":"Bottom","item_type":"Foil","rt":824,"stimulus":"Stimuli_Rocks480/M_Phyllite_10.png","response":"a","trial_type":"image-keyboard-response","trial_index":161,"plugin_version":"2.1.0","time_elapsed":269095,"subject_id":"90890","group":"Group2","condition":"1_Rep","full_date":"2026-03-05T18:52:00.750Z","date":"2026-03-05","time":"18:52:00","cor_ans":true},{"trial_type":"html-keyboard-response","rt":null,"stimulus":"<p style=\"color: green; font-size: 50px; font-weight: bold;\">Correct</p>","response":null,"trial_index":162,"plugin_version":"2.1.0","time_elapsed":269597,"subject_id":"90890","group":"Group2","condition":"1_Rep","full_date":"2026-03-05T18:52:00.750Z","date":"2026-03-05","time":"18:52:00"},{"correct_response":"a","task":"test_phase","broad_category":"S","image_png":"S_Sandstone_16.png","image_id":464,"category_name":"Sandstone","category":29,"distinct_rating":1.93,"distinct_type":"Bottom","item_type":"Foil","rt":795,"stimulus":"Stimuli_Rocks480/S_Sandstone_16.png","response":"l","trial_type":"image-keyboard-response","trial_index":163,"plugin_version":"2.1.0","time_elapsed":270404,"subject_id":"90890","group":"Group2","condition":"1_Rep","full_date":"2026-03-05T18:52:00.750Z","date":"2026-03-05","time":"18:52:00","cor_ans":false},{"trial_type":"html-keyboard-response","rt":null,"stimulus":"<p style=\"color: red; font-size: 50px; font-weight: bold;\">Incorrect</p>","response":null,"trial_index":164,"plugin_version":"2.1.0","time_elapsed":270910,"subject_id":"90890","group":"Group2","condition":"1_Rep","full_date":"2026-03-05T18:52:00.750Z","date":"2026-03-05","time":"18:52:00"},{"correct_response":"l","task":"test_phase","broad_category":"I","image_png":"I_Pumice_13.png","image_id":141,"category_name":"Pumice","category":9,"distinct_rating":3.12,"distinct_type":"Bottom","item_type":"Target","rt":1178,"stimulus":"Stimuli_Rocks480/I_Pumice_13.png","response":"a","trial_type":"image-keyboard-response","trial_index":165,"plugin_version":"2.1.0","time_elapsed":272104,"subject_id":"90890","group":"Group2","condition":"1_Rep","full_date":"2026-03-05T18:52:00.750Z","date":"2026-03-05","time":"18:52:00","cor_ans":false},{"trial_type":"html-keyboard-response","rt":null,"stimulus":"<p style=\"color: red; font-size: 50px; font-weight: bold;\">Incorrect</p>","response":null,"trial_index":166,"plugin_version":"2.1.0","time_elapsed":272606,"subject_id":"90890","group":"Group2","condition":"1_Rep","full_date":"2026-03-05T18:52:00.750Z","date":"2026-03-05","time":"18:52:00"},{"correct_response":"a","task":"test_phase","broad_category":"I","image_png":"I_Diorite_04.png","image_id":36,"category_name":"Diorite","category":3,"distinct_rating":2.98,"distinct_type":"Bottom","item_type":"Foil","rt":821,"stimulus":"Stimuli_Rocks480/I_Diorite_04.png","response":"l","trial_type":"image-keyboard-response","trial_index":167,"plugin_version":"2.1.0","time_elapsed":273443,"subject_id":"90890","group":"Group2","condition":"1_Rep","full_date":"2026-03-05T18:52:00.750Z","date":"2026-03-05","time":"18:52:00","cor_ans":false},{"trial_type":"html-keyboard-response","rt":null,"stimulus":"<p style=\"color: red; font-size: 50px; font-weight: bold;\">Incorrect</p>","response":null,"trial_index":168,"plugin_version":"2.1.0","time_elapsed":273945,"subject_id":"90890","group":"Group2","condition":"1_Rep","full_date":"2026-03-05T18:52:00.750Z","date":"2026-03-05","time":"18:52:00"},{"correct_response":"a","task":"test_phase","broad_category":"I","image_png":"I_Obsidian_05.png","image_id":85,"category_name":"Obsidian","category":6,"distinct_rating":7.32,"distinct_type":"Top","item_type":"Foil","rt":1114,"stimulus":"Stimuli_Rocks480/I_Obsidian_05.png","response":"a","trial_type":"image-keyboard-response","trial_index":169,"plugin_version":"2.1.0","time_elapsed":275074,"subject_id":"90890","group":"Group2","condition":"1_Rep","full_date":"2026-03-05T18:52:00.750Z","date":"2026-03-05","time":"18:52:00","cor_ans":true},{"trial_type":"html-keyboard-response","rt":null,"stimulus":"<p style=\"color: green; font-size: 50px; font-weight: bold;\">Correct</p>","response":null,"trial_index":170,"plugin_version":"2.1.0","time_elapsed":275577,"subject_id":"90890","group":"Group2","condition":"1_Rep","full_date":"2026-03-05T18:52:00.750Z","date":"2026-03-05","time":"18:52:00"},{"correct_response":"l","task":"test_phase","broad_category":"S","image_png":"S_Rock Salt_13.png","image_id":445,"category_name":"Rock Salt","category":28,"distinct_rating":7.58,"distinct_type":"Top","item_type":"Target","rt":998,"stimulus":"Stimuli_Rocks480/S_Rock Salt_13.png","response":"a","trial_type":"image-keyboard-response","trial_index":171,"plugin_version":"2.1.0","time_elapsed":276591,"subject_id":"90890","group":"Group2","condition":"1_Rep","full_date":"2026-03-05T18:52:00.750Z","date":"2026-03-05","time":"18:52:00","cor_ans":false},{"trial_type":"html-keyboard-response","rt":null,"stimulus":"<p style=\"color: red; font-size: 50px; font-weight: bold;\">Incorrect</p>","response":null,"trial_index":172,"plugin_version":"2.1.0","time_elapsed":277093,"subject_id":"90890","group":"Group2","condition":"1_Rep","full_date":"2026-03-05T18:52:00.750Z","date":"2026-03-05","time":"18:52:00"},{"correct_response":"a","task":"test_phase","broad_category":"M","image_png":"M_Phyllite_07.png","image_id":263,"category_name":"Phyllite","category":17,"distinct_rating":2.59,"distinct_type":"Bottom","item_type":"Foil","rt":815,"stimulus":"Stimuli_Rocks480/M_Phyllite_07.png","response":"l","trial_type":"image-keyboard-response","trial_index":173,"plugin_version":"2.1.0","time_elapsed":277920,"subject_id":"90890","group":"Group2","condition":"1_Rep","full_date":"2026-03-05T18:52:00.750Z","date":"2026-03-05","time":"18:52:00","cor_ans":false},{"trial_type":"html-keyboard-response","rt":null,"stimulus":"<p style=\"color: red; font-size: 50px; font-weight: bold;\">Incorrect</p>","response":null,"trial_index":174,"plugin_version":"2.1.0","time_elapsed":278423,"subject_id":"90890","group":"Group2","condition":"1_Rep","full_date":"2026-03-05T18:52:00.750Z","date":"2026-03-05","time":"18:52:00"},{"correct_response":"a","task":"test_phase","broad_category":"I","image_png":"I_Basalt_02.png","image_id":18,"category_name":"Basalt","category":2,"distinct_rating":1.84,"distinct_type":"Bottom","item_type":"Foil","rt":792,"stimulus":"Stimuli_Rocks480/I_Basalt_02.png","response":"a","trial_type":"image-keyboard-response","trial_index":175,"plugin_version":"2.1.0","time_elapsed":279230,"subject_id":"90890","group":"Group2","condition":"1_Rep","full_date":"2026-03-05T18:52:00.750Z","date":"2026-03-05","time":"18:52:00","cor_ans":true},{"trial_type":"html-keyboard-response","rt":null,"stimulus":"<p style=\"color: green; font-size: 50px; font-weight: bold;\">Correct</p>","response":null,"trial_index":176,"plugin_version":"2.1.0","time_elapsed":279733,"subject_id":"90890","group":"Group2","condition":"1_Rep","full_date":"2026-03-05T18:52:00.750Z","date":"2026-03-05","time":"18:52:00"},{"correct_response":"l","task":"test_phase","broad_category":"S","image_png":"S_Sandstone_08.png","image_id":456,"category_name":"Sandstone","category":29,"distinct_rating":1.5,"distinct_type":"Bottom","item_type":"Target","rt":1374,"stimulus":"Stimuli_Rocks480/S_Sandstone_08.png","response":"a","trial_type":"image-keyboard-response","trial_index":177,"plugin_version":"2.1.0","time_elapsed":281121,"subject_id":"90890","group":"Group2","condition":"1_Rep","full_date":"2026-03-05T18:52:00.750Z","date":"2026-03-05","time":"18:52:00","cor_ans":false},{"trial_type":"html-keyboard-response","rt":null,"stimulus":"<p style=\"color: red; font-size: 50px; font-weight: bold;\">Incorrect</p>","response":null,"trial_index":178,"plugin_version":"2.1.0","time_elapsed":281623,"subject_id":"90890","group":"Group2","condition":"1_Rep","full_date":"2026-03-05T18:52:00.750Z","date":"2026-03-05","time":"18:52:00"},{"correct_response":"a","task":"test_phase","broad_category":"I","image_png":"I_Gabbro_16.png","image_id":64,"category_name":"Gabbro","category":4,"distinct_rating":2.52,"distinct_type":"Bottom","item_type":"Foil","rt":1038,"stimulus":"Stimuli_Rocks480/I_Gabbro_16.png","response":"a","trial_type":"image-keyboard-response","trial_index":179,"plugin_version":"2.1.0","time_elapsed":282675,"subject_id":"90890","group":"Group2","condition":"1_Rep","full_date":"2026-03-05T18:52:00.750Z","date":"2026-03-05","time":"18:52:00","cor_ans":true},{"trial_type":"html-keyboard-response","rt":null,"stimulus":"<p style=\"color: green; font-size: 50px; font-weight: bold;\">Correct</p>","response":null,"trial_index":180,"plugin_version":"2.1.0","time_elapsed":283177,"subject_id":"90890","group":"Group2","condition":"1_Rep","full_date":"2026-03-05T18:52:00.750Z","date":"2026-03-05","time":"18:52:00"},{"correct_response":"l","task":"test_phase","broad_category":"S","image_png":"S_Chert_13.png","image_id":365,"category_name":"Chert","category":23,"distinct_rating":6.57,"distinct_type":"Top","item_type":"Target","rt":1026,"stimulus":"Stimuli_Rocks480/S_Chert_13.png","response":"a","trial_type":"image-keyboard-response","trial_index":181,"plugin_version":"2.1.0","time_elapsed":284213,"subject_id":"90890","group":"Group2","condition":"1_Rep","full_date":"2026-03-05T18:52:00.750Z","date":"2026-03-05","time":"18:52:00","cor_ans":false},{"trial_type":"html-keyboard-response","rt":null,"stimulus":"<p style=\"color: red; font-size: 50px; font-weight: bold;\">Incorrect</p>","response":null,"trial_index":182,"plugin_version":"2.1.0","time_elapsed":284715,"subject_id":"90890","group":"Group2","condition":"1_Rep","full_date":"2026-03-05T18:52:00.750Z","date":"2026-03-05","time":"18:52:00"},{"correct_response":"l","task":"test_phase","broad_category":"M","image_png":"M_Gneiss_15.png","image_id":207,"category_name":"Gneiss","category":13,"distinct_rating":3.11,"distinct_type":"Bottom","item_type":"Target","rt":853,"stimulus":"Stimuli_Rocks480/M_Gneiss_15.png","response":"l","trial_type":"image-keyboard-response","trial_index":183,"plugin_version":"2.1.0","time_elapsed":285579,"subject_id":"90890","group":"Group2","condition":"1_Rep","full_date":"2026-03-05T18:52:00.750Z","date":"2026-03-05","time":"18:52:00","cor_ans":true},{"trial_type":"html-keyboard-response","rt":null,"stimulus":"<p style=\"color: green; font-size: 50px; font-weight: bold;\">Correct</p>","response":null,"trial_index":184,"plugin_version":"2.1.0","time_elapsed":286081,"subject_id":"90890","group":"Group2","condition":"1_Rep","full_date":"2026-03-05T18:52:00.750Z","date":"2026-03-05","time":"18:52:00"},{"correct_response":"l","task":"test_phase","broad_category":"S","image_png":"S_Sandstone_11.png","image_id":459,"category_name":"Sandstone","category":29,"distinct_rating":1.82,"distinct_type":"Bottom","item_type":"Target","rt":1035,"stimulus":"Stimuli_Rocks480/S_Sandstone_11.png","response":"l","trial_type":"image-keyboard-response","trial_index":185,"plugin_version":"2.1.0","time_elapsed":287134,"subject_id":"90890","group":"Group2","condition":"1_Rep","full_date":"2026-03-05T18:52:00.750Z","date":"2026-03-05","time":"18:52:00","cor_ans":true},{"trial_type":"html-keyboard-response","rt":null,"stimulus":"<p style=\"color: green; font-size: 50px; font-weight: bold;\">Correct</p>","response":null,"trial_index":186,"plugin_version":"2.1.0","time_elapsed":287637,"subject_id":"90890","group":"Group2","condition":"1_Rep","full_date":"2026-03-05T18:52:00.750Z","date":"2026-03-05","time":"18:52:00"},{"correct_response":"l","task":"test_phase","broad_category":"M","image_png":"M_Slate_04.png","image_id":308,"category_name":"Slate","category":20,"distinct_rating":2.2,"distinct_type":"Bottom","item_type":"Target","rt":940,"stimulus":"Stimuli_Rocks480/M_Slate_04.png","response":"l","trial_type":"image-keyboard-response","trial_index":187,"plugin_version":"2.1.0","time_elapsed":288588,"subject_id":"90890","group":"Group2","condition":"1_Rep","full_date":"2026-03-05T18:52:00.750Z","date":"2026-03-05","time":"18:52:00","cor_ans":true},{"trial_type":"html-keyboard-response","rt":null,"stimulus":"<p style=\"color: green; font-size: 50px; font-weight: bold;\">Correct</p>","response":null,"trial_index":188,"plugin_version":"2.1.0","time_elapsed":289090,"subject_id":"90890","group":"Group2","condition":"1_Rep","full_date":"2026-03-05T18:52:00.750Z","date":"2026-03-05","time":"18:52:00"},{"correct_response":"l","task":"test_phase","broad_category":"M","image_png":"M_Phyllite_13.png","image_id":269,"category_name":"Phyllite","category":17,"distinct_rating":2.8,"distinct_type":"Bottom","item_type":"Target","rt":547,"stimulus":"Stimuli_Rocks480/M_Phyllite_13.png","response":"a","trial_type":"image-keyboard-response","trial_index":189,"plugin_version":"2.1.0","time_elapsed":289650,"subject_id":"90890","group":"Group2","condition":"1_Rep","full_date":"2026-03-05T18:52:00.750Z","date":"2026-03-05","time":"18:52:00","cor_ans":false},{"trial_type":"html-keyboard-response","rt":null,"stimulus":"<p style=\"color: red; font-size: 50px; font-weight: bold;\">Incorrect</p>","response":null,"trial_index":190,"plugin_version":"2.1.0","time_elapsed":290153,"subject_id":"90890","group":"Group2","condition":"1_Rep","full_date":"2026-03-05T18:52:00.750Z","date":"2026-03-05","time":"18:52:00"},{"correct_response":"a","task":"test_phase","broad_category":"M","image_png":"M_Quartzite_08.png","image_id":280,"category_name":"Quartzite","category":18,"distinct_rating":2.15,"distinct_type":"Bottom","item_type":"Foil","rt":539,"stimulus":"Stimuli_Rocks480/M_Quartzite_08.png","response":"l","trial_type":"image-keyboard-response","trial_index":191,"plugin_version":"2.1.0","time_elapsed":290704,"subject_id":"90890","group":"Group2","condition":"1_Rep","full_date":"2026-03-05T18:52:00.750Z","date":"2026-03-05","time":"18:52:00","cor_ans":false},{"trial_type":"html-keyboard-response","rt":null,"stimulus":"<p style=\"color: red; font-size: 50px; font-weight: bold;\">Incorrect</p>","response":null,"trial_index":192,"plugin_version":"2.1.0","time_elapsed":291207,"subject_id":"90890","group":"Group2","condition":"1_Rep","full_date":"2026-03-05T18:52:00.750Z","date":"2026-03-05","time":"18:52:00"},{"correct_response":"l","task":"test_phase","broad_category":"M","image_png":"M_Slate_14.png","image_id":318,"category_name":"Slate","category":20,"distinct_rating":2.58,"distinct_type":"Bottom","item_type":"Target","rt":278,"stimulus":"Stimuli_Rocks480/M_Slate_14.png","response":"l","trial_type":"image-keyboard-response","trial_index":193,"plugin_version":"2.1.0","time_elapsed":291495,"subject_id":"90890","group":"Group2","condition":"1_Rep","full_date":"2026-03-05T18:52:00.750Z","date":"2026-03-05","time":"18:52:00","cor_ans":true},{"trial_type":"html-keyboard-response","rt":null,"stimulus":"<p style=\"color: green; font-size: 50px; font-weight: bold;\">Correct</p>","response":null,"trial_index":194,"plugin_version":"2.1.0","time_elapsed":291997,"subject_id":"90890","group":"Group2","condition":"1_Rep","full_date":"2026-03-05T18:52:00.750Z","date":"2026-03-05","time":"18:52:00"},{"correct_response":"l","task":"test_phase","broad_category":"S","image_png":"S_Sandstone_04.png","image_id":452,"category_name":"Sandstone","category":29,"distinct_rating":1.8,"distinct_type":"Bottom","item_type":"Target","rt":499,"stimulus":"Stimuli_Rocks480/S_Sandstone_04.png","response":"l","trial_type":"image-keyboard-response","trial_index":195,"plugin_version":"2.1.0","time_elapsed":292511,"subject_id":"90890","group":"Group2","condition":"1_Rep","full_date":"2026-03-05T18:52:00.750Z","date":"2026-03-05","time":"18:52:00","cor_ans":true},{"trial_type":"html-keyboard-response","rt":null,"stimulus":"<p style=\"color: green; font-size: 50px; font-weight: bold;\">Correct</p>","response":null,"trial_index":196,"plugin_version":"2.1.0","time_elapsed":293013,"subject_id":"90890","group":"Group2","condition":"1_Rep","full_date":"2026-03-05T18:52:00.750Z","date":"2026-03-05","time":"18:52:00"},{"correct_response":"a","task":"test_phase","broad_category":"M","image_png":"M_Gneiss_06.png","image_id":198,"category_name":"Gneiss","category":13,"distinct_rating":2.65,"distinct_type":"Bottom","item_type":"Foil","rt":1119,"stimulus":"Stimuli_Rocks480/M_Gneiss_06.png","response":"a","trial_type":"image-keyboard-response","trial_index":197,"plugin_version":"2.1.0","time_elapsed":294150,"subject_id":"90890","group":"Group2","condition":"1_Rep","full_date":"2026-03-05T18:52:00.750Z","date":"2026-03-05","time":"18:52:00","cor_ans":true},{"trial_type":"html-keyboard-response","rt":null,"stimulus":"<p style=\"color: green; font-size: 50px; font-weight: bold;\">Correct</p>","response":null,"trial_index":198,"plugin_version":"2.1.0","time_elapsed":294652,"subject_id":"90890","group":"Group2","condition":"1_Rep","full_date":"2026-03-05T18:52:00.750Z","date":"2026-03-05","time":"18:52:00"},{"correct_response":"a","task":"test_phase","broad_category":"I","image_png":"I_Pegmatite_16.png","image_id":112,"category_name":"Pegmatite","category":7,"distinct_rating":7.03,"distinct_type":"Top","item_type":"Foil","rt":758,"stimulus":"Stimuli_Rocks480/I_Pegmatite_16.png","response":"a","trial_type":"image-keyboard-response","trial_index":199,"plugin_version":"2.1.0","time_elapsed":295424,"subject_id":"90890","group":"Group2","condition":"1_Rep","full_date":"2026-03-05T18:52:00.750Z","date":"2026-03-05","time":"18:52:00","cor_ans":true},{"trial_type":"html-keyboard-response","rt":null,"stimulus":"<p style=\"color: green; font-size: 50px; font-weight: bold;\">Correct</p>","response":null,"trial_index":200,"plugin_version":"2.1.0","time_elapsed":295927,"subject_id":"90890","group":"Group2","condition":"1_Rep","full_date":"2026-03-05T18:52:00.750Z","date":"2026-03-05","time":"18:52:00"},{"correct_response":"l","task":"test_phase","broad_category":"I","image_png":"I_Gabbro_02.png","image_id":50,"category_name":"Gabbro","category":4,"distinct_rating":2.73,"distinct_type":"Bottom","item_type":"Target","rt":1188,"stimulus":"Stimuli_Rocks480/I_Gabbro_02.png","response":"l","trial_type":"image-keyboard-response","trial_index":201,"plugin_version":"2.1.0","time_elapsed":297128,"subject_id":"90890","group":"Group2","condition":"1_Rep","full_date":"2026-03-05T18:52:00.750Z","date":"2026-03-05","time":"18:52:00","cor_ans":true},{"trial_type":"html-keyboard-response","rt":null,"stimulus":"<p style=\"color: green; font-size: 50px; font-weight: bold;\">Correct</p>","response":null,"trial_index":202,"plugin_version":"2.1.0","time_elapsed":297631,"subject_id":"90890","group":"Group2","condition":"1_Rep","full_date":"2026-03-05T18:52:00.750Z","date":"2026-03-05","time":"18:52:00"},{"correct_response":"l","task":"test_phase","broad_category":"I","image_png":"I_Rhyolite_10.png","image_id":154,"category_name":"Rhyolite","category":10,"distinct_rating":2.88,"distinct_type":"Bottom","item_type":"Target","rt":974,"stimulus":"Stimuli_Rocks480/I_Rhyolite_10.png","response":"a","trial_type":"image-keyboard-response","trial_index":203,"plugin_version":"2.1.0","time_elapsed":298625,"subject_id":"90890","group":"Group2","condition":"1_Rep","full_date":"2026-03-05T18:52:00.750Z","date":"2026-03-05","time":"18:52:00","cor_ans":false},{"trial_type":"html-keyboard-response","rt":null,"stimulus":"<p style=\"color: red; font-size: 50px; font-weight: bold;\">Incorrect</p>","response":null,"trial_index":204,"plugin_version":"2.1.0","time_elapsed":299127,"subject_id":"90890","group":"Group2","condition":"1_Rep","full_date":"2026-03-05T18:52:00.750Z","date":"2026-03-05","time":"18:52:00"},{"correct_response":"a","task":"test_phase","broad_category":"S","image_png":"S_Shale_01.png","image_id":465,"category_name":"Shale","category":30,"distinct_rating":2.7,"distinct_type":"Bottom","item_type":"Foil","rt":694,"stimulus":"Stimuli_Rocks480/S_Shale_01.png","response":"l","trial_type":"image-keyboard-response","trial_index":205,"plugin_version":"2.1.0","time_elapsed":299834,"subject_id":"90890","group":"Group2","condition":"1_Rep","full_date":"2026-03-05T18:52:00.750Z","date":"2026-03-05","time":"18:52:00","cor_ans":false},{"trial_type":"html-keyboard-response","rt":null,"stimulus":"<p style=\"color: red; font-size: 50px; font-weight: bold;\">Incorrect</p>","response":null,"trial_index":206,"plugin_version":"2.1.0","time_elapsed":300336,"subject_id":"90890","group":"Group2","condition":"1_Rep","full_date":"2026-03-05T18:52:00.750Z","date":"2026-03-05","time":"18:52:00"},{"correct_response":"l","task":"test_phase","broad_category":"I","image_png":"I_Diorite_15.png","image_id":47,"category_name":"Diorite","category":3,"distinct_rating":3.05,"distinct_type":"Bottom","item_type":"Target","rt":643,"stimulus":"Stimuli_Rocks480/I_Diorite_15.png","response":"a","trial_type":"image-keyboard-response","trial_index":207,"plugin_version":"2.1.0","time_elapsed":300992,"subject_id":"90890","group":"Group2","condition":"1_Rep","full_date":"2026-03-05T18:52:00.750Z","date":"2026-03-05","time":"18:52:00","cor_ans":false},{"trial_type":"html-keyboard-response","rt":null,"stimulus":"<p style=\"color: red; font-size: 50px; font-weight: bold;\">Incorrect</p>","response":null,"trial_index":208,"plugin_version":"2.1.0","time_elapsed":301494,"subject_id":"90890","group":"Group2","condition":"1_Rep","full_date":"2026-03-05T18:52:00.750Z","date":"2026-03-05","time":"18:52:00"},{"correct_response":"a","task":"test_phase","broad_category":"S","image_png":"S_Rock Gypsum_04.png","image_id":420,"category_name":"Rock Gypsum","category":27,"distinct_rating":7.61,"distinct_type":"Top","item_type":"Foil","rt":752,"stimulus":"Stimuli_Rocks480/S_Rock Gypsum_04.png","response":"a","trial_type":"image-keyboard-response","trial_index":209,"plugin_version":"2.1.0","time_elapsed":302260,"subject_id":"90890","group":"Group2","condition":"1_Rep","full_date":"2026-03-05T18:52:00.750Z","date":"2026-03-05","time":"18:52:00","cor_ans":true},{"trial_type":"html-keyboard-response","rt":null,"stimulus":"<p style=\"color: green; font-size: 50px; font-weight: bold;\">Correct</p>","response":null,"trial_index":210,"plugin_version":"2.1.0","time_elapsed":302761,"subject_id":"90890","group":"Group2","condition":"1_Rep","full_date":"2026-03-05T18:52:00.750Z","date":"2026-03-05","time":"18:52:00"},{"correct_response":"a","task":"test_phase","broad_category":"S","image_png":"S_Dolomite_13.png","image_id":397,"category_name":"Dolomite","category":25,"distinct_rating":1.77,"distinct_type":"Bottom","item_type":"Foil","rt":691,"stimulus":"Stimuli_Rocks480/S_Dolomite_13.png","response":"a","trial_type":"image-keyboard-response","trial_index":211,"plugin_version":"2.1.0","time_elapsed":303467,"subject_id":"90890","group":"Group2","condition":"1_Rep","full_date":"2026-03-05T18:52:00.750Z","date":"2026-03-05","time":"18:52:00","cor_ans":true},{"trial_type":"html-keyboard-response","rt":null,"stimulus":"<p style=\"color: green; font-size: 50px; font-weight: bold;\">Correct</p>","response":null,"trial_index":212,"plugin_version":"2.1.0","time_elapsed":303969,"subject_id":"90890","group":"Group2","condition":"1_Rep","full_date":"2026-03-05T18:52:00.750Z","date":"2026-03-05","time":"18:52:00"},{"correct_response":"a","task":"test_phase","broad_category":"M","image_png":"M_Marble_16.png","image_id":240,"category_name":"Marble","category":15,"distinct_rating":2.57,"distinct_type":"Bottom","item_type":"Foil","rt":788,"stimulus":"Stimuli_Rocks480/M_Marble_16.png","response":"l","trial_type":"image-keyboard-response","trial_index":213,"plugin_version":"2.1.0","time_elapsed":304772,"subject_id":"90890","group":"Group2","condition":"1_Rep","full_date":"2026-03-05T18:52:00.750Z","date":"2026-03-05","time":"18:52:00","cor_ans":false},{"trial_type":"html-keyboard-response","rt":null,"stimulus":"<p style=\"color: red; font-size: 50px; font-weight: bold;\">Incorrect</p>","response":null,"trial_index":214,"plugin_version":"2.1.0","time_elapsed":305274,"subject_id":"90890","group":"Group2","condition":"1_Rep","full_date":"2026-03-05T18:52:00.750Z","date":"2026-03-05","time":"18:52:00"},{"correct_response":"a","task":"test_phase","broad_category":"I","image_png":"I_Basalt_01.png","image_id":17,"category_name":"Basalt","category":2,"distinct_rating":1.92,"distinct_type":"Bottom","item_type":"Foil","rt":503,"stimulus":"Stimuli_Rocks480/I_Basalt_01.png","response":"a","trial_type":"image-keyboard-response","trial_index":215,"plugin_version":"2.1.0","time_elapsed":305795,"subject_id":"90890","group":"Group2","condition":"1_Rep","full_date":"2026-03-05T18:52:00.750Z","date":"2026-03-05","time":"18:52:00","cor_ans":true},{"trial_type":"html-keyboard-response","rt":null,"stimulus":"<p style=\"color: green; font-size: 50px; font-weight: bold;\">Correct</p>","response":null,"trial_index":216,"plugin_version":"2.1.0","time_elapsed":306297,"subject_id":"90890","group":"Group2","condition":"1_Rep","full_date":"2026-03-05T18:52:00.750Z","date":"2026-03-05","time":"18:52:00"},{"correct_response":"a","task":"test_phase","broad_category":"M","image_png":"M_Phyllite_03.png","image_id":259,"category_name":"Phyllite","category":17,"distinct_rating":2.5,"distinct_type":"Bottom","item_type":"Foil","rt":760,"stimulus":"Stimuli_Rocks480/M_Phyllite_03.png","response":"a","trial_type":"image-keyboard-response","trial_index":217,"plugin_version":"2.1.0","time_elapsed":307071,"subject_id":"90890","group":"Group2","condition":"1_Rep","full_date":"2026-03-05T18:52:00.750Z","date":"2026-03-05","time":"18:52:00","cor_ans":true},{"trial_type":"html-keyboard-response","rt":null,"stimulus":"<p style=\"color: green; font-size: 50px; font-weight: bold;\">Correct</p>","response":null,"trial_index":218,"plugin_version":"2.1.0","time_elapsed":307574,"subject_id":"90890","group":"Group2","condition":"1_Rep","full_date":"2026-03-05T18:52:00.750Z","date":"2026-03-05","time":"18:52:00"},{"correct_response":"l","task":"test_phase","broad_category":"S","image_png":"S_Shale_02.png","image_id":466,"category_name":"Shale","category":30,"distinct_rating":2.9,"distinct_type":"Bottom","item_type":"Target","rt":742,"stimulus":"Stimuli_Rocks480/S_Shale_02.png","response":"a","trial_type":"image-keyboard-response","trial_index":219,"plugin_version":"2.1.0","time_elapsed":308328,"subject_id":"90890","group":"Group2","condition":"1_Rep","full_date":"2026-03-05T18:52:00.750Z","date":"2026-03-05","time":"18:52:00","cor_ans":false},{"trial_type":"html-keyboard-response","rt":null,"stimulus":"<p style=\"color: red; font-size: 50px; font-weight: bold;\">Incorrect</p>","response":null,"trial_index":220,"plugin_version":"2.1.0","time_elapsed":308830,"subject_id":"90890","group":"Group2","condition":"1_Rep","full_date":"2026-03-05T18:52:00.750Z","date":"2026-03-05","time":"18:52:00"},{"correct_response":"l","task":"test_phase","broad_category":"I","image_png":"I_Gabbro_14.png","image_id":62,"category_name":"Gabbro","category":4,"distinct_rating":2.95,"distinct_type":"Bottom","item_type":"Target","rt":550,"stimulus":"Stimuli_Rocks480/I_Gabbro_14.png","response":"l","trial_type":"image-keyboard-response","trial_index":221,"plugin_version":"2.1.0","time_elapsed":309396,"subject_id":"90890","group":"Group2","condition":"1_Rep","full_date":"2026-03-05T18:52:00.750Z","date":"2026-03-05","time":"18:52:00","cor_ans":true},{"trial_type":"html-keyboard-response","rt":null,"stimulus":"<p style=\"color: green; font-size: 50px; font-weight: bold;\">Correct</p>","response":null,"trial_index":222,"plugin_version":"2.1.0","time_elapsed":309898,"subject_id":"90890","group":"Group2","condition":"1_Rep","full_date":"2026-03-05T18:52:00.750Z","date":"2026-03-05","time":"18:52:00"},{"correct_response":"a","task":"test_phase","broad_category":"S","image_png":"S_Rock Salt_01.png","image_id":433,"category_name":"Rock Salt","category":28,"distinct_rating":7.18,"distinct_type":"Top","item_type":"Foil","rt":577,"stimulus":"Stimuli_Rocks480/S_Rock Salt_01.png","response":"a","trial_type":"image-keyboard-response","trial_index":223,"plugin_version":"2.1.0","time_elapsed":310491,"subject_id":"90890","group":"Group2","condition":"1_Rep","full_date":"2026-03-05T18:52:00.750Z","date":"2026-03-05","time":"18:52:00","cor_ans":true},{"trial_type":"html-keyboard-response","rt":null,"stimulus":"<p style=\"color: green; font-size: 50px; font-weight: bold;\">Correct</p>","response":null,"trial_index":224,"plugin_version":"2.1.0","time_elapsed":310994,"subject_id":"90890","group":"Group2","condition":"1_Rep","full_date":"2026-03-05T18:52:00.750Z","date":"2026-03-05","time":"18:52:00"},{"correct_response":"l","task":"test_phase","broad_category":"M","image_png":"M_Quartzite_15.