[{"width":859,"height":691,"webaudio":true,"browser":"chrome","browser_version":"145.0.0","mobile":false,"os":"Mac OS","fullscreen":true,"vsync_rate":48.88,"webcam":true,"microphone":true,"trial_type":"browser-check","trial_index":0,"plugin_version":"2.1.0","time_elapsed":1236,"subject_id":"91480","group":"Group2","condition":"1_Rep","full_date":"2026-02-27T21:08:48.630Z","date":"2026-02-27","time":"21:08:48"},{"success":true,"timeout":false,"failed_images":[],"failed_audio":[],"failed_video":[],"trial_type":"preload","trial_index":1,"plugin_version":"2.1.0","time_elapsed":5726,"subject_id":"91480","group":"Group2","condition":"1_Rep","full_date":"2026-02-27T21:08:48.630Z","date":"2026-02-27","time":"21:08:48"},{"rt":11599,"url":"SONA_consent_memorability.html","trial_type":"external-html","trial_index":2,"plugin_version":"2.1.0","time_elapsed":17382,"subject_id":"91480","group":"Group2","condition":"1_Rep","full_date":"2026-02-27T21:08:48.630Z","date":"2026-02-27","time":"21:08:48"},{"success":true,"rt":14612,"trial_type":"fullscreen","trial_index":3,"plugin_version":"2.1.0","time_elapsed":32999,"subject_id":"91480","group":"Group2","condition":"1_Rep","full_date":"2026-02-27T21:08:48.630Z","date":"2026-02-27","time":"21:08:48"},{"rt":41630,"stimulus":"<div style=\"max-width: 760px; margin: auto; font-size: 20px; line-height: 1.5;\">\n      <h1 style=\"text-align:center; font-size: 30px;\">Instructions</h1>\n      <p>\n        Welcome to the study on <b>visual memory</b>. This experiment consists of <b>two phases</b>: \n        a <b>study phase</b> and a <b>test phase</b>.\n      </p>\n      <p>\n        In the study phase, you will see a series of rock images along with their category labels.\n        The images will appear one at a time.\n        <b>Your task</b> is to learn the categories to which the rock images belong \n        and to remember each image as accurately as possible.\n      </p> \n      <p>\n        Note that you will see each image only <b>once</b> during the study phase. \n          So, please pay close attention and try to remember each image carefully.\n      </p>\n      <p>\n        After the study phase, <b>your memory will be tested</b>. \n        Additional instructions for the test phase will be provided at that time.\n      </p>\n      <p>\n        If your computer has multiple <b>language settings</b> (e.g., English and another language),\n        please make sure it is set to English before starting.\n      </p>\n      <p>\n        You can track your progress using the <b>completion bar</b> at the top of the screen. \n        Please note that the bar will refresh when the test phase begins \n        to give you an accurate sense of your progress in both phases.\n      </p> \n      <p>\n        Press the button below when you are ready to begin.\n      </p>\n    </div>","response":0,"trial_type":"html-button-response","trial_index":4,"plugin_version":"2.1.0","time_elapsed":74632,"subject_id":"91480","group":"Group2","condition":"1_Rep","full_date":"2026-02-27T21:08:48.630Z","date":"2026-02-27","time":"21:08:48"},{"rt":null,"stimulus":"<p style=\"font-size: 50px; margin: 0; text-align: center;\">+</p>","response":null,"trial_type":"html-keyboard-response","trial_index":5,"plugin_version":"2.1.0","time_elapsed":75637,"subject_id":"91480","group":"Group2","condition":"1_Rep","full_date":"2026-02-27T21:08:48.630Z","date":"2026-02-27","time":"21:08:48"},{"task":"memory_phase","broad_category":"I","image_png":"I_Gabbro_12.png","image_id":60,"category_name":"Gabbro","category":4,"distinct_rating":2.6,"distinct_type":"Bottom","rt":null,"stimulus":"Stimuli_Rocks480/I_Gabbro_12.png","response":null,"trial_type":"image-keyboard-response","trial_index":6,"plugin_version":"2.1.0","time_elapsed":78145,"subject_id":"91480","group":"Group2","condition":"1_Rep","full_date":"2026-02-27T21:08:48.630Z","date":"2026-02-27","time":"21:08:48"},{"rt":null,"stimulus":"<p style=\"font-size: 50px; margin: 0; text-align: center;\">+</p>","response":null,"trial_type":"html-keyboard-response","trial_index":7,"plugin_version":"2.1.0","time_elapsed":79147,"subject_id":"91480","group":"Group2","condition":"1_Rep","full_date":"2026-02-27T21:08:48.630Z","date":"2026-02-27","time":"21:08:48"},{"task":"memory_phase","broad_category":"M","image_png":"M_Marble_02.png","image_id":226,"category_name":"Marble","category":15,"distinct_rating":3.2,"distinct_type":"Bottom","rt":null,"stimulus":"Stimuli_Rocks480/M_Marble_02.png","response":null,"trial_type":"image-keyboard-response","trial_index":8,"plugin_version":"2.1.0","time_elapsed":81652,"subject_id":"91480","group":"Group2","condition":"1_Rep","full_date":"2026-02-27T21:08:48.630Z","date":"2026-02-27","time":"21:08:48"},{"rt":null,"stimulus":"<p style=\"font-size: 50px; margin: 0; text-align: center;\">+</p>","response":null,"trial_type":"html-keyboard-response","trial_index":9,"plugin_version":"2.1.0","time_elapsed":82656,"subject_id":"91480","group":"Group2","condition":"1_Rep","full_date":"2026-02-27T21:08:48.630Z","date":"2026-02-27","time":"21:08:48"},{"task":"memory_phase","broad_category":"M","image_png":"M_Slate_04.png","image_id":308,"category_name":"Slate","category":20,"distinct_rating":2.2,"distinct_type":"Bottom","rt":null,"stimulus":"Stimuli_Rocks480/M_Slate_04.png","response":null,"trial_type":"image-keyboard-response","trial_index":10,"plugin_version":"2.1.0","time_elapsed":85160,"subject_id":"91480","group":"Group2","condition":"1_Rep","full_date":"2026-02-27T21:08:48.630Z","date":"2026-02-27","time":"21:08:48"},{"rt":null,"stimulus":"<p style=\"font-size: 50px; margin: 0; text-align: center;\">+</p>","response":null,"trial_type":"html-keyboard-response","trial_index":11,"plugin_version":"2.1.0","time_elapsed":86163,"subject_id":"91480","group":"Group2","condition":"1_Rep","full_date":"2026-02-27T21:08:48.630Z","date":"2026-02-27","time":"21:08:48"},{"task":"memory_phase","broad_category":"I","image_png":"I_Andesite_03.png","image_id":3,"category_name":"Andesite","category":1,"distinct_rating":3.17,"distinct_type":"Bottom","rt":null,"stimulus":"Stimuli_Rocks480/I_Andesite_03.png","response":null,"trial_type":"image-keyboard-response","trial_index":12,"plugin_version":"2.1.0","time_elapsed":88667,"subject_id":"91480","group":"Group2","condition":"1_Rep","full_date":"2026-02-27T21:08:48.630Z","date":"2026-02-27","time":"21:08:48"},{"rt":null,"stimulus":"<p style=\"font-size: 50px; margin: 0; text-align: center;\">+</p>","response":null,"trial_type":"html-keyboard-response","trial_index":13,"plugin_version":"2.1.0","time_elapsed":89670,"subject_id":"91480","group":"Group2","condition":"1_Rep","full_date":"2026-02-27T21:08:48.630Z","date":"2026-02-27","time":"21:08:48"},{"task":"memory_phase","broad_category":"M","image_png":"M_Slate_14.png","image_id":318,"category_name":"Slate","category":20,"distinct_rating":2.58,"distinct_type":"Bottom","rt":null,"stimulus":"Stimuli_Rocks480/M_Slate_14.png","response":null,"trial_type":"image-keyboard-response","trial_index":14,"plugin_version":"2.1.0","time_elapsed":92175,"subject_id":"91480","group":"Group2","condition":"1_Rep","full_date":"2026-02-27T21:08:48.630Z","date":"2026-02-27","time":"21:08:48"},{"rt":null,"stimulus":"<p style=\"font-size: 50px; margin: 0; text-align: center;\">+</p>","response":null,"trial_type":"html-keyboard-response","trial_index":15,"plugin_version":"2.1.0","time_elapsed":93177,"subject_id":"91480","group":"Group2","condition":"1_Rep","full_date":"2026-02-27T21:08:48.630Z","date":"2026-02-27","time":"21:08:48"},{"task":"memory_phase","broad_category":"M","image_png":"M_Slate_10.png","image_id":314,"category_name":"Slate","category":20,"distinct_rating":1.94,"distinct_type":"Bottom","rt":null,"stimulus":"Stimuli_Rocks480/M_Slate_10.png","response":null,"trial_type":"image-keyboard-response","trial_index":16,"plugin_version":"2.1.0","time_elapsed":95681,"subject_id":"91480","group":"Group2","condition":"1_Rep","full_date":"2026-02-27T21:08:48.630Z","date":"2026-02-27","time":"21:08:48"},{"rt":null,"stimulus":"<p style=\"font-size: 50px; margin: 0; text-align: center;\">+</p>","response":null,"trial_type":"html-keyboard-response","trial_index":17,"plugin_version":"2.1.0","time_elapsed":96683,"subject_id":"91480","group":"Group2","condition":"1_Rep","full_date":"2026-02-27T21:08:48.630Z","date":"2026-02-27","time":"21:08:48"},{"task":"memory_phase","broad_category":"S","image_png":"S_Sandstone_04.png","image_id":452,"category_name":"Sandstone","category":29,"distinct_rating":1.8,"distinct_type":"Bottom","rt":null,"stimulus":"Stimuli_Rocks480/S_Sandstone_04.png","response":null,"trial_type":"image-keyboard-response","trial_index":18,"plugin_version":"2.1.0","time_elapsed":99187,"subject_id":"91480","group":"Group2","condition":"1_Rep","full_date":"2026-02-27T21:08:48.630Z","date":"2026-02-27","time":"21:08:48"},{"rt":null,"stimulus":"<p style=\"font-size: 50px; margin: 0; text-align: center;\">+</p>","response":null,"trial_type":"html-keyboard-response","trial_index":19,"plugin_version":"2.1.0","time_elapsed":100190,"subject_id":"91480","group":"Group2","condition":"1_Rep","full_date":"2026-02-27T21:08:48.630Z","date":"2026-02-27","time":"21:08:48"},{"task":"memory_phase","broad_category":"I","image_png":"I_Pegmatite_03.png","image_id":99,"category_name":"Pegmatite","category":7,"distinct_rating":7.24,"distinct_type":"Top","rt":null,"stimulus":"Stimuli_Rocks480/I_Pegmatite_03.png","response":null,"trial_type":"image-keyboard-response","trial_index":20,"plugin_version":"2.1.0","time_elapsed":102694,"subject_id":"91480","group":"Group2","condition":"1_Rep","full_date":"2026-02-27T21:08:48.630Z","date":"2026-02-27","time":"21:08:48"},{"rt":null,"stimulus":"<p style=\"font-size: 50px; margin: 0; text-align: center;\">+</p>","response":null,"trial_type":"html-keyboard-response","trial_index":21,"plugin_version":"2.1.0","time_elapsed":103697,"subject_id":"91480","group":"Group2","condition":"1_Rep","full_date":"2026-02-27T21:08:48.630Z","date":"2026-02-27","time":"21:08:48"},{"task":"memory_phase","broad_category":"I","image_png":"I_Pumice_01.png","image_id":129,"category_name":"Pumice","category":9,"distinct_rating":3.25,"distinct_type":"Bottom","rt":null,"stimulus":"Stimuli_Rocks480/I_Pumice_01.png","response":null,"trial_type":"image-keyboard-response","trial_index":22,"plugin_version":"2.1.0","time_elapsed":106201,"subject_id":"91480","group":"Group2","condition":"1_Rep","full_date":"2026-02-27T21:08:48.630Z","date":"2026-02-27","time":"21:08:48"},{"rt":null,"stimulus":"<p style=\"font-size: 50px; margin: 0; text-align: center;\">+</p>","response":null,"trial_type":"html-keyboard-response","trial_index":23,"plugin_version":"2.1.0","time_elapsed":107204,"subject_id":"91480","group":"Group2","condition":"1_Rep","full_date":"2026-02-27T21:08:48.630Z","date":"2026-02-27","time":"21:08:48"},{"task":"memory_phase","broad_category":"S","image_png":"S_Sandstone_11.png","image_id":459,"category_name":"Sandstone","category":29,"distinct_rating":1.82,"distinct_type":"Bottom","rt":null,"stimulus":"Stimuli_Rocks480/S_Sandstone_11.png","response":null,"trial_type":"image-keyboard-response","trial_index":24,"plugin_version":"2.1.0","time_elapsed":109708,"subject_id":"91480","group":"Group2","condition":"1_Rep","full_date":"2026-02-27T21:08:48.630Z","date":"2026-02-27","time":"21:08:48"},{"rt":null,"stimulus":"<p style=\"font-size: 50px; margin: 0; text-align: center;\">+</p>","response":null,"trial_type":"html-keyboard-response","trial_index":25,"plugin_version":"2.1.0","time_elapsed":110711,"subject_id":"91480","group":"Group2","condition":"1_Rep","full_date":"2026-02-27T21:08:48.630Z","date":"2026-02-27","time":"21:08:48"},{"task":"memory_phase","broad_category":"I","image_png":"I_Diorite_01.png","image_id":33,"category_name":"Diorite","category":3,"distinct_rating":2.97,"distinct_type":"Bottom","rt":null,"stimulus":"Stimuli_Rocks480/I_Diorite_01.png","response":null,"trial_type":"image-keyboard-response","trial_index":26,"plugin_version":"2.1.0","time_elapsed":113216,"subject_id":"91480","group":"Group2","condition":"1_Rep","full_date":"2026-02-27T21:08:48.630Z","date":"2026-02-27","time":"21:08:48"},{"rt":null,"stimulus":"<p style=\"font-size: 50px; margin: 0; text-align: center;\">+</p>","response":null,"trial_type":"html-keyboard-response","trial_index":27,"plugin_version":"2.1.0","time_elapsed":114219,"subject_id":"91480","group":"Group2","condition":"1_Rep","full_date":"2026-02-27T21:08:48.630Z","date":"2026-02-27","time":"21:08:48"},{"task":"memory_phase","broad_category":"S","image_png":"S_Shale_03.png","image_id":467,"category_name":"Shale","category":30,"distinct_rating":1.95,"distinct_type":"Bottom","rt":null,"stimulus":"Stimuli_Rocks480/S_Shale_03.png","response":null,"trial_type":"image-keyboard-response","trial_index":28,"plugin_version":"2.1.0","time_elapsed":116723,"subject_id":"91480","group":"Group2","condition":"1_Rep","full_date":"2026-02-27T21:08:48.630Z","date":"2026-02-27","time":"21:08:48"},{"rt":null,"stimulus":"<p style=\"font-size: 50px; margin: 0; text-align: center;\">+</p>","response":null,"trial_type":"html-keyboard-response","trial_index":29,"plugin_version":"2.1.0","time_elapsed":117726,"subject_id":"91480","group":"Group2","condition":"1_Rep","full_date":"2026-02-27T21:08:48.630Z","date":"2026-02-27","time":"21:08:48"},{"task":"memory_phase","broad_category":"M","image_png":"M_Phyllite_13.png","image_id":269,"category_name":"Phyllite","category":17,"distinct_rating":2.8,"distinct_type":"Bottom","rt":null,"stimulus":"Stimuli_Rocks480/M_Phyllite_13.png","response":null,"trial_type":"image-keyboard-response","trial_index":30,"plugin_version":"2.1.0","time_elapsed":120229,"subject_id":"91480","group":"Group2","condition":"1_Rep","full_date":"2026-02-27T21:08:48.630Z","date":"2026-02-27","time":"21:08:48"},{"rt":null,"stimulus":"<p style=\"font-size: 50px; margin: 0; text-align: center;\">+</p>","response":null,"trial_type":"html-keyboard-response","trial_index":31,"plugin_version":"2.1.0","time_elapsed":121232,"subject_id":"91480","group":"Group2","condition":"1_Rep","full_date":"2026-02-27T21:08:48.630Z","date":"2026-02-27","time":"21:08:48"},{"task":"memory_phase","broad_category":"I","image_png":"I_Gabbro_02.png","image_id":50,"category_name":"Gabbro","category":4,"distinct_rating":2.73,"distinct_type":"Bottom","rt":null,"stimulus":"Stimuli_Rocks480/I_Gabbro_02.png","response":null,"trial_type":"image-keyboard-response","trial_index":32,"plugin_version":"2.1.0","time_elapsed":123735,"subject_id":"91480","group":"Group2","condition":"1_Rep","full_date":"2026-02-27T21:08:48.630Z","date":"2026-02-27","time":"21:08:48"},{"rt":null,"stimulus":"<p style=\"font-size: 50px; margin: 0; text-align: center;\">+</p>","response":null,"trial_type":"html-keyboard-response","trial_index":33,"plugin_version":"2.1.0","time_elapsed":124738,"subject_id":"91480","group":"Group2","condition":"1_Rep","full_date":"2026-02-27T21:08:48.630Z","date":"2026-02-27","time":"21:08:48"},{"task":"memory_phase","broad_category":"M","image_png":"M_Gneiss_15.png","image_id":207,"category_name":"Gneiss","category":13,"distinct_rating":3.11,"distinct_type":"Bottom","rt":null,"stimulus":"Stimuli_Rocks480/M_Gneiss_15.png","response":null,"trial_type":"image-keyboard-response","trial_index":34,"plugin_version":"2.1.0","time_elapsed":127242,"subject_id":"91480","group":"Group2","condition":"1_Rep","full_date":"2026-02-27T21:08:48.630Z","date":"2026-02-27","time":"21:08:48"},{"rt":null,"stimulus":"<p style=\"font-size: 50px; margin: 0; text-align: center;\">+</p>","response":null,"trial_type":"html-keyboard-response","trial_index":35,"plugin_version":"2.1.0","time_elapsed":128244,"subject_id":"91480","group":"Group2","condition":"1_Rep","full_date":"2026-02-27T21:08:48.630Z","date":"2026-02-27","time":"21:08:48"},{"task":"memory_phase","broad_category":"I","image_png":"I_Obsidian_06.png","image_id":86,"category_name":"Obsidian","category":6,"distinct_rating":8.01,"distinct_type":"Top","rt":null,"stimulus":"Stimuli_Rocks480/I_Obsidian_06.png","response":null,"trial_type":"image-keyboard-response","trial_index":36,"plugin_version":"2.1.0","time_elapsed":130748,"subject_id":"91480","group":"Group2","condition":"1_Rep","full_date":"2026-02-27T21:08:48.630Z","date":"2026-02-27","time":"21:08:48"},{"rt":null,"stimulus":"<p style=\"font-size: 50px; margin: 0; text-align: center;\">+</p>","response":null,"trial_type":"html-keyboard-response","trial_index":37,"plugin_version":"2.1.0","time_elapsed":131751,"subject_id":"91480","group":"Group2","condition":"1_Rep","full_date":"2026-02-27T21:08:48.630Z","date":"2026-02-27","time":"21:08:48"},{"task":"memory_phase","broad_category":"M","image_png":"M_Quartzite_15.png","image_id":287,"category_name":"Quartzite","category":18,"distinct_rating":2.19,"distinct_type":"Bottom","rt":null,"stimulus":"Stimuli_Rocks480/M_Quartzite_15.png","response":null,"trial_type":"image-keyboard-response","trial_index":38,"plugin_version":"2.1.0","time_elapsed":134255,"subject_id":"91480","group":"Group2","condition":"1_Rep","full_date":"2026-02-27T21:08:48.630Z","date":"2026-02-27","time":"21:08:48"},{"rt":null,"stimulus":"<p style=\"font-size: 50px; margin: 0; text-align: center;\">+</p>","response":null,"trial_type":"html-keyboard-response","trial_index":39,"plugin_version":"2.1.0","time_elapsed":135258,"subject_id":"91480","group":"Group2","condition":"1_Rep","full_date":"2026-02-27T21:08:48.630Z","date":"2026-02-27","time":"21:08:48"},{"task":"memory_phase","broad_category":"S","image_png":"S_Dolomite_07.png","image_id":391,"category_name":"Dolomite","category":25,"distinct_rating":1.73,"distinct_type":"Bottom","rt":null,"stimulus":"Stimuli_Rocks480/S_Dolomite_07.png","response":null,"trial_type":"image-keyboard-response","trial_index":40,"plugin_version":"2.1.0","time_elapsed":137762,"subject_id":"91480","group":"Group2","condition":"1_Rep","full_date":"2026-02-27T21:08:48.630Z","date":"2026-02-27","time":"21:08:48"},{"rt":null,"stimulus":"<p style=\"font-size: 50px; margin: 0; text-align: center;\">+</p>","response":null,"trial_type":"html-keyboard-response","trial_index":41,"plugin_version":"2.1.0","time_elapsed":138765,"subject_id":"91480","group":"Group2","condition":"1_Rep","full_date":"2026-02-27T21:08:48.630Z","date":"2026-02-27","time":"21:08:48"},{"task":"memory_phase","broad_category":"M","image_png":"M_Gneiss_10.png","image_id":202,"category_name":"Gneiss","category":13,"distinct_rating":3.09,"distinct_type":"Bottom","rt":null,"stimulus":"Stimuli_Rocks480/M_Gneiss_10.png","response":null,"trial_type":"image-keyboard-response","trial_index":42,"plugin_version":"2.1.0","time_elapsed":141269,"subject_id":"91480","group":"Group2","condition":"1_Rep","full_date":"2026-02-27T21:08:48.630Z","date":"2026-02-27","time":"21:08:48"},{"rt":null,"stimulus":"<p style=\"font-size: 50px; margin: 0; text-align: center;\">+</p>","response":null,"trial_type":"html-keyboard-response","trial_index":43,"plugin_version":"2.1.0","time_elapsed":142272,"subject_id":"91480","group":"Group2","condition":"1_Rep","full_date":"2026-02-27T21:08:48.630Z","date":"2026-02-27","time":"21:08:48"},{"task":"memory_phase","broad_category":"M","image_png":"M_Phyllite_02.png","image_id":258,"category_name":"Phyllite","category":17,"distinct_rating":2.89,"distinct_type":"Bottom","rt":null,"stimulus":"Stimuli_Rocks480/M_Phyllite_02.png","response":null,"trial_type":"image-keyboard-response","trial_index":44,"plugin_version":"2.1.0","time_elapsed":144775,"subject_id":"91480","group":"Group2","condition":"1_Rep","full_date":"2026-02-27T21:08:48.630Z","date":"2026-02-27","time":"21:08:48"},{"rt":null,"stimulus":"<p style=\"font-size: 50px; margin: 0; text-align: center;\">+</p>","response":null,"trial_type":"html-keyboard-response","trial_index":45,"plugin_version":"2.1.0","time_elapsed":145777,"subject_id":"91480","group":"Group2","condition":"1_Rep","full_date":"2026-02-27T21:08:48.630Z","date":"2026-02-27","time":"21:08:48"},{"task":"memory_phase","broad_category":"S","image_png":"S_Dolomite_01.png","image_id":385,"category_name":"Dolomite","category":25,"distinct_rating":1.43,"distinct_type":"Bottom","rt":null,"stimulus":"Stimuli_Rocks480/S_Dolomite_01.png","response":null,"trial_type":"image-keyboard-response","trial_index":46,"plugin_version":"2.1.0","time_elapsed":148280,"subject_id":"91480","group":"Group2","condition":"1_Rep","full_date":"2026-02-27T21:08:48.630Z","date":"2026-02-27","time":"21:08:48"},{"rt":null,"stimulus":"<p style=\"font-size: 50px; margin: 0; text-align: center;\">+</p>","response":null,"trial_type":"html-keyboard-response","trial_index":47,"plugin_version":"2.1.0","time_elapsed":149283,"subject_id":"91480","group":"Group2","condition":"1_Rep","full_date":"2026-02-27T21:08:48.630Z","date":"2026-02-27","time":"21:08:48"},{"task":"memory_phase","broad_category":"S","image_png":"S_Chert_13.png","image_id":365,"category_name":"Chert","category":23,"distinct_rating":6.57,"distinct_type":"Top","rt":null,"stimulus":"Stimuli_Rocks480/S_Chert_13.png","response":null,"trial_type":"image-keyboard-response","trial_index":48,"plugin_version":"2.1.0","time_elapsed":151787,"subject_id":"91480","group":"Group2","condition":"1_Rep","full_date":"2026-02-27T21:08:48.630Z","date":"2026-02-27","time":"21:08:48"},{"rt":null,"stimulus":"<p style=\"font-size: 50px; margin: 0; text-align: center;\">+</p>","response":null,"trial_type":"html-keyboard-response","trial_index":49,"plugin_version":"2.1.0","time_elapsed":152790,"subject_id":"91480","group":"Group2","condition":"1_Rep","full_date":"2026-02-27T21:08:48.630Z","date":"2026-02-27","time":"21:08:48"},{"task":"memory_phase","broad_category":"I","image_png":"I_Peridotite_13.png","image_id":125,"category_name":"Peridotite","category":8,"distinct_rating":7.28,"distinct_type":"Top","rt":null,"stimulus":"Stimuli_Rocks480/I_Peridotite_13.png","response":null,"trial_type":"image-keyboard-response","trial_index":50,"plugin_version":"2.1.0","time_elapsed":155293,"subject_id":"91480","group":"Group2","condition":"1_Rep","full_date":"2026-02-27T21:08:48.630Z","date":"2026-02-27","time":"21:08:48"},{"rt":null,"stimulus":"<p style=\"font-size: 50px; margin: 0; text-align: center;\">+</p>","response":null,"trial_type":"html-keyboard-response","trial_index":51,"plugin_version":"2.1.0","time_elapsed":156295,"subject_id":"91480","group":"Group2","condition":"1_Rep","full_date":"2026-02-27T21:08:48.630Z","date":"2026-02-27","time":"21:08:48"},{"task":"memory_phase","broad_category":"S","image_png":"S_Rock Salt_15.png","image_id":447,"category_name":"Rock Salt","category":28,"distinct_rating":7.79,"distinct_type":"Top","rt":null,"stimulus":"Stimuli_Rocks480/S_Rock Salt_15.png","response":null,"trial_type":"image-keyboard-response","trial_index":52,"plugin_version":"2.1.0","time_elapsed":158799,"subject_id":"91480","group":"Group2","condition":"1_Rep","full_date":"2026-02-27T21:08:48.630Z","date":"2026-02-27","time":"21:08:48"},{"rt":null,"stimulus":"<p style=\"font-size: 50px; margin: 0; text-align: center;\">+</p>","response":null,"trial_type":"html-keyboard-response","trial_index":53,"plugin_version":"2.1.0","time_elapsed":159802,"subject_id":"91480","group":"Group2","condition":"1_Rep","full_date":"2026-02-27T21:08:48.630Z","date":"2026-02-27","time":"21:08:48"},{"task":"memory_phase","broad_category":"I","image_png":"I_Pegmatite_11.png","image_id":107,"category_name":"Pegmatite","category":7,"distinct_rating":7.11,"distinct_type":"Top","rt":null,"stimulus":"Stimuli_Rocks480/I_Pegmatite_11.png","response":null,"trial_type":"image-keyboard-response","trial_index":54,"plugin_version":"2.1.0","time_elapsed":162306,"subject_id":"91480","group":"Group2","condition":"1_Rep","full_date":"2026-02-27T21:08:48.630Z","date":"2026-02-27","time":"21:08:48"},{"rt":29446,"stimulus":"<p style=\"max-width: 760px; margin: auto; font-size: 35px; line-height: 1.5;\">\n                Press SPACE to continue study phase\n              </p>","response":" ","trial_type":"html-keyboard-response","trial_index":55,"plugin_version":"2.1.0","time_elapsed":191753,"subject_id":"91480","group":"Group2","condition":"1_Rep","full_date":"2026-02-27T21:08:48.630Z","date":"2026-02-27","time":"21:08:48"},{"rt":null,"stimulus":"<p style=\"font-size: 50px; margin: 0; text-align: center;\">+</p>","response":null,"trial_type":"html-keyboard-response","trial_index":56,"plugin_version":"2.1.0","time_elapsed":192756,"subject_id":"91480","group":"Group2","condition":"1_Rep","full_date":"2026-02-27T21:08:48.630Z","date":"2026-02-27","time":"21:08:48"},{"task":"memory_phase","broad_category":"S","image_png":"S_Sandstone_08.png","image_id":456,"category_name":"Sandstone","category":29,"distinct_rating":1.5,"distinct_type":"Bottom","rt":null,"stimulus":"Stimuli_Rocks480/S_Sandstone_08.png","response":null,"trial_type":"image-keyboard-response","trial_index":57,"plugin_version":"2.1.0","time_elapsed":195259,"subject_id":"91480","group":"Group2","condition":"1_Rep","full_date":"2026-02-27T21:08:48.630Z","date":"2026-02-27","time":"21:08:48"},{"rt":null,"stimulus":"<p style=\"font-size: 50px; margin: 0; text-align: center;\">+</p>","response":null,"trial_type":"html-keyboard-response","trial_index":58,"plugin_version":"2.1.0","time_elapsed":196262,"subject_id":"91480","group":"Group2","condition":"1_Rep","full_date":"2026-02-27T21:08:48.630Z","date":"2026-02-27","time":"21:08:48"},{"task":"memory_phase","broad_category":"M","image_png":"M_Quartzite_12.png","image_id":284,"category_name":"Quartzite","category":18,"distinct_rating":1.92,"distinct_type":"Bottom","rt":null,"stimulus":"Stimuli_Rocks480/M_Quartzite_12.png","response":null,"trial_type":"image-keyboard-response","trial_index":59,"plugin_version":"2.1.0","time_elapsed":198765,"subject_id":"91480","group":"Group2","condition":"1_Rep","full_date":"2026-02-27T21:08:48.630Z","date":"2026-02-27","time":"21:08:48"},{"rt":null,"stimulus":"<p style=\"font-size: 50px; margin: 0; text-align: center;\">+</p>","response":null,"trial_type":"html-keyboard-response","trial_index":60,"plugin_version":"2.1.0","time_elapsed":199768,"subject_id":"91480","group":"Group2","condition":"1_Rep","full_date":"2026-02-27T21:08:48.630Z","date":"2026-02-27","time":"21:08:48"},{"task":"memory_phase","broad_category":"I","image_png":"I_Basalt_10.png","image_id":26,"category_name":"Basalt","category":2,"distinct_rating":2.76,"distinct_type":"Bottom","rt":null,"stimulus":"Stimuli_Rocks480/I_Basalt_10.png","response":null,"trial_type":"image-keyboard-response","trial_index":61,"plugin_version":"2.1.0","time_elapsed":202272,"subject_id":"91480","group":"Group2","condition":"1_Rep","full_date":"2026-02-27T21:08:48.630Z","date":"2026-02-27","time":"21:08:48"},{"rt":null,"stimulus":"<p style=\"font-size: 50px; margin: 0; text-align: center;\">+</p>","response":null,"trial_type":"html-keyboard-response","trial_index":62,"plugin_version":"2.1.0","time_elapsed":203274,"subject_id":"91480","group":"Group2","condition":"1_Rep","full_date":"2026-02-27T21:08:48.630Z","date":"2026-02-27","time":"21:08:48"},{"task":"memory_phase","broad_category":"I","image_png":"I_Basalt_08.png","image_id":24,"category_name":"Basalt","category":2,"distinct_rating":2.31,"distinct_type":"Bottom","rt":null,"stimulus":"Stimuli_Rocks480/I_Basalt_08.png","response":null,"trial_type":"image-keyboard-response","trial_index":63,"plugin_version":"2.1.0","time_elapsed":205778,"subject_id":"91480","group":"Group2","condition":"1_Rep","full_date":"2026-02-27T21:08:48.630Z","date":"2026-02-27","time":"21:08:48"},{"rt":null,"stimulus":"<p style=\"font-size: 50px; margin: 0; text-align: center;\">+</p>","response":null,"trial_type":"html-keyboard-response","trial_index":64,"plugin_version":"2.1.0","time_elapsed":206781,"subject_id":"91480","group":"Group2","condition":"1_Rep","full_date":"2026-02-27T21:08:48.630Z","date":"2026-02-27","time":"21:08:48"},{"task":"memory_phase","broad_category":"M","image_png":"M_Phyllite_05.png","image_id":261,"category_name":"Phyllite","category":17,"distinct_rating":2.14,"distinct_type":"Bottom","rt":null,"stimulus":"Stimuli_Rocks480/M_Phyllite_05.png","response":null,"trial_type":"image-keyboard-response","trial_index":65,"plugin_version":"2.1.0","time_elapsed":209285,"subject_id":"91480","group":"Group2","condition":"1_Rep","full_date":"2026-02-27T21:08:48.630Z","date":"2026-02-27","time":"21:08:48"},{"rt":null,"stimulus":"<p style=\"font-size: 50px; margin: 0; text-align: center;\">+</p>","response":null,"trial_type":"html-keyboard-response","trial_index":66,"plugin_version":"2.1.0","time_elapsed":210288,"subject_id":"91480","group":"Group2","condition":"1_Rep","full_date":"2026-02-27T21:08:48.630Z","date":"2026-02-27","time":"21:08:48"},{"task":"memory_phase","broad_category":"M","image_png":"M_Marble_03.png","image_id":227,"category_name":"Marble","category":15,"distinct_rating":2.67,"distinct_type":"Bottom","rt":null,"stimulus":"Stimuli_Rocks480/M_Marble_03.png","response":null,"trial_type":"image-keyboard-response","trial_index":67,"plugin_version":"2.1.0","time_elapsed":212791,"subject_id":"91480","group":"Group2","condition":"1_Rep","full_date":"2026-02-27T21:08:48.630Z","date":"2026-02-27","time":"21:08:48"},{"rt":null,"stimulus":"<p style=\"font-size: 50px; margin: 0; text-align: center;\">+</p>","response":null,"trial_type":"html-keyboard-response","trial_index":68,"plugin_version":"2.1.0","time_elapsed":213794,"subject_id":"91480","group":"Group2","condition":"1_Rep","full_date":"2026-02-27T21:08:48.630Z","date":"2026-02-27","time":"21:08:48"},{"task":"memory_phase","broad_category":"I","image_png":"I_Rhyolite_10.png","image_id":154,"category_name":"Rhyolite","category":10,"distinct_rating":2.88,"distinct_type":"Bottom","rt":null,"stimulus":"Stimuli_Rocks480/I_Rhyolite_10.png","response":null,"trial_type":"image-keyboard-response","trial_index":69,"plugin_version":"2.1.0","time_elapsed":216298,"subject_id":"91480","group":"Group2","condition":"1_Rep","full_date":"2026-02-27T21:08:48.630Z","date":"2026-02-27","time":"21:08:48"},{"rt":null,"stimulus":"<p style=\"font-size: 50px; margin: 0; text-align: center;\">+</p>","response":null,"trial_type":"html-keyboard-response","trial_index":70,"plugin_version":"2.1.0","time_elapsed":217300,"subject_id":"91480","group":"Group2","condition":"1_Rep","full_date":"2026-02-27T21:08:48.630Z","date":"2026-02-27","time":"21:08:48"},{"task":"memory_phase","broad_category":"S","image_png":"S_Rock Salt_13.png","image_id":445,"category_name":"Rock Salt","category":28,"distinct_rating":7.58,"distinct_type":"Top","rt":null,"stimulus":"Stimuli_Rocks480/S_Rock Salt_13.png","response":null,"trial_type":"image-keyboard-response","trial_index":71,"plugin_version":"2.1.0","time_elapsed":219804,"subject_id":"91480","group":"Group2","condition":"1_Rep","full_date":"2026-02-27T21:08:48.630Z","date":"2026-02-27","time":"21:08:48"},{"rt":null,"stimulus":"<p style=\"font-size: 50px; margin: 0; text-align: center;\">+</p>","response":null,"trial_type":"html-keyboard-response","trial_index":72,"plugin_version":"2.1.0","time_elapsed":220807,"subject_id":"91480","group":"Group2","condition":"1_Rep","full_date":"2026-02-27T21:08:48.630Z","date":"2026-02-27","time":"21:08:48"},{"task":"memory_phase","broad_category":"I","image_png":"I_Diorite_15.png","image_id":47,"category_name":"Diorite","category":3,"distinct_rating":3.05,"distinct_type":"Bottom","rt":null,"stimulus":"Stimuli_Rocks480/I_Diorite_15.png","response":null,"trial_type":"image-keyboard-response","trial_index":73,"plugin_version":"2.1.0","time_elapsed":223311,"subject_id":"91480","group":"Group2","condition":"1_Rep","full_date":"2026-02-27T21:08:48.630Z","date":"2026-02-27","time":"21:08:48"},{"rt":null,"stimulus":"<p style=\"font-size: 50px; margin: 0; text-align: center;\">+</p>","response":null,"trial_type":"html-keyboard-response","trial_index":74,"plugin_version":"2.1.0","time_elapsed":224314,"subject_id":"91480","group":"Group2","condition":"1_Rep","full_date":"2026-02-27T21:08:48.630Z","date":"2026-02-27","time":"21:08:48"},{"task":"memory_phase","broad_category":"I","image_png":"I_Basalt_13.png","image_id":29,"category_name":"Basalt","category":2,"distinct_rating":2.68,"distinct_type":"Bottom","rt":null,"stimulus":"Stimuli_Rocks480/I_Basalt_13.png","response":null,"trial_type":"image-keyboard-response","trial_index":75,"plugin_version":"2.1.0","time_elapsed":226818,"subject_id":"91480","group":"Group2","condition":"1_Rep","full_date":"2026-02-27T21:08:48.630Z","date":"2026-02-27","time":"21:08:48"},{"rt":null,"stimulus":"<p style=\"font-size: 50px; margin: 0; text-align: center;\">+</p>","response":null,"trial_type":"html-keyboard-response","trial_index":76,"plugin_version":"2.1.0","time_elapsed":227821,"subject_id":"91480","group":"Group2","condition":"1_Rep","full_date":"2026-02-27T21:08:48.630Z","date":"2026-02-27","time":"21:08:48"},{"task":"memory_phase","broad_category":"I","image_png":"I_Rhyolite_08.png","image_id":152,"category_name":"Rhyolite","category":10,"distinct_rating":1.38,"distinct_type":"Bottom","rt":null,"stimulus":"Stimuli_Rocks480/I_Rhyolite_08.png","response":null,"trial_type":"image-keyboard-response","trial_index":77,"plugin_version":"2.1.0","time_elapsed":230326,"subject_id":"91480","group":"Group2","condition":"1_Rep","full_date":"2026-02-27T21:08:48.630Z","date":"2026-02-27","time":"21:08:48"},{"rt":null,"stimulus":"<p style=\"font-size: 50px; margin: 0; text-align: center;\">+</p>","response":null,"trial_type":"html-keyboard-response","trial_index":78,"plugin_version":"2.1.0","time_elapsed":231328,"subject_id":"91480","group":"Group2","condition":"1_Rep","full_date":"2026-02-27T21:08:48.630Z","date":"2026-02-27","time":"21:08:48"},{"task":"memory_phase","broad_category":"I","image_png":"I_Diorite_10.png","image_id":42,"category_name":"Diorite","category":3,"distinct_rating":2.84,"distinct_type":"Bottom","rt":null,"stimulus":"Stimuli_Rocks480/I_Diorite_10.png","response":null,"trial_type":"image-keyboard-response","trial_index":79,"plugin_version":"2.1.0","time_elapsed":233832,"subject_id":"91480","group":"Group2","condition":"1_Rep","full_date":"2026-02-27T21:08:48.630Z","date":"2026-02-27","time":"21:08:48"},{"rt":null,"stimulus":"<p style=\"font-size: 50px; margin: 0; text-align: center;\">+</p>","response":null,"trial_type":"html-keyboard-response","trial_index":80,"plugin_version":"2.1.0","time_elapsed":234834,"subject_id":"91480","group":"Group2","condition":"1_Rep","full_date":"2026-02-27T21:08:48.630Z","date":"2026-02-27","time":"21:08:48"},{"task":"memory_phase","broad_category":"M","image_png":"M_Quartzite_07.png","image_id":279,"category_name":"Quartzite","category":18,"distinct_rating":1.97,"distinct_type":"Bottom","rt":null,"stimulus":"Stimuli_Rocks480/M_Quartzite_07.png","response":null,"trial_type":"image-keyboard-response","trial_index":81,"plugin_version":"2.1.0","time_elapsed":237339,"subject_id":"91480","group":"Group2","condition":"1_Rep","full_date":"2026-02-27T21:08:48.630Z","date":"2026-02-27","time":"21:08:48"},{"rt":null,"stimulus":"<p style=\"font-size: 50px; margin: 0; text-align: center;\">+</p>","response":null,"trial_type":"html-keyboard-response","trial_index":82,"plugin_version":"2.1.0","time_elapsed":238341,"subject_id":"91480","group":"Group2","condition":"1_Rep","full_date":"2026-02-27T21:08:48.630Z","date":"2026-02-27","time":"21:08:48"},{"task":"memory_phase","broad_category":"I","image_png":"I_Andesite_09.png","image_id":9,"category_name":"Andesite","category":1,"distinct_rating":2.49,"distinct_type":"Bottom","rt":null,"stimulus":"Stimuli_Rocks480/I_Andesite_09.png","response":null,"trial_type":"image-keyboard-response","trial_index":83,"plugin_version":"2.1.0","time_elapsed":240844,"subject_id":"91480","group":"Group2","condition":"1_Rep","full_date":"2026-02-27T21:08:48.630Z","date":"2026-02-27","time":"21:08:48"},{"rt":null,"stimulus":"<p style=\"font-size: 50px; margin: 0; text-align: center;\">+</p>","response":null,"trial_type":"html-keyboard-response","trial_index":84,"plugin_version":"2.1.0","time_elapsed":241847,"subject_id":"91480","group":"Group2","condition":"1_Rep","full_date":"2026-02-27T21:08:48.630Z","date":"2026-02-27","time":"21:08:48"},{"task":"memory_phase","broad_category":"I","image_png":"I_Rhyolite_05.png","image_id":149,"category_name":"Rhyolite","category":10,"distinct_rating":3.02,"distinct_type":"Bottom","rt":null,"stimulus":"Stimuli_Rocks480/I_Rhyolite_05.png","response":null,"trial_type":"image-keyboard-response","trial_index":85,"plugin_version":"2.1.0","time_elapsed":244351,"subject_id":"91480","group":"Group2","condition":"1_Rep","full_date":"2026-02-27T21:08:48.630Z","date":"2026-02-27","time":"21:08:48"},{"rt":null,"stimulus":"<p style=\"font-size: 50px; margin: 0; text-align: center;\">+</p>","response":null,"trial_type":"html-keyboard-response","trial_index":86,"plugin_version":"2.1.0","time_elapsed":245353,"subject_id":"91480","group":"Group2","condition":"1_Rep","full_date":"2026-02-27T21:08:48.630Z","date":"2026-02-27","time":"21:08:48"},{"task":"memory_phase","broad_category":"I","image_png":"I_Gabbro_14.png","image_id":62,"category_name":"Gabbro","category":4,"distinct_rating":2.95,"distinct_type":"Bottom","rt":null,"stimulus":"Stimuli_Rocks480/I_Gabbro_14.png","response":null,"trial_type":"image-keyboard-response","trial_index":87,"plugin_version":"2.1.0","time_elapsed":247857,"subject_id":"91480","group":"Group2","condition":"1_Rep","full_date":"2026-02-27T21:08:48.630Z","date":"2026-02-27","time":"21:08:48"},{"rt":null,"stimulus":"<p style=\"font-size: 50px; margin: 0; text-align: center;\">+</p>","response":null,"trial_type":"html-keyboard-response","trial_index":88,"plugin_version":"2.1.0","time_elapsed":248859,"subject_id":"91480","group":"Group2","condition":"1_Rep","full_date":"2026-02-27T21:08:48.630Z","date":"2026-02-27","time":"21:08:48"},{"task":"memory_phase","broad_category":"M","image_png":"M_Gneiss_14.png","image_id":206,"category_name":"Gneiss","category":13,"distinct_rating":3.41,"distinct_type":"Bottom","rt":null,"stimulus":"Stimuli_Rocks480/M_Gneiss_14.png","response":null,"trial_type":"image-keyboard-response","trial_index":89,"plugin_version":"2.1.0","time_elapsed":251363,"subject_id":"91480","group":"Group2","condition":"1_Rep","full_date":"2026-02-27T21:08:48.630Z","date":"2026-02-27","time":"21:08:48"},{"rt":null,"stimulus":"<p style=\"font-size: 50px; margin: 0; text-align: center;\">+</p>","response":null,"trial_type":"html-keyboard-response","trial_index":90,"plugin_version":"2.1.0","time_elapsed":252366,"subject_id":"91480","group":"Group2","condition":"1_Rep","full_date":"2026-02-27T21:08:48.630Z","date":"2026-02-27","time":"21:08:48"},{"task":"memory_phase","broad_category":"S","image_png":"S_Shale_02.png","image_id":466,"category_name":"Shale","category":30,"distinct_rating":2.9,"distinct_type":"Bottom","rt":null,"stimulus":"Stimuli_Rocks480/S_Shale_02.png","response":null,"trial_type":"image-keyboard-response","trial_index":91,"plugin_version":"2.1.0","time_elapsed":254870,"subject_id":"91480","group":"Group2","condition":"1_Rep","full_date":"2026-02-27T21:08:48.630Z","date":"2026-02-27","time":"21:08:48"},{"rt":null,"stimulus":"<p style=\"font-size: 50px; margin: 0; text-align: center;\">+</p>","response":null,"trial_type":"html-keyboard-response","trial_index":92,"plugin_version":"2.1.0","time_elapsed":255873,"subject_id":"91480","group":"Group2","condition":"1_Rep","full_date":"2026-02-27T21:08:48.630Z","date":"2026-02-27","time":"21:08:48"},{"task":"memory_phase","broad_category":"I","image_png":"I_Pumice_14.png","image_id":142,"category_name":"Pumice","category":9,"distinct_rating":3.22,"distinct_type":"Bottom","rt":null,"stimulus":"Stimuli_Rocks480/I_Pumice_14.png","response":null,"trial_type":"image-keyboard-response","trial_index":93,"plugin_version":"2.1.0","time_elapsed":258376,"subject_id":"91480","group":"Group2","condition":"1_Rep","full_date":"2026-02-27T21:08:48.630Z","date":"2026-02-27","time":"21:08:48"},{"rt":null,"stimulus":"<p style=\"font-size: 50px; margin: 0; text-align: center;\">+</p>","response":null,"trial_type":"html-keyboard-response","trial_index":94,"plugin_version":"2.1.0","time_elapsed":259379,"subject_id":"91480","group":"Group2","condition":"1_Rep","full_date":"2026-02-27T21:08:48.630Z","date":"2026-02-27","time":"21:08:48"},{"task":"memory_phase","broad_category":"S","image_png":"S_Dolomite_16.png","image_id":400,"category_name":"Dolomite","category":25,"distinct_rating":1.71,"distinct_type":"Bottom","rt":null,"stimulus":"Stimuli_Rocks480/S_Dolomite_16.png","response":null,"trial_type":"image-keyboard-response","trial_index":95,"plugin_version":"2.1.0","time_elapsed":261883,"subject_id":"91480","group":"Group2","condition":"1_Rep","full_date":"2026-02-27T21:08:48.630Z","date":"2026-02-27","time":"21:08:48"},{"rt":null,"stimulus":"<p style=\"font-size: 50px; margin: 0; text-align: center;\">+</p>","response":null,"trial_type":"html-keyboard-response","trial_index":96,"plugin_version":"2.1.0","time_elapsed":262886,"subject_id":"91480","group":"Group2","condition":"1_Rep","full_date":"2026-02-27T21:08:48.630Z","date":"2026-02-27","time":"21:08:48"},{"task":"memory_phase","broad_category":"S","image_png":"S_Shale_07.png","image_id":471,"category_name":"Shale","category":30,"distinct_rating":2.73,"distinct_type":"Bottom","rt":null,"stimulus":"Stimuli_Rocks480/S_Shale_07.png","response":null,"trial_type":"image-keyboard-response","trial_index":97,"plugin_version":"2.1.0","time_elapsed":265391,"subject_id":"91480","group":"Group2","condition":"1_Rep","full_date":"2026-02-27T21:08:48.630Z","date":"2026-02-27","time":"21:08:48"},{"rt":null,"stimulus":"<p style=\"font-size: 50px; margin: 0; text-align: center;\">+</p>","response":null,"trial_type":"html-keyboard-response","trial_index":98,"plugin_version":"2.1.0","time_elapsed":266393,"subject_id":"91480","group":"Group2","condition":"1_Rep","full_date":"2026-02-27T21:08:48.630Z","date":"2026-02-27","time":"21:08:48"},{"task":"memory_phase","broad_category":"M","image_png":"M_Marble_14.png","image_id":238,"category_name":"Marble","category":15,"distinct_rating":3.31,"distinct_type":"Bottom","rt":null,"stimulus":"Stimuli_Rocks480/M_Marble_14.png","response":null,"trial_type":"image-keyboard-response","trial_index":99,"plugin_version":"2.1.0","time_elapsed":268897,"subject_id":"91480","group":"Group2","condition":"1_Rep","full_date":"2026-02-27T21:08:48.630Z","date":"2026-02-27","time":"21:08:48"},{"rt":null,"stimulus":"<p style=\"font-size: 50px; margin: 0; text-align: center;\">+</p>","response":null,"trial_type":"html-keyboard-response","trial_index":100,"plugin_version":"2.1.0","time_elapsed":269900,"subject_id":"91480","group":"Group2","condition":"1_Rep","full_date":"2026-02-27T21:08:48.630Z","date":"2026-02-27","time":"21:08:48"},{"task":"memory_phase","broad_category":"I","image_png":"I_Andesite_04.png","image_id":4,"category_name":"Andesite","category":1,"distinct_rating":3.18,"distinct_type":"Bottom","rt":null,"stimulus":"Stimuli_Rocks480/I_Andesite_04.png","response":null,"trial_type":"image-keyboard-response","trial_index":101,"plugin_version":"2.1.0","time_elapsed":272404,"subject_id":"91480","group":"Group2","condition":"1_Rep","full_date":"2026-02-27T21:08:48.630Z","date":"2026-02-27","time":"21:08:48"},{"rt":null,"stimulus":"<p style=\"font-size: 50px; margin: 0; text-align: center;\">+</p>","response":null,"trial_type":"html-keyboard-response","trial_index":102,"plugin_version":"2.1.0","time_elapsed":273407,"subject_id":"91480","group":"Group2","condition":"1_Rep","full_date":"2026-02-27T21:08:48.630Z","date":"2026-02-27","time":"21:08:48"},{"task":"memory_phase","broad_category":"S","image_png":"S_Conglomerate_14.png","image_id":382,"category_name":"Conglomerate","category":24,"distinct_rating":6.86,"distinct_type":"Top","rt":null,"stimulus":"Stimuli_Rocks480/S_Conglomerate_14.png","response":null,"trial_type":"image-keyboard-response","trial_index":103,"plugin_version":"2.1.0","time_elapsed":275911,"subject_id":"91480","group":"Group2","condition":"1_Rep","full_date":"2026-02-27T21:08:48.630Z","date":"2026-02-27","time":"21:08:48"},{"rt":null,"stimulus":"<p style=\"font-size: 50px; margin: 0; text-align: center;\">+</p>","response":null,"trial_type":"html-keyboard-response","trial_index":104,"plugin_version":"2.1.0","time_elapsed":276914,"subject_id":"91480","group":"Group2","condition":"1_Rep","full_date":"2026-02-27T21:08:48.630Z","date":"2026-02-27","time":"21:08:48"},{"task":"memory_phase","broad_category":"I","image_png":"I_Pumice_13.png","image_id":141,"category_name":"Pumice","category":9,"distinct_rating":3.12,"distinct_type":"Bottom","rt":null,"stimulus":"Stimuli_Rocks480/I_Pumice_13.png","response":null,"trial_type":"image-keyboard-response","trial_index":105,"plugin_version":"2.1.0","time_elapsed":279417,"subject_id":"91480","group":"Group2","condition":"1_Rep","full_date":"2026-02-27T21:08:48.630Z","date":"2026-02-27","time":"21:08:48"},{"rt":19813,"stimulus":"<div style=\"max-width: 760px; margin: auto; font-size: 20px; line-height: 1.5;\">\n      <h1 style=\"text-align:center; font-size: 30px;\">Instructions for the Test Phase</h1>\n      <p>\n        The study phase is now complete.\n      </p>\n      <p>\n        In the test phase, you will again see a series of rock images. \n        Some will be ones you saw before - during the study phase, while others will be new.  \n        <b>Your task</b> is to decide whether you have seen each image before by pressing the corresponding key on your keyboard:<br><br>\n          <b>A</b> - NO (you did not see this image before)<br>\n          <b>L</b> - YES (you saw this image before)<br><br>\n        The test will proceed at your own pace. You will receive feedback after each response.  \n        Please try to respond <b>as accurately as possible</b>.\n      </p>\n      <p>\n        <b>Reminder:</b> If your computer has multiple language settings (e.g., English and another language),\n        please ensure it is set to English during the test phase.\n      </p>\n      <p>\n        You can track your progress using the <b>completion bar</b> at the top of the screen.  \n        Note that it has been refreshed to reflect your progress during this final phase.\n      </p>\n      <p>\n        Press the button below when you are ready to continue.\n      </p>\n    </div>","response":0,"trial_type":"html-button-response","trial_index":106,"plugin_version":"2.1.0","time_elapsed":299233,"subject_id":"91480","group":"Group2","condition":"1_Rep","full_date":"2026-02-27T21:08:48.630Z","date":"2026-02-27","time":"21:08:48"},{"correct_response":"l","task":"test_phase","broad_category":"S","image_png":"S_Dolomite_16.png","image_id":400,"category_name":"Dolomite","category":25,"distinct_rating":1.71,"distinct_type":"Bottom","item_type":"Target","rt":3775,"stimulus":"Stimuli_Rocks480/S_Dolomite_16.png","response":"a","trial_type":"image-keyboard-response","trial_index":107,"plugin_version":"2.1.0","time_elapsed":303011,"subject_id":"91480","group":"Group2","condition":"1_Rep","full_date":"2026-02-27T21:08:48.630Z","date":"2026-02-27","time":"21:08:48","cor_ans":false},{"trial_type":"html-keyboard-response","rt":null,"stimulus":"<p style=\"color: red; font-size: 50px; font-weight: bold;\">Incorrect</p>","response":null,"trial_index":108,"plugin_version":"2.1.0","time_elapsed":303513,"subject_id":"91480","group":"Group2","condition":"1_Rep","full_date":"2026-02-27T21:08:48.630Z","date":"2026-02-27","time":"21:08:48"},{"correct_response":"l","task":"test_phase","broad_category":"I","image_png":"I_Andesite_04.png","image_id":4,"category_name":"Andesite","category":1,"distinct_rating":3.18,"distinct_type":"Bottom","item_type":"Target","rt":1494,"stimulus":"Stimuli_Rocks480/I_Andesite_04.png","response":"l","trial_type":"image-keyboard-response","trial_index":109,"plugin_version":"2.1.0","time_elapsed":305010,"subject_id":"91480","group":"Group2","condition":"1_Rep","full_date":"2026-02-27T21:08:48.630Z","date":"2026-02-27","time":"21:08:48","cor_ans":true},{"trial_type":"html-keyboard-response","rt":null,"stimulus":"<p style=\"color: green; font-size: 50px; font-weight: bold;\">Correct</p>","response":null,"trial_index":110,"plugin_version":"2.1.0","time_elapsed":305512,"subject_id":"91480","group":"Group2","condition":"1_Rep","full_date":"2026-02-27T21:08:48.630Z","date":"2026-02-27","time":"21:08:48"},{"correct_response":"a","task":"test_phase","broad_category":"I","image_png":"I_Basalt_01.png","image_id":17,"category_name":"Basalt","category":2,"distinct_rating":1.92,"distinct_type":"Bottom","item_type":"Foil","rt":1034,"stimulus":"Stimuli_Rocks480/I_Basalt_01.png","response":"l","trial_type":"image-keyboard-response","trial_index":111,"plugin_version":"2.1.0","time_elapsed":306548,"subject_id":"91480","group":"Group2","condition":"1_Rep","full_date":"2026-02-27T21:08:48.630Z","date":"2026-02-27","time":"21:08:48","cor_ans":false},{"trial_type":"html-keyboard-response","rt":null,"stimulus":"<p style=\"color: red; font-size: 50px; font-weight: bold;\">Incorrect</p>","response":null,"trial_index":112,"plugin_version":"2.1.0","time_elapsed":307049,"subject_id":"91480","group":"Group2","condition":"1_Rep","full_date":"2026-02-27T21:08:48.630Z","date":"2026-02-27","time":"21:08:48"},{"correct_response":"l","task":"test_phase","broad_category":"I","image_png":"I_Pumice_13.png","image_id":141,"category_name":"Pumice","category":9,"distinct_rating":3.12,"distinct_type":"Bottom","item_type":"Target","rt":776,"stimulus":"Stimuli_Rocks480/I_Pumice_13.png","response":"l","trial_type":"image-keyboard-response","trial_index":113,"plugin_version":"2.1.0","time_elapsed":307827,"subject_id":"91480","group":"Group2","condition":"1_Rep","full_date":"2026-02-27T21:08:48.630Z","date":"2026-02-27","time":"21:08:48","cor_ans":true},{"trial_type":"html-keyboard-response","rt":null,"stimulus":"<p style=\"color: green; font-size: 50px; font-weight: bold;\">Correct</p>","response":null,"trial_index":114,"plugin_version":"2.1.0","time_elapsed":308329,"subject_id":"91480","group":"Group2","condition":"1_Rep","full_date":"2026-02-27T21:08:48.630Z","date":"2026-02-27","time":"21:08:48"},{"correct_response":"a","task":"test_phase","broad_category":"I","image_png":"I_Andesite_06.png","image_id":6,"category_name":"Andesite","category":1,"distinct_rating":3.17,"distinct_type":"Bottom","item_type":"Foil","rt":2540,"stimulus":"Stimuli_Rocks480/I_Andesite_06.png","response":"a","trial_type":"image-keyboard-response","trial_index":115,"plugin_version":"2.1.0","time_elapsed":310871,"subject_id":"91480","group":"Group2","condition":"1_Rep","full_date":"2026-02-27T21:08:48.630Z","date":"2026-02-27","time":"21:08:48","cor_ans":true},{"trial_type":"html-keyboard-response","rt":null,"stimulus":"<p style=\"color: green; font-size: 50px; font-weight: bold;\">Correct</p>","response":null,"trial_index":116,"plugin_version":"2.1.0","time_elapsed":311373,"subject_id":"91480","group":"Group2","condition":"1_Rep","full_date":"2026-02-27T21:08:48.630Z","date":"2026-02-27","time":"21:08:48"},{"correct_response":"l","task":"test_phase","broad_category":"I","image_png":"I_Basalt_13.png","image_id":29,"category_name":"Basalt","category":2,"distinct_rating":2.68,"distinct_type":"Bottom","item_type":"Target","rt":1393,"stimulus":"Stimuli_Rocks480/I_Basalt_13.png","response":"l","trial_type":"image-keyboard-response","trial_index":117,"plugin_version":"2.1.0","time_elapsed":312768,"subject_id":"91480","group":"Group2","condition":"1_Rep","full_date":"2026-02-27T21:08:48.630Z","date":"2026-02-27","time":"21:08:48","cor_ans":true},{"trial_type":"html-keyboard-response","rt":null,"stimulus":"<p style=\"color: green; font-size: 50px; font-weight: bold;\">Correct</p>","response":null,"trial_index":118,"plugin_version":"2.1.0","time_elapsed":313269,"subject_id":"91480","group":"Group2","condition":"1_Rep","full_date":"2026-02-27T21:08:48.630Z","date":"2026-02-27","time":"21:08:48"},{"correct_response":"a","task":"test_phase","broad_category":"I","image_png":"I_Gabbro_11.png","image_id":59,"category_name":"Gabbro","category":4,"distinct_rating":1.99,"distinct_type":"Bottom","item_type":"Foil","rt":4680,"stimulus":"Stimuli_Rocks480/I_Gabbro_11.png","response":"a","trial_type":"image-keyboard-response","trial_index":119,"plugin_version":"2.1.0","time_elapsed":317951,"subject_id":"91480","group":"Group2","condition":"1_Rep","full_date":"2026-02-27T21:08:48.630Z","date":"2026-02-27","time":"21:08:48","cor_ans":true},{"trial_type":"html-keyboard-response","rt":null,"stimulus":"<p style=\"color: green; font-size: 50px; font-weight: bold;\">Correct</p>","response":null,"trial_index":120,"plugin_version":"2.1.0","time_elapsed":318452,"subject_id":"91480","group":"Group2","condition":"1_Rep","full_date":"2026-02-27T21:08:48.630Z","date":"2026-02-27","time":"21:08:48"},{"correct_response":"a","task":"test_phase","broad_category":"S","image_png":"S_Dolomite_14.png","image_id":398,"category_name":"Dolomite","category":25,"distinct_rating":1.43,"distinct_type":"Bottom","item_type":"Foil","rt":2607,"stimulus":"Stimuli_Rocks480/S_Dolomite_14.png","response":"a","trial_type":"image-keyboard-response","trial_index":121,"plugin_version":"2.1.0","time_elapsed":321062,"subject_id":"91480","group":"Group2","condition":"1_Rep","full_date":"2026-02-27T21:08:48.630Z","date":"2026-02-27","time":"21:08:48","cor_ans":true},{"trial_type":"html-keyboard-response","rt":null,"stimulus":"<p style=\"color: green; font-size: 50px; font-weight: bold;\">Correct</p>","response":null,"trial_index":122,"plugin_version":"2.1.0","time_elapsed":321564,"subject_id":"91480","group":"Group2","condition":"1_Rep","full_date":"2026-02-27T21:08:48.630Z","date":"2026-02-27","time":"21:08:48"},{"correct_response":"l","task":"test_phase","broad_category":"M","image_png":"M_Slate_14.png","image_id":318,"category_name":"Slate","category":20,"distinct_rating":2.58,"distinct_type":"Bottom","item_type":"Target","rt":1016,"stimulus":"Stimuli_Rocks480/M_Slate_14.png","response":"l","trial_type":"image-keyboard-response","trial_index":123,"plugin_version":"2.1.0","time_elapsed":322582,"subject_id":"91480","group":"Group2","condition":"1_Rep","full_date":"2026-02-27T21:08:48.630Z","date":"2026-02-27","time":"21:08:48","cor_ans":true},{"trial_type":"html-keyboard-response","rt":null,"stimulus":"<p style=\"color: green; font-size: 50px; font-weight: bold;\">Correct</p>","response":null,"trial_index":124,"plugin_version":"2.1.0","time_elapsed":323083,"subject_id":"91480","group":"Group2","condition":"1_Rep","full_date":"2026-02-27T21:08:48.630Z","date":"2026-02-27","time":"21:08:48"},{"correct_response":"l","task":"test_phase","broad_category":"I","image_png":"I_Basalt_08.png","image_id":24,"category_name":"Basalt","category":2,"distinct_rating":2.31,"distinct_type":"Bottom","item_type":"Target","rt":1188,"stimulus":"Stimuli_Rocks480/I_Basalt_08.png","response":"l","trial_type":"image-keyboard-response","trial_index":125,"plugin_version":"2.1.0","time_elapsed":324274,"subject_id":"91480","group":"Group2","condition":"1_Rep","full_date":"2026-02-27T21:08:48.630Z","date":"2026-02-27","time":"21:08:48","cor_ans":true},{"trial_type":"html-keyboard-response","rt":null,"stimulus":"<p style=\"color: green; font-size: 50px; font-weight: bold;\">Correct</p>","response":null,"trial_index":126,"plugin_version":"2.1.0","time_elapsed":324775,"subject_id":"91480","group":"Group2","condition":"1_Rep","full_date":"2026-02-27T21:08:48.630Z","date":"2026-02-27","time":"21:08:48"},{"correct_response":"l","task":"test_phase","broad_category":"M","image_png":"M_Phyllite_05.png","image_id":261,"category_name":"Phyllite","category":17,"distinct_rating":2.14,"distinct_type":"Bottom","item_type":"Target","rt":851,"stimulus":"Stimuli_Rocks480/M_Phyllite_05.png","response":"l","trial_type":"image-keyboard-response","trial_index":127,"plugin_version":"2.1.0","time_elapsed":325627,"subject_id":"91480","group":"Group2","condition":"1_Rep","full_date":"2026-02-27T21:08:48.630Z","date":"2026-02-27","time":"21:08:48","cor_ans":true},{"trial_type":"html-keyboard-response","rt":null,"stimulus":"<p style=\"color: green; font-size: 50px; font-weight: bold;\">Correct</p>","response":null,"trial_index":128,"plugin_version":"2.1.0","time_elapsed":326129,"subject_id":"91480","group":"Group2","condition":"1_Rep","full_date":"2026-02-27T21:08:48.630Z","date":"2026-02-27","time":"21:08:48"},{"correct_response":"a","task":"test_phase","broad_category":"S","image_png":"S_Conglomerate_05.png","image_id":373,"category_name":"Conglomerate","category":24,"distinct_rating":7.32,"distinct_type":"Top","item_type":"Foil","rt":1108,"stimulus":"Stimuli_Rocks480/S_Conglomerate_05.png","response":"a","trial_type":"image-keyboard-response","trial_index":129,"plugin_version":"2.1.0","time_elapsed":327239,"subject_id":"91480","group":"Group2","condition":"1_Rep","full_date":"2026-02-27T21:08:48.630Z","date":"2026-02-27","time":"21:08:48","cor_ans":true},{"trial_type":"html-keyboard-response","rt":null,"stimulus":"<p style=\"color: green; font-size: 50px; font-weight: bold;\">Correct</p>","response":null,"trial_index":130,"plugin_version":"2.1.0","time_elapsed":327740,"subject_id":"91480","group":"Group2","condition":"1_Rep","full_date":"2026-02-27T21:08:48.630Z","date":"2026-02-27","time":"21:08:48"},{"correct_response":"a","task":"test_phase","broad_category":"I","image_png":"I_Rhyolite_14.png","image_id":158,"category_name":"Rhyolite","category":10,"distinct_rating":2.59,"distinct_type":"Bottom","item_type":"Foil","rt":1779,"stimulus":"Stimuli_Rocks480/I_Rhyolite_14.png","response":"a","trial_type":"image-keyboard-response","trial_index":131,"plugin_version":"2.1.0","time_elapsed":329521,"subject_id":"91480","group":"Group2","condition":"1_Rep","full_date":"2026-02-27T21:08:48.630Z","date":"2026-02-27","time":"21:08:48","cor_ans":true},{"trial_type":"html-keyboard-response","rt":null,"stimulus":"<p style=\"color: green; font-size: 50px; font-weight: bold;\">Correct</p>","response":null,"trial_index":132,"plugin_version":"2.1.0","time_elapsed":330023,"subject_id":"91480","group":"Group2","condition":"1_Rep","full_date":"2026-02-27T21:08:48.630Z","date":"2026-02-27","time":"21:08:48"},{"correct_response":"l","task":"test_phase","broad_category":"S","image_png":"S_Sandstone_04.png","image_id":452,"category_name":"Sandstone","category":29,"distinct_rating":1.8,"distinct_type":"Bottom","item_type":"Target","rt":2493,"stimulus":"Stimuli_Rocks480/S_Sandstone_04.png","response":"a","trial_type":"image-keyboard-response","trial_index":133,"plugin_version":"2.1.0","time_elapsed":332518,"subject_id":"91480","group":"Group2","condition":"1_Rep","full_date":"2026-02-27T21:08:48.630Z","date":"2026-02-27","time":"21:08:48","cor_ans":false},{"trial_type":"html-keyboard-response","rt":null,"stimulus":"<p style=\"color: red; font-size: 50px; font-weight: bold;\">Incorrect</p>","response":null,"trial_index":134,"plugin_version":"2.1.0","time_elapsed":333020,"subject_id":"91480","group":"Group2","condition":"1_Rep","full_date":"2026-02-27T21:08:48.630Z","date":"2026-02-27","time":"21:08:48"},{"correct_response":"a","task":"test_phase","broad_category":"M","image_png":"M_Phyllite_07.png","image_id":263,"category_name":"Phyllite","category":17,"distinct_rating":2.59,"distinct_type":"Bottom","item_type":"Foil","rt":2420,"stimulus":"Stimuli_Rocks480/M_Phyllite_07.png","response":"l","trial_type":"image-keyboard-response","trial_index":135,"plugin_version":"2.1.0","time_elapsed":335442,"subject_id":"91480","group":"Group2","condition":"1_Rep","full_date":"2026-02-27T21:08:48.630Z","date":"2026-02-27","time":"21:08:48","cor_ans":false},{"trial_type":"html-keyboard-response","rt":null,"stimulus":"<p style=\"color: red; font-size: 50px; font-weight: bold;\">Incorrect</p>","response":null,"trial_index":136,"plugin_version":"2.1.0","time_elapsed":335944,"subject_id":"91480","group":"Group2","condition":"1_Rep","full_date":"2026-02-27T21:08:48.630Z","date":"2026-02-27","time":"21:08:48"},{"correct_response":"l","task":"test_phase","broad_category":"I","image_png":"I_Diorite_01.png","image_id":33,"category_name":"Diorite","category":3,"distinct_rating":2.97,"distinct_type":"Bottom","item_type":"Target","rt":968,"stimulus":"Stimuli_Rocks480/I_Diorite_01.png","response":"l","trial_type":"image-keyboard-response","trial_index":137,"plugin_version":"2.1.0","time_elapsed":336914,"subject_id":"91480","group":"Group2","condition":"1_Rep","full_date":"2026-02-27T21:08:48.630Z","date":"2026-02-27","time":"21:08:48","cor_ans":true},{"trial_type":"html-keyboard-response","rt":null,"stimulus":"<p style=\"color: green; font-size: 50px; font-weight: bold;\">Correct</p>","response":null,"trial_index":138,"plugin_version":"2.1.0","time_elapsed":337416,"subject_id":"91480","group":"Group2","condition":"1_Rep","full_date":"2026-02-27T21:08:48.630Z","date":"2026-02-27","time":"21:08:48"},{"correct_response":"a","task":"test_phase","broad_category":"M","image_png":"M_Gneiss_06.png","image_id":198,"category_name":"Gneiss","category":13,"distinct_rating":2.65,"distinct_type":"Bottom","item_type":"Foil","rt":2627,"stimulus":"Stimuli_Rocks480/M_Gneiss_06.png","response":"a","trial_type":"image-keyboard-response","trial_index":139,"plugin_version":"2.1.0","time_elapsed":340045,"subject_id":"91480","group":"Group2","condition":"1_Rep","full_date":"2026-02-27T21:08:48.630Z","date":"2026-02-27","time":"21:08:48","cor_ans":true},{"trial_type":"html-keyboard-response","rt":null,"stimulus":"<p style=\"color: green; font-size: 50px; font-weight: bold;\">Correct</p>","response":null,"trial_index":140,"plugin_version":"2.1.0","time_elapsed":340546,"subject_id":"91480","group":"Group2","condition":"1_Rep","full_date":"2026-02-27T21:08:48.630Z","date":"2026-02-27","time":"21:08:48"},{"correct_response":"a","task":"test_phase","broad_category":"I","image_png":"I_Obsidian_05.png","image_id":85,"category_name":"Obsidian","category":6,"distinct_rating":7.32,"distinct_type":"Top","item_type":"Foil","rt":1123,"stimulus":"Stimuli_Rocks480/I_Obsidian_05.png","response":"a","trial_type":"image-keyboard-response","trial_index":141,"plugin_version":"2.1.0","time_elapsed":341671,"subject_id":"91480","group":"Group2","condition":"1_Rep","full_date":"2026-02-27T21:08:48.630Z","date":"2026-02-27","time":"21:08:48","cor_ans":true},{"trial_type":"html-keyboard-response","rt":null,"stimulus":"<p style=\"color: green; font-size: 50px; font-weight: bold;\">Correct</p>","response":null,"trial_index":142,"plugin_version":"2.1.0","time_elapsed":342173,"subject_id":"91480","group":"Group2","condition":"1_Rep","full_date":"2026-02-27T21:08:48.630Z","date":"2026-02-27","time":"21:08:48"},{"correct_response":"a","task":"test_phase","broad_category":"M","image_png":"M_Phyllite_03.png","image_id":259,"category_name":"Phyllite","category":17,"distinct_rating":2.5,"distinct_type":"Bottom","item_type":"Foil","rt":2576,"stimulus":"Stimuli_Rocks480/M_Phyllite_03.png","response":"a","trial_type":"image-keyboard-response","trial_index":143,"plugin_version":"2.1.0","time_elapsed":344751,"subject_id":"91480","group":"Group2","condition":"1_Rep","full_date":"2026-02-27T21:08:48.630Z","date":"2026-02-27","time":"21:08:48","cor_ans":true},{"trial_type":"html-keyboard-response","rt":null,"stimulus":"<p style=\"color: green; font-size: 50px; font-weight: bold;\">Correct</p>","response":null,"trial_index":144,"plugin_version":"2.1.0","time_elapsed":345253,"subject_id":"91480","group":"Group2","condition":"1_Rep","full_date":"2026-02-27T21:08:48.630Z","date":"2026-02-27","time":"21:08:48"},{"correct_response":"l","task":"test_phase","broad_category":"M","image_png":"M_Gneiss_15.png","image_id":207,"category_name":"Gneiss","category":13,"distinct_rating":3.11,"distinct_type":"Bottom","item_type":"Target","rt":2034,"stimulus":"Stimuli_Rocks480/M_Gneiss_15.png","response":"a","trial_type":"image-keyboard-response","trial_index":145,"plugin_version":"2.1.0","time_elapsed":347289,"subject_id":"91480","group":"Group2","condition":"1_Rep","full_date":"2026-02-27T21:08:48.630Z","date":"2026-02-27","time":"21:08:48","cor_ans":false},{"trial_type":"html-keyboard-response","rt":null,"stimulus":"<p style=\"color: red; font-size: 50px; font-weight: bold;\">Incorrect</p>","response":null,"trial_index":146,"plugin_version":"2.1.0","time_elapsed":347790,"subject_id":"91480","group":"Group2","condition":"1_Rep","full_date":"2026-02-27T21:08:48.630Z","date":"2026-02-27","time":"21:08:48"},{"correct_response":"a","task":"test_phase","broad_category":"I","image_png":"I_Rhyolite_16.png","image_id":160,"category_name":"Rhyolite","category":10,"distinct_rating":2.19,"distinct_type":"Bottom","item_type":"Foil","rt":2068,"stimulus":"Stimuli_Rocks480/I_Rhyolite_16.png","response":"l","trial_type":"image-keyboard-response","trial_index":147,"plugin_version":"2.1.0","time_elapsed":349860,"subject_id":"91480","group":"Group2","condition":"1_Rep","full_date":"2026-02-27T21:08:48.630Z","date":"2026-02-27","time":"21:08:48","cor_ans":false},{"trial_type":"html-keyboard-response","rt":null,"stimulus":"<p style=\"color: red; font-size: 50px; font-weight: bold;\">Incorrect</p>","response":null,"trial_index":148,"plugin_version":"2.1.0","time_elapsed":350362,"subject_id":"91480","group":"Group2","condition":"1_Rep","full_date":"2026-02-27T21:08:48.630Z","date":"2026-02-27","time":"21:08:48"},{"correct_response":"a","task":"test_phase","broad_category":"S","image_png":"S_Sandstone_16.png","image_id":464,"category_name":"Sandstone","category":29,"distinct_rating":1.93,"distinct_type":"Bottom","item_type":"Foil","rt":1559,"stimulus":"Stimuli_Rocks480/S_Sandstone_16.png","response":"a","trial_type":"image-keyboard-response","trial_index":149,"plugin_version":"2.1.0","time_elapsed":351923,"subject_id":"91480","group":"Group2","condition":"1_Rep","full_date":"2026-02-27T21:08:48.630Z","date":"2026-02-27","time":"21:08:48","cor_ans":true},{"trial_type":"html-keyboard-response","rt":null,"stimulus":"<p style=\"color: green; font-size: 50px; font-weight: bold;\">Correct</p>","response":null,"trial_index":150,"plugin_version":"2.1.0","time_elapsed":352425,"subject_id":"91480","group":"Group2","condition":"1_Rep","full_date":"2026-02-27T21:08:48.630Z","date":"2026-02-27","time":"21:08:48"},{"correct_response":"l","task":"test_phase","broad_category":"M","image_png":"M_Marble_02.png","image_id":226,"category_name":"Marble","category":15,"distinct_rating":3.2,"distinct_type":"Bottom","item_type":"Target","rt":915,"stimulus":"Stimuli_Rocks480/M_Marble_02.png","response":"l","trial_type":"image-keyboard-response","trial_index":151,"plugin_version":"2.1.0","time_elapsed":353341,"subject_id":"91480","group":"Group2","condition":"1_Rep","full_date":"2026-02-27T21:08:48.630Z","date":"2026-02-27","time":"21:08:48","cor_ans":true},{"trial_type":"html-keyboard-response","rt":null,"stimulus":"<p style=\"color: green; font-size: 50px; font-weight: bold;\">Correct</p>","response":null,"trial_index":152,"plugin_version":"2.1.0","time_elapsed":353843,"subject_id":"91480","group":"Group2","condition":"1_Rep","full_date":"2026-02-27T21:08:48.630Z","date":"2026-02-27","time":"21:08:48"},{"correct_response":"a","task":"test_phase","broad_category":"M","image_png":"M_Gneiss_05.png","image_id":197,"category_name":"Gneiss","category":13,"distinct_rating":2.97,"distinct_type":"Bottom","item_type":"Foil","rt":960,"stimulus":"Stimuli_Rocks480/M_Gneiss_05.png","response":"l","trial_type":"image-keyboard-response","trial_index":153,"plugin_version":"2.1.0","time_elapsed":354805,"subject_id":"91480","group":"Group2","condition":"1_Rep","full_date":"2026-02-27T21:08:48.630Z","date":"2026-02-27","time":"21:08:48","cor_ans":false},{"trial_type":"html-keyboard-response","rt":null,"stimulus":"<p style=\"color: red; font-size: 50px; font-weight: bold;\">Incorrect</p>","response":null,"trial_index":154,"plugin_version":"2.1.0","time_elapsed":355307,"subject_id":"91480","group":"Group2","condition":"1_Rep","full_date":"2026-02-27T21:08:48.630Z","date":"2026-02-27","time":"21:08:48"},{"correct_response":"a","task":"test_phase","broad_category":"I","image_png":"I_Pegmatite_16.png","image_id":112,"category_name":"Pegmatite","category":7,"distinct_rating":7.03,"distinct_type":"Top","item_type":"Foil","rt":1026,"stimulus":"Stimuli_Rocks480/I_Pegmatite_16.png","response":"a","trial_type":"image-keyboard-response","trial_index":155,"plugin_version":"2.1.0","time_elapsed":356335,"subject_id":"91480","group":"Group2","condition":"1_Rep","full_date":"2026-02-27T21:08:48.630Z","date":"2026-02-27","time":"21:08:48","cor_ans":true},{"trial_type":"html-keyboard-response","rt":null,"stimulus":"<p style=\"color: green; font-size: 50px; font-weight: bold;\">Correct</p>","response":null,"trial_index":156,"plugin_version":"2.1.0","time_elapsed":356837,"subject_id":"91480","group":"Group2","condition":"1_Rep","full_date":"2026-02-27T21:08:48.630Z","date":"2026-02-27","time":"21:08:48"},{"correct_response":"l","task":"test_phase","broad_category":"M","image_png":"M_Phyllite_02.png","image_id":258,"category_name":"Phyllite","category":17,"distinct_rating":2.89,"distinct_type":"Bottom","item_type":"Target","rt":2311,"stimulus":"Stimuli_Rocks480/M_Phyllite_02.png","response":"l","trial_type":"image-keyboard-response","trial_index":157,"plugin_version":"2.1.0","time_elapsed":359150,"subject_id":"91480","group":"Group2","condition":"1_Rep","full_date":"2026-02-27T21:08:48.630Z","date":"2026-02-27","time":"21:08:48","cor_ans":true},{"trial_type":"html-keyboard-response","rt":null,"stimulus":"<p style=\"color: green; font-size: 50px; font-weight: bold;\">Correct</p>","response":null,"trial_index":158,"plugin_version":"2.1.0","time_elapsed":359651,"subject_id":"91480","group":"Group2","condition":"1_Rep","full_date":"2026-02-27T21:08:48.630Z","date":"2026-02-27","time":"21:08:48"},{"correct_response":"a","task":"test_phase","broad_category":"S","image_png":"S_Rock Salt_01.png","image_id":433,"category_name":"Rock Salt","category":28,"distinct_rating":7.18,"distinct_type":"Top","item_type":"Foil","rt":1448,"stimulus":"Stimuli_Rocks480/S_Rock Salt_01.png","response":"a","trial_type":"image-keyboard-response","trial_index":159,"plugin_version":"2.1.0","time_elapsed":361102,"subject_id":"91480","group":"Group2","condition":"1_Rep","full_date":"2026-02-27T21:08:48.630Z","date":"2026-02-27","time":"21:08:48","cor_ans":true},{"trial_type":"html-keyboard-response","rt":null,"stimulus":"<p style=\"color: green; font-size: 50px; font-weight: bold;\">Correct</p>","response":null,"trial_index":160,"plugin_version":"2.1.0","time_elapsed":361603,"subject_id":"91480","group":"Group2","condition":"1_Rep","full_date":"2026-02-27T21:08:48.630Z","date":"2026-02-27","time":"21:08:48"},{"correct_response":"l","task":"test_phase","broad_category":"M","image_png":"M_Quartzite_12.png","image_id":284,"category_name":"Quartzite","category":18,"distinct_rating":1.92,"distinct_type":"Bottom","item_type":"Target","rt":2149,"stimulus":"Stimuli_Rocks480/M_Quartzite_12.png","response":"a","trial_type":"image-keyboard-response","trial_index":161,"plugin_version":"2.1.0","time_elapsed":363755,"subject_id":"91480","group":"Group2","condition":"1_Rep","full_date":"2026-02-27T21:08:48.630Z","date":"2026-02-27","time":"21:08:48","cor_ans":false},{"trial_type":"html-keyboard-response","rt":null,"stimulus":"<p style=\"color: red; font-size: 50px; font-weight: bold;\">Incorrect</p>","response":null,"trial_index":162,"plugin_version":"2.1.0","time_elapsed":364256,"subject_id":"91480","group":"Group2","condition":"1_Rep","full_date":"2026-02-27T21:08:48.630Z","date":"2026-02-27","time":"21:08:48"},{"correct_response":"a","task":"test_phase","broad_category":"M","image_png":"M_Quartzite_05.png","image_id":277,"category_name":"Quartzite","category":18,"distinct_rating":2.23,"distinct_type":"Bottom","item_type":"Foil","rt":1396,"stimulus":"Stimuli_Rocks480/M_Quartzite_05.png","response":"a","trial_type":"image-keyboard-response","trial_index":163,"plugin_version":"2.1.0","time_elapsed":365654,"subject_id":"91480","group":"Group2","condition":"1_Rep","full_date":"2026-02-27T21:08:48.630Z","date":"2026-02-27","time":"21:08:48","cor_ans":true},{"trial_type":"html-keyboard-response","rt":null,"stimulus":"<p style=\"color: green; font-size: 50px; font-weight: bold;\">Correct</p>","response":null,"trial_index":164,"plugin_version":"2.1.0","time_elapsed":366156,"subject_id":"91480","group":"Group2","condition":"1_Rep","full_date":"2026-02-27T21:08:48.630Z","date":"2026-02-27","time":"21:08:48"},{"correct_response":"l","task":"test_phase","broad_category":"I","image_png":"I_Rhyolite_05.png","image_id":149,"category_name":"Rhyolite","category":10,"distinct_rating":3.02,"distinct_type":"Bottom","item_type":"Target","rt":3363,"stimulus":"Stimuli_Rocks480/I_Rhyolite_05.png","response":"a","trial_type":"image-keyboard-response","trial_index":165,"plugin_version":"2.1.0","time_elapsed":369521,"subject_id":"91480","group":"Group2","condition":"1_Rep","full_date":"2026-02-27T21:08:48.630Z","date":"2026-02-27","time":"21:08:48","cor_ans":false},{"trial_type":"html-keyboard-response","rt":null,"stimulus":"<p style=\"color: red; font-size: 50px; font-weight: bold;\">Incorrect</p>","response":null,"trial_index":166,"plugin_version":"2.1.0","time_elapsed":370023,"subject_id":"91480","group":"Group2","condition":"1_Rep","full_date":"2026-02-27T21:08:48.630Z","date":"2026-02-27","time":"21:08:48"},{"correct_response":"l","task":"test_phase","broad_category":"S","image_png":"S_Shale_03.png","image_id":467,"category_name":"Shale","category":30,"distinct_rating":1.95,"distinct_type":"Bottom","item_type":"Target","rt":2452,"stimulus":"Stimuli_Rocks480/S_Shale_03.png","response":"a","trial_type":"image-keyboard-response","trial_index":167,"plugin_version":"2.1.0","time_elapsed":372476,"subject_id":"91480","group":"Group2","condition":"1_Rep","full_date":"2026-02-27T21:08:48.630Z","date":"2026-02-27","time":"21:08:48","cor_ans":false},{"trial_type":"html-keyboard-response","rt":null,"stimulus":"<p style=\"color: red; font-size: 50px; font-weight: bold;\">Incorrect</p>","response":null,"trial_index":168,"plugin_version":"2.1.0","time_elapsed":372978,"subject_id":"91480","group":"Group2","condition":"1_Rep","full_date":"2026-02-27T21:08:48.630Z","date":"2026-02-27","time":"21:08:48"},{"correct_response":"l","task":"test_phase","broad_category":"S","image_png":"S_Shale_02.png","image_id":466,"category_name":"Shale","category":30,"distinct_rating":2.9,"distinct_type":"Bottom","item_type":"Target","rt":1135,"stimulus":"Stimuli_Rocks480/S_Shale_02.png","response":"a","trial_type":"image-keyboard-response","trial_index":169,"plugin_version":"2.1.0","time_elapsed":374114,"subject_id":"91480","group":"Group2","condition":"1_Rep","full_date":"2026-02-27T21:08:48.630Z","date":"2026-02-27","time":"21:08:48","cor_ans":false},{"trial_type":"html-keyboard-response","rt":null,"stimulus":"<p style=\"color: red; font-size: 50px; font-weight: bold;\">Incorrect</p>","response":null,"trial_index":170,"plugin_version":"2.1.0","time_elapsed":374616,"subject_id":"91480","group":"Group2","condition":"1_Rep","full_date":"2026-02-27T21:08:48.630Z","date":"2026-02-27","time":"21:08:48"},{"correct_response":"l","task":"test_phase","broad_category":"I","image_png":"I_Peridotite_13.png","image_id":125,"category_name":"Peridotite","category":8,"distinct_rating":7.28,"distinct_type":"Top","item_type":"Target","rt":983,"stimulus":"Stimuli_Rocks480/I_Peridotite_13.png","response":"l","trial_type":"image-keyboard-response","trial_index":171,"plugin_version":"2.1.0","time_elapsed":375600,"subject_id":"91480","group":"Group2","condition":"1_Rep","full_date":"2026-02-27T21:08:48.630Z","date":"2026-02-27","time":"21:08:48","cor_ans":true},{"trial_type":"html-keyboard-response","rt":null,"stimulus":"<p style=\"color: green; font-size: 50px; font-weight: bold;\">Correct</p>","response":null,"trial_index":172,"plugin_version":"2.1.0","time_elapsed":376102,"subject_id":"91480","group":"Group2","condition":"1_Rep","full_date":"2026-02-27T21:08:48.630Z","date":"2026-02-27","time":"21:08:48"},{"correct_response":"l","task":"test_phase","broad_category":"I","image_png":"I_Pumice_14.png","image_id":142,"category_name":"Pumice","category":9,"distinct_rating":3.22,"distinct_type":"Bottom","item_type":"Target","rt":1066,"stimulus":"Stimuli_Rocks480/I_Pumice_14.png","response":"l","trial_type":"image-keyboard-response","trial_index":173,"plugin_version":"2.1.0","time_elapsed":377170,"subject_id":"91480","group":"Group2","condition":"1_Rep","full_date":"2026-02-27T21:08:48.630Z","date":"2026-02-27","time":"21:08:48","cor_ans":true},{"trial_type":"html-keyboard-response","rt":null,"stimulus":"<p style=\"color: green; font-size: 50px; font-weight: bold;\">Correct</p>","response":null,"trial_index":174,"plugin_version":"2.1.0","time_elapsed":377671,"subject_id":"91480","group":"Group2","condition":"1_Rep","full_date":"2026-02-27T21:08:48.630Z","date":"2026-02-27","time":"21:08:48"},{"correct_response":"l","task":"test_phase","broad_category":"I","image_png":"I_Gabbro_14.png","image_id":62,"category_name":"Gabbro","category":4,"distinct_rating":2.95,"distinct_type":"Bottom","item_type":"Target","rt":3522,"stimulus":"Stimuli_Rocks480/I_Gabbro_14.png","response":"l","trial_type":"image-keyboard-response","trial_index":175,"plugin_version":"2.1.0","time_elapsed":381195,"subject_id":"91480","group":"Group2","condition":"1_Rep","full_date":"2026-02-27T21:08:48.630Z","date":"2026-02-27","time":"21:08:48","cor_ans":true},{"trial_type":"html-keyboard-response","rt":null,"stimulus":"<p style=\"color: green; font-size: 50px; font-weight: bold;\">Correct</p>","response":null,"trial_index":176,"plugin_version":"2.1.0","time_elapsed":381697,"subject_id":"91480","group":"Group2","condition":"1_Rep","full_date":"2026-02-27T21:08:48.630Z","date":"2026-02-27","time":"21:08:48"},{"correct_response":"l","task":"test_phase","broad_category":"M","image_png":"M_Phyllite_13.png","image_id":269,"category_name":"Phyllite","category":17,"distinct_rating":2.8,"distinct_type":"Bottom","item_type":"Target","rt":965,"stimulus":"Stimuli_Rocks480/M_Phyllite_13.png","response":"l","trial_type":"image-keyboard-response","trial_index":177,"plugin_version":"2.1.0","time_elapsed":382664,"subject_id":"91480","group":"Group2","condition":"1_Rep","full_date":"2026-02-27T21:08:48.630Z","date":"2026-02-27","time":"21:08:48","cor_ans":true},{"trial_type":"html-keyboard-response","rt":null,"stimulus":"<p style=\"color: green; font-size: 50px; font-weight: bold;\">Correct</p>","response":null,"trial_index":178,"plugin_version":"2.1.0","time_elapsed":383166,"subject_id":"91480","group":"Group2","condition":"1_Rep","full_date":"2026-02-27T21:08:48.630Z","date":"2026-02-27","time":"21:08:48"},{"correct_response":"l","task":"test_phase","broad_category":"M","image_png":"M_Slate_04.png","image_id":308,"category_name":"Slate","category":20,"distinct_rating":2.2,"distinct_type":"Bottom","item_type":"Target","rt":782,"stimulus":"Stimuli_Rocks480/M_Slate_04.png","response":"l","trial_type":"image-keyboard-response","trial_index":179,"plugin_version":"2.1.0","time_elapsed":383950,"subject_id":"91480","group":"Group2","condition":"1_Rep","full_date":"2026-02-27T21:08:48.630Z","date":"2026-02-27","time":"21:08:48","cor_ans":true},{"trial_type":"html-keyboard-response","rt":null,"stimulus":"<p style=\"color: green; font-size: 50px; font-weight: bold;\">Correct</p>","response":null,"trial_index":180,"plugin_version":"2.1.0","time_elapsed":384452,"subject_id":"91480","group":"Group2","condition":"1_Rep","full_date":"2026-02-27T21:08:48.630Z","date":"2026-02-27","time":"21:08:48"},{"correct_response":"a","task":"test_phase","broad_category":"S","image_png":"S_Shale_08.png","image_id":472,"category_name":"Shale","category":30,"distinct_rating":2.55,"distinct_type":"Bottom","item_type":"Foil","rt":1557,"stimulus":"Stimuli_Rocks480/S_Shale_08.png","response":"a","trial_type":"image-keyboard-response","trial_index":181,"plugin_version":"2.1.0","time_elapsed":386011,"subject_id":"91480","group":"Group2","condition":"1_Rep","full_date":"2026-02-27T21:08:48.630Z","date":"2026-02-27","time":"21:08:48","cor_ans":true},{"trial_type":"html-keyboard-response","rt":null,"stimulus":"<p style=\"color: green; font-size: 50px; font-weight: bold;\">Correct</p>","response":null,"trial_index":182,"plugin_version":"2.1.0","time_elapsed":386512,"subject_id":"91480","group":"Group2","condition":"1_Rep","full_date":"2026-02-27T21:08:48.630Z","date":"2026-02-27","time":"21:08:48"},{"correct_response":"a","task":"test_phase","broad_category":"I","image_png":"I_Rhyolite_11.png","image_id":155,"category_name":"Rhyolite","category":10,"distinct_rating":1.73,"distinct_type":"Bottom","item_type":"Foil","rt":1498,"stimulus":"Stimuli_Rocks480/I_Rhyolite_11.png","response":"l","trial_type":"image-keyboard-response","trial_index":183,"plugin_version":"2.1.0","time_elapsed":388013,"subject_id":"91480","group":"Group2","condition":"1_Rep","full_date":"2026-02-27T21:08:48.630Z","date":"2026-02-27","time":"21:08:48","cor_ans":false},{"trial_type":"html-keyboard-response","rt":null,"stimulus":"<p style=\"color: red; font-size: 50px; font-weight: bold;\">Incorrect</p>","response":null,"trial_index":184,"plugin_version":"2.1.0","time_elapsed":388514,"subject_id":"91480","group":"Group2","condition":"1_Rep","full_date":"2026-02-27T21:08:48.630Z","date":"2026-02-27","time":"21:08:48"},{"correct_response":"l","task":"test_phase","broad_category":"S","image_png":"S_Rock Salt_15.png","image_id":447,"category_name":"Rock Salt","category":28,"distinct_rating":7.79,"distinct_type":"Top","item_type":"Target","rt":702,"stimulus":"Stimuli_Rocks480/S_Rock Salt_15.png","response":"l","trial_type":"image-keyboard-response","trial_index":185,"plugin_version":"2.1.0","time_elapsed":389218,"subject_id":"91480","group":"Group2","condition":"1_Rep","full_date":"2026-02-27T21:08:48.630Z","date":"2026-02-27","time":"21:08:48","cor_ans":true},{"trial_type":"html-keyboard-response","rt":null,"stimulus":"<p style=\"color: green; font-size: 50px; font-weight: bold;\">Correct</p>","response":null,"trial_index":186,"plugin_version":"2.1.0","time_elapsed":389720,"subject_id":"91480","group":"Group2","condition":"1_Rep","full_date":"2026-02-27T21:08:48.630Z","date":"2026-02-27","time":"21:08:48"},{"correct_response":"l","task":"test_phase","broad_category":"S","image_png":"S_Shale_07.png","image_id":471,"category_name":"Shale","category":30,"distinct_rating":2.73,"distinct_type":"Bottom","item_type":"Target","rt":916,"stimulus":"Stimuli_Rocks480/S_Shale_07.png","response":"a","trial_type":"image-keyboard-response","trial_index":187,"plugin_version":"2.1.0","time_elapsed":390637,"subject_id":"91480","group":"Group2","condition":"1_Rep","full_date":"2026-02-27T21:08:48.630Z","date":"2026-02-27","time":"21:08:48","cor_ans":false},{"trial_type":"html-keyboard-response","rt":null,"stimulus":"<p style=\"color: red; font-size: 50px; font-weight: bold;\">Incorrect</p>","response":null,"trial_index":188,"plugin_version":"2.1.0","time_elapsed":391139,"subject_id":"91480","group":"Group2","condition":"1_Rep","full_date":"2026-02-27T21:08:48.630Z","date":"2026-02-27","time":"21:08:48"},{"correct_response":"l","task":"test_phase","broad_category":"I","image_png":"I_Diorite_10.png","image_id":42,"category_name":"Diorite","category":3,"distinct_rating":2.84,"distinct_type":"Bottom","item_type":"Target","rt":976,"stimulus":"Stimuli_Rocks480/I_Diorite_10.png","response":"l","trial_type":"image-keyboard-response","trial_index":189,"plugin_version":"2.1.0","time_elapsed":392117,"subject_id":"91480","group":"Group2","condition":"1_Rep","full_date":"2026-02-27T21:08:48.630Z","date":"2026-02-27","time":"21:08:48","cor_ans":true},{"trial_type":"html-keyboard-response","rt":null,"stimulus":"<p style=\"color: green; font-size: 50px; font-weight: bold;\">Correct</p>","response":null,"trial_index":190,"plugin_version":"2.1.0","time_elapsed":392618,"subject_id":"91480","group":"Group2","condition":"1_Rep","full_date":"2026-02-27T21:08:48.630Z","date":"2026-02-27","time":"21:08:48"},{"correct_response":"l","task":"test_phase","broad_category":"I","image_png":"I_Pegmatite_03.png","image_id":99,"category_name":"Pegmatite","category":7,"distinct_rating":7.24,"distinct_type":"Top","item_type":"Target","rt":1095,"stimulus":"Stimuli_Rocks480/I_Pegmatite_03.png","response":"l","trial_type":"image-keyboard-response","trial_index":191,"plugin_version":"2.1.0","time_elapsed":393715,"subject_id":"91480","group":"Group2","condition":"1_Rep","full_date":"2026-02-27T21:08:48.630Z","date":"2026-02-27","time":"21:08:48","cor_ans":true},{"trial_type":"html-keyboard-response","rt":null,"stimulus":"<p style=\"color: green; font-size: 50px; font-weight: bold;\">Correct</p>","response":null,"trial_index":192,"plugin_version":"2.1.0","time_elapsed":394216,"subject_id":"91480","group":"Group2","condition":"1_Rep","full_date":"2026-02-27T21:08:48.630Z","date":"2026-02-27","time":"21:08:48"},{"correct_response":"a","task":"test_phase","broad_category":"S","image_png":"S_Dolomite_13.png","image_id":397,"category_name":"Dolomite","category":25,"distinct_rating":1.77,"distinct_type":"Bottom","item_type":"Foil","rt":3988,"stimulus":"Stimuli_Rocks480/S_Dolomite_13.png","response":"l","trial_type":"image-keyboard-response","trial_index":193,"plugin_version":"2.1.0","time_elapsed":398206,"subject_id":"91480","group":"Group2","condition":"1_Rep","full_date":"2026-02-27T21:08:48.630Z","date":"2026-02-27","time":"21:08:48","cor_ans":false},{"trial_type":"html-keyboard-response","rt":null,"stimulus":"<p style=\"color: red; font-size: 50px; font-weight: bold;\">Incorrect</p>","response":null,"trial_index":194,"plugin_version":"2.1.0","time_elapsed":398707,"subject_id":"91480","group":"Group2","condition":"1_Rep","full_date":"2026-02-27T21:08:48.630Z","date":"2026-02-27","time":"21:08:48"},{"correct_response":"a","task":"test_phase","broad_category":"S","image_png":"S_Shale_12.png","image_id":476,"category_name":"Shale","category":30,"distinct_rating":2.48,"distinct_type":"Bottom","item_type":"Foil","rt":1480,"stimulus":"Stimuli_Rocks480/S_Shale_12.png","response":"a","trial_type":"image-keyboard-response","trial_index":195,"plugin_version":"2.1.0","time_elapsed":400190,"subject_id":"91480","group":"Group2","condition":"1_Rep","full_date":"2026-02-27T21:08:48.630Z","date":"2026-02-27","time":"21:08:48","cor_ans":true},{"trial_type":"html-keyboard-response","rt":null,"stimulus":"<p style=\"color: green; font-size: 50px; font-weight: bold;\">Correct</p>","response":null,"trial_index":196,"plugin_version":"2.1.0","time_elapsed":400692,"subject_id":"91480","group":"Group2","condition":"1_Rep","full_date":"2026-02-27T21:08:48.630Z","date":"2026-02-27","time":"21:08:48"},{"correct_response":"a","task":"test_phase","broad_category":"M","image_png":"M_Quartzite_08.png","image_id":280,"category_name":"Quartzite","category":18,"distinct_rating":2.15,"distinct_type":"Bottom","item_type":"Foil","rt":5580,"stimulus":"Stimuli_Rocks480/M_Quartzite_08.png","response":"a","trial_type":"image-keyboard-response","trial_index":197,"plugin_version":"2.1.0","time_elapsed":406274,"subject_id":"91480","group":"Group2","condition":"1_Rep","full_date":"2026-02-27T21:08:48.630Z","date":"2026-02-27","time":"21:08:48","cor_ans":true},{"trial_type":"html-keyboard-response","rt":null,"stimulus":"<p style=\"color: green; font-size: 50px; font-weight: bold;\">Correct</p>","response":null,"trial_index":198,"plugin_version":"2.1.0","time_elapsed":406776,"subject_id":"91480","group":"Group2","condition":"1_Rep","full_date":"2026-02-27T21:08:48.630Z","date":"2026-02-27","time":"21:08:48"},{"correct_response":"a","task":"test_phase","broad_category":"M","image_png":"M_Slate_03.png","image_id":307,"category_name":"Slate","category":20,"distinct_rating":1.87,"distinct_type":"Bottom","item_type":"Foil","rt":985,"stimulus":"Stimuli_Rocks480/M_Slate_03.png","response":"l","trial_type":"image-keyboard-response","trial_index":199,"plugin_version":"2.1.0","time_elapsed":407763,"subject_id":"91480","group":"Group2","condition":"1_Rep","full_date":"2026-02-27T21:08:48.630Z","date":"2026-02-27","time":"21:08:48","cor_ans":false},{"trial_type":"html-keyboard-response","rt":null,"stimulus":"<p style=\"color: red; font-size: 50px; font-weight: bold;\">Incorrect</p>","response":null,"trial_index":200,"plugin_version":"2.1.0","time_elapsed":408264,"subject_id":"91480","group":"Group2","condition":"1_Rep","full_date":"2026-02-27T21:08:48.630Z","date":"2026-02-27","time":"21:08:48"},{"correct_response":"a","task":"test_phase","broad_category":"I","image_png":"I_Andesite_08.png","image_id":8,"category_name":"Andesite","category":1,"distinct_rating":1.95,"distinct_type":"Bottom","item_type":"Foil","rt":1034,"stimulus":"Stimuli_Rocks480/I_Andesite_08.png","response":"l","trial_type":"image-keyboard-response","trial_index":201,"plugin_version":"2.1.0","time_elapsed":409300,"subject_id":"91480","group":"Group2","condition":"1_Rep","full_date":"2026-02-27T21:08:48.630Z","date":"2026-02-27","time":"21:08:48","cor_ans":false},{"trial_type":"html-keyboard-response","rt":null,"stimulus":"<p style=\"color: red; font-size: 50px; font-weight: bold;\">Incorrect</p>","response":null,"trial_index":202,"plugin_version":"2.1.0","time_elapsed":409802,"subject_id":"91480","group":"Group2","condition":"1_Rep","full_date":"2026-02-27T21:08:48.630Z","date":"2026-02-27","time":"21:08:48"},{"correct_response":"l","task":"test_phase","broad_category":"S","image_png":"S_Sandstone_08.png","image_id":456,"category_name":"Sandstone","category":29,"distinct_rating":1.5,"distinct_type":"Bottom","item_type":"Target","rt":1039,"stimulus":"Stimuli_Rocks480/S_Sandstone_08.png","response":"a","trial_type":"image-keyboard-response","trial_index":203,"plugin_version":"2.1.0","time_elapsed":410844,"subject_id":"91480","group":"Group2","condition":"1_Rep","full_date":"2026-02-27T21:08:48.630Z","date":"2026-02-27","time":"21:08:48","cor_ans":false},{"trial_type":"html-keyboard-response","rt":null,"stimulus":"<p style=\"color: red; font-size: 50px; font-weight: bold;\">Incorrect</p>","response":null,"trial_index":204,"plugin_version":"2.1.0","time_elapsed":411345,"subject_id":"91480","group":"Group2","condition":"1_Rep","full_date":"2026-02-27T21:08:48.630Z","date":"2026-02-27","time":"21:08:48"},{"correct_response":"l","task":"test_phase","broad_category":"I","image_png":"I_Diorite_15.png","image_id":47,"category_name":"Diorite","category":3,"distinct_rating":3.05,"distinct_type":"Bottom","item_type":"Target","rt":1826,"stimulus":"Stimuli_Rocks480/I_Diorite_15.png","response":"l","trial_type":"image-keyboard-response","trial_index":205,"plugin_version":"2.1.0","time_elapsed":413173,"subject_id":"91480","group":"Group2","condition":"1_Rep","full_date":"2026-02-27T21:08:48.630Z","date":"2026-02-27","time":"21:08:48","cor_ans":true},{"trial_type":"html-keyboard-response","rt":null,"stimulus":"<p style=\"color: green; font-size: 50px; font-weight: bold;\">Correct</p>","response":null,"trial_index":206,"plugin_version":"2.1.0","time_elapsed":413674,"subject_id":"91480","group":"Group2","condition":"1_Rep","full_date":"2026-02-27T21:08:48.630Z","date":"2026-02-27","time":"21:08:48"},{"correct_response":"a","task":"test_phase","broad_category":"M","image_png":"M_Gneiss_13.png","image_id":205,"category_name":"Gneiss","category":13,"distinct_rating":3.26,"distinct_type":"Bottom","item_type":"Foil","rt":965,"stimulus":"Stimuli_Rocks480/M_Gneiss_13.png","response":"l","trial_type":"image-keyboard-response","trial_index":207,"plugin_version":"2.1.0","time_elapsed":414640,"subject_id":"91480","group":"Group2","condition":"1_Rep","full_date":"2026-02-27T21:08:48.630Z","date":"2026-02-27","time":"21:08:48","cor_ans":false},{"trial_type":"html-keyboard-response","rt":null,"stimulus":"<p style=\"color: red; font-size: 50px; font-weight: bold;\">Incorrect</p>","response":null,"trial_index":208,"plugin_version":"2.1.0","time_elapsed":415142,"subject_id":"91480","group":"Group2","condition":"1_Rep","full_date":"2026-02-27T21:08:48.630Z","date":"2026-02-27","time":"21:08:48"},{"correct_response":"l","task":"test_phase","broad_category":"M","image_png":"M_Quartzite_07.png","image_id":279,"category_name":"Quartzite","category":18,"distinct_rating":1.97,"distinct_type":"Bottom","item_type":"Target","rt":1258,"stimulus":"Stimuli_Rocks480/M_Quartzite_07.png","response":"l","trial_type":"image-keyboard-response","trial_index":209,"plugin_version":"2.1.0","time_elapsed":416402,"subject_id":"91480","group":"Group2","condition":"1_Rep","full_date":"2026-02-27T21:08:48.630Z","date":"2026-02-27","time":"21:08:48","cor_ans":true},{"trial_type":"html-keyboard-response","rt":null,"stimulus":"<p style=\"color: green; font-size: 50px; font-weight: bold;\">Correct</p>","response":null,"trial_index":210,"plugin_version":"2.1.0","time_elapsed":416903,"subject_id":"91480","group":"Group2","condition":"1_Rep","full_date":"2026-02-27T21:08:48.630Z","date":"2026-02-27","time":"21:08:48"},{"correct_response":"a","task":"test_phase","broad_category":"I","image_png":"I_Andesite_10.png","image_id":10,"category_name":"Andesite","category":1,"distinct_rating":3.15,"distinct_type":"Bottom","item_type":"Foil","rt":1895,"stimulus":"Stimuli_Rocks480/I_Andesite_10.png","response":"a","trial_type":"image-keyboard-response","trial_index":211,"plugin_version":"2.1.0","time_elapsed":418800,"subject_id":"91480","group":"Group2","condition":"1_Rep","full_date":"2026-02-27T21:08:48.630Z","date":"2026-02-27","time":"21:08:48","cor_ans":true},{"trial_type":"html-keyboard-response","rt":null,"stimulus":"<p style=\"color: green; font-size: 50px; font-weight: bold;\">Correct</p>","response":null,"trial_index":212,"plugin_version":"2.1.0","time_elapsed":419302,"subject_id":"91480","group":"Group2","condition":"1_Rep","full_date":"2026-02-27T21:08:48.630Z","date":"2026-02-27","time":"21:08:48"},{"correct_response":"a","task":"test_phase","broad_category":"S","image_png":"S_Rock Gypsum_04.png","image_id":420,"category_name":"Rock Gypsum","category":27,"distinct_rating":7.61,"distinct_type":"Top","item_type":"Foil","rt":1277,"stimulus":"Stimuli_Rocks480/S_Rock Gypsum_04.png","response":"a","trial_type":"image-keyboard-response","trial_index":213,"plugin_version":"2.1.0","time_elapsed":420580,"subject_id":"91480","group":"Group2","condition":"1_Rep","full_date":"2026-02-27T21:08:48.630Z","date":"2026-02-27","time":"21:08:48","cor_ans":true},{"trial_type":"html-keyboard-response","rt":null,"stimulus":"<p style=\"color: green; font-size: 50px; font-weight: bold;\">Correct</p>","response":null,"trial_index":214,"plugin_version":"2.1.0","time_elapsed":421082,"subject_id":"91480","group":"Group2","condition":"1_Rep","full_date":"2026-02-27T21:08:48.630Z","date":"2026-02-27","time":"21:08:48"},{"correct_response":"l","task":"test_phase","broad_category":"S","image_png":"S_Sandstone_11.png","image_id":459,"category_name":"Sandstone","category":29,"distinct_rating":1.82,"distinct_type":"Bottom","item_type":"Target","rt":1935,"stimulus":"Stimuli_Rocks480/S_Sandstone_11.png","response":"a","trial_type":"image-keyboard-response","trial_index":215,"plugin_version":"2.1.0","time_elapsed":423019,"subject_id":"91480","group":"Group2","condition":"1_Rep","full_date":"2026-02-27T21:08:48.630Z","date":"2026-02-27","time":"21:08:48","cor_ans":false},{"trial_type":"html-keyboard-response","rt":null,"stimulus":"<p style=\"color: red; font-size: 50px; font-weight: bold;\">Incorrect</p>","response":null,"trial_index":216,"plugin_version":"2.1.0","time_elapsed":423520,"subject_id":"91480","group":"Group2","condition":"1_Rep","full_date":"2026-02-27T21:08:48.630Z","date":"2026-02-27","time":"21:08:48"},{"correct_response":"a","task":"test_phase","broad_category":"I","image_png":"I_Pumice_08.png","image_id":136,"category_name":"Pumice","category":9,"distinct_rating":3.1,"distinct_type":"Bottom","item_type":"Foil","rt":2025,"stimulus":"Stimuli_Rocks480/I_Pumice_08.png","response":"a","trial_type":"image-keyboard-response","trial_index":217,"plugin_version":"2.1.0","time_elapsed":425547,"subject_id":"91480","group":"Group2","condition":"1_Rep","full_date":"2026-02-27T21:08:48.630Z","date":"2026-02-27","time":"21:08:48","cor_ans":true},{"trial_type":"html-keyboard-response","rt":null,"stimulus":"<p style=\"color: green; font-size: 50px; font-weight: bold;\">Correct</p>","response":null,"trial_index":218,"plugin_version":"2.1.0","time_elapsed":426048,"subject_id":"91480","group":"Group2","condition":"1_Rep","full_date":"2026-02-27T21:08:48.630Z","date":"2026-02-27","time":"21:08:48"},{"correct_response":"a","task":"test_phase","broad_category":"S","image_png":"S_Dolomite_12.png","image_id":396,"category_name":"Dolomite","category":25,"distinct_rating":1.85,"distinct_type":"Bottom","item_type":"Foil","rt":2288,"stimulus":"Stimuli_Rocks480/S_Dolomite_12.png","response":"a","trial_type":"image-keyboard-response","trial_index":219,"plugin_version":"2.1.0","time_elapsed":428338,"subject_id":"91480","group":"Group2","condition":"1_Rep","full_date":"2026-02-27T21:08:48.630Z","date":"2026-02-27","time":"21:08:48","cor_ans":true},{"trial_type":"html-keyboard-response","rt":null,"stimulus":"<p style=\"color: green; font-size: 50px; font-weight: bold;\">Correct</p>","response":null,"trial_index":220,"plugin_version":"2.1.0","time_elapsed":428839,"subject_id":"91480","group":"Group2","condition":"1_Rep","full_date":"2026-02-27T21:08:48.630Z","date":"2026-02-27","time":"21:08:48"},{"correct_response":"l","task":"test_phase","broad_category":"I","image_png":"I_Gabbro_02.png","image_id":50,"category_name":"Gabbro","category":4,"distinct_rating":2.73,"distinct_type":"Bottom","item_type":"Target","rt":1372,"stimulus":"Stimuli_Rocks480/I_Gabbro_02.png","response":"a","trial_type":"image-keyboard-response","trial_index":221,"plugin_version":"2.1.0","time_elapsed":430212,"subject_id":"91480","group":"Group2","condition":"1_Rep","full_date":"2026-02-27T21:08:48.630Z","date":"2026-02-27","time":"21:08:48","cor_ans":false},{"trial_type":"html-keyboard-response","rt":null,"stimulus":"<p style=\"color: red; font-size: 50px; font-weight: bold;\">Incorrect</p>","response":null,"trial_index":222,"plugin_version":"2.1.0","time_elapsed":430714,"subject_id":"91480","group":"Group2","condition":"1_Rep","full_date":"2026-02-27T21:08:48.630Z","date":"2026-02-27","time":"21:08:48"},{"correct_response":"l","task":"test_phase","broad_category":"S","image_png":"S_Conglomerate_14.png","image_id":382,"category_name":"Conglomerate","category":24,"distinct_rating":6.86,"distinct_type":"Top","item_type":"Target","rt":974,"stimulus":"Stimuli_Rocks480/S_Conglomerate_14.png","response":"l","trial_type":"image-keyboard-response","trial_index":223,"plugin_version":"2.1.0","time_elapsed":431690,"subject_id":"91480","group":"Group2","condition":"1_Rep","full_date":"2026-02-27T21:08:48.630Z","date":"2026-02-27","time":"21:08:48","cor_ans":true},{"trial_type":"html-keyboard-response","rt":null,"stimulus":"<p style=\"color: green; font-size: 50px; font-weight: bold;\">Correct</p>","response":null,"trial_index":224,"plugin_version":"2.1.0","time_elapsed":432192,"subject_id":"91480","group":"Group2","condition":"1_Rep","full_date":"2026-02-27T21:08:48.630Z","date":"2026-02-27","time":"2