[{"width":1280,"height":719,"webaudio":true,"browser":"safari","browser_version":"18.6.0","mobile":false,"os":"Mac OS","fullscreen":true,"vsync_rate":59.29,"webcam":true,"microphone":true,"trial_type":"browser-check","trial_index":0,"plugin_version":"2.1.0","time_elapsed":1022,"subject_id":"91917","group":"Group2","condition":"1_Rep","full_date":"2026-02-24T13:15:56.193Z","date":"2026-02-24","time":"13:15:56"},{"success":true,"timeout":false,"failed_images":[],"failed_audio":[],"failed_video":[],"trial_type":"preload","trial_index":1,"plugin_version":"2.1.0","time_elapsed":2757,"subject_id":"91917","group":"Group2","condition":"1_Rep","full_date":"2026-02-24T13:15:56.193Z","date":"2026-02-24","time":"13:15:56"},{"rt":10718,"url":"SONA_consent_memorability.html","trial_type":"external-html","trial_index":2,"plugin_version":"2.1.0","time_elapsed":13525,"subject_id":"91917","group":"Group2","condition":"1_Rep","full_date":"2026-02-24T13:15:56.193Z","date":"2026-02-24","time":"13:15:56"},{"success":true,"rt":4162,"trial_type":"fullscreen","trial_index":3,"plugin_version":"2.1.0","time_elapsed":18690,"subject_id":"91917","group":"Group2","condition":"1_Rep","full_date":"2026-02-24T13:15:56.193Z","date":"2026-02-24","time":"13:15:56"},{"rt":2181,"stimulus":"<div style=\"max-width: 760px; margin: auto; font-size: 20px; line-height: 1.5;\">\n      <h1 style=\"text-align:center; font-size: 30px;\">Instructions</h1>\n      <p>\n        Welcome to the study on <b>visual memory</b>. This experiment consists of <b>two phases</b>: \n        a <b>study phase</b> and a <b>test phase</b>.\n      </p>\n      <p>\n        In the study phase, you will see a series of rock images along with their category labels.\n        The images will appear one at a time.\n        <b>Your task</b> is to learn the categories to which the rock images belong \n        and to remember each image as accurately as possible.\n      </p> \n      <p>\n        Note that you will see each image only <b>once</b> during the study phase. \n          So, please pay close attention and try to remember each image carefully.\n      </p>\n      <p>\n        After the study phase, <b>your memory will be tested</b>. \n        Additional instructions for the test phase will be provided at that time.\n      </p>\n      <p>\n        If your computer has multiple <b>language settings</b> (e.g., English and another language),\n        please make sure it is set to English before starting.\n      </p>\n      <p>\n        You can track your progress using the <b>completion bar</b> at the top of the screen. \n        Please note that the bar will refresh when the test phase begins \n        to give you an accurate sense of your progress in both phases.\n      </p> \n      <p>\n        Press the button below when you are ready to begin.\n      </p>\n    </div>","response":0,"trial_type":"html-button-response","trial_index":4,"plugin_version":"2.1.0","time_elapsed":20873,"subject_id":"91917","group":"Group2","condition":"1_Rep","full_date":"2026-02-24T13:15:56.193Z","date":"2026-02-24","time":"13:15:56"},{"rt":null,"stimulus":"<p style=\"font-size: 50px; margin: 0; text-align: center;\">+</p>","response":null,"trial_type":"html-keyboard-response","trial_index":5,"plugin_version":"2.1.0","time_elapsed":21877,"subject_id":"91917","group":"Group2","condition":"1_Rep","full_date":"2026-02-24T13:15:56.193Z","date":"2026-02-24","time":"13:15:56"},{"task":"memory_phase","broad_category":"S","image_png":"S_Shale_07.png","image_id":471,"category_name":"Shale","category":30,"distinct_rating":2.73,"distinct_type":"Bottom","rt":null,"stimulus":"Stimuli_Rocks480/S_Shale_07.png","response":null,"trial_type":"image-keyboard-response","trial_index":6,"plugin_version":"2.1.0","time_elapsed":24392,"subject_id":"91917","group":"Group2","condition":"1_Rep","full_date":"2026-02-24T13:15:56.193Z","date":"2026-02-24","time":"13:15:56"},{"rt":null,"stimulus":"<p style=\"font-size: 50px; margin: 0; text-align: center;\">+</p>","response":null,"trial_type":"html-keyboard-response","trial_index":7,"plugin_version":"2.1.0","time_elapsed":25395,"subject_id":"91917","group":"Group2","condition":"1_Rep","full_date":"2026-02-24T13:15:56.193Z","date":"2026-02-24","time":"13:15:56"},{"task":"memory_phase","broad_category":"I","image_png":"I_Gabbro_14.png","image_id":62,"category_name":"Gabbro","category":4,"distinct_rating":2.95,"distinct_type":"Bottom","rt":null,"stimulus":"Stimuli_Rocks480/I_Gabbro_14.png","response":null,"trial_type":"image-keyboard-response","trial_index":8,"plugin_version":"2.1.0","time_elapsed":27914,"subject_id":"91917","group":"Group2","condition":"1_Rep","full_date":"2026-02-24T13:15:56.193Z","date":"2026-02-24","time":"13:15:56"},{"rt":null,"stimulus":"<p style=\"font-size: 50px; margin: 0; text-align: center;\">+</p>","response":null,"trial_type":"html-keyboard-response","trial_index":9,"plugin_version":"2.1.0","time_elapsed":28917,"subject_id":"91917","group":"Group2","condition":"1_Rep","full_date":"2026-02-24T13:15:56.193Z","date":"2026-02-24","time":"13:15:56"},{"task":"memory_phase","broad_category":"I","image_png":"I_Obsidian_06.png","image_id":86,"category_name":"Obsidian","category":6,"distinct_rating":8.01,"distinct_type":"Top","rt":null,"stimulus":"Stimuli_Rocks480/I_Obsidian_06.png","response":null,"trial_type":"image-keyboard-response","trial_index":10,"plugin_version":"2.1.0","time_elapsed":31435,"subject_id":"91917","group":"Group2","condition":"1_Rep","full_date":"2026-02-24T13:15:56.193Z","date":"2026-02-24","time":"13:15:56"},{"rt":null,"stimulus":"<p style=\"font-size: 50px; margin: 0; text-align: center;\">+</p>","response":null,"trial_type":"html-keyboard-response","trial_index":11,"plugin_version":"2.1.0","time_elapsed":32437,"subject_id":"91917","group":"Group2","condition":"1_Rep","full_date":"2026-02-24T13:15:56.193Z","date":"2026-02-24","time":"13:15:56"},{"task":"memory_phase","broad_category":"S","image_png":"S_Dolomite_07.png","image_id":391,"category_name":"Dolomite","category":25,"distinct_rating":1.73,"distinct_type":"Bottom","rt":null,"stimulus":"Stimuli_Rocks480/S_Dolomite_07.png","response":null,"trial_type":"image-keyboard-response","trial_index":12,"plugin_version":"2.1.0","time_elapsed":34953,"subject_id":"91917","group":"Group2","condition":"1_Rep","full_date":"2026-02-24T13:15:56.193Z","date":"2026-02-24","time":"13:15:56"},{"rt":null,"stimulus":"<p style=\"font-size: 50px; margin: 0; text-align: center;\">+</p>","response":null,"trial_type":"html-keyboard-response","trial_index":13,"plugin_version":"2.1.0","time_elapsed":35955,"subject_id":"91917","group":"Group2","condition":"1_Rep","full_date":"2026-02-24T13:15:56.193Z","date":"2026-02-24","time":"13:15:56"},{"task":"memory_phase","broad_category":"M","image_png":"M_Quartzite_15.png","image_id":287,"category_name":"Quartzite","category":18,"distinct_rating":2.19,"distinct_type":"Bottom","rt":null,"stimulus":"Stimuli_Rocks480/M_Quartzite_15.png","response":null,"trial_type":"image-keyboard-response","trial_index":14,"plugin_version":"2.1.0","time_elapsed":38472,"subject_id":"91917","group":"Group2","condition":"1_Rep","full_date":"2026-02-24T13:15:56.193Z","date":"2026-02-24","time":"13:15:56"},{"rt":null,"stimulus":"<p style=\"font-size: 50px; margin: 0; text-align: center;\">+</p>","response":null,"trial_type":"html-keyboard-response","trial_index":15,"plugin_version":"2.1.0","time_elapsed":39475,"subject_id":"91917","group":"Group2","condition":"1_Rep","full_date":"2026-02-24T13:15:56.193Z","date":"2026-02-24","time":"13:15:56"},{"task":"memory_phase","broad_category":"S","image_png":"S_Rock Salt_13.png","image_id":445,"category_name":"Rock Salt","category":28,"distinct_rating":7.58,"distinct_type":"Top","rt":null,"stimulus":"Stimuli_Rocks480/S_Rock Salt_13.png","response":null,"trial_type":"image-keyboard-response","trial_index":16,"plugin_version":"2.1.0","time_elapsed":41993,"subject_id":"91917","group":"Group2","condition":"1_Rep","full_date":"2026-02-24T13:15:56.193Z","date":"2026-02-24","time":"13:15:56"},{"rt":null,"stimulus":"<p style=\"font-size: 50px; margin: 0; text-align: center;\">+</p>","response":null,"trial_type":"html-keyboard-response","trial_index":17,"plugin_version":"2.1.0","time_elapsed":42996,"subject_id":"91917","group":"Group2","condition":"1_Rep","full_date":"2026-02-24T13:15:56.193Z","date":"2026-02-24","time":"13:15:56"},{"task":"memory_phase","broad_category":"I","image_png":"I_Andesite_04.png","image_id":4,"category_name":"Andesite","category":1,"distinct_rating":3.18,"distinct_type":"Bottom","rt":null,"stimulus":"Stimuli_Rocks480/I_Andesite_04.png","response":null,"trial_type":"image-keyboard-response","trial_index":18,"plugin_version":"2.1.0","time_elapsed":45513,"subject_id":"91917","group":"Group2","condition":"1_Rep","full_date":"2026-02-24T13:15:56.193Z","date":"2026-02-24","time":"13:15:56"},{"rt":null,"stimulus":"<p style=\"font-size: 50px; margin: 0; text-align: center;\">+</p>","response":null,"trial_type":"html-keyboard-response","trial_index":19,"plugin_version":"2.1.0","time_elapsed":46515,"subject_id":"91917","group":"Group2","condition":"1_Rep","full_date":"2026-02-24T13:15:56.193Z","date":"2026-02-24","time":"13:15:56"},{"task":"memory_phase","broad_category":"M","image_png":"M_Phyllite_05.png","image_id":261,"category_name":"Phyllite","category":17,"distinct_rating":2.14,"distinct_type":"Bottom","rt":null,"stimulus":"Stimuli_Rocks480/M_Phyllite_05.png","response":null,"trial_type":"image-keyboard-response","trial_index":20,"plugin_version":"2.1.0","time_elapsed":49029,"subject_id":"91917","group":"Group2","condition":"1_Rep","full_date":"2026-02-24T13:15:56.193Z","date":"2026-02-24","time":"13:15:56"},{"rt":null,"stimulus":"<p style=\"font-size: 50px; margin: 0; text-align: center;\">+</p>","response":null,"trial_type":"html-keyboard-response","trial_index":21,"plugin_version":"2.1.0","time_elapsed":50031,"subject_id":"91917","group":"Group2","condition":"1_Rep","full_date":"2026-02-24T13:15:56.193Z","date":"2026-02-24","time":"13:15:56"},{"task":"memory_phase","broad_category":"M","image_png":"M_Slate_10.png","image_id":314,"category_name":"Slate","category":20,"distinct_rating":1.94,"distinct_type":"Bottom","rt":null,"stimulus":"Stimuli_Rocks480/M_Slate_10.png","response":null,"trial_type":"image-keyboard-response","trial_index":22,"plugin_version":"2.1.0","time_elapsed":52543,"subject_id":"91917","group":"Group2","condition":"1_Rep","full_date":"2026-02-24T13:15:56.193Z","date":"2026-02-24","time":"13:15:56"},{"rt":null,"stimulus":"<p style=\"font-size: 50px; margin: 0; text-align: center;\">+</p>","response":null,"trial_type":"html-keyboard-response","trial_index":23,"plugin_version":"2.1.0","time_elapsed":53546,"subject_id":"91917","group":"Group2","condition":"1_Rep","full_date":"2026-02-24T13:15:56.193Z","date":"2026-02-24","time":"13:15:56"},{"task":"memory_phase","broad_category":"I","image_png":"I_Diorite_10.png","image_id":42,"category_name":"Diorite","category":3,"distinct_rating":2.84,"distinct_type":"Bottom","rt":null,"stimulus":"Stimuli_Rocks480/I_Diorite_10.png","response":null,"trial_type":"image-keyboard-response","trial_index":24,"plugin_version":"2.1.0","time_elapsed":56060,"subject_id":"91917","group":"Group2","condition":"1_Rep","full_date":"2026-02-24T13:15:56.193Z","date":"2026-02-24","time":"13:15:56"},{"rt":null,"stimulus":"<p style=\"font-size: 50px; margin: 0; text-align: center;\">+</p>","response":null,"trial_type":"html-keyboard-response","trial_index":25,"plugin_version":"2.1.0","time_elapsed":57063,"subject_id":"91917","group":"Group2","condition":"1_Rep","full_date":"2026-02-24T13:15:56.193Z","date":"2026-02-24","time":"13:15:56"},{"task":"memory_phase","broad_category":"I","image_png":"I_Basalt_08.png","image_id":24,"category_name":"Basalt","category":2,"distinct_rating":2.31,"distinct_type":"Bottom","rt":null,"stimulus":"Stimuli_Rocks480/I_Basalt_08.png","response":null,"trial_type":"image-keyboard-response","trial_index":26,"plugin_version":"2.1.0","time_elapsed":59582,"subject_id":"91917","group":"Group2","condition":"1_Rep","full_date":"2026-02-24T13:15:56.193Z","date":"2026-02-24","time":"13:15:56"},{"rt":null,"stimulus":"<p style=\"font-size: 50px; margin: 0; text-align: center;\">+</p>","response":null,"trial_type":"html-keyboard-response","trial_index":27,"plugin_version":"2.1.0","time_elapsed":60584,"subject_id":"91917","group":"Group2","condition":"1_Rep","full_date":"2026-02-24T13:15:56.193Z","date":"2026-02-24","time":"13:15:56"},{"task":"memory_phase","broad_category":"I","image_png":"I_Pumice_13.png","image_id":141,"category_name":"Pumice","category":9,"distinct_rating":3.12,"distinct_type":"Bottom","rt":null,"stimulus":"Stimuli_Rocks480/I_Pumice_13.png","response":null,"trial_type":"image-keyboard-response","trial_index":28,"plugin_version":"2.1.0","time_elapsed":63101,"subject_id":"91917","group":"Group2","condition":"1_Rep","full_date":"2026-02-24T13:15:56.193Z","date":"2026-02-24","time":"13:15:56"},{"rt":null,"stimulus":"<p style=\"font-size: 50px; margin: 0; text-align: center;\">+</p>","response":null,"trial_type":"html-keyboard-response","trial_index":29,"plugin_version":"2.1.0","time_elapsed":64103,"subject_id":"91917","group":"Group2","condition":"1_Rep","full_date":"2026-02-24T13:15:56.193Z","date":"2026-02-24","time":"13:15:56"},{"task":"memory_phase","broad_category":"I","image_png":"I_Pumice_01.png","image_id":129,"category_name":"Pumice","category":9,"distinct_rating":3.25,"distinct_type":"Bottom","rt":null,"stimulus":"Stimuli_Rocks480/I_Pumice_01.png","response":null,"trial_type":"image-keyboard-response","trial_index":30,"plugin_version":"2.1.0","time_elapsed":66619,"subject_id":"91917","group":"Group2","condition":"1_Rep","full_date":"2026-02-24T13:15:56.193Z","date":"2026-02-24","time":"13:15:56"},{"rt":null,"stimulus":"<p style=\"font-size: 50px; margin: 0; text-align: center;\">+</p>","response":null,"trial_type":"html-keyboard-response","trial_index":31,"plugin_version":"2.1.0","time_elapsed":67621,"subject_id":"91917","group":"Group2","condition":"1_Rep","full_date":"2026-02-24T13:15:56.193Z","date":"2026-02-24","time":"13:15:56"},{"task":"memory_phase","broad_category":"I","image_png":"I_Gabbro_12.png","image_id":60,"category_name":"Gabbro","category":4,"distinct_rating":2.6,"distinct_type":"Bottom","rt":null,"stimulus":"Stimuli_Rocks480/I_Gabbro_12.png","response":null,"trial_type":"image-keyboard-response","trial_index":32,"plugin_version":"2.1.0","time_elapsed":70138,"subject_id":"91917","group":"Group2","condition":"1_Rep","full_date":"2026-02-24T13:15:56.193Z","date":"2026-02-24","time":"13:15:56"},{"rt":null,"stimulus":"<p style=\"font-size: 50px; margin: 0; text-align: center;\">+</p>","response":null,"trial_type":"html-keyboard-response","trial_index":33,"plugin_version":"2.1.0","time_elapsed":71140,"subject_id":"91917","group":"Group2","condition":"1_Rep","full_date":"2026-02-24T13:15:56.193Z","date":"2026-02-24","time":"13:15:56"},{"task":"memory_phase","broad_category":"I","image_png":"I_Diorite_15.png","image_id":47,"category_name":"Diorite","category":3,"distinct_rating":3.05,"distinct_type":"Bottom","rt":null,"stimulus":"Stimuli_Rocks480/I_Diorite_15.png","response":null,"trial_type":"image-keyboard-response","trial_index":34,"plugin_version":"2.1.0","time_elapsed":73655,"subject_id":"91917","group":"Group2","condition":"1_Rep","full_date":"2026-02-24T13:15:56.193Z","date":"2026-02-24","time":"13:15:56"},{"rt":null,"stimulus":"<p style=\"font-size: 50px; margin: 0; text-align: center;\">+</p>","response":null,"trial_type":"html-keyboard-response","trial_index":35,"plugin_version":"2.1.0","time_elapsed":74657,"subject_id":"91917","group":"Group2","condition":"1_Rep","full_date":"2026-02-24T13:15:56.193Z","date":"2026-02-24","time":"13:15:56"},{"task":"memory_phase","broad_category":"M","image_png":"M_Slate_14.png","image_id":318,"category_name":"Slate","category":20,"distinct_rating":2.58,"distinct_type":"Bottom","rt":null,"stimulus":"Stimuli_Rocks480/M_Slate_14.png","response":null,"trial_type":"image-keyboard-response","trial_index":36,"plugin_version":"2.1.0","time_elapsed":77171,"subject_id":"91917","group":"Group2","condition":"1_Rep","full_date":"2026-02-24T13:15:56.193Z","date":"2026-02-24","time":"13:15:56"},{"rt":null,"stimulus":"<p style=\"font-size: 50px; margin: 0; text-align: center;\">+</p>","response":null,"trial_type":"html-keyboard-response","trial_index":37,"plugin_version":"2.1.0","time_elapsed":78172,"subject_id":"91917","group":"Group2","condition":"1_Rep","full_date":"2026-02-24T13:15:56.193Z","date":"2026-02-24","time":"13:15:56"},{"task":"memory_phase","broad_category":"M","image_png":"M_Marble_02.png","image_id":226,"category_name":"Marble","category":15,"distinct_rating":3.2,"distinct_type":"Bottom","rt":null,"stimulus":"Stimuli_Rocks480/M_Marble_02.png","response":null,"trial_type":"image-keyboard-response","trial_index":38,"plugin_version":"2.1.0","time_elapsed":80686,"subject_id":"91917","group":"Group2","condition":"1_Rep","full_date":"2026-02-24T13:15:56.193Z","date":"2026-02-24","time":"13:15:56"},{"rt":null,"stimulus":"<p style=\"font-size: 50px; margin: 0; text-align: center;\">+</p>","response":null,"trial_type":"html-keyboard-response","trial_index":39,"plugin_version":"2.1.0","time_elapsed":81688,"subject_id":"91917","group":"Group2","condition":"1_Rep","full_date":"2026-02-24T13:15:56.193Z","date":"2026-02-24","time":"13:15:56"},{"task":"memory_phase","broad_category":"S","image_png":"S_Shale_02.png","image_id":466,"category_name":"Shale","category":30,"distinct_rating":2.9,"distinct_type":"Bottom","rt":null,"stimulus":"Stimuli_Rocks480/S_Shale_02.png","response":null,"trial_type":"image-keyboard-response","trial_index":40,"plugin_version":"2.1.0","time_elapsed":84204,"subject_id":"91917","group":"Group2","condition":"1_Rep","full_date":"2026-02-24T13:15:56.193Z","date":"2026-02-24","time":"13:15:56"},{"rt":null,"stimulus":"<p style=\"font-size: 50px; margin: 0; text-align: center;\">+</p>","response":null,"trial_type":"html-keyboard-response","trial_index":41,"plugin_version":"2.1.0","time_elapsed":85207,"subject_id":"91917","group":"Group2","condition":"1_Rep","full_date":"2026-02-24T13:15:56.193Z","date":"2026-02-24","time":"13:15:56"},{"task":"memory_phase","broad_category":"I","image_png":"I_Andesite_03.png","image_id":3,"category_name":"Andesite","category":1,"distinct_rating":3.17,"distinct_type":"Bottom","rt":null,"stimulus":"Stimuli_Rocks480/I_Andesite_03.png","response":null,"trial_type":"image-keyboard-response","trial_index":42,"plugin_version":"2.1.0","time_elapsed":87720,"subject_id":"91917","group":"Group2","condition":"1_Rep","full_date":"2026-02-24T13:15:56.193Z","date":"2026-02-24","time":"13:15:56"},{"rt":null,"stimulus":"<p style=\"font-size: 50px; margin: 0; text-align: center;\">+</p>","response":null,"trial_type":"html-keyboard-response","trial_index":43,"plugin_version":"2.1.0","time_elapsed":88723,"subject_id":"91917","group":"Group2","condition":"1_Rep","full_date":"2026-02-24T13:15:56.193Z","date":"2026-02-24","time":"13:15:56"},{"task":"memory_phase","broad_category":"M","image_png":"M_Phyllite_13.png","image_id":269,"category_name":"Phyllite","category":17,"distinct_rating":2.8,"distinct_type":"Bottom","rt":null,"stimulus":"Stimuli_Rocks480/M_Phyllite_13.png","response":null,"trial_type":"image-keyboard-response","trial_index":44,"plugin_version":"2.1.0","time_elapsed":91237,"subject_id":"91917","group":"Group2","condition":"1_Rep","full_date":"2026-02-24T13:15:56.193Z","date":"2026-02-24","time":"13:15:56"},{"rt":null,"stimulus":"<p style=\"font-size: 50px; margin: 0; text-align: center;\">+</p>","response":null,"trial_type":"html-keyboard-response","trial_index":45,"plugin_version":"2.1.0","time_elapsed":92240,"subject_id":"91917","group":"Group2","condition":"1_Rep","full_date":"2026-02-24T13:15:56.193Z","date":"2026-02-24","time":"13:15:56"},{"task":"memory_phase","broad_category":"M","image_png":"M_Gneiss_15.png","image_id":207,"category_name":"Gneiss","category":13,"distinct_rating":3.11,"distinct_type":"Bottom","rt":null,"stimulus":"Stimuli_Rocks480/M_Gneiss_15.png","response":null,"trial_type":"image-keyboard-response","trial_index":46,"plugin_version":"2.1.0","time_elapsed":94752,"subject_id":"91917","group":"Group2","condition":"1_Rep","full_date":"2026-02-24T13:15:56.193Z","date":"2026-02-24","time":"13:15:56"},{"rt":null,"stimulus":"<p style=\"font-size: 50px; margin: 0; text-align: center;\">+</p>","response":null,"trial_type":"html-keyboard-response","trial_index":47,"plugin_version":"2.1.0","time_elapsed":95755,"subject_id":"91917","group":"Group2","condition":"1_Rep","full_date":"2026-02-24T13:15:56.193Z","date":"2026-02-24","time":"13:15:56"},{"task":"memory_phase","broad_category":"I","image_png":"I_Rhyolite_08.png","image_id":152,"category_name":"Rhyolite","category":10,"distinct_rating":1.38,"distinct_type":"Bottom","rt":null,"stimulus":"Stimuli_Rocks480/I_Rhyolite_08.png","response":null,"trial_type":"image-keyboard-response","trial_index":48,"plugin_version":"2.1.0","time_elapsed":98270,"subject_id":"91917","group":"Group2","condition":"1_Rep","full_date":"2026-02-24T13:15:56.193Z","date":"2026-02-24","time":"13:15:56"},{"rt":null,"stimulus":"<p style=\"font-size: 50px; margin: 0; text-align: center;\">+</p>","response":null,"trial_type":"html-keyboard-response","trial_index":49,"plugin_version":"2.1.0","time_elapsed":99271,"subject_id":"91917","group":"Group2","condition":"1_Rep","full_date":"2026-02-24T13:15:56.193Z","date":"2026-02-24","time":"13:15:56"},{"task":"memory_phase","broad_category":"M","image_png":"M_Quartzite_07.png","image_id":279,"category_name":"Quartzite","category":18,"distinct_rating":1.97,"distinct_type":"Bottom","rt":null,"stimulus":"Stimuli_Rocks480/M_Quartzite_07.png","response":null,"trial_type":"image-keyboard-response","trial_index":50,"plugin_version":"2.1.0","time_elapsed":101789,"subject_id":"91917","group":"Group2","condition":"1_Rep","full_date":"2026-02-24T13:15:56.193Z","date":"2026-02-24","time":"13:15:56"},{"rt":null,"stimulus":"<p style=\"font-size: 50px; margin: 0; text-align: center;\">+</p>","response":null,"trial_type":"html-keyboard-response","trial_index":51,"plugin_version":"2.1.0","time_elapsed":102791,"subject_id":"91917","group":"Group2","condition":"1_Rep","full_date":"2026-02-24T13:15:56.193Z","date":"2026-02-24","time":"13:15:56"},{"task":"memory_phase","broad_category":"I","image_png":"I_Andesite_09.png","image_id":9,"category_name":"Andesite","category":1,"distinct_rating":2.49,"distinct_type":"Bottom","rt":null,"stimulus":"Stimuli_Rocks480/I_Andesite_09.png","response":null,"trial_type":"image-keyboard-response","trial_index":52,"plugin_version":"2.1.0","time_elapsed":105306,"subject_id":"91917","group":"Group2","condition":"1_Rep","full_date":"2026-02-24T13:15:56.193Z","date":"2026-02-24","time":"13:15:56"},{"rt":null,"stimulus":"<p style=\"font-size: 50px; margin: 0; text-align: center;\">+</p>","response":null,"trial_type":"html-keyboard-response","trial_index":53,"plugin_version":"2.1.0","time_elapsed":106308,"subject_id":"91917","group":"Group2","condition":"1_Rep","full_date":"2026-02-24T13:15:56.193Z","date":"2026-02-24","time":"13:15:56"},{"task":"memory_phase","broad_category":"S","image_png":"S_Shale_03.png","image_id":467,"category_name":"Shale","category":30,"distinct_rating":1.95,"distinct_type":"Bottom","rt":null,"stimulus":"Stimuli_Rocks480/S_Shale_03.png","response":null,"trial_type":"image-keyboard-response","trial_index":54,"plugin_version":"2.1.0","time_elapsed":108825,"subject_id":"91917","group":"Group2","condition":"1_Rep","full_date":"2026-02-24T13:15:56.193Z","date":"2026-02-24","time":"13:15:56"},{"rt":7123,"stimulus":"<p style=\"max-width: 760px; margin: auto; font-size: 35px; line-height: 1.5;\">\n                Press SPACE to continue study phase\n              </p>","response":" ","trial_type":"html-keyboard-response","trial_index":55,"plugin_version":"2.1.0","time_elapsed":115951,"subject_id":"91917","group":"Group2","condition":"1_Rep","full_date":"2026-02-24T13:15:56.193Z","date":"2026-02-24","time":"13:15:56"},{"rt":null,"stimulus":"<p style=\"font-size: 50px; margin: 0; text-align: center;\">+</p>","response":null,"trial_type":"html-keyboard-response","trial_index":56,"plugin_version":"2.1.0","time_elapsed":116953,"subject_id":"91917","group":"Group2","condition":"1_Rep","full_date":"2026-02-24T13:15:56.193Z","date":"2026-02-24","time":"13:15:56"},{"task":"memory_phase","broad_category":"S","image_png":"S_Conglomerate_14.png","image_id":382,"category_name":"Conglomerate","category":24,"distinct_rating":6.86,"distinct_type":"Top","rt":null,"stimulus":"Stimuli_Rocks480/S_Conglomerate_14.png","response":null,"trial_type":"image-keyboard-response","trial_index":57,"plugin_version":"2.1.0","time_elapsed":119468,"subject_id":"91917","group":"Group2","condition":"1_Rep","full_date":"2026-02-24T13:15:56.193Z","date":"2026-02-24","time":"13:15:56"},{"rt":null,"stimulus":"<p style=\"font-size: 50px; margin: 0; text-align: center;\">+</p>","response":null,"trial_type":"html-keyboard-response","trial_index":58,"plugin_version":"2.1.0","time_elapsed":120470,"subject_id":"91917","group":"Group2","condition":"1_Rep","full_date":"2026-02-24T13:15:56.193Z","date":"2026-02-24","time":"13:15:56"},{"task":"memory_phase","broad_category":"S","image_png":"S_Sandstone_04.png","image_id":452,"category_name":"Sandstone","category":29,"distinct_rating":1.8,"distinct_type":"Bottom","rt":null,"stimulus":"Stimuli_Rocks480/S_Sandstone_04.png","response":null,"trial_type":"image-keyboard-response","trial_index":59,"plugin_version":"2.1.0","time_elapsed":122985,"subject_id":"91917","group":"Group2","condition":"1_Rep","full_date":"2026-02-24T13:15:56.193Z","date":"2026-02-24","time":"13:15:56"},{"rt":null,"stimulus":"<p style=\"font-size: 50px; margin: 0; text-align: center;\">+</p>","response":null,"trial_type":"html-keyboard-response","trial_index":60,"plugin_version":"2.1.0","time_elapsed":123987,"subject_id":"91917","group":"Group2","condition":"1_Rep","full_date":"2026-02-24T13:15:56.193Z","date":"2026-02-24","time":"13:15:56"},{"task":"memory_phase","broad_category":"I","image_png":"I_Diorite_01.png","image_id":33,"category_name":"Diorite","category":3,"distinct_rating":2.97,"distinct_type":"Bottom","rt":null,"stimulus":"Stimuli_Rocks480/I_Diorite_01.png","response":null,"trial_type":"image-keyboard-response","trial_index":61,"plugin_version":"2.1.0","time_elapsed":126505,"subject_id":"91917","group":"Group2","condition":"1_Rep","full_date":"2026-02-24T13:15:56.193Z","date":"2026-02-24","time":"13:15:56"},{"rt":null,"stimulus":"<p style=\"font-size: 50px; margin: 0; text-align: center;\">+</p>","response":null,"trial_type":"html-keyboard-response","trial_index":62,"plugin_version":"2.1.0","time_elapsed":127507,"subject_id":"91917","group":"Group2","condition":"1_Rep","full_date":"2026-02-24T13:15:56.193Z","date":"2026-02-24","time":"13:15:56"},{"task":"memory_phase","broad_category":"I","image_png":"I_Peridotite_13.png","image_id":125,"category_name":"Peridotite","category":8,"distinct_rating":7.28,"distinct_type":"Top","rt":null,"stimulus":"Stimuli_Rocks480/I_Peridotite_13.png","response":null,"trial_type":"image-keyboard-response","trial_index":63,"plugin_version":"2.1.0","time_elapsed":130025,"subject_id":"91917","group":"Group2","condition":"1_Rep","full_date":"2026-02-24T13:15:56.193Z","date":"2026-02-24","time":"13:15:56"},{"rt":null,"stimulus":"<p style=\"font-size: 50px; margin: 0; text-align: center;\">+</p>","response":null,"trial_type":"html-keyboard-response","trial_index":64,"plugin_version":"2.1.0","time_elapsed":131027,"subject_id":"91917","group":"Group2","condition":"1_Rep","full_date":"2026-02-24T13:15:56.193Z","date":"2026-02-24","time":"13:15:56"},{"task":"memory_phase","broad_category":"M","image_png":"M_Marble_03.png","image_id":227,"category_name":"Marble","category":15,"distinct_rating":2.67,"distinct_type":"Bottom","rt":null,"stimulus":"Stimuli_Rocks480/M_Marble_03.png","response":null,"trial_type":"image-keyboard-response","trial_index":65,"plugin_version":"2.1.0","time_elapsed":133542,"subject_id":"91917","group":"Group2","condition":"1_Rep","full_date":"2026-02-24T13:15:56.193Z","date":"2026-02-24","time":"13:15:56"},{"rt":null,"stimulus":"<p style=\"font-size: 50px; margin: 0; text-align: center;\">+</p>","response":null,"trial_type":"html-keyboard-response","trial_index":66,"plugin_version":"2.1.0","time_elapsed":134544,"subject_id":"91917","group":"Group2","condition":"1_Rep","full_date":"2026-02-24T13:15:56.193Z","date":"2026-02-24","time":"13:15:56"},{"task":"memory_phase","broad_category":"S","image_png":"S_Dolomite_01.png","image_id":385,"category_name":"Dolomite","category":25,"distinct_rating":1.43,"distinct_type":"Bottom","rt":null,"stimulus":"Stimuli_Rocks480/S_Dolomite_01.png","response":null,"trial_type":"image-keyboard-response","trial_index":67,"plugin_version":"2.1.0","time_elapsed":137062,"subject_id":"91917","group":"Group2","condition":"1_Rep","full_date":"2026-02-24T13:15:56.193Z","date":"2026-02-24","time":"13:15:56"},{"rt":null,"stimulus":"<p style=\"font-size: 50px; margin: 0; text-align: center;\">+</p>","response":null,"trial_type":"html-keyboard-response","trial_index":68,"plugin_version":"2.1.0","time_elapsed":138064,"subject_id":"91917","group":"Group2","condition":"1_Rep","full_date":"2026-02-24T13:15:56.193Z","date":"2026-02-24","time":"13:15:56"},{"task":"memory_phase","broad_category":"S","image_png":"S_Sandstone_11.png","image_id":459,"category_name":"Sandstone","category":29,"distinct_rating":1.82,"distinct_type":"Bottom","rt":null,"stimulus":"Stimuli_Rocks480/S_Sandstone_11.png","response":null,"trial_type":"image-keyboard-response","trial_index":69,"plugin_version":"2.1.0","time_elapsed":140582,"subject_id":"91917","group":"Group2","condition":"1_Rep","full_date":"2026-02-24T13:15:56.193Z","date":"2026-02-24","time":"13:15:56"},{"rt":null,"stimulus":"<p style=\"font-size: 50px; margin: 0; text-align: center;\">+</p>","response":null,"trial_type":"html-keyboard-response","trial_index":70,"plugin_version":"2.1.0","time_elapsed":141585,"subject_id":"91917","group":"Group2","condition":"1_Rep","full_date":"2026-02-24T13:15:56.193Z","date":"2026-02-24","time":"13:15:56"},{"task":"memory_phase","broad_category":"S","image_png":"S_Rock Salt_15.png","image_id":447,"category_name":"Rock Salt","category":28,"distinct_rating":7.79,"distinct_type":"Top","rt":null,"stimulus":"Stimuli_Rocks480/S_Rock Salt_15.png","response":null,"trial_type":"image-keyboard-response","trial_index":71,"plugin_version":"2.1.0","time_elapsed":144099,"subject_id":"91917","group":"Group2","condition":"1_Rep","full_date":"2026-02-24T13:15:56.193Z","date":"2026-02-24","time":"13:15:56"},{"rt":null,"stimulus":"<p style=\"font-size: 50px; margin: 0; text-align: center;\">+</p>","response":null,"trial_type":"html-keyboard-response","trial_index":72,"plugin_version":"2.1.0","time_elapsed":145102,"subject_id":"91917","group":"Group2","condition":"1_Rep","full_date":"2026-02-24T13:15:56.193Z","date":"2026-02-24","time":"13:15:56"},{"task":"memory_phase","broad_category":"I","image_png":"I_Basalt_10.png","image_id":26,"category_name":"Basalt","category":2,"distinct_rating":2.76,"distinct_type":"Bottom","rt":null,"stimulus":"Stimuli_Rocks480/I_Basalt_10.png","response":null,"trial_type":"image-keyboard-response","trial_index":73,"plugin_version":"2.1.0","time_elapsed":147618,"subject_id":"91917","group":"Group2","condition":"1_Rep","full_date":"2026-02-24T13:15:56.193Z","date":"2026-02-24","time":"13:15:56"},{"rt":null,"stimulus":"<p style=\"font-size: 50px; margin: 0; text-align: center;\">+</p>","response":null,"trial_type":"html-keyboard-response","trial_index":74,"plugin_version":"2.1.0","time_elapsed":148620,"subject_id":"91917","group":"Group2","condition":"1_Rep","full_date":"2026-02-24T13:15:56.193Z","date":"2026-02-24","time":"13:15:56"},{"task":"memory_phase","broad_category":"I","image_png":"I_Rhyolite_05.png","image_id":149,"category_name":"Rhyolite","category":10,"distinct_rating":3.02,"distinct_type":"Bottom","rt":null,"stimulus":"Stimuli_Rocks480/I_Rhyolite_05.png","response":null,"trial_type":"image-keyboard-response","trial_index":75,"plugin_version":"2.1.0","time_elapsed":151137,"subject_id":"91917","group":"Group2","condition":"1_Rep","full_date":"2026-02-24T13:15:56.193Z","date":"2026-02-24","time":"13:15:56"},{"rt":null,"stimulus":"<p style=\"font-size: 50px; margin: 0; text-align: center;\">+</p>","response":null,"trial_type":"html-keyboard-response","trial_index":76,"plugin_version":"2.1.0","time_elapsed":152139,"subject_id":"91917","group":"Group2","condition":"1_Rep","full_date":"2026-02-24T13:15:56.193Z","date":"2026-02-24","time":"13:15:56"},{"task":"memory_phase","broad_category":"M","image_png":"M_Quartzite_12.png","image_id":284,"category_name":"Quartzite","category":18,"distinct_rating":1.92,"distinct_type":"Bottom","rt":null,"stimulus":"Stimuli_Rocks480/M_Quartzite_12.png","response":null,"trial_type":"image-keyboard-response","trial_index":77,"plugin_version":"2.1.0","time_elapsed":154654,"subject_id":"91917","group":"Group2","condition":"1_Rep","full_date":"2026-02-24T13:15:56.193Z","date":"2026-02-24","time":"13:15:56"},{"rt":null,"stimulus":"<p style=\"font-size: 50px; margin: 0; text-align: center;\">+</p>","response":null,"trial_type":"html-keyboard-response","trial_index":78,"plugin_version":"2.1.0","time_elapsed":155656,"subject_id":"91917","group":"Group2","condition":"1_Rep","full_date":"2026-02-24T13:15:56.193Z","date":"2026-02-24","time":"13:15:56"},{"task":"memory_phase","broad_category":"M","image_png":"M_Marble_14.png","image_id":238,"category_name":"Marble","category":15,"distinct_rating":3.31,"distinct_type":"Bottom","rt":null,"stimulus":"Stimuli_Rocks480/M_Marble_14.png","response":null,"trial_type":"image-keyboard-response","trial_index":79,"plugin_version":"2.1.0","time_elapsed":158171,"subject_id":"91917","group":"Group2","condition":"1_Rep","full_date":"2026-02-24T13:15:56.193Z","date":"2026-02-24","time":"13:15:56"},{"rt":null,"stimulus":"<p style=\"font-size: 50px; margin: 0; text-align: center;\">+</p>","response":null,"trial_type":"html-keyboard-response","trial_index":80,"plugin_version":"2.1.0","time_elapsed":159174,"subject_id":"91917","group":"Group2","condition":"1_Rep","full_date":"2026-02-24T13:15:56.193Z","date":"2026-02-24","time":"13:15:56"},{"task":"memory_phase","broad_category":"M","image_png":"M_Slate_04.png","image_id":308,"category_name":"Slate","category":20,"distinct_rating":2.2,"distinct_type":"Bottom","rt":null,"stimulus":"Stimuli_Rocks480/M_Slate_04.png","response":null,"trial_type":"image-keyboard-response","trial_index":81,"plugin_version":"2.1.0","time_elapsed":161686,"subject_id":"91917","group":"Group2","condition":"1_Rep","full_date":"2026-02-24T13:15:56.193Z","date":"2026-02-24","time":"13:15:56"},{"rt":null,"stimulus":"<p style=\"font-size: 50px; margin: 0; text-align: center;\">+</p>","response":null,"trial_type":"html-keyboard-response","trial_index":82,"plugin_version":"2.1.0","time_elapsed":162689,"subject_id":"91917","group":"Group2","condition":"1_Rep","full_date":"2026-02-24T13:15:56.193Z","date":"2026-02-24","time":"13:15:56"},{"task":"memory_phase","broad_category":"M","image_png":"M_Phyllite_02.png","image_id":258,"category_name":"Phyllite","category":17,"distinct_rating":2.89,"distinct_type":"Bottom","rt":null,"stimulus":"Stimuli_Rocks480/M_Phyllite_02.png","response":null,"trial_type":"image-keyboard-response","trial_index":83,"plugin_version":"2.1.0","time_elapsed":165205,"subject_id":"91917","group":"Group2","condition":"1_Rep","full_date":"2026-02-24T13:15:56.193Z","date":"2026-02-24","time":"13:15:56"},{"rt":null,"stimulus":"<p style=\"font-size: 50px; margin: 0; text-align: center;\">+</p>","response":null,"trial_type":"html-keyboard-response","trial_index":84,"plugin_version":"2.1.0","time_elapsed":166208,"subject_id":"91917","group":"Group2","condition":"1_Rep","full_date":"2026-02-24T13:15:56.193Z","date":"2026-02-24","time":"13:15:56"},{"task":"memory_phase","broad_category":"S","image_png":"S_Chert_13.png","image_id":365,"category_name":"Chert","category":23,"distinct_rating":6.57,"distinct_type":"Top","rt":null,"stimulus":"Stimuli_Rocks480/S_Chert_13.png","response":null,"trial_type":"image-keyboard-response","trial_index":85,"plugin_version":"2.1.0","time_elapsed":168720,"subject_id":"91917","group":"Group2","condition":"1_Rep","full_date":"2026-02-24T13:15:56.193Z","date":"2026-02-24","time":"13:15:56"},{"rt":null,"stimulus":"<p style=\"font-size: 50px; margin: 0; text-align: center;\">+</p>","response":null,"trial_type":"html-keyboard-response","trial_index":86,"plugin_version":"2.1.0","time_elapsed":169723,"subject_id":"91917","group":"Group2","condition":"1_Rep","full_date":"2026-02-24T13:15:56.193Z","date":"2026-02-24","time":"13:15:56"},{"task":"memory_phase","broad_category":"M","image_png":"M_Gneiss_10.png","image_id":202,"category_name":"Gneiss","category":13,"distinct_rating":3.09,"distinct_type":"Bottom","rt":null,"stimulus":"Stimuli_Rocks480/M_Gneiss_10.png","response":null,"trial_type":"image-keyboard-response","trial_index":87,"plugin_version":"2.1.0","time_elapsed":172239,"subject_id":"91917","group":"Group2","condition":"1_Rep","full_date":"2026-02-24T13:15:56.193Z","date":"2026-02-24","time":"13:15:56"},{"rt":null,"stimulus":"<p style=\"font-size: 50px; margin: 0; text-align: center;\">+</p>","response":null,"trial_type":"html-keyboard-response","trial_index":88,"plugin_version":"2.1.0","time_elapsed":173241,"subject_id":"91917","group":"Group2","condition":"1_Rep","full_date":"2026-02-24T13:15:56.193Z","date":"2026-02-24","time":"13:15:56"},{"task":"memory_phase","broad_category":"I","image_png":"I_Gabbro_02.png","image_id":50,"category_name":"Gabbro","category":4,"distinct_rating":2.73,"distinct_type":"Bottom","rt":null,"stimulus":"Stimuli_Rocks480/I_Gabbro_02.png","response":null,"trial_type":"image-keyboard-response","trial_index":89,"plugin_version":"2.1.0","time_elapsed":175756,"subject_id":"91917","group":"Group2","condition":"1_Rep","full_date":"2026-02-24T13:15:56.193Z","date":"2026-02-24","time":"13:15:56"},{"rt":null,"stimulus":"<p style=\"font-size: 50px; margin: 0; text-align: center;\">+</p>","response":null,"trial_type":"html-keyboard-response","trial_index":90,"plugin_version":"2.1.0","time_elapsed":176759,"subject_id":"91917","group":"Group2","condition":"1_Rep","full_date":"2026-02-24T13:15:56.193Z","date":"2026-02-24","time":"13:15:56"},{"task":"memory_phase","broad_category":"I","image_png":"I_Basalt_13.png","image_id":29,"category_name":"Basalt","category":2,"distinct_rating":2.68,"distinct_type":"Bottom","rt":null,"stimulus":"Stimuli_Rocks480/I_Basalt_13.png","response":null,"trial_type":"image-keyboard-response","trial_index":91,"plugin_version":"2.1.0","time_elapsed":179274,"subject_id":"91917","group":"Group2","condition":"1_Rep","full_date":"2026-02-24T13:15:56.193Z","date":"2026-02-24","time":"13:15:56"},{"rt":null,"stimulus":"<p style=\"font-size: 50px; margin: 0; text-align: center;\">+</p>","response":null,"trial_type":"html-keyboard-response","trial_index":92,"plugin_version":"2.1.0","time_elapsed":180276,"subject_id":"91917","group":"Group2","condition":"1_Rep","full_date":"2026-02-24T13:15:56.193Z","date":"2026-02-24","time":"13:15:56"},{"task":"memory_phase","broad_category":"I","image_png":"I_Rhyolite_10.png","image_id":154,"category_name":"Rhyolite","category":10,"distinct_rating":2.88,"distinct_type":"Bottom","rt":null,"stimulus":"Stimuli_Rocks480/I_Rhyolite_10.png","response":null,"trial_type":"image-keyboard-response","trial_index":93,"plugin_version":"2.1.0","time_elapsed":182797,"subject_id":"91917","group":"Group2","condition":"1_Rep","full_date":"2026-02-24T13:15:56.193Z","date":"2026-02-24","time":"13:15:56"},{"rt":null,"stimulus":"<p style=\"font-size: 50px; margin: 0; text-align: center;\">+</p>","response":null,"trial_type":"html-keyboard-response","trial_index":94,"plugin_version":"2.1.0","time_elapsed":183800,"subject_id":"91917","group":"Group2","condition":"1_Rep","full_date":"2026-02-24T13:15:56.193Z","date":"2026-02-24","time":"13:15:56"},{"task":"memory_phase","broad_category":"I","image_png":"I_Pegmatite_11.png","image_id":107,"category_name":"Pegmatite","category":7,"distinct_rating":7.11,"distinct_type":"Top","rt":null,"stimulus":"Stimuli_Rocks480/I_Pegmatite_11.png","response":null,"trial_type":"image-keyboard-response","trial_index":95,"plugin_version":"2.1.0","time_elapsed":186320,"subject_id":"91917","group":"Group2","condition":"1_Rep","full_date":"2026-02-24T13:15:56.193Z","date":"2026-02-24","time":"13:15:56"},{"rt":null,"stimulus":"<p style=\"font-size: 50px; margin: 0; text-align: center;\">+</p>","response":null,"trial_type":"html-keyboard-response","trial_index":96,"plugin_version":"2.1.0","time_elapsed":187322,"subject_id":"91917","group":"Group2","condition":"1_Rep","full_date":"2026-02-24T13:15:56.193Z","date":"2026-02-24","time":"13:15:56"},{"task":"memory_phase","broad_category":"S","image_png":"S_Sandstone_08.png","image_id":456,"category_name":"Sandstone","category":29,"distinct_rating":1.5,"distinct_type":"Bottom","rt":null,"stimulus":"Stimuli_Rocks480/S_Sandstone_08.png","response":null,"trial_type":"image-keyboard-response","trial_index":97,"plugin_version":"2.1.0","time_elapsed":189837,"subject_id":"91917","group":"Group2","condition":"1_Rep","full_date":"2026-02-24T13:15:56.193Z","date":"2026-02-24","time":"13:15:56"},{"rt":null,"stimulus":"<p style=\"font-size: 50px; margin: 0; text-align: center;\">+</p>","response":null,"trial_type":"html-keyboard-response","trial_index":98,"plugin_version":"2.1.0","time_elapsed":190839,"subject_id":"91917","group":"Group2","condition":"1_Rep","full_date":"2026-02-24T13:15:56.193Z","date":"2026-02-24","time":"13:15:56"},{"task":"memory_phase","broad_category":"I","image_png":"I_Pegmatite_03.png","image_id":99,"category_name":"Pegmatite","category":7,"distinct_rating":7.24,"distinct_type":"Top","rt":null,"stimulus":"Stimuli_Rocks480/I_Pegmatite_03.png","response":null,"trial_type":"image-keyboard-response","trial_index":99,"plugin_version":"2.1.0","time_elapsed":193355,"subject_id":"91917","group":"Group2","condition":"1_Rep","full_date":"2026-02-24T13:15:56.193Z","date":"2026-02-24","time":"13:15:56"},{"rt":null,"stimulus":"<p style=\"font-size: 50px; margin: 0; text-align: center;\">+</p>","response":null,"trial_type":"html-keyboard-response","trial_index":100,"plugin_version":"2.1.0","time_elapsed":194358,"subject_id":"91917","group":"Group2","condition":"1_Rep","full_date":"2026-02-24T13:15:56.193Z","date":"2026-02-24","time":"13:15:56"},{"task":"memory_phase","broad_category":"M","image_png":"M_Gneiss_14.png","image_id":206,"category_name":"Gneiss","category":13,"distinct_rating":3.41,"distinct_type":"Bottom","rt":null,"stimulus":"Stimuli_Rocks480/M_Gneiss_14.png","response":null,"trial_type":"image-keyboard-response","trial_index":101,"plugin_version":"2.1.0","time_elapsed":196873,"subject_id":"91917","group":"Group2","condition":"1_Rep","full_date":"2026-02-24T13:15:56.193Z","date":"2026-02-24","time":"13:15:56"},{"rt":null,"stimulus":"<p style=\"font-size: 50px; margin: 0; text-align: center;\">+</p>","response":null,"trial_type":"html-keyboard-response","trial_index":102,"plugin_version":"2.1.0","time_elapsed":197875,"subject_id":"91917","group":"Group2","condition":"1_Rep","full_date":"2026-02-24T13:15:56.193Z","date":"2026-02-24","time":"13:15:56"},{"task":"memory_phase","broad_category":"S","image_png":"S_Dolomite_16.png","image_id":400,"category_name":"Dolomite","category":25,"distinct_rating":1.71,"distinct_type":"Bottom","rt":null,"stimulus":"Stimuli_Rocks480/S_Dolomite_16.png","response":null,"trial_type":"image-keyboard-response","trial_index":103,"plugin_version":"2.1.0","time_elapsed":200389,"subject_id":"91917","group":"Group2","condition":"1_Rep","full_date":"2026-02-24T13:15:56.193Z","date":"2026-02-24","time":"13:15:56"},{"rt":null,"stimulus":"<p style=\"font-size: 50px; margin: 0; text-align: center;\">+</p>","response":null,"trial_type":"html-keyboard-response","trial_index":104,"plugin_version":"2.1.0","time_elapsed":201391,"subject_id":"91917","group":"Group2","condition":"1_Rep","full_date":"2026-02-24T13:15:56.193Z","date":"2026-02-24","time":"13:15:56"},{"task":"memory_phase","broad_category":"I","image_png":"I_Pumice_14.png","image_id":142,"category_name":"Pumice","category":9,"distinct_rating":3.22,"distinct_type":"Bottom","rt":null,"stimulus":"Stimuli_Rocks480/I_Pumice_14.png","response":null,"trial_type":"image-keyboard-response","trial_index":105,"plugin_version":"2.1.0","time_elapsed":203906,"subject_id":"91917","group":"Group2","condition":"1_Rep","full_date":"2026-02-24T13:15:56.193Z","date":"2026-02-24","time":"13:15:56"},{"rt":27525,"stimulus":"<div style=\"max-width: 760px; margin: auto; font-size: 20px; line-height: 1.5;\">\n      <h1 style=\"text-align:center; font-size: 30px;\">Instructions for the Test Phase</h1>\n      <p>\n        The study phase is now complete.\n      </p>\n      <p>\n        In the test phase, you will again see a series of rock images. \n        Some will be ones you saw before - during the study phase, while others will be new.  \n        <b>Your task</b> is to decide whether you have seen each image before by pressing the corresponding key on your keyboard:<br><br>\n          <b>A</b> - NO (you did not see this image before)<br>\n          <b>L</b> - YES (you saw this image before)<br><br>\n        The test will proceed at your own pace. You will receive feedback after each response.  \n        Please try to respond <b>as accurately as possible</b>.\n      </p>\n      <p>\n        <b>Reminder:</b> If your computer has multiple language settings (e.g., English and another language),\n        please ensure it is set to English during the test phase.\n      </p>\n      <p>\n        You can track your progress using the <b>completion bar</b> at the top of the screen.  \n        Note that it has been refreshed to reflect your progress during this final phase.\n      </p>\n      <p>\n        Press the button below when you are ready to continue.\n      </p>\n    </div>","response":0,"trial_type":"html-button-response","trial_index":106,"plugin_version":"2.1.0","time_elapsed":231434,"subject_id":"91917","group":"Group2","condition":"1_Rep","full_date":"2026-02-24T13:15:56.193Z","date":"2026-02-24","time":"13:15:56"},{"correct_response":"a","task":"test_phase","broad_category":"M","image_png":"M_Slate_03.png","image_id":307,"category_name":"Slate","category":20,"distinct_rating":1.87,"distinct_type":"Bottom","item_type":"Foil","rt":2445,"stimulus":"Stimuli_Rocks480/M_Slate_03.png","response":"l","trial_type":"image-keyboard-response","trial_index":107,"plugin_version":"2.1.0","time_elapsed":233895,"subject_id":"91917","group":"Group2","condition":"1_Rep","full_date":"2026-02-24T13:15:56.193Z","date":"2026-02-24","time":"13:15:56","cor_ans":false},{"trial_type":"html-keyboard-response","rt":null,"stimulus":"<p style=\"color: red; font-size: 50px; font-weight: bold;\">Incorrect</p>","response":null,"trial_index":108,"plugin_version":"2.1.0","time_elapsed":234397,"subject_id":"91917","group":"Group2","condition":"1_Rep","full_date":"2026-02-24T13:15:56.193Z","date":"2026-02-24","time":"13:15:56"},{"correct_response":"a","task":"test_phase","broad_category":"S","image_png":"S_Dolomite_14.png","image_id":398,"category_name":"Dolomite","category":25,"distinct_rating":1.43,"distinct_type":"Bottom","item_type":"Foil","rt":2005,"stimulus":"Stimuli_Rocks480/S_Dolomite_14.png","response":"a","trial_type":"image-keyboard-response","trial_index":109,"plugin_version":"2.1.0","time_elapsed":236417,"subject_id":"91917","group":"Group2","condition":"1_Rep","full_date":"2026-02-24T13:15:56.193Z","date":"2026-02-24","time":"13:15:56","cor_ans":true},{"trial_type":"html-keyboard-response","rt":null,"stimulus":"<p style=\"color: green; font-size: 50px; font-weight: bold;\">Correct</p>","response":null,"trial_index":110,"plugin_version":"2.1.0","time_elapsed":236919,"subject_id":"91917","group":"Group2","condition":"1_Rep","full_date":"2026-02-24T13:15:56.193Z","date":"2026-02-24","time":"13:15:56"},{"correct_response":"l","task":"test_phase","broad_category":"M","image_png":"M_Marble_03.png","image_id":227,"category_name":"Marble","category":15,"distinct_rating":2.67,"distinct_type":"Bottom","item_type":"Target","rt":1355,"stimulus":"Stimuli_Rocks480/M_Marble_03.png","response":"a","trial_type":"image-keyboard-response","trial_index":111,"plugin_version":"2.1.0","time_elapsed":238290,"subject_id":"91917","group":"Group2","condition":"1_Rep","full_date":"2026-02-24T13:15:56.193Z","date":"2026-02-24","time":"13:15:56","cor_ans":false},{"trial_type":"html-keyboard-response","rt":null,"stimulus":"<p style=\"color: red; font-size: 50px; font-weight: bold;\">Incorrect</p>","response":null,"trial_index":112,"plugin_version":"2.1.0","time_elapsed":238792,"subject_id":"91917","group":"Group2","condition":"1_Rep","full_date":"2026-02-24T13:15:56.193Z","date":"2026-02-24","time":"13:15:56"},{"correct_response":"a","task":"test_phase","broad_category":"M","image_png":"M_Gneiss_05.png","image_id":197,"category_name":"Gneiss","category":13,"distinct_rating":2.97,"distinct_type":"Bottom","item_type":"Foil","rt":1348,"stimulus":"Stimuli_Rocks480/M_Gneiss_05.png","response":"a","trial_type":"image-keyboard-response","trial_index":113,"plugin_version":"2.1.0","time_elapsed":240159,"subject_id":"91917","group":"Group2","condition":"1_Rep","full_date":"2026-02-24T13:15:56.193Z","date":"2026-02-24","time":"13:15:56","cor_ans":true},{"trial_type":"html-keyboard-response","rt":null,"stimulus":"<p style=\"color: green; font-size: 50px; font-weight: bold;\">Correct</p>","response":null,"trial_index":114,"plugin_version":"2.1.0","time_elapsed":240661,"subject_id":"91917","group":"Group2","condition":"1_Rep","full_date":"2026-02-24T13:15:56.193Z","date":"2026-02-24","time":"13:15:56"},{"correct_response":"a","task":"test_phase","broad_category":"S","image_png":"S_Shale_12.png","image_id":476,"category_name":"Shale","category":30,"distinct_rating":2.48,"distinct_type":"Bottom","item_type":"Foil","rt":1518,"stimulus":"Stimuli_Rocks480/S_Shale_12.png","response":"l","trial_type":"image-keyboard-response","trial_index":115,"plugin_version":"2.1.0","time_elapsed":242193,"subject_id":"91917","group":"Group2","condition":"1_Rep","full_date":"2026-02-24T13:15:56.193Z","date":"2026-02-24","time":"13:15:56","cor_ans":false},{"trial_type":"html-keyboard-response","rt":null,"stimulus":"<p style=\"color: red; font-size: 50px; font-weight: bold;\">Incorrect</p>","response":null,"trial_index":116,"plugin_version":"2.1.0","time_elapsed":242695,"subject_id":"91917","group":"Group2","condition":"1_Rep","full_date":"2026-02-24T13:15:56.193Z","date":"2026-02-24","time":"13:15:56"},{"correct_response":"a","task":"test_phase","broad_category":"S","image_png":"S_Shale_08.png","image_id":472,"category_name":"Shale","category":30,"distinct_rating":2.55,"distinct_type":"Bottom","item_type":"Foil","rt":1465,"stimulus":"Stimuli_Rocks480/S_Shale_08.png","response":"l","trial_type":"image-keyboard-response","trial_index":117,"plugin_version":"2.1.0","time_elapsed":244176,"subject_id":"91917","group":"Group2","condition":"1_Rep","full_date":"2026-02-24T13:15:56.193Z","date":"2026-02-24","time":"13:15:56","cor_ans":false},{"trial_type":"html-keyboard-response","rt":null,"stimulus":"<p style=\"color: red; font-size: 50px; font-weight: bold;\">Incorrect</p>","response":null,"trial_index":118,"plugin_version":"2.1.0","time_elapsed":244678,"subject_id":"91917","group":"Group2","condition":"1_Rep","full_date":"2026-02-24T13:15:56.193Z","date":"2026-02-24","time":"13:15:56"},{"correct_response":"a","task":"test_phase","broad_category":"I","image_png":"I_Pumice_11.png","image_id":139,"category_name":"Pumice","category":9,"distinct_rating":1.74,"distinct_type":"Bottom","item_type":"Foil","rt":961,"stimulus":"Stimuli_Rocks480/I_Pumice_11.png","response":"l","trial_type":"image-keyboard-response","trial_index":119,"plugin_version":"2.1.0","time_elapsed":245650,"subject_id":"91917","group":"Group2","condition":"1_Rep","full_date":"2026-02-24T13:15:56.193Z","date":"2026-02-24","time":"13:15:56","cor_ans":false},{"trial_type":"html-keyboard-response","rt":null,"stimulus":"<p style=\"color: red; font-size: 50px; font-weight: bold;\">Incorrect</p>","response":null,"trial_index":120,"plugin_version":"2.1.0","time_elapsed":246152,"subject_id":"91917","group":"Group2","condition":"1_Rep","full_date":"2026-02-24T13:15:56.193Z","date":"2026-02-24","time":"13:15:56"},{"correct_response":"a","task":"test_phase","broad_category":"I","image_png":"I_Basalt_09.png","image_id":25,"category_name":"Basalt","category":2,"distinct_rating":1.89,"distinct_type":"Bottom","item_type":"Foil","rt":1357,"stimulus":"Stimuli_Rocks480/I_Basalt_09.png","response":"a","trial_type":"image-keyboard-response","trial_index":121,"plugin_version":"2.1.0","time_elapsed":247523,"subject_id":"91917","group":"Group2","condition":"1_Rep","full_date":"2026-02-24T13:15:56.193Z","date":"2026-02-24","time":"13:15:56","cor_ans":true},{"trial_type":"html-keyboard-response","rt":null,"stimulus":"<p style=\"color: green; font-size: 50px; font-weight: bold;\">Correct</p>","response":null,"trial_index":122,"plugin_version":"2.1.0","time_elapsed":248025,"subject_id":"91917","group":"Group2","condition":"1_Rep","full_date":"2026-02-24T13:15:56.193Z","date":"2026-02-24","time":"13:15:56"},{"correct_response":"l","task":"test_phase","broad_category":"M","image_png":"M_Marble_14.png","image_id":238,"category_name":"Marble","category":15,"distinct_rating":3.31,"distinct_type":"Bottom","item_type":"Target","rt":1199,"stimulus":"Stimuli_Rocks480/M_Marble_14.png","response":"a","trial_type":"image-keyboard-response","trial_index":123,"plugin_version":"2.1.0","time_elapsed":249238,"subject_id":"91917","group":"Group2","condition":"1_Rep","full_date":"2026-02-24T13:15:56.193Z","date":"2026-02-24","time":"13:15:56","cor_ans":false},{"trial_type":"html-keyboard-response","rt":null,"stimulus":"<p style=\"color: red; font-size: 50px; font-weight: bold;\">Incorrect</p>","response":null,"trial_index":124,"plugin_version":"2.1.0","time_elapsed":249740,"subject_id":"91917","group":"Group2","condition":"1_Rep","full_date":"2026-02-24T13:15:56.193Z","date":"2026-02-24","time":"13:15:56"},{"correct_response":"l","task":"test_phase","broad_category":"I","image_png":"I_Rhyolite_10.png","image_id":154,"category_name":"Rhyolite","category":10,"distinct_rating":2.88,"distinct_type":"Bottom","item_type":"Target","rt":1265,"stimulus":"Stimuli_Rocks480/I_Rhyolite_10.png","response":"l","trial_type":"image-keyboard-response","trial_index":125,"plugin_version":"2.1.0","time_elapsed":251007,"subject_id":"91917","group":"Group2","condition":"1_Rep","full_date":"2026-02-24T13:15:56.193Z","date":"2026-02-24","time":"13:15:56","cor_ans":true},{"trial_type":"html-keyboard-response","rt":null,"stimulus":"<p style=\"color: green; font-size: 50px; font-weight: bold;\">Correct</p>","response":null,"trial_index":126,"plugin_version":"2.1.0","time_elapsed":251509,"subject_id":"91917","group":"Group2","condition":"1_Rep","full_date":"2026-02-24T13:15:56.193Z","date":"2026-02-24","time":"13:15:56"},{"correct_response":"a","task":"test_phase","broad_category":"S","image_png":"S_Shale_01.png","image_id":465,"category_name":"Shale","category":30,"distinct_rating":2.7,"distinct_type":"Bottom","item_type":"Foil","rt":1267,"stimulus":"Stimuli_Rocks480/S_Shale_01.png","response":"a","trial_type":"image-keyboard-response","trial_index":127,"plugin_version":"2.1.0","time_elapsed":252789,"subject_id":"91917","group":"Group2","condition":"1_Rep","full_date":"2026-02-24T13:15:56.193Z","date":"2026-02-24","time":"13:15:56","cor_ans":true},{"trial_type":"html-keyboard-response","rt":null,"stimulus":"<p style=\"color: green; font-size: 50px; font-weight: bold;\">Correct</p>","response":null,"trial_index":128,"plugin_version":"2.1.0","time_elapsed":253291,"subject_id":"91917","group":"Group2","condition":"1_Rep","full_date":"2026-02-24T13:15:56.193Z","date":"2026-02-24","time":"13:15:56"},{"correct_response":"l","task":"test_phase","broad_category":"I","image_png":"I_Gabbro_02.png","image_id":50,"category_name":"Gabbro","category":4,"distinct_rating":2.73,"distinct_type":"Bottom","item_type":"Target","rt":1272,"stimulus":"Stimuli_Rocks480/I_Gabbro_02.png","response":"a","trial_type":"image-keyboard-response","trial_index":129,"plugin_version":"2.1.0","time_elapsed":254566,"subject_id":"91917","group":"Group2","condition":"1_Rep","full_date":"2026-02-24T13:15:56.193Z","date":"2026-02-24","time":"13:15:56","cor_ans":false},{"trial_type":"html-keyboard-response","rt":null,"stimulus":"<p style=\"color: red; font-size: 50px; font-weight: bold;\">Incorrect</p>","response":null,"trial_index":130,"plugin_version":"2.1.0","time_elapsed":255068,"subject_id":"91917","group":"Group2","condition":"1_Rep","full_date":"2026-02-24T13:15:56.193Z","date":"2026-02-24","time":"13:15:56"},{"correct_response":"l","task":"test_phase","broad_category":"M","image_png":"M_Slate_04.png","image_id":308,"category_name":"Slate","category":20,"distinct_rating":2.2,"distinct_type":"Bottom","item_type":"Target","rt":1628,"stimulus":"Stimuli_Rocks480/M_Slate_04.png","response":"l","trial_type":"image-keyboard-response","trial_index":131,"plugin_version":"2.1.0","time_elapsed":256707,"subject_id":"91917","group":"Group2","condition":"1_Rep","full_date":"2026-02-24T13:15:56.193Z","date":"2026-02-24","time":"13:15:56","cor_ans":true},{"trial_type":"html-keyboard-response","rt":null,"stimulus":"<p style=\"color: green; font-size: 50px; font-weight: bold;\">Correct</p>","response":null,"trial_index":132,"plugin_version":"2.1.0","time_elapsed":257210,"subject_id":"91917","group":"Group2","condition":"1_Rep","full_date":"2026-02-24T13:15:56.193Z","date":"2026-02-24","time":"13:15:56"},{"correct_response":"a","task":"test_phase","broad_category":"I","image_png":"I_Pumice_12.png","image_id":140,"category_name":"Pumice","category":9,"distinct_rating":2.97,"distinct_type":"Bottom","item_type":"Foil","rt":1150,"stimulus":"Stimuli_Rocks480/I_Pumice_12.png","response":"a","trial_type":"image-keyboard-response","trial_index":133,"plugin_version":"2.1.0","time_elapsed":258372,"subject_id":"91917","group":"Group2","condition":"1_Rep","full_date":"2026-02-24T13:15:56.193Z","date":"2026-02-24","time":"13:15:56","cor_ans":true},{"trial_type":"html-keyboard-response","rt":null,"stimulus":"<p style=\"color: green; font-size: 50px; font-weight: bold;\">Correct</p>","response":null,"trial_index":134,"plugin_version":"2.1.0","time_elapsed":258875,"subject_id":"91917","group":"Group2","condition":"1_Rep","full_date":"2026-02-24T13:15:56.193Z","date":"2026-02-24","time":"13:15:56"},{"correct_response":"a","task":"test_phase","broad_category":"I","image_png":"I_Andesite_08.png","image_id":8,"category_name":"Andesite","category":1,"distinct_rating":1.95,"distinct_type":"Bottom","item_type":"Foil","rt":2510,"stimulus":"Stimuli_Rocks480/I_Andesite_08.png","response":"a","trial_type":"image-keyboard-response","trial_index":135,"plugin_version":"2.1.0","time_elapsed":261400,"subject_id":"91917","group":"Group2","condition":"1_Rep","full_date":"2026-02-24T13:15:56.193Z","date":"2026-02-24","time":"13:15:56","cor_ans":true},{"trial_type":"html-keyboard-response","rt":null,"stimulus":"<p style=\"color: green; font-size: 50px; font-weight: bold;\">Correct</p>","response":null,"trial_index":136,"plugin_version":"2.1.0","time_elapsed":261903,"subject_id":"91917","group":"Group2","condition":"1_Rep","full_date":"2026-02-24T13:15:56.193Z","date":"2026-02-24","time":"13:15:56"},{"correct_response":"l","task":"test_phase","broad_category":"I","image_png":"I_Basalt_10.png","image_id":26,"category_name":"Basalt","category":2,"distinct_rating":2.76,"distinct_type":"Bottom","item_type":"Target","rt":1100,"stimulus":"Stimuli_Rocks480/I_Basalt_10.png","response":"a","trial_type":"image-keyboard-response","trial_index":137,"plugin_version":"2.1.0","time_elapsed":263017,"subject_id":"91917","group":"Group2","condition":"1_Rep","full_date":"2026-02-24T13:15:56.193Z","date":"2026-02-24","time":"13:15:56","cor_ans":false},{"trial_type":"html-keyboard-response","rt":null,"stimulus":"<p style=\"color: red; font-size: 50px; font-weight: bold;\">Incorrect</p>","response":null,"trial_index":138,"plugin_version":"2.1.0","time_elapsed":263519,"subject_id":"91917","group":"Group2","condition":"1_Rep","full_date":"2026-02-24T13:15:56.193Z","date":"2026-02-24","time":"13:15:56"},{"correct_response":"l","task":"test_phase","broad_category":"I","image_png":"I_Basalt_13.png","image_id":29,"category_name":"Basalt","category":2,"distinct_rating":2.68,"distinct_type":"Bottom","item_type":"Target","rt":2750,"stimulus":"Stimuli_Rocks480/I_Basalt_13.png","response":"a","trial_type":"image-keyboard-response","trial_index":139,"plugin_version":"2.1.0","time_elapsed":266271,"subject_id":"91917","group":"Group2","condition":"1_Rep","full_date":"2026-02-24T13:15:56.193Z","date":"2026-02-24","time":"13:15:56","cor_ans":false},{"trial_type":"html-keyboard-response","rt":null,"stimulus":"<p style=\"color: red; font-size: 50px; font-weight: bold;\">Incorrect</p>","response":null,"trial_index":140,"plugin_version":"2.1.0","time_elapsed":266776,"subject_id":"91917","group":"Group2","condition":"1_Rep","full_date":"2026-02-24T13:15:56.193Z","date":"2026-02-24","time":"13:15:56"},{"correct_response":"a","task":"test_phase","broad_category":"S","image_png":"S_Chert_10.png","image_id":362,"category_name":"Chert","category":23,"distinct_rating":7.17,"distinct_type":"Top","item_type":"Foil","rt":3558,"stimulus":"Stimuli_Rocks480/S_Chert_10.png","response":"a","trial_type":"image-keyboard-response","trial_index":141,"plugin_version":"2.1.0","time_elapsed":270349,"subject_id":"91917","group":"Group2","condition":"1_Rep","full_date":"2026-02-24T13:15:56.193Z","date":"2026-02-24","time":"13:15:56","cor_ans":true},{"trial_type":"html-keyboard-response","rt":null,"stimulus":"<p style=\"color: green; font-size: 50px; font-weight: bold;\">Correct</p>","response":null,"trial_index":142,"plugin_version":"2.1.0","time_elapsed":270852,"subject_id":"91917","group":"Group2","condition":"1_Rep","full_date":"2026-02-24T13:15:56.193Z","date":"2026-02-24","time":"13:15:56"},{"correct_response":"l","task":"test_phase","broad_category":"M","image_png":"M_Phyllite_05.png","image_id":261,"category_name":"Phyllite","category":17,"distinct_rating":2.14,"distinct_type":"Bottom","item_type":"Target","rt":2168,"stimulus":"Stimuli_Rocks480/M_Phyllite_05.png","response":"a","trial_type":"image-keyboard-response","trial_index":143,"plugin_version":"2.1.0","time_elapsed":273033,"subject_id":"91917","group":"Group2","condition":"1_Rep","full_date":"2026-02-24T13:15:56.193Z","date":"2026-02-24","time":"13:15:56","cor_ans":false},{"trial_type":"html-keyboard-response","rt":null,"stimulus":"<p style=\"color: red; font-size: 50px; font-weight: bold;\">Incorrect</p>","response":null,"trial_index":144,"plugin_version":"2.1.0","time_elapsed":273536,"subject_id":"91917","group":"Group2","condition":"1_Rep","full_date":"2026-02-24T13:15:56.193Z","date":"2026-02-24","time":"13:15:56"},{"correct_response":"l","task":"test_phase","broad_category":"I","image_png":"I_Pegmatite_11.png","image_id":107,"category_name":"Pegmatite","category":7,"distinct_rating":7.11,"distinct_type":"Top","item_type":"Target","rt":1471,"stimulus":"Stimuli_Rocks480/I_Pegmatite_11.png","response":"a","trial_type":"image-keyboard-response","trial_index":145,"plugin_version":"2.1.0","time_elapsed":275009,"subject_id":"91917","group":"Group2","condition":"1_Rep","full_date":"2026-02-24T13:15:56.193Z","date":"2026-02-24","time":"13:15:56","cor_ans":false},{"trial_type":"html-keyboard-response","rt":null,"stimulus":"<p style=\"color: red; font-size: 50px; font-weight: bold;\">Incorrect</p>","response":null,"trial_index":146,"plugin_version":"2.1.0","time_elapsed":275511,"subject_id":"91917","group":"Group2","condition":"1_Rep","full_date":"2026-02-24T13:15:56.193Z","date":"2026-02-24","time":"13:15:56"},{"correct_response":"l","task":"test_phase","broad_category":"I","image_png":"I_Gabbro_12.png","image_id":60,"category_name":"Gabbro","category":4,"distinct_rating":2.6,"distinct_type":"Bottom","item_type":"Target","rt":878,"stimulus":"Stimuli_Rocks480/I_Gabbro_12.png","response":"l","trial_type":"image-keyboard-response","trial_index":147,"plugin_version":"2.1.0","time_elapsed":276406,"subject_id":"91917","group":"Group2","condition":"1_Rep","full_date":"2026-02-24T13:15:56.193Z","date":"2026-02-24","time":"13:15:56","cor_ans":true},{"trial_type":"html-keyboard-response","rt":null,"stimulus":"<p style=\"color: green; font-size: 50px; font-weight: bold;\">Correct</p>","response":null,"trial_index":148,"plugin_version":"2.1.0","time_elapsed":276908,"subject_id":"91917","group":"Group2","condition":"1_Rep","full_date":"2026-02-24T13:15:56.193Z","date":"2026-02-24","time":"13:15:56"},{"correct_response":"l","task":"test_phase","broad_category":"I","image_png":"I_Obsidian_06.png","image_id":86,"category_name":"Obsidian","category":6,"distinct_rating":8.01,"distinct_type":"Top","item_type":"Target","rt":1200,"stimulus":"Stimuli_Rocks480/I_Obsidian_06.png","response":"a","trial_type":"image-keyboard-response","trial_index":149,"plugin_version":"2.1.0","time_elapsed":278125,"subject_id":"91917","group":"Group2","condition":"1_Rep","full_date":"2026-02-24T13:15:56.193Z","date":"2026-02-24","time":"13:15:56","cor_ans":false},{"trial_type":"html-keyboard-response","rt":null,"stimulus":"<p style=\"color: red; font-size: 50px; font-weight: bold;\">Incorrect</p>","response":null,"trial_index":150,"plugin_version":"2.1.0","time_elapsed":278627,"subject_id":"91917","group":"Group2","condition":"1_Rep","full_date":"2026-02-24T13:15:56.193Z","date":"2026-02-24","time":"13:15:56"},{"correct_response":"l","task":"test_phase","broad_category":"S","image_png":"S_Sandstone_04.png","image_id":452,"category_name":"Sandstone","category":29,"distinct_rating":1.8,"distinct_type":"Bottom","item_type":"Target","rt":2131,"stimulus":"Stimuli_Rocks480/S_Sandstone_04.png","response":"l","trial_type":"image-keyboard-response","trial_index":151,"plugin_version":"2.1.0","time_elapsed":280774,"subject_id":"91917","group":"Group2","condition":"1_Rep","full_date":"2026-02-24T13:15:56.193Z","date":"2026-02-24","time":"13:15:56","cor_ans":true},{"trial_type":"html-keyboard-response","rt":null,"stimulus":"<p style=\"color: green; font-size: 50px; font-weight: bold;\">Correct</p>","response":null,"trial_index":152,"plugin_version":"2.1.0","time_elapsed":281276,"subject_id":"91917","group":"Group2","condition":"1_Rep","full_date":"2026-02-24T13:15:56.193Z","date":"2026-02-24","time":"13:15:56"},{"correct_response":"a","task":"test_phase","broad_category":"M","image_png":"M_Gneiss_06.png","image_id":198,"category_name":"Gneiss","category":13,"distinct_rating":2.65,"distinct_type":"Bottom","item_type":"Foil","rt":820,"stimulus":"Stimuli_Rocks480/M_Gneiss_06.png","response":"l","trial_type":"image-keyboard-response","trial_index":153,"plugin_version":"2.1.0","time_elapsed":282114,"subject_id":"91917","group":"Group2","condition":"1_Rep","full_date":"2026-02-24T13:15:56.193Z","date":"2026-02-24","time":"13:15:56","cor_ans":false},{"trial_type":"html-keyboard-response","rt":null,"stimulus":"<p style=\"color: red; font-size: 50px; font-weight: bold;\">Incorrect</p>","response":null,"trial_index":154,"plugin_version":"2.1.0","time_elapsed":282616,"subject_id":"91917","group":"Group2","condition":"1_Rep","full_date":"2026-02-24T13:15:56.193Z","date":"2026-02-24","time":"13:15:56"},{"correct_response":"l","task":"test_phase","broad_category":"I","image_png":"I_Pumice_14.png","image_id":142,"category_name":"Pumice","category":9,"distinct_rating":3.22,"distinct_type":"Bottom","item_type":"Target","rt":1946,"stimulus":"Stimuli_Rocks480/I_Pumice_14.png","response":"l","trial_type":"image-keyboard-response","trial_index":155,"plugin_version":"2.1.0","time_elapsed":284564,"subject_id":"91917","group":"Group2","condition":"1_Rep","full_date":"2026-02-24T13:15:56.193Z","date":"2026-02-24","time":"13:15:56","cor_ans":true},{"trial_type":"html-keyboard-response","rt":null,"stimulus":"<p style=\"color: green; font-size: 50px; font-weight: bold;\">Correct</p>","response":null,"trial_index":156,"plugin_version":"2.1.0","time_elapsed":285066,"subject_id":"91917","group":"Group2","condition":"1_Rep","full_date":"2026-02-24T13:15:56.193Z","date":"2026-02-24","time":"13:15:56"},{"correct_response":"l","task":"test_phase","broad_category":"I","image_png":"I_Pegmatite_03.png","image_id":99,"category_name":"Pegmatite","category":7,"distinct_rating":7.24,"distinct_type":"Top","item_type":"Target","rt":1117,"stimulus":"Stimuli_Rocks480/I_Pegmatite_03.png","response":"a","trial_type":"image-keyboard-response","trial_index":157,"plugin_version":"2.1.0","time_elapsed":286185,"subject_id":"91917","group":"Group2","condition":"1_Rep","full_date":"2026-02-24T13:15:56.193Z","date":"2026-02-24","time":"13:15:56","cor_ans":false},{"trial_type":"html-keyboard-response","rt":null,"stimulus":"<p style=\"color: red; font-size: 50px; font-weight: bold;\">Incorrect</p>","response":null,"trial_index":158,"plugin_version":"2.1.0","time_elapsed":286687,"subject_id":"91917","group":"Group2","condition":"1_Rep","full_date":"2026-02-24T13:15:56.193Z","date":"2026-02-24","time":"13:15:56"},{"correct_response":"a","task":"test_phase","broad_category":"I","image_png":"I_Pegmatite_10.png","image_id":106,"category_name":"Pegmatite","category":7,"distinct_rating":7.66,"distinct_type":"Top","item_type":"Foil","rt":1363,"stimulus":"Stimuli_Rocks480/I_Pegmatite_10.png","response":"a","trial_type":"image-keyboard-response","trial_index":159,"plugin_version":"2.1.0","time_elapsed":288063,"subject_id":"91917","group":"Group2","condition":"1_Rep","full_date":"2026-02-24T13:15:56.193Z","date":"2026-02-24","time":"13:15:56","cor_ans":true},{"trial_type":"html-keyboard-response","rt":null,"stimulus":"<p style=\"color: green; font-size: 50px; font-weight: bold;\">Correct</p>","response":null,"trial_index":160,"plugin_version":"2.1.0","time_elapsed":288565,"subject_id":"91917","group":"Group2","condition":"1_Rep","full_date":"2026-02-24T13:15:56.193Z","date":"2026-02-24","time":"13:15:56"},{"correct_response":"l","task":"test_phase","broad_category":"M","image_png":"M_Phyllite_13.png","image_id":269,"category_name":"Phyllite","category":17,"distinct_rating":2.8,"distinct_type":"Bottom","item_type":"Target","rt":2899,"stimulus":"Stimuli_Rocks480/M_Phyllite_13.png","response":"l","trial_type":"image-keyboard-response","trial_index":161,"plugin_version":"2.1.0","time_elapsed":291477,"subject_id":"91917","group":"Group2","condition":"1_Rep","full_date":"2026-02-24T13:15:56.193Z","date":"2026-02-24","time":"13:15:56","cor_ans":true},{"trial_type":"html-keyboard-response","rt":null,"stimulus":"<p style=\"color: green; font-size: 50px; font-weight: bold;\">Correct</p>","response":null,"trial_index":162,"plugin_version":"2.1.0","time_elapsed":291980,"subject_id":"91917","group":"Group2","condition":"1_Rep","full_date":"2026-02-24T13:15:56.193Z","date":"2026-02-24","time":"13:15:56"},{"correct_response":"a","task":"test_phase","broad_category":"I","image_png":"I_Gabbro_08.png","image_id":56,"category_name":"Gabbro","category":4,"distinct_rating":3.02,"distinct_type":"Bottom","item_type":"Foil","rt":1783,"stimulus":"Stimuli_Rocks480/I_Gabbro_08.png","response":"l","trial_type":"image-keyboard-response","trial_index":163,"plugin_version":"2.1.0","time_elapsed":293776,"subject_id":"91917","group":"Group2","condition":"1_Rep","full_date":"2026-02-24T13:15:56.193Z","date":"2026-02-24","time":"13:15:56","cor_ans":false},{"trial_type":"html-keyboard-response","rt":null,"stimulus":"<p style=\"color: red; font-size: 50px; font-weight: bold;\">Incorrect</p>","response":null,"trial_index":164,"plugin_version":"2.1.0","time_elapsed":294278,"subject_id":"91917","group":"Group2","condition":"1_Rep","full_date":"2026-02-24T13:15:56.193Z","date":"2026-02-24","time":"13:15:56"},{"correct_response":"a","task":"test_phase","broad_category":"S","image_png":"S_Conglomerate_05.png","image_id":373,"category_name":"Conglomerate","category":24,"distinct_rating":7.32,"distinct_type":"Top","item_type":"Foil","rt":1234,"stimulus":"Stimuli_Rocks480/S_Conglomerate_05.png","response":"a","trial_type":"image-keyboard-response","trial_index":165,"plugin_version":"2.1.0","time_elapsed":295527,"subject_id":"91917","group":"Group2","condition":"1_Rep","full_date":"2026-02-24T13:15:56.193Z","date":"2026-02-24","time":"13:15:56","cor_ans":true},{"trial_type":"html-keyboard-response","rt":null,"stimulus":"<p style=\"color: green; font-size: 50px; font-weight: bold;\">Correct</p>","response":null,"trial_index":166,"plugin_version":"2.1.0","time_elapsed":296030,"subject_id":"91917","group":"Group2","condition":"1_Rep","full_date":"2026-02-24T13:15:56.193Z","date":"2026-02-24","time":"13:15:56"},{"correct_response":"a","task":"test_phase","broad_category":"I","image_png":"I_Diorite_04.png","image_id":36,"category_name":"Diorite","category":3,"distinct_rating":2.98,"distinct_type":"Bottom","item_type":"Foil","rt":1023,"stimulus":"Stimuli_Rocks480/I_Diorite_04.png","response":"l","trial_type":"image-keyboard-response","trial_index":167,"plugin_version":"2.1.0","time_elapsed":297067,"subject_id":"91917","group":"Group2","condition":"1_Rep","full_date":"2026-02-24T13:15:56.193Z","date":"2026-02-24","time":"13:15:56","cor_ans":false},{"trial_type":"html-keyboard-response","rt":null,"stimulus":"<p style=\"color: red; font-size: 50px; font-weight: bold;\">Incorrect</p>","response":null,"trial_index":168,"plugin_version":"2.1.0","time_elapsed":297570,"subject_id":"91917","group":"Group2","condition":"1_Rep","full_date":"2026-02-24T13:15:56.193Z","date":"2026-02-24","time":"13:15:56"},{"correct_response":"l","task":"test_phase","broad_category":"I","image_png":"I_Andesite_03.png","image_id":3,"category_name":"Andesite","category":1,"distinct_rating":3.17,"distinct_type":"Bottom","item_type":"Target","rt":3316,"stimulus":"Stimuli_Rocks480/I_Andesite_03.png","response":"a","trial_type":"image-keyboard-response","trial_index":169,"plugin_version":"2.1.0","time_elapsed":300897,"subject_id":"91917","group":"Group2","condition":"1_Rep","full_date":"2026-02-24T13:15:56.193Z","date":"2026-02-24","time":"13:15:56","cor_ans":false},{"trial_type":"html-keyboard-response","rt":null,"stimulus":"<p style=\"color: red; font-size: 50px; font-weight: bold;\">Incorrect</p>","response":null,"trial_index":170,"plugin_version":"2.1.0","time_elapsed":301400,"subject_id":"91917","group":"Group2","condition":"1_Rep","full_date":"2026-02-24T13:15:56.193Z","date":"2026-02-24","time":"13:15:56"},{"correct_response":"a","task":"test_phase","broad_category":"I","image_png":"I_Andesite_10.png","image_id":10,"category_name":"Andesite","category":1,"distinct_rating":3.15,"distinct_type":"Bottom","item_type":"Foil","rt":7088,"stimulus":"Stimuli_Rocks480/I_Andesite_10.png","response":"l","trial_type":"image-keyboard-response","trial_index":171,"plugin_version":"2.1.0","time_elapsed":308499,"subject_id":"91917","group":"Group2","condition":"1_Rep","full_date":"2026-02-24T13:15:56.193Z","date":"2026-02-24","time":"13:15:56","cor_ans":false},{"trial_type":"html-keyboard-response","rt":null,"stimulus":"<p style=\"color: red; font-size: 50px; font-weight: bold;\">Incorrect</p>","response":null,"trial_index":172,"plugin_version":"2.1.0","time_elapsed":309001,"subject_id":"91917","group":"Group2","condition":"1_Rep","full_date":"2026-02-24T13:15:56.193Z","date":"2026-02-24","time":"13:15:56"},{"correct_response":"l","task":"test_phase","broad_category":"I","image_png":"I_Pumice_01.png","image_id":129,"category_name":"Pumice","category":9,"distinct_rating":3.25,"distinct_type":"Bottom","item_type":"Target","rt":1456,"stimulus":"Stimuli_Rocks480/I_Pumice_01.png","response":"a","trial_type":"image-keyboard-response","trial_index":173,"plugin_version":"2.1.0","time_elapsed":310472,"subject_id":"91917","group":"Group2","condition":"1_Rep","full_date":"2026-02-24T13:15:56.193Z","date":"2026-02-24","time":"13:15:56","cor_ans":false},{"trial_type":"html-keyboard-response","rt":null,"stimulus":"<p style=\"color: red; font-size: 50px; font-weight: bold;\">Incorrect</p>","response":null,"trial_index":174,"plugin_version":"2.1.0","time_elapsed":310974,"subject_id":"91917","group":"Group2","condition":"1_Rep","full_date":"2026-02-24T13:15:56.193Z","date":"2026-02-24","time":"13:15:56"},{"correct_response":"l","task":"test_phase","broad_category":"S","image_png":"S_Dolomite_01.png","image_id":385,"category_name":"Dolomite","category":25,"distinct_rating":1.43,"distinct_type":"Bottom","item_type":"Target","rt":1823,"stimulus":"Stimuli_Rocks480/S_Dolomite_01.png","response":"a","trial_type":"image-keyboard-response","trial_index":175,"plugin_version":"2.1.0","time_elapsed":312814,"subject_id":"91917","group":"Group2","condition":"1_Rep","full_date":"2026-02-24T13:15:56.193Z","date":"2026-02-24","time":"13:15:56","cor_ans":false},{"trial_type":"html-keyboard-response","rt":null,"stimulus":"<p style=\"color: red; font-size: 50px; font-weight: bold;\">Incorrect</p>","response":null,"trial_index":176,"plugin_version":"2.1.0","time_elapsed":313316,"subject_id":"91917","group":"Group2","condition":"1_Rep","full_date":"2026-02-24T13:15:56.193Z","date":"2026-02-24","time":"13:15:56"},{"correct_response":"l","task":"test_phase","broad_category":"I","image_png":"I_Andesite_09.png","image_id":9,"category_name":"Andesite","category":1,"distinct_rating":2.49,"distinct_type":"Bottom","item_type":"Target","rt":2215,"stimulus":"Stimuli_Rocks480/I_Andesite_09.png","response":"l","trial_type":"image-keyboard-response","trial_index":177,"plugin_version":"2.1.0","time_elapsed":315544,"subject_id":"91917","group":"Group2","condition":"1_Rep","full_date":"2026-02-24T13:15:56.193Z","date":"2026-02-24","time":"13:15:56","cor_ans":true},{"trial_type":"html-keyboard-response","rt":null,"stimulus":"<p style=\"color: green; font-size: 50px; font-weight: bold;\">Correct</p>","response":null,"trial_index":178,"plugin_version":"2.1.0","time_elapsed":316046,"subject_id":"91917","group":"Group2","condition":"1_Rep","full_date":"2026-02-24T13:15:56.193Z","date":"2026-02-24","time":"13:15:56"},{"correct_response":"l","task":"test_phase","broad_category":"M","image_png":"M_Gneiss_15.png","image_id":207,"category_name":"Gneiss","category":13,"distinct_rating":3.11,"distinct_type":"Bottom","item_type":"Target","rt":1731,"stimulus":"Stimuli_Rocks480/M_Gneiss_15.png","response":"a","trial_type":"image-keyboard-response","trial_index":179,"plugin_version":"2.1.0","time_elapsed":317790,"subject_id":"91917","group":"Group2","condition":"1_Rep","full_date":"2026-02-24T13:15:56.193Z","date":"2026-02-24","time":"13:15:56","cor_ans":false},{"trial_type":"html-keyboard-response","rt":null,"stimulus":"<p style=\"color: red; font-size: 50px; font-weight: bold;\">Incorrect</p>","response":null,"trial_index":180,"plugin_version":"2.1.0","time_elapsed":318292,"subject_id":"91917","group":"Group2","condition":"1_Rep","full_date":"2026-02-24T13:15:56.193Z","date":"2026-02-24","time":"13:15:56"},{"correct_response":"a","task":"test_phase","broad_category":"I","image_png":"I_Basalt_02.png","image_id":18,"category_name":"Basalt","category":2,"distinct_rating":1.84,"distinct_type":"Bottom","item_type":"Foil","rt":1592,"stimulus":"Stimuli_Rocks480/I_Basalt_02.png","response":"a","trial_type":"image-keyboard-response","trial_index":181,"plugin_version":"2.1.0","time_elapsed":319899,"subject_id":"91917","group":"Group2","condition":"1_Rep","full_date":"2026-02-24T13:15:56.193Z","date":"2026-02-24","time":"13:15:56","cor_ans":true},{"trial_type":"html-keyboard-response","rt":null,"stimulus":"<p style=\"color: green; font-size: 50px; font-weight: bold;\">Correct</p>","response":null,"trial_index":182,"plugin_version":"2.1.0","time_elapsed":320400,"subject_id":"91917","group":"Group2","condition":"1_Rep","full_date":"2026-02-24T13:15:56.193Z","date":"2026-02-24","time":"13:15:56"},{"correct_response":"l","task":"test_phase","broad_category":"I","image_png":"I_Gabbro_14.png","image_id":62,"category_name":"Gabbro","category":4,"distinct_rating":2.95,"distinct_type":"Bottom","item_type":"Target","rt":1388,"stimulus":"Stimuli_Rocks480/I_Gabbro_14.png","response":"l","trial_type":"image-keyboard-response","trial_index":183,"plugin_version":"2.1.0","time_elapsed":321804,"subject_id":"91917","group":"Group2","condition":"1_Rep","full_date":"2026-02-24T13:15:56.193Z","date":"2026-02-24","time":"13:15:56","cor_ans":true},{"trial_type":"html-keyboard-response","rt":null,"stimulus":"<p style=\"color: green; font-size: 50px; font-weight: bold;\">Correct</p>","response":null,"trial_index":184,"plugin_version":"2.1.0","time_elapsed":322307,"subject_id":"91917","group":"Group2","condition":"1_Rep","full_date":"2026-02-24T13:15:56.193Z","date":"2026-02-24","time":"13:15:56"},{"correct_response":"a","task":"test_phase","broad_category":"M","image_png":"M_Gneiss_13.png","image_id":205,"category_name":"Gneiss","category":13,"distinct_rating":3.26,"distinct_type":"Bottom","item_type":"Foil","rt":1287,"stimulus":"Stimuli_Rocks480/M_Gneiss_13.png","response":"a","trial_type":"image-keyboard-response","trial_index":185,"plugin_version":"2.1.0","time_elapsed":323606,"subject_id":"91917","group":"Group2","condition":"1_Rep","full_date":"2026-02-24T13:15:56.193Z","date":"2026-02-24","time":"13:15:56","cor_ans":true},{"trial_type":"html-keyboard-response","rt":null,"stimulus":"<p style=\"color: green; font-size: 50px; font-weight: bold;\">Correct</p>","response":null,"trial_index":186,"plugin_version":"2.1.0","time_elapsed":324109,"subject_id":"91917","group":"Group2","condition":"1_Rep","full_date":"2026-02-24T13:15:56.193Z","date":"2026-02-24","time":"13:15:56"},{"correct_response":"a","task":"test_phase","broad_category":"M","image_png":"M_Marble_06.png","image_id":230,"category_name":"Marble","category":15,"distinct_rating":3.4,"distinct_type":"Bottom","item_type":"Foil","rt":1589,"stimulus":"Stimuli_Rocks480/M_Marble_06.png","response":"a","trial_type":"image-keyboard-response","trial_index":187,"plugin_version":"2.1.0","time_elapsed":325711,"subject_id":"91917","group":"Group2","condition":"1_Rep","full_date":"2026-02-24T13:15:56.193Z","date":"2026-02-24","time":"13:15:56","cor_ans":true},{"trial_type":"html-keyboard-response","rt":null,"stimulus":"<p style=\"color: green; font-size: 50px; font-weight: bold;\">Correct</p>","response":null,"trial_index":188,"plugin_version":"2.1.0","time_elapsed":326213,"subject_id":"91917","group":"Group2","condition":"1_Rep","full_date":"2026-02-24T13:15:56.193Z","date":"2026-02-24","time":"13:15:56"},{"correct_response":"a","task":"test_phase","broad_category":"I","image_png":"I_Pegmatite_16.png","image_id":112,"category_name":"Pegmatite","category":7,"distinct_rating":7.03,"distinct_type":"Top","item_type":"Foil","rt":1271,"stimulus":"Stimuli_Rocks480/I_Pegmatite_16.png","response":"a","trial_type":"image-keyboard-response","trial_index":189,"plugin_version":"2.1.0","time_elapsed":327501,"subject_id":"91917","group":"Group2","condition":"1_Rep","full_date":"2026-02-24T13:15:56.193Z","date":"2026-02-24","time":"13:15:56","cor_ans":true},{"trial_type":"html-keyboard-response","rt":null,"stimulus":"<p style=\"color: green; font-size: 50px; font-weight: bold;\">Correct</p>","response":null,"trial_index":190,"plugin_version":"2.1.0","time_elapsed":328004,"subject_id":"91917","group":"Group2","condition":"1_Rep","full_date":"2026-02-24T13:15:56.193Z","date":"2026-02-24","time":"13:15:56"},{"correct_response":"a","task":"test_phase","broad_category":"S","image_png":"S_Sandstone_03.png","image_id":451,"category_name":"Sandstone","category":29,"distinct_rating":1.86,"distinct_type":"Bottom","item_type":"Foil","rt":1592,"stimulus":"Stimuli_Rocks480/S_Sandstone_03.png","response":"l","trial_type":"image-keyboard-response","trial_index":191,"plugin_version":"2.1.0","time_elapsed":329610,"subject_id":"91917","group":"Group2","condition":"1_Rep","full_date":"2026-02-24T13:15:56.193Z","date":"2026-02-24","time":"13:15:56","cor_ans":false},{"trial_type":"html-keyboard-response","rt":null,"stimulus":"<p style=\"color: red; font-size: 50px; font-weight: bold;\">Incorrect</p>","response":null,"trial_index":192,"plugin_version":"2.1.0","time_elapsed":330113,"subject_id":"91917","group":"Group2","condition":"1_Rep","full_date":"2026-02-24T13:15:56.193Z","date":"2026-02-24","time":"13:15:56"},{"correct_response":"a","task":"test_phase","broad_category":"S","image_png":"S_Dolomite_13.png","image_id":397,"category_name":"Dolomite","category":25,"distinct_rating":1.77,"distinct_type":"Bottom","item_type":"Foil","rt":765,"stimulus":"Stimuli_Rocks480/S_Dolomite_13.png","response":"l","trial_type":"image-keyboard-response","trial_index":193,"plugin_version":"2.1.0","time_elapsed":330892,"subject_id":"91917","group":"Group2","condition":"1_Rep","full_date":"2026-02-24T13:15:56.193Z","date":"2026-02-24","time":"13:15:56","cor_ans":false},{"trial_type":"html-keyboard-response","rt":null,"stimulus":"<p style=\"color: red; font-size: 50px; font-weight: bold;\">Incorrect</p>","response":null,"trial_index":194,"plugin_version":"2.1.0","time_elapsed":331394,"subject_id":"91917","group":"Group2","condition":"1_Rep","full_date":"2026-02-24T13:15:56.193Z","date":"2026-02-24","time":"13:15:56"},{"correct_response":"l","task":"test_phase","broad_category":"S","image_png":"S_Shale_03.png","image_id":467,"category_name":"Shale","category":30,"distinct_rating":1.95,"distinct_type":"Bottom","item_type":"Target","rt":952,"stimulus":"Stimuli_Rocks480/S_Shale_03.png","response":"l","trial_type":"image-keyboard-response","trial_index":195,"plugin_version":"2.1.0","time_elapsed":332363,"subject_id":"91917","group":"Group2","condition":"1_Rep","full_date":"2026-02-24T13:15:56.193Z","date":"2026-02-24","time":"13:15:56","cor_ans":true},{"trial_type":"html-keyboard-response","rt":null,"stimulus":"<p style=\"color: green; font-size: 50px; font-weight: bold;\">Correct</p>","response":null,"trial_index":196,"plugin_version":"2.1.0","time_elapsed":332866,"subject_id":"91917","group":"Group2","condition":"1_Rep","full_date":"2026-02-24T13:15:56.193Z","date":"2026-02-24","time":"13:15:56"},{"correct_response":"l","task":"test_phase","broad_category":"M","image_png":"M_Quartzite_12.png","image_id":284,"category_name":"Quartzite","category":18,"distinct_rating":1.92,"distinct_type":"Bottom","item_type":"Target","rt":2161,"stimulus":"Stimuli_Rocks480/M_Quartzite_12.png","response":"l","trial_type":"image-keyboard-response","trial_index":197,"plugin_version":"2.1.0","time_elapsed":335040,"subject_id":"91917","group":"Group2","condition":"1_Rep","full_date":"2026-02-24T13:15:56.193Z","date":"2026-02-24","time":"13:15:56","cor_ans":true},{"trial_type":"html-keyboard-response","rt":null,"stimulus":"<p style=\"color: green; font-size: 50px; font-weight: bold;\">Correct</p>","response":null,"trial_index":198,"plugin_version":"2.1.0","time_elapsed":335542,"subject_id":"91917","group":"Group2","condition":"1_Rep","full_date":"2026-02-24T13:15:56.193Z","date":"2026-02-24","time":"13:15:56"},{"correct_response":"l","task":"test_phase","broad_category":"I","image_png":"I_Pumice_13.png","image_id":141,"category_name":"Pumice","category":9,"distinct_rating":3.12,"distinct_type":"Bottom","item_type":"Target","rt":2427,"stimulus":"Stimuli_Rocks480/I_Pumice_13.png","response":"l","trial_type":"image-keyboard-response","trial_index":199,"plugin_version":"2.1.0","time_elapsed":337985,"subject_id":"91917","group":"Group2","condition":"1_Rep","full_date":"2026-02-24T13:15:56.193Z","date":"2026-02-24","time":"13:15:56","cor_ans":true},{"trial_type":"html-keyboard-response","rt":null,"stimulus":"<p style=\"color: green; font-size: 50px; font-weight: bold;\">Correct</p>","response":null,"trial_index":200,"plugin_version":"2.1.0","time_elapsed":338487,"subject_id":"91917","group":"Group2","condition":"1_Rep","full_date":"2026-02-24T13:15:56.193Z","date":"2026-02-24","time":"13:15:56"},{"correct_response":"l","task":"test_phase","broad_category":"M","image_png":"M_Quartzite_15.png","image_id":287,"category_name":"Quartzite","category":18,"distinct_rating":2.19,"distinct_type":"Bottom","item_type":"Target","rt":1047,"stimulus":"Stimuli_Rocks480/M_Quartzite_15.png","response":"l","trial_type":"image-keyboard-response","trial_index":201,"plugin_version":"2.1.0","time_elapsed":339550,"subject_id":"91917","group":"Group2","condition":"1_Rep","full_date":"2026-02-24T13:15:56.193Z","date":"2026-02-24","time":"13:15:56","cor_ans":true},{"trial_type":"html-keyboard-response","rt":null,"stimulus":"<p style=\"color: green; font-size: 50px; font-weight: bold;\">Correct</p>","response":null,"trial_index":202,"plugin_version":"2.1.0","time_elapsed":340052,"subject_id":"91917","group":"Group2","condition":"1_Rep","full_date":"2026-02-24T13:15:56.193Z","date":"2026-02-24","time":"13:15:56"},{"correct_response":"a","task":"test_phase","broad_category":"I","image_png":"I_Basalt_01.png","image_id":17,"category_name":"Basalt","category":2,"distinct_rating":1.92,"distinct_type":"Bottom","item_type":"Foil","rt":1050,"stimulus":"Stimuli_Rocks480/I_Basalt_01.png","response":"l","trial_type":"image-keyboard-response","trial_index":203,"plugin_version":"2.1.0","time_elapsed":341120,"subject_id":"91917","group":"Group2","condition":"1_Rep","full_date":"2026-02-24T13:15:56.193Z","date":"2026-02-24","time":"13:15:56","cor_ans":false},{"trial_type":"html-keyboard-response","rt":null,"stimulus":"<p style=\"color: red; font-size: 50px; font-weight: bold;\">Incorrect</p>","response":null,"trial_index":204,"plugin_version":"2.1.0","time_elapsed":341622,"subject_id":"91917","group":"Group2","condition":"1_Rep","full_date":"2026-02-24T13:15:56.193Z","date":"2026-02-24","time":"13:15:56"},{"correct_response":"l","task":"test_phase","broad_category":"I","image_png":"I_Peridotite_13.png","image_id":125,"category_name":"Peridotite","category":8,"distinct_rating":7.28,"distinct_type":"Top","item_type":"Target","rt":990,"stimulus":"Stimuli_Rocks480/I_Peridotite_13.png","response":"a","trial_type":"image-keyboard-response","trial_index":205,"plugin_version":"2.1.0","time_elapsed":342628,"subject_id":"91917","group":"Group2","condition":"1_Rep","full_date":"2026-02-24T13:15:56.193Z","date":"2026-02-24","time":"13:15:56","cor_ans":false},{"trial_type":"html-keyboard-response","rt":null,"stimulus":"<p style=\"color: red; font-size: 50px; font-weight: bold;\">Incorrect</p>","response":null,"trial_index":206,"plugin_version":"2.1.0","time_elapsed":343131,"subject_id":"91917","group":"Group2","condition":"1_Rep","full_date":"2026-02-24T13:15:56.193Z","date":"2026-02-24","time":"13:15:56"},{"correct_response":"a","task":"test_phase","broad_category":"M","image_png":"M_Slate_15.png","image_id":319,"category_name":"Slate","category":20,"distinct_rating":2.13,"distinct_type":"Bottom","item_type":"Foil","rt":1161,"stimulus":"Stimuli_Rocks480/M_Slate_15.png","response":"l","trial_type":"image-keyboard-response","trial_index":207,"plugin_version":"2.1.0","time_elapsed":344304,"subject_id":"91917","group":"Group2","condition":"1_Rep","full_date":"2026-02-24T13:15:56.193Z","date":"2026-02-24","time":"13:15:56","cor_ans":false},{"trial_type":"html-keyboard-response","rt":null,"stimulus":"<p style=\"color: red; font-size: 50px; font-weight: bold;\">Incorrect</p>","response":null,"trial_index":208,"plugin_version":"2.1.0","time_elapsed":344806,"subject_id":"91917","group":"Group2","condition":"1_Rep","full_date":"2026-02-24T13:15:56.193Z","date":"2026-02-24","time":"13:15:56"},{"correct_response":"a","task":"test_phase","broad_category":"M","image_png":"M_Slate_11.png","image_id":315,"category_name":"Slate","category":20,"distinct_rating":2.75,"distinct_type":"Bottom","item_type":"Foil","rt":1661,"stimulus":"Stimuli_Rocks480/M_Slate_11.png","response":"a","trial_type":"image-keyboard-response","trial_index":209,"plugin_version":"2.1.0","time_elapsed":346480,"subject_id":"91917","group":"Group2","condition":"1_Rep","full_date":"2026-02-24T13:15:56.193Z","date":"2026-02-24","time":"13:15:56","cor_ans":true},{"trial_type":"html-keyboard-response","rt":null,"stimulus":"<p style=\"color: green; font-size: 50px; font-weight: bold;\">Correct</p>","response":null,"trial_index":210,"plugin_version":"2.1.0","time_elapsed":346983,"subject_id":"91917","group":"Group2","condition":"1_Rep","full_date":"2026-02-24T13:15:56.193Z","date":"2026-02-24","time":"13:15:56"},{"correct_response":"a","task":"test_phase","broad_category":"M","image_png":"M_Quartzite_13.png","image_id":285,"category_name":"Quartzite","category":18,"distinct_rating":2.27,"distinct_type":"Bottom","item_type":"Foil","rt":1195,"stimulus":"Stimuli_Rocks480/M_Quartzite_13.png","response":"l","trial_type":"image-keyboard-response","trial_index":211,"plugin_version":"2.1.0","time_elapsed":348192,"subject_id":"91917","group":"Group2","condition":"1_Rep","full_date":"2026-02-24T13:15:56.193Z","date":"2026-02-24","time":"13:15:56","cor_ans":false},{"trial_type":"html-keyboard-response","rt":null,"stimulus":"<p style=\"color: red; font-size: 50px; font-weight: bold;\">Incorrect</p>","response":null,"trial_index":212,"plugin_version":"2.1.0","time_elapsed":348695,"subject_id":"91917","group":"Group2","condition":"1_Rep","full_date":"2026-02-24T13:15:56.193Z","date":"2026-02-24","time":"13:15:56"},{"correct_response":"a","task":"test_phase","broad_category":"S","image_png":"S_Sandstone_15.png","image_id":463,"category_name":"Sandstone","category":29,"distinct_rating":2,"distinct_type":"Bottom","item_type":"Foil","rt":1454,"stimulus":"Stimuli_Rocks480/S_Sandstone_15.png","response":"a","trial_type":"image-keyboard-response","trial_index":213,"plugin_version":"2.1.0","time_elapsed":350164,"subject_id":"91917","group":"Group2","condition":"1_Rep","full_date":"2026-02-24T13:15:56.193Z","date":"2026-02-24","time":"13:15:56","cor_ans":true},{"trial_type":"html-keyboard-response","rt":null,"stimulus":"<p style=\"color: green; font-size: 50px; font-weight: bold;\">Correct</p>","response":null,"trial_index":214,"plugin_version":"2.1.0","time_elapsed":350667,"subject_id":"91917","group":"Group2","condition":"1_Rep","full_date":"2026-02-24T13:15:56.193Z","date":"2026-02-24","time":"13:15:56"},{"correct_response":"a","task":"test_phase","broad_category":"S","image_png":"S_Dolomite_12.png","image_id":396,"category_name":"Dolomite","category":25,"distinct_rating":1.85,"distinct_type":"Bottom","item_type":"Foil","rt":1616,"stimulus":"Stimuli_Rocks480/S_Dolomite_12.png","response":"a","trial_type":"image-keyboard-response","trial_index":215,"plugin_version":"2.1.0","time_elapsed":352298,"subject_id":"91917","group":"Group2","condition":"1_Rep","full_date":"2026-02-24T13:15:56.193Z","date":"2026-02-24","time":"13:15:56","cor_ans":true},{"trial_type":"html-keyboard-response","rt":null,"stimulus":"<p style=\"color: green; font-size: 50px; font-weight: bold;\">Correct</p>","response":null,"trial_index":216,"plugin_version":"2.1.0","time_elapsed":352800,"subject_id":"91917","group":"Group2","condition":"1_Rep","full_date":"2026-02-24T13:15:56.193Z","date":"2026-02-24","time":"13:15:56"},{"correct_response":"l","task":"test_phase","broad_category":"S","image_png":"S_Sandstone_08.png","image_id":456,"category_name":"Sandstone","category":29,"distinct_rating":1.5,"distinct_type":"Bottom","item_type":"Target","rt":1626,"stimulus":"Stimuli_Rocks480/S_Sandstone_08.png","response":"a","trial_type":"image-keyboard-response","trial_index":217,"plugin_version":"2.1.0","time_elapsed":354441,"subject_id":"91917","group":"Group2","condition":"1_Rep","full_date":"2026-02-24T13:15:56.193Z","date":"2026-02-24","time":"13:15:56","cor_ans":false},{"trial_type":"html-keyboard-response","rt":null,"stimulus":"<p style=\"color: red; font-size: 50px; font-weight: bold;\">Incorrect</p>","response":null,"trial_index":218,"plugin_version":"2.1.0","time_elapsed":354943,"subject_id":"91917","group":"Group2","condition":"1_Rep","full_date":"2026-02-24T13:15:56.193Z","date":"2026-02-24","time":"13:15:56"},{"correct_response":"a","task":"test_phase","broad_category":"I","image_png":"I_Rhyolite_16.png","image_id":160,"category_name":"Rhyolite","category":10,"distinct_rating":2.19,"distinct_type":"Bottom","item_type":"Foil","rt":1405,"stimulus":"Stimuli_Rocks480/I_Rhyolite_16.png","response":"l","trial_type":"image-keyboard-response","trial_index":219,"plugin_version":"2.1.0","time_elapsed":356360,"subject_id":"91917","group":"Group2","condition":"1_Rep","full_date":"2026-02-24T13:15:56.193Z","date":"2026-02-24","time":"13:15:56","cor_ans":false},{"trial_type":"html-keyboard-response","rt":null,"stimulus":"<p style=\"color: red; font-size: 50px; font-weight: bold;\">Incorrect</p>","response":null,"trial_index":220,"plugin_version":"2.1.0","time_elapsed":356862,"subject_id":"91917","group":"Group2","condition":"1_Rep","full_date":"2026-02-24T13:15:56.193Z","date":"2026-02-24","time":"13:15:56"},{"correct_response":"a","task":"test_phase","broad_category":"M","image_png":"M_Phyllite_10.png","image_id":266,"category_name":"Phyllite","category":17,"distinct_rating":2.6,"distinct_type":"Bottom","item_type":"Foil","rt":1652,"stimulus":"Stimuli_Rocks480/M_Phyllite_10.png","response":"a","trial_type":"image-keyboard-response","trial_index":221,"plugin_version":"2.1.0","time_elapsed":358525,"subject_id":"91917","group":"Group2","condition":"1_Rep","full_date":"2026-02-24T13:15:56.193Z","date":"2026-02-24","time":"13:15:56","cor_ans":true},{"trial_type":"html-keyboard-response","rt":null,"stimulus":"<p style=\"color: green; font-size: 50px; font-weight: bold;\">Correct</p>","response":null,"trial_index":222,"plugin_version":"2.1.0","time_elapsed":359028,"subject_id":"91917","group":"Group2","condition":"1_Rep","full_date":"2026-02-24T13:15:56.193Z","date":"2026-02-24","time":"13:15:56"},{"correct_response":"a","task":"test_phase","broad_category":"S","image_png":"S_Breccia_11.png","image_id":347,"category_name":"Breccia","category":22,"distinct_rating":6.7,"distinct_type":"Top","item_type":"Foil","rt":1479,"stimulus":"Stimuli_Rocks480/S_Breccia_11.png","response":"a","trial_type":"image-keyboard-response","trial_index":223,"plugin_version":"2.1.0","time_elapsed":360527,"subject_id":"91917","group":"Group2","condition":"1_Rep","full_date":"2026-02-24T13:15:56.193Z","date":"2026-02-24","time":"13:15:56","cor_ans":true},{"trial_type":"html-keyboard-response","rt":null,"stimulus":"<p style=\"color: green; font-size: 50px; font-weight: bold;\">Correct</p>","response":null,"trial_index":224,"plugin_version":"2.1.0","time_elapsed":361029,"subject_id":"91917","group":"Group2","condition":"1_Rep","full_date":"2026-02-24T13:15:56.193Z","date":"2026-02-24","time":"13:15:56"},{"correct_response":"a","task":"test_phase","broad_category":"I","image_png":"I_Gabbro_11.png","i