[{"width":1536,"height":742,"webaudio":true,"browser":"chrome","browser_version":"144.0.0","mobile":false,"os":"Windows 10","fullscreen":true,"vsync_rate":60.23,"webcam":true,"microphone":true,"trial_type":"browser-check","trial_index":0,"plugin_version":"2.1.0","time_elapsed":1006,"subject_id":"92597","group":"Group1","condition":"1_Rep","full_date":"2026-01-27T14:58:09.041Z","date":"2026-01-27","time":"14:58:09"},{"success":true,"timeout":false,"failed_images":[],"failed_audio":[],"failed_video":[],"trial_type":"preload","trial_index":1,"plugin_version":"2.1.0","time_elapsed":9826,"subject_id":"92597","group":"Group1","condition":"1_Rep","full_date":"2026-01-27T14:58:09.041Z","date":"2026-01-27","time":"14:58:09"},{"rt":7484,"url":"SONA_consent_memorability.html","trial_type":"external-html","trial_index":2,"plugin_version":"2.1.0","time_elapsed":17363,"subject_id":"92597","group":"Group1","condition":"1_Rep","full_date":"2026-01-27T14:58:09.041Z","date":"2026-01-27","time":"14:58:09"},{"success":true,"rt":2083,"trial_type":"fullscreen","trial_index":3,"plugin_version":"2.1.0","time_elapsed":20447,"subject_id":"92597","group":"Group1","condition":"1_Rep","full_date":"2026-01-27T14:58:09.041Z","date":"2026-01-27","time":"14:58:09"},{"rt":2538,"stimulus":"<div style=\"max-width: 760px; margin: auto; font-size: 20px; line-height: 1.5;\">\n      <h1 style=\"text-align:center; font-size: 30px;\">Instructions</h1>\n      <p>\n        Welcome to the study on <b>visual memory</b>. This experiment consists of <b>two phases</b>: \n        a <b>study phase</b> and a <b>test phase</b>.\n      </p>\n      <p>\n        In the study phase, you will see a series of rock images along with their category labels.\n        The images will appear one at a time.\n        <b>Your task</b> is to learn the categories to which the rock images belong \n        and to remember each image as accurately as possible.\n      </p> \n      <p>\n        Note that you will see each image only <b>once</b> during the study phase. \n          So, please pay close attention and try to remember each image carefully.\n      </p>\n      <p>\n        After the study phase, <b>your memory will be tested</b>. \n        Additional instructions for the test phase will be provided at that time.\n      </p>\n      <p>\n        If your computer has multiple <b>language settings</b> (e.g., English and another language),\n        please make sure it is set to English before starting.\n      </p>\n      <p>\n        You can track your progress using the <b>completion bar</b> at the top of the screen. \n        Please note that the bar will refresh when the test phase begins \n        to give you an accurate sense of your progress in both phases.\n      </p> \n      <p>\n        Press the button below when you are ready to begin.\n      </p>\n    </div>","response":0,"trial_type":"html-button-response","trial_index":4,"plugin_version":"2.1.0","time_elapsed":22987,"subject_id":"92597","group":"Group1","condition":"1_Rep","full_date":"2026-01-27T14:58:09.041Z","date":"2026-01-27","time":"14:58:09"},{"rt":null,"stimulus":"<p style=\"font-size: 50px; margin: 0; text-align: center;\">+</p>","response":null,"trial_type":"html-keyboard-response","trial_index":5,"plugin_version":"2.1.0","time_elapsed":23989,"subject_id":"92597","group":"Group1","condition":"1_Rep","full_date":"2026-01-27T14:58:09.041Z","date":"2026-01-27","time":"14:58:09"},{"task":"memory_phase","broad_category":"I","image_png":"I_Gabbro_16.png","image_id":64,"category_name":"Gabbro","category":4,"distinct_rating":2.52,"distinct_type":"Bottom","rt":null,"stimulus":"Stimuli_Rocks480/I_Gabbro_16.png","response":null,"trial_type":"image-keyboard-response","trial_index":6,"plugin_version":"2.1.0","time_elapsed":26507,"subject_id":"92597","group":"Group1","condition":"1_Rep","full_date":"2026-01-27T14:58:09.041Z","date":"2026-01-27","time":"14:58:09"},{"rt":null,"stimulus":"<p style=\"font-size: 50px; margin: 0; text-align: center;\">+</p>","response":null,"trial_type":"html-keyboard-response","trial_index":7,"plugin_version":"2.1.0","time_elapsed":27509,"subject_id":"92597","group":"Group1","condition":"1_Rep","full_date":"2026-01-27T14:58:09.041Z","date":"2026-01-27","time":"14:58:09"},{"task":"memory_phase","broad_category":"S","image_png":"S_Chert_10.png","image_id":362,"category_name":"Chert","category":23,"distinct_rating":7.17,"distinct_type":"Top","rt":null,"stimulus":"Stimuli_Rocks480/S_Chert_10.png","response":null,"trial_type":"image-keyboard-response","trial_index":8,"plugin_version":"2.1.0","time_elapsed":30019,"subject_id":"92597","group":"Group1","condition":"1_Rep","full_date":"2026-01-27T14:58:09.041Z","date":"2026-01-27","time":"14:58:09"},{"rt":null,"stimulus":"<p style=\"font-size: 50px; margin: 0; text-align: center;\">+</p>","response":null,"trial_type":"html-keyboard-response","trial_index":9,"plugin_version":"2.1.0","time_elapsed":31024,"subject_id":"92597","group":"Group1","condition":"1_Rep","full_date":"2026-01-27T14:58:09.041Z","date":"2026-01-27","time":"14:58:09"},{"task":"memory_phase","broad_category":"M","image_png":"M_Marble_04.png","image_id":228,"category_name":"Marble","category":15,"distinct_rating":3.15,"distinct_type":"Bottom","rt":null,"stimulus":"Stimuli_Rocks480/M_Marble_04.png","response":null,"trial_type":"image-keyboard-response","trial_index":10,"plugin_version":"2.1.0","time_elapsed":33538,"subject_id":"92597","group":"Group1","condition":"1_Rep","full_date":"2026-01-27T14:58:09.041Z","date":"2026-01-27","time":"14:58:09"},{"rt":null,"stimulus":"<p style=\"font-size: 50px; margin: 0; text-align: center;\">+</p>","response":null,"trial_type":"html-keyboard-response","trial_index":11,"plugin_version":"2.1.0","time_elapsed":34540,"subject_id":"92597","group":"Group1","condition":"1_Rep","full_date":"2026-01-27T14:58:09.041Z","date":"2026-01-27","time":"14:58:09"},{"task":"memory_phase","broad_category":"S","image_png":"S_Breccia_11.png","image_id":347,"category_name":"Breccia","category":22,"distinct_rating":6.7,"distinct_type":"Top","rt":null,"stimulus":"Stimuli_Rocks480/S_Breccia_11.png","response":null,"trial_type":"image-keyboard-response","trial_index":12,"plugin_version":"2.1.0","time_elapsed":37044,"subject_id":"92597","group":"Group1","condition":"1_Rep","full_date":"2026-01-27T14:58:09.041Z","date":"2026-01-27","time":"14:58:09"},{"rt":null,"stimulus":"<p style=\"font-size: 50px; margin: 0; text-align: center;\">+</p>","response":null,"trial_type":"html-keyboard-response","trial_index":13,"plugin_version":"2.1.0","time_elapsed":38052,"subject_id":"92597","group":"Group1","condition":"1_Rep","full_date":"2026-01-27T14:58:09.041Z","date":"2026-01-27","time":"14:58:09"},{"task":"memory_phase","broad_category":"M","image_png":"M_Quartzite_08.png","image_id":280,"category_name":"Quartzite","category":18,"distinct_rating":2.15,"distinct_type":"Bottom","rt":null,"stimulus":"Stimuli_Rocks480/M_Quartzite_08.png","response":null,"trial_type":"image-keyboard-response","trial_index":14,"plugin_version":"2.1.0","time_elapsed":40562,"subject_id":"92597","group":"Group1","condition":"1_Rep","full_date":"2026-01-27T14:58:09.041Z","date":"2026-01-27","time":"14:58:09"},{"rt":null,"stimulus":"<p style=\"font-size: 50px; margin: 0; text-align: center;\">+</p>","response":null,"trial_type":"html-keyboard-response","trial_index":15,"plugin_version":"2.1.0","time_elapsed":41564,"subject_id":"92597","group":"Group1","condition":"1_Rep","full_date":"2026-01-27T14:58:09.041Z","date":"2026-01-27","time":"14:58:09"},{"task":"memory_phase","broad_category":"I","image_png":"I_Basalt_01.png","image_id":17,"category_name":"Basalt","category":2,"distinct_rating":1.92,"distinct_type":"Bottom","rt":null,"stimulus":"Stimuli_Rocks480/I_Basalt_01.png","response":null,"trial_type":"image-keyboard-response","trial_index":16,"plugin_version":"2.1.0","time_elapsed":44069,"subject_id":"92597","group":"Group1","condition":"1_Rep","full_date":"2026-01-27T14:58:09.041Z","date":"2026-01-27","time":"14:58:09"},{"rt":null,"stimulus":"<p style=\"font-size: 50px; margin: 0; text-align: center;\">+</p>","response":null,"trial_type":"html-keyboard-response","trial_index":17,"plugin_version":"2.1.0","time_elapsed":45078,"subject_id":"92597","group":"Group1","condition":"1_Rep","full_date":"2026-01-27T14:58:09.041Z","date":"2026-01-27","time":"14:58:09"},{"task":"memory_phase","broad_category":"I","image_png":"I_Andesite_10.png","image_id":10,"category_name":"Andesite","category":1,"distinct_rating":3.15,"distinct_type":"Bottom","rt":null,"stimulus":"Stimuli_Rocks480/I_Andesite_10.png","response":null,"trial_type":"image-keyboard-response","trial_index":18,"plugin_version":"2.1.0","time_elapsed":47593,"subject_id":"92597","group":"Group1","condition":"1_Rep","full_date":"2026-01-27T14:58:09.041Z","date":"2026-01-27","time":"14:58:09"},{"rt":null,"stimulus":"<p style=\"font-size: 50px; margin: 0; text-align: center;\">+</p>","response":null,"trial_type":"html-keyboard-response","trial_index":19,"plugin_version":"2.1.0","time_elapsed":48608,"subject_id":"92597","group":"Group1","condition":"1_Rep","full_date":"2026-01-27T14:58:09.041Z","date":"2026-01-27","time":"14:58:09"},{"task":"memory_phase","broad_category":"I","image_png":"I_Gabbro_11.png","image_id":59,"category_name":"Gabbro","category":4,"distinct_rating":1.99,"distinct_type":"Bottom","rt":null,"stimulus":"Stimuli_Rocks480/I_Gabbro_11.png","response":null,"trial_type":"image-keyboard-response","trial_index":20,"plugin_version":"2.1.0","time_elapsed":51125,"subject_id":"92597","group":"Group1","condition":"1_Rep","full_date":"2026-01-27T14:58:09.041Z","date":"2026-01-27","time":"14:58:09"},{"rt":null,"stimulus":"<p style=\"font-size: 50px; margin: 0; text-align: center;\">+</p>","response":null,"trial_type":"html-keyboard-response","trial_index":21,"plugin_version":"2.1.0","time_elapsed":52126,"subject_id":"92597","group":"Group1","condition":"1_Rep","full_date":"2026-01-27T14:58:09.041Z","date":"2026-01-27","time":"14:58:09"},{"task":"memory_phase","broad_category":"M","image_png":"M_Gneiss_06.png","image_id":198,"category_name":"Gneiss","category":13,"distinct_rating":2.65,"distinct_type":"Bottom","rt":null,"stimulus":"Stimuli_Rocks480/M_Gneiss_06.png","response":null,"trial_type":"image-keyboard-response","trial_index":22,"plugin_version":"2.1.0","time_elapsed":54639,"subject_id":"92597","group":"Group1","condition":"1_Rep","full_date":"2026-01-27T14:58:09.041Z","date":"2026-01-27","time":"14:58:09"},{"rt":null,"stimulus":"<p style=\"font-size: 50px; margin: 0; text-align: center;\">+</p>","response":null,"trial_type":"html-keyboard-response","trial_index":23,"plugin_version":"2.1.0","time_elapsed":55643,"subject_id":"92597","group":"Group1","condition":"1_Rep","full_date":"2026-01-27T14:58:09.041Z","date":"2026-01-27","time":"14:58:09"},{"task":"memory_phase","broad_category":"M","image_png":"M_Quartzite_05.png","image_id":277,"category_name":"Quartzite","category":18,"distinct_rating":2.23,"distinct_type":"Bottom","rt":null,"stimulus":"Stimuli_Rocks480/M_Quartzite_05.png","response":null,"trial_type":"image-keyboard-response","trial_index":24,"plugin_version":"2.1.0","time_elapsed":58148,"subject_id":"92597","group":"Group1","condition":"1_Rep","full_date":"2026-01-27T14:58:09.041Z","date":"2026-01-27","time":"14:58:09"},{"rt":null,"stimulus":"<p style=\"font-size: 50px; margin: 0; text-align: center;\">+</p>","response":null,"trial_type":"html-keyboard-response","trial_index":25,"plugin_version":"2.1.0","time_elapsed":59156,"subject_id":"92597","group":"Group1","condition":"1_Rep","full_date":"2026-01-27T14:58:09.041Z","date":"2026-01-27","time":"14:58:09"},{"task":"memory_phase","broad_category":"S","image_png":"S_Sandstone_15.png","image_id":463,"category_name":"Sandstone","category":29,"distinct_rating":2,"distinct_type":"Bottom","rt":null,"stimulus":"Stimuli_Rocks480/S_Sandstone_15.png","response":null,"trial_type":"image-keyboard-response","trial_index":26,"plugin_version":"2.1.0","time_elapsed":61659,"subject_id":"92597","group":"Group1","condition":"1_Rep","full_date":"2026-01-27T14:58:09.041Z","date":"2026-01-27","time":"14:58:09"},{"rt":null,"stimulus":"<p style=\"font-size: 50px; margin: 0; text-align: center;\">+</p>","response":null,"trial_type":"html-keyboard-response","trial_index":27,"plugin_version":"2.1.0","time_elapsed":62670,"subject_id":"92597","group":"Group1","condition":"1_Rep","full_date":"2026-01-27T14:58:09.041Z","date":"2026-01-27","time":"14:58:09"},{"task":"memory_phase","broad_category":"I","image_png":"I_Diorite_04.png","image_id":36,"category_name":"Diorite","category":3,"distinct_rating":2.98,"distinct_type":"Bottom","rt":null,"stimulus":"Stimuli_Rocks480/I_Diorite_04.png","response":null,"trial_type":"image-keyboard-response","trial_index":28,"plugin_version":"2.1.0","time_elapsed":65183,"subject_id":"92597","group":"Group1","condition":"1_Rep","full_date":"2026-01-27T14:58:09.041Z","date":"2026-01-27","time":"14:58:09"},{"rt":null,"stimulus":"<p style=\"font-size: 50px; margin: 0; text-align: center;\">+</p>","response":null,"trial_type":"html-keyboard-response","trial_index":29,"plugin_version":"2.1.0","time_elapsed":66197,"subject_id":"92597","group":"Group1","condition":"1_Rep","full_date":"2026-01-27T14:58:09.041Z","date":"2026-01-27","time":"14:58:09"},{"task":"memory_phase","broad_category":"I","image_png":"I_Basalt_02.png","image_id":18,"category_name":"Basalt","category":2,"distinct_rating":1.84,"distinct_type":"Bottom","rt":null,"stimulus":"Stimuli_Rocks480/I_Basalt_02.png","response":null,"trial_type":"image-keyboard-response","trial_index":30,"plugin_version":"2.1.0","time_elapsed":68705,"subject_id":"92597","group":"Group1","condition":"1_Rep","full_date":"2026-01-27T14:58:09.041Z","date":"2026-01-27","time":"14:58:09"},{"rt":null,"stimulus":"<p style=\"font-size: 50px; margin: 0; text-align: center;\">+</p>","response":null,"trial_type":"html-keyboard-response","trial_index":31,"plugin_version":"2.1.0","time_elapsed":69714,"subject_id":"92597","group":"Group1","condition":"1_Rep","full_date":"2026-01-27T14:58:09.041Z","date":"2026-01-27","time":"14:58:09"},{"task":"memory_phase","broad_category":"M","image_png":"M_Marble_06.png","image_id":230,"category_name":"Marble","category":15,"distinct_rating":3.4,"distinct_type":"Bottom","rt":null,"stimulus":"Stimuli_Rocks480/M_Marble_06.png","response":null,"trial_type":"image-keyboard-response","trial_index":32,"plugin_version":"2.1.0","time_elapsed":72232,"subject_id":"92597","group":"Group1","condition":"1_Rep","full_date":"2026-01-27T14:58:09.041Z","date":"2026-01-27","time":"14:58:09"},{"rt":null,"stimulus":"<p style=\"font-size: 50px; margin: 0; text-align: center;\">+</p>","response":null,"trial_type":"html-keyboard-response","trial_index":33,"plugin_version":"2.1.0","time_elapsed":73245,"subject_id":"92597","group":"Group1","condition":"1_Rep","full_date":"2026-01-27T14:58:09.041Z","date":"2026-01-27","time":"14:58:09"},{"task":"memory_phase","broad_category":"I","image_png":"I_Pumice_11.png","image_id":139,"category_name":"Pumice","category":9,"distinct_rating":1.74,"distinct_type":"Bottom","rt":null,"stimulus":"Stimuli_Rocks480/I_Pumice_11.png","response":null,"trial_type":"image-keyboard-response","trial_index":34,"plugin_version":"2.1.0","time_elapsed":75747,"subject_id":"92597","group":"Group1","condition":"1_Rep","full_date":"2026-01-27T14:58:09.041Z","date":"2026-01-27","time":"14:58:09"},{"rt":null,"stimulus":"<p style=\"font-size: 50px; margin: 0; text-align: center;\">+</p>","response":null,"trial_type":"html-keyboard-response","trial_index":35,"plugin_version":"2.1.0","time_elapsed":76760,"subject_id":"92597","group":"Group1","condition":"1_Rep","full_date":"2026-01-27T14:58:09.041Z","date":"2026-01-27","time":"14:58:09"},{"task":"memory_phase","broad_category":"S","image_png":"S_Dolomite_12.png","image_id":396,"category_name":"Dolomite","category":25,"distinct_rating":1.85,"distinct_type":"Bottom","rt":null,"stimulus":"Stimuli_Rocks480/S_Dolomite_12.png","response":null,"trial_type":"image-keyboard-response","trial_index":36,"plugin_version":"2.1.0","time_elapsed":79262,"subject_id":"92597","group":"Group1","condition":"1_Rep","full_date":"2026-01-27T14:58:09.041Z","date":"2026-01-27","time":"14:58:09"},{"rt":null,"stimulus":"<p style=\"font-size: 50px; margin: 0; text-align: center;\">+</p>","response":null,"trial_type":"html-keyboard-response","trial_index":37,"plugin_version":"2.1.0","time_elapsed":80265,"subject_id":"92597","group":"Group1","condition":"1_Rep","full_date":"2026-01-27T14:58:09.041Z","date":"2026-01-27","time":"14:58:09"},{"task":"memory_phase","broad_category":"S","image_png":"S_Conglomerate_05.png","image_id":373,"category_name":"Conglomerate","category":24,"distinct_rating":7.32,"distinct_type":"Top","rt":null,"stimulus":"Stimuli_Rocks480/S_Conglomerate_05.png","response":null,"trial_type":"image-keyboard-response","trial_index":38,"plugin_version":"2.1.0","time_elapsed":82770,"subject_id":"92597","group":"Group1","condition":"1_Rep","full_date":"2026-01-27T14:58:09.041Z","date":"2026-01-27","time":"14:58:09"},{"rt":null,"stimulus":"<p style=\"font-size: 50px; margin: 0; text-align: center;\">+</p>","response":null,"trial_type":"html-keyboard-response","trial_index":39,"plugin_version":"2.1.0","time_elapsed":83781,"subject_id":"92597","group":"Group1","condition":"1_Rep","full_date":"2026-01-27T14:58:09.041Z","date":"2026-01-27","time":"14:58:09"},{"task":"memory_phase","broad_category":"I","image_png":"I_Rhyolite_11.png","image_id":155,"category_name":"Rhyolite","category":10,"distinct_rating":1.73,"distinct_type":"Bottom","rt":null,"stimulus":"Stimuli_Rocks480/I_Rhyolite_11.png","response":null,"trial_type":"image-keyboard-response","trial_index":40,"plugin_version":"2.1.0","time_elapsed":86297,"subject_id":"92597","group":"Group1","condition":"1_Rep","full_date":"2026-01-27T14:58:09.041Z","date":"2026-01-27","time":"14:58:09"},{"rt":null,"stimulus":"<p style=\"font-size: 50px; margin: 0; text-align: center;\">+</p>","response":null,"trial_type":"html-keyboard-response","trial_index":41,"plugin_version":"2.1.0","time_elapsed":87311,"subject_id":"92597","group":"Group1","condition":"1_Rep","full_date":"2026-01-27T14:58:09.041Z","date":"2026-01-27","time":"14:58:09"},{"task":"memory_phase","broad_category":"I","image_png":"I_Basalt_09.png","image_id":25,"category_name":"Basalt","category":2,"distinct_rating":1.89,"distinct_type":"Bottom","rt":null,"stimulus":"Stimuli_Rocks480/I_Basalt_09.png","response":null,"trial_type":"image-keyboard-response","trial_index":42,"plugin_version":"2.1.0","time_elapsed":89824,"subject_id":"92597","group":"Group1","condition":"1_Rep","full_date":"2026-01-27T14:58:09.041Z","date":"2026-01-27","time":"14:58:09"},{"rt":null,"stimulus":"<p style=\"font-size: 50px; margin: 0; text-align: center;\">+</p>","response":null,"trial_type":"html-keyboard-response","trial_index":43,"plugin_version":"2.1.0","time_elapsed":90840,"subject_id":"92597","group":"Group1","condition":"1_Rep","full_date":"2026-01-27T14:58:09.041Z","date":"2026-01-27","time":"14:58:09"},{"task":"memory_phase","broad_category":"S","image_png":"S_Shale_01.png","image_id":465,"category_name":"Shale","category":30,"distinct_rating":2.7,"distinct_type":"Bottom","rt":null,"stimulus":"Stimuli_Rocks480/S_Shale_01.png","response":null,"trial_type":"image-keyboard-response","trial_index":44,"plugin_version":"2.1.0","time_elapsed":93356,"subject_id":"92597","group":"Group1","condition":"1_Rep","full_date":"2026-01-27T14:58:09.041Z","date":"2026-01-27","time":"14:58:09"},{"rt":null,"stimulus":"<p style=\"font-size: 50px; margin: 0; text-align: center;\">+</p>","response":null,"trial_type":"html-keyboard-response","trial_index":45,"plugin_version":"2.1.0","time_elapsed":94365,"subject_id":"92597","group":"Group1","condition":"1_Rep","full_date":"2026-01-27T14:58:09.041Z","date":"2026-01-27","time":"14:58:09"},{"task":"memory_phase","broad_category":"M","image_png":"M_Quartzite_13.png","image_id":285,"category_name":"Quartzite","category":18,"distinct_rating":2.27,"distinct_type":"Bottom","rt":null,"stimulus":"Stimuli_Rocks480/M_Quartzite_13.png","response":null,"trial_type":"image-keyboard-response","trial_index":46,"plugin_version":"2.1.0","time_elapsed":96872,"subject_id":"92597","group":"Group1","condition":"1_Rep","full_date":"2026-01-27T14:58:09.041Z","date":"2026-01-27","time":"14:58:09"},{"rt":null,"stimulus":"<p style=\"font-size: 50px; margin: 0; text-align: center;\">+</p>","response":null,"trial_type":"html-keyboard-response","trial_index":47,"plugin_version":"2.1.0","time_elapsed":97889,"subject_id":"92597","group":"Group1","condition":"1_Rep","full_date":"2026-01-27T14:58:09.041Z","date":"2026-01-27","time":"14:58:09"},{"task":"memory_phase","broad_category":"S","image_png":"S_Dolomite_13.png","image_id":397,"category_name":"Dolomite","category":25,"distinct_rating":1.77,"distinct_type":"Bottom","rt":null,"stimulus":"Stimuli_Rocks480/S_Dolomite_13.png","response":null,"trial_type":"image-keyboard-response","trial_index":48,"plugin_version":"2.1.0","time_elapsed":100399,"subject_id":"92597","group":"Group1","condition":"1_Rep","full_date":"2026-01-27T14:58:09.041Z","date":"2026-01-27","time":"14:58:09"},{"rt":null,"stimulus":"<p style=\"font-size: 50px; margin: 0; text-align: center;\">+</p>","response":null,"trial_type":"html-keyboard-response","trial_index":49,"plugin_version":"2.1.0","time_elapsed":101410,"subject_id":"92597","group":"Group1","condition":"1_Rep","full_date":"2026-01-27T14:58:09.041Z","date":"2026-01-27","time":"14:58:09"},{"task":"memory_phase","broad_category":"I","image_png":"I_Diorite_05.png","image_id":37,"category_name":"Diorite","category":3,"distinct_rating":3.08,"distinct_type":"Bottom","rt":null,"stimulus":"Stimuli_Rocks480/I_Diorite_05.png","response":null,"trial_type":"image-keyboard-response","trial_index":50,"plugin_version":"2.1.0","time_elapsed":103916,"subject_id":"92597","group":"Group1","condition":"1_Rep","full_date":"2026-01-27T14:58:09.041Z","date":"2026-01-27","time":"14:58:09"},{"rt":null,"stimulus":"<p style=\"font-size: 50px; margin: 0; text-align: center;\">+</p>","response":null,"trial_type":"html-keyboard-response","trial_index":51,"plugin_version":"2.1.0","time_elapsed":104920,"subject_id":"92597","group":"Group1","condition":"1_Rep","full_date":"2026-01-27T14:58:09.041Z","date":"2026-01-27","time":"14:58:09"},{"task":"memory_phase","broad_category":"I","image_png":"I_Andesite_06.png","image_id":6,"category_name":"Andesite","category":1,"distinct_rating":3.17,"distinct_type":"Bottom","rt":null,"stimulus":"Stimuli_Rocks480/I_Andesite_06.png","response":null,"trial_type":"image-keyboard-response","trial_index":52,"plugin_version":"2.1.0","time_elapsed":107428,"subject_id":"92597","group":"Group1","condition":"1_Rep","full_date":"2026-01-27T14:58:09.041Z","date":"2026-01-27","time":"14:58:09"},{"rt":null,"stimulus":"<p style=\"font-size: 50px; margin: 0; text-align: center;\">+</p>","response":null,"trial_type":"html-keyboard-response","trial_index":53,"plugin_version":"2.1.0","time_elapsed":108444,"subject_id":"92597","group":"Group1","condition":"1_Rep","full_date":"2026-01-27T14:58:09.041Z","date":"2026-01-27","time":"14:58:09"},{"task":"memory_phase","broad_category":"S","image_png":"S_Shale_12.png","image_id":476,"category_name":"Shale","category":30,"distinct_rating":2.48,"distinct_type":"Bottom","rt":null,"stimulus":"Stimuli_Rocks480/S_Shale_12.png","response":null,"trial_type":"image-keyboard-response","trial_index":54,"plugin_version":"2.1.0","time_elapsed":110958,"subject_id":"92597","group":"Group1","condition":"1_Rep","full_date":"2026-01-27T14:58:09.041Z","date":"2026-01-27","time":"14:58:09"},{"rt":1941,"stimulus":"<p style=\"max-width: 760px; margin: auto; font-size: 35px; line-height: 1.5;\">\n                Press SPACE to continue study phase\n              </p>","response":" ","trial_type":"html-keyboard-response","trial_index":55,"plugin_version":"2.1.0","time_elapsed":112900,"subject_id":"92597","group":"Group1","condition":"1_Rep","full_date":"2026-01-27T14:58:09.041Z","date":"2026-01-27","time":"14:58:09"},{"rt":null,"stimulus":"<p style=\"font-size: 50px; margin: 0; text-align: center;\">+</p>","response":null,"trial_type":"html-keyboard-response","trial_index":56,"plugin_version":"2.1.0","time_elapsed":113911,"subject_id":"92597","group":"Group1","condition":"1_Rep","full_date":"2026-01-27T14:58:09.041Z","date":"2026-01-27","time":"14:58:09"},{"task":"memory_phase","broad_category":"M","image_png":"M_Gneiss_05.png","image_id":197,"category_name":"Gneiss","category":13,"distinct_rating":2.97,"distinct_type":"Bottom","rt":null,"stimulus":"Stimuli_Rocks480/M_Gneiss_05.png","response":null,"trial_type":"image-keyboard-response","trial_index":57,"plugin_version":"2.1.0","time_elapsed":116414,"subject_id":"92597","group":"Group1","condition":"1_Rep","full_date":"2026-01-27T14:58:09.041Z","date":"2026-01-27","time":"14:58:09"},{"rt":null,"stimulus":"<p style=\"font-size: 50px; margin: 0; text-align: center;\">+</p>","response":null,"trial_type":"html-keyboard-response","trial_index":58,"plugin_version":"2.1.0","time_elapsed":117425,"subject_id":"92597","group":"Group1","condition":"1_Rep","full_date":"2026-01-27T14:58:09.041Z","date":"2026-01-27","time":"14:58:09"},{"task":"memory_phase","broad_category":"M","image_png":"M_Slate_15.png","image_id":319,"category_name":"Slate","category":20,"distinct_rating":2.13,"distinct_type":"Bottom","rt":null,"stimulus":"Stimuli_Rocks480/M_Slate_15.png","response":null,"trial_type":"image-keyboard-response","trial_index":59,"plugin_version":"2.1.0","time_elapsed":119931,"subject_id":"92597","group":"Group1","condition":"1_Rep","full_date":"2026-01-27T14:58:09.041Z","date":"2026-01-27","time":"14:58:09"},{"rt":null,"stimulus":"<p style=\"font-size: 50px; margin: 0; text-align: center;\">+</p>","response":null,"trial_type":"html-keyboard-response","trial_index":60,"plugin_version":"2.1.0","time_elapsed":120944,"subject_id":"92597","group":"Group1","condition":"1_Rep","full_date":"2026-01-27T14:58:09.041Z","date":"2026-01-27","time":"14:58:09"},{"task":"memory_phase","broad_category":"I","image_png":"I_Rhyolite_14.png","image_id":158,"category_name":"Rhyolite","category":10,"distinct_rating":2.59,"distinct_type":"Bottom","rt":null,"stimulus":"Stimuli_Rocks480/I_Rhyolite_14.png","response":null,"trial_type":"image-keyboard-response","trial_index":61,"plugin_version":"2.1.0","time_elapsed":123449,"subject_id":"92597","group":"Group1","condition":"1_Rep","full_date":"2026-01-27T14:58:09.041Z","date":"2026-01-27","time":"14:58:09"},{"rt":null,"stimulus":"<p style=\"font-size: 50px; margin: 0; text-align: center;\">+</p>","response":null,"trial_type":"html-keyboard-response","trial_index":62,"plugin_version":"2.1.0","time_elapsed":124452,"subject_id":"92597","group":"Group1","condition":"1_Rep","full_date":"2026-01-27T14:58:09.041Z","date":"2026-01-27","time":"14:58:09"},{"task":"memory_phase","broad_category":"S","image_png":"S_Shale_08.png","image_id":472,"category_name":"Shale","category":30,"distinct_rating":2.55,"distinct_type":"Bottom","rt":null,"stimulus":"Stimuli_Rocks480/S_Shale_08.png","response":null,"trial_type":"image-keyboard-response","trial_index":63,"plugin_version":"2.1.0","time_elapsed":126968,"subject_id":"92597","group":"Group1","condition":"1_Rep","full_date":"2026-01-27T14:58:09.041Z","date":"2026-01-27","time":"14:58:09"},{"rt":null,"stimulus":"<p style=\"font-size: 50px; margin: 0; text-align: center;\">+</p>","response":null,"trial_type":"html-keyboard-response","trial_index":64,"plugin_version":"2.1.0","time_elapsed":127982,"subject_id":"92597","group":"Group1","condition":"1_Rep","full_date":"2026-01-27T14:58:09.041Z","date":"2026-01-27","time":"14:58:09"},{"task":"memory_phase","broad_category":"I","image_png":"I_Pumice_12.png","image_id":140,"category_name":"Pumice","category":9,"distinct_rating":2.97,"distinct_type":"Bottom","rt":null,"stimulus":"Stimuli_Rocks480/I_Pumice_12.png","response":null,"trial_type":"image-keyboard-response","trial_index":65,"plugin_version":"2.1.0","time_elapsed":130488,"subject_id":"92597","group":"Group1","condition":"1_Rep","full_date":"2026-01-27T14:58:09.041Z","date":"2026-01-27","time":"14:58:09"},{"rt":null,"stimulus":"<p style=\"font-size: 50px; margin: 0; text-align: center;\">+</p>","response":null,"trial_type":"html-keyboard-response","trial_index":66,"plugin_version":"2.1.0","time_elapsed":131502,"subject_id":"92597","group":"Group1","condition":"1_Rep","full_date":"2026-01-27T14:58:09.041Z","date":"2026-01-27","time":"14:58:09"},{"task":"memory_phase","broad_category":"I","image_png":"I_Diorite_03.png","image_id":35,"category_name":"Diorite","category":3,"distinct_rating":3.14,"distinct_type":"Bottom","rt":null,"stimulus":"Stimuli_Rocks480/I_Diorite_03.png","response":null,"trial_type":"image-keyboard-response","trial_index":67,"plugin_version":"2.1.0","time_elapsed":134009,"subject_id":"92597","group":"Group1","condition":"1_Rep","full_date":"2026-01-27T14:58:09.041Z","date":"2026-01-27","time":"14:58:09"},{"rt":null,"stimulus":"<p style=\"font-size: 50px; margin: 0; text-align: center;\">+</p>","response":null,"trial_type":"html-keyboard-response","trial_index":68,"plugin_version":"2.1.0","time_elapsed":135025,"subject_id":"92597","group":"Group1","condition":"1_Rep","full_date":"2026-01-27T14:58:09.041Z","date":"2026-01-27","time":"14:58:09"},{"task":"memory_phase","broad_category":"S","image_png":"S_Sandstone_16.png","image_id":464,"category_name":"Sandstone","category":29,"distinct_rating":1.93,"distinct_type":"Bottom","rt":null,"stimulus":"Stimuli_Rocks480/S_Sandstone_16.png","response":null,"trial_type":"image-keyboard-response","trial_index":69,"plugin_version":"2.1.0","time_elapsed":137534,"subject_id":"92597","group":"Group1","condition":"1_Rep","full_date":"2026-01-27T14:58:09.041Z","date":"2026-01-27","time":"14:58:09"},{"rt":null,"stimulus":"<p style=\"font-size: 50px; margin: 0; text-align: center;\">+</p>","response":null,"trial_type":"html-keyboard-response","trial_index":70,"plugin_version":"2.1.0","time_elapsed":138548,"subject_id":"92597","group":"Group1","condition":"1_Rep","full_date":"2026-01-27T14:58:09.041Z","date":"2026-01-27","time":"14:58:09"},{"task":"memory_phase","broad_category":"I","image_png":"I_Pumice_08.png","image_id":136,"category_name":"Pumice","category":9,"distinct_rating":3.1,"distinct_type":"Bottom","rt":null,"stimulus":"Stimuli_Rocks480/I_Pumice_08.png","response":null,"trial_type":"image-keyboard-response","trial_index":71,"plugin_version":"2.1.0","time_elapsed":141057,"subject_id":"92597","group":"Group1","condition":"1_Rep","full_date":"2026-01-27T14:58:09.041Z","date":"2026-01-27","time":"14:58:09"},{"rt":null,"stimulus":"<p style=\"font-size: 50px; margin: 0; text-align: center;\">+</p>","response":null,"trial_type":"html-keyboard-response","trial_index":72,"plugin_version":"2.1.0","time_elapsed":142061,"subject_id":"92597","group":"Group1","condition":"1_Rep","full_date":"2026-01-27T14:58:09.041Z","date":"2026-01-27","time":"14:58:09"},{"task":"memory_phase","broad_category":"I","image_png":"I_Andesite_08.png","image_id":8,"category_name":"Andesite","category":1,"distinct_rating":1.95,"distinct_type":"Bottom","rt":null,"stimulus":"Stimuli_Rocks480/I_Andesite_08.png","response":null,"trial_type":"image-keyboard-response","trial_index":73,"plugin_version":"2.1.0","time_elapsed":144576,"subject_id":"92597","group":"Group1","condition":"1_Rep","full_date":"2026-01-27T14:58:09.041Z","date":"2026-01-27","time":"14:58:09"},{"rt":null,"stimulus":"<p style=\"font-size: 50px; margin: 0; text-align: center;\">+</p>","response":null,"trial_type":"html-keyboard-response","trial_index":74,"plugin_version":"2.1.0","time_elapsed":145578,"subject_id":"92597","group":"Group1","condition":"1_Rep","full_date":"2026-01-27T14:58:09.041Z","date":"2026-01-27","time":"14:58:09"},{"task":"memory_phase","broad_category":"I","image_png":"I_Pegmatite_10.png","image_id":106,"category_name":"Pegmatite","category":7,"distinct_rating":7.66,"distinct_type":"Top","rt":null,"stimulus":"Stimuli_Rocks480/I_Pegmatite_10.png","response":null,"trial_type":"image-keyboard-response","trial_index":75,"plugin_version":"2.1.0","time_elapsed":148092,"subject_id":"92597","group":"Group1","condition":"1_Rep","full_date":"2026-01-27T14:58:09.041Z","date":"2026-01-27","time":"14:58:09"},{"rt":null,"stimulus":"<p style=\"font-size: 50px; margin: 0; text-align: center;\">+</p>","response":null,"trial_type":"html-keyboard-response","trial_index":76,"plugin_version":"2.1.0","time_elapsed":149107,"subject_id":"92597","group":"Group1","condition":"1_Rep","full_date":"2026-01-27T14:58:09.041Z","date":"2026-01-27","time":"14:58:09"},{"task":"memory_phase","broad_category":"M","image_png":"M_Slate_03.png","image_id":307,"category_name":"Slate","category":20,"distinct_rating":1.87,"distinct_type":"Bottom","rt":null,"stimulus":"Stimuli_Rocks480/M_Slate_03.png","response":null,"trial_type":"image-keyboard-response","trial_index":77,"plugin_version":"2.1.0","time_elapsed":151623,"subject_id":"92597","group":"Group1","condition":"1_Rep","full_date":"2026-01-27T14:58:09.041Z","date":"2026-01-27","time":"14:58:09"},{"rt":null,"stimulus":"<p style=\"font-size: 50px; margin: 0; text-align: center;\">+</p>","response":null,"trial_type":"html-keyboard-response","trial_index":78,"plugin_version":"2.1.0","time_elapsed":152637,"subject_id":"92597","group":"Group1","condition":"1_Rep","full_date":"2026-01-27T14:58:09.041Z","date":"2026-01-27","time":"14:58:09"},{"task":"memory_phase","broad_category":"M","image_png":"M_Phyllite_03.png","image_id":259,"category_name":"Phyllite","category":17,"distinct_rating":2.5,"distinct_type":"Bottom","rt":null,"stimulus":"Stimuli_Rocks480/M_Phyllite_03.png","response":null,"trial_type":"image-keyboard-response","trial_index":79,"plugin_version":"2.1.0","time_elapsed":155145,"subject_id":"92597","group":"Group1","condition":"1_Rep","full_date":"2026-01-27T14:58:09.041Z","date":"2026-01-27","time":"14:58:09"},{"rt":null,"stimulus":"<p style=\"font-size: 50px; margin: 0; text-align: center;\">+</p>","response":null,"trial_type":"html-keyboard-response","trial_index":80,"plugin_version":"2.1.0","time_elapsed":156160,"subject_id":"92597","group":"Group1","condition":"1_Rep","full_date":"2026-01-27T14:58:09.041Z","date":"2026-01-27","time":"14:58:09"},{"task":"memory_phase","broad_category":"S","image_png":"S_Dolomite_14.png","image_id":398,"category_name":"Dolomite","category":25,"distinct_rating":1.43,"distinct_type":"Bottom","rt":null,"stimulus":"Stimuli_Rocks480/S_Dolomite_14.png","response":null,"trial_type":"image-keyboard-response","trial_index":81,"plugin_version":"2.1.0","time_elapsed":158674,"subject_id":"92597","group":"Group1","condition":"1_Rep","full_date":"2026-01-27T14:58:09.041Z","date":"2026-01-27","time":"14:58:09"},{"rt":null,"stimulus":"<p style=\"font-size: 50px; margin: 0; text-align: center;\">+</p>","response":null,"trial_type":"html-keyboard-response","trial_index":82,"plugin_version":"2.1.0","time_elapsed":159687,"subject_id":"92597","group":"Group1","condition":"1_Rep","full_date":"2026-01-27T14:58:09.041Z","date":"2026-01-27","time":"14:58:09"},{"task":"memory_phase","broad_category":"I","image_png":"I_Rhyolite_16.png","image_id":160,"category_name":"Rhyolite","category":10,"distinct_rating":2.19,"distinct_type":"Bottom","rt":null,"stimulus":"Stimuli_Rocks480/I_Rhyolite_16.png","response":null,"trial_type":"image-keyboard-response","trial_index":83,"plugin_version":"2.1.0","time_elapsed":162191,"subject_id":"92597","group":"Group1","condition":"1_Rep","full_date":"2026-01-27T14:58:09.041Z","date":"2026-01-27","time":"14:58:09"},{"rt":null,"stimulus":"<p style=\"font-size: 50px; margin: 0; text-align: center;\">+</p>","response":null,"trial_type":"html-keyboard-response","trial_index":84,"plugin_version":"2.1.0","time_elapsed":163207,"subject_id":"92597","group":"Group1","condition":"1_Rep","full_date":"2026-01-27T14:58:09.041Z","date":"2026-01-27","time":"14:58:09"},{"task":"memory_phase","broad_category":"S","image_png":"S_Sandstone_03.png","image_id":451,"category_name":"Sandstone","category":29,"distinct_rating":1.86,"distinct_type":"Bottom","rt":null,"stimulus":"Stimuli_Rocks480/S_Sandstone_03.png","response":null,"trial_type":"image-keyboard-response","trial_index":85,"plugin_version":"2.1.0","time_elapsed":165723,"subject_id":"92597","group":"Group1","condition":"1_Rep","full_date":"2026-01-27T14:58:09.041Z","date":"2026-01-27","time":"14:58:09"},{"rt":null,"stimulus":"<p style=\"font-size: 50px; margin: 0; text-align: center;\">+</p>","response":null,"trial_type":"html-keyboard-response","trial_index":86,"plugin_version":"2.1.0","time_elapsed":166726,"subject_id":"92597","group":"Group1","condition":"1_Rep","full_date":"2026-01-27T14:58:09.041Z","date":"2026-01-27","time":"14:58:09"},{"task":"memory_phase","broad_category":"M","image_png":"M_Marble_16.png","image_id":240,"category_name":"Marble","category":15,"distinct_rating":2.57,"distinct_type":"Bottom","rt":null,"stimulus":"Stimuli_Rocks480/M_Marble_16.png","response":null,"trial_type":"image-keyboard-response","trial_index":87,"plugin_version":"2.1.0","time_elapsed":169241,"subject_id":"92597","group":"Group1","condition":"1_Rep","full_date":"2026-01-27T14:58:09.041Z","date":"2026-01-27","time":"14:58:09"},{"rt":null,"stimulus":"<p style=\"font-size: 50px; margin: 0; text-align: center;\">+</p>","response":null,"trial_type":"html-keyboard-response","trial_index":88,"plugin_version":"2.1.0","time_elapsed":170251,"subject_id":"92597","group":"Group1","condition":"1_Rep","full_date":"2026-01-27T14:58:09.041Z","date":"2026-01-27","time":"14:58:09"},{"task":"memory_phase","broad_category":"S","image_png":"S_Rock Salt_01.png","image_id":433,"category_name":"Rock Salt","category":28,"distinct_rating":7.18,"distinct_type":"Top","rt":null,"stimulus":"Stimuli_Rocks480/S_Rock Salt_01.png","response":null,"trial_type":"image-keyboard-response","trial_index":89,"plugin_version":"2.1.0","time_elapsed":172756,"subject_id":"92597","group":"Group1","condition":"1_Rep","full_date":"2026-01-27T14:58:09.041Z","date":"2026-01-27","time":"14:58:09"},{"rt":null,"stimulus":"<p style=\"font-size: 50px; margin: 0; text-align: center;\">+</p>","response":null,"trial_type":"html-keyboard-response","trial_index":90,"plugin_version":"2.1.0","time_elapsed":173765,"subject_id":"92597","group":"Group1","condition":"1_Rep","full_date":"2026-01-27T14:58:09.041Z","date":"2026-01-27","time":"14:58:09"},{"task":"memory_phase","broad_category":"S","image_png":"S_Rock Gypsum_04.png","image_id":420,"category_name":"Rock Gypsum","category":27,"distinct_rating":7.61,"distinct_type":"Top","rt":null,"stimulus":"Stimuli_Rocks480/S_Rock Gypsum_04.png","response":null,"trial_type":"image-keyboard-response","trial_index":91,"plugin_version":"2.1.0","time_elapsed":176280,"subject_id":"92597","group":"Group1","condition":"1_Rep","full_date":"2026-01-27T14:58:09.041Z","date":"2026-01-27","time":"14:58:09"},{"rt":null,"stimulus":"<p style=\"font-size: 50px; margin: 0; text-align: center;\">+</p>","response":null,"trial_type":"html-keyboard-response","trial_index":92,"plugin_version":"2.1.0","time_elapsed":177294,"subject_id":"92597","group":"Group1","condition":"1_Rep","full_date":"2026-01-27T14:58:09.041Z","date":"2026-01-27","time":"14:58:09"},{"task":"memory_phase","broad_category":"I","image_png":"I_Obsidian_05.png","image_id":85,"category_name":"Obsidian","category":6,"distinct_rating":7.32,"distinct_type":"Top","rt":null,"stimulus":"Stimuli_Rocks480/I_Obsidian_05.png","response":null,"trial_type":"image-keyboard-response","trial_index":93,"plugin_version":"2.1.0","time_elapsed":179799,"subject_id":"92597","group":"Group1","condition":"1_Rep","full_date":"2026-01-27T14:58:09.041Z","date":"2026-01-27","time":"14:58:09"},{"rt":null,"stimulus":"<p style=\"font-size: 50px; margin: 0; text-align: center;\">+</p>","response":null,"trial_type":"html-keyboard-response","trial_index":94,"plugin_version":"2.1.0","time_elapsed":180809,"subject_id":"92597","group":"Group1","condition":"1_Rep","full_date":"2026-01-27T14:58:09.041Z","date":"2026-01-27","time":"14:58:09"},{"task":"memory_phase","broad_category":"M","image_png":"M_Slate_11.png","image_id":315,"category_name":"Slate","category":20,"distinct_rating":2.75,"distinct_type":"Bottom","rt":null,"stimulus":"Stimuli_Rocks480/M_Slate_11.png","response":null,"trial_type":"image-keyboard-response","trial_index":95,"plugin_version":"2.1.0","time_elapsed":183314,"subject_id":"92597","group":"Group1","condition":"1_Rep","full_date":"2026-01-27T14:58:09.041Z","date":"2026-01-27","time":"14:58:09"},{"rt":null,"stimulus":"<p style=\"font-size: 50px; margin: 0; text-align: center;\">+</p>","response":null,"trial_type":"html-keyboard-response","trial_index":96,"plugin_version":"2.1.0","time_elapsed":184328,"subject_id":"92597","group":"Group1","condition":"1_Rep","full_date":"2026-01-27T14:58:09.041Z","date":"2026-01-27","time":"14:58:09"},{"task":"memory_phase","broad_category":"M","image_png":"M_Phyllite_10.png","image_id":266,"category_name":"Phyllite","category":17,"distinct_rating":2.6,"distinct_type":"Bottom","rt":null,"stimulus":"Stimuli_Rocks480/M_Phyllite_10.png","response":null,"trial_type":"image-keyboard-response","trial_index":97,"plugin_version":"2.1.0","time_elapsed":186835,"subject_id":"92597","group":"Group1","condition":"1_Rep","full_date":"2026-01-27T14:58:09.041Z","date":"2026-01-27","time":"14:58:09"},{"rt":null,"stimulus":"<p style=\"font-size: 50px; margin: 0; text-align: center;\">+</p>","response":null,"trial_type":"html-keyboard-response","trial_index":98,"plugin_version":"2.1.0","time_elapsed":187841,"subject_id":"92597","group":"Group1","condition":"1_Rep","full_date":"2026-01-27T14:58:09.041Z","date":"2026-01-27","time":"14:58:09"},{"task":"memory_phase","broad_category":"M","image_png":"M_Gneiss_13.png","image_id":205,"category_name":"Gneiss","category":13,"distinct_rating":3.26,"distinct_type":"Bottom","rt":null,"stimulus":"Stimuli_Rocks480/M_Gneiss_13.png","response":null,"trial_type":"image-keyboard-response","trial_index":99,"plugin_version":"2.1.0","time_elapsed":190343,"subject_id":"92597","group":"Group1","condition":"1_Rep","full_date":"2026-01-27T14:58:09.041Z","date":"2026-01-27","time":"14:58:09"},{"rt":null,"stimulus":"<p style=\"font-size: 50px; margin: 0; text-align: center;\">+</p>","response":null,"trial_type":"html-keyboard-response","trial_index":100,"plugin_version":"2.1.0","time_elapsed":191351,"subject_id":"92597","group":"Group1","condition":"1_Rep","full_date":"2026-01-27T14:58:09.041Z","date":"2026-01-27","time":"14:58:09"},{"task":"memory_phase","broad_category":"I","image_png":"I_Pegmatite_16.png","image_id":112,"category_name":"Pegmatite","category":7,"distinct_rating":7.03,"distinct_type":"Top","rt":null,"stimulus":"Stimuli_Rocks480/I_Pegmatite_16.png","response":null,"trial_type":"image-keyboard-response","trial_index":101,"plugin_version":"2.1.0","time_elapsed":193858,"subject_id":"92597","group":"Group1","condition":"1_Rep","full_date":"2026-01-27T14:58:09.041Z","date":"2026-01-27","time":"14:58:09"},{"rt":null,"stimulus":"<p style=\"font-size: 50px; margin: 0; text-align: center;\">+</p>","response":null,"trial_type":"html-keyboard-response","trial_index":102,"plugin_version":"2.1.0","time_elapsed":194859,"subject_id":"92597","group":"Group1","condition":"1_Rep","full_date":"2026-01-27T14:58:09.041Z","date":"2026-01-27","time":"14:58:09"},{"task":"memory_phase","broad_category":"M","image_png":"M_Phyllite_07.png","image_id":263,"category_name":"Phyllite","category":17,"distinct_rating":2.59,"distinct_type":"Bottom","rt":null,"stimulus":"Stimuli_Rocks480/M_Phyllite_07.png","response":null,"trial_type":"image-keyboard-response","trial_index":103,"plugin_version":"2.1.0","time_elapsed":197368,"subject_id":"92597","group":"Group1","condition":"1_Rep","full_date":"2026-01-27T14:58:09.041Z","date":"2026-01-27","time":"14:58:09"},{"rt":null,"stimulus":"<p style=\"font-size: 50px; margin: 0; text-align: center;\">+</p>","response":null,"trial_type":"html-keyboard-response","trial_index":104,"plugin_version":"2.1.0","time_elapsed":198384,"subject_id":"92597","group":"Group1","condition":"1_Rep","full_date":"2026-01-27T14:58:09.041Z","date":"2026-01-27","time":"14:58:09"},{"task":"memory_phase","broad_category":"I","image_png":"I_Gabbro_08.png","image_id":56,"category_name":"Gabbro","category":4,"distinct_rating":3.02,"distinct_type":"Bottom","rt":null,"stimulus":"Stimuli_Rocks480/I_Gabbro_08.png","response":null,"trial_type":"image-keyboard-response","trial_index":105,"plugin_version":"2.1.0","time_elapsed":200897,"subject_id":"92597","group":"Group1","condition":"1_Rep","full_date":"2026-01-27T14:58:09.041Z","date":"2026-01-27","time":"14:58:09"},{"rt":17197,"stimulus":"<div style=\"max-width: 760px; margin: auto; font-size: 20px; line-height: 1.5;\">\n      <h1 style=\"text-align:center; font-size: 30px;\">Instructions for the Test Phase</h1>\n      <p>\n        The study phase is now complete.\n      </p>\n      <p>\n        In the test phase, you will again see a series of rock images. \n        Some will be ones you saw before - during the study phase, while others will be new.  \n        <b>Your task</b> is to decide whether you have seen each image before by pressing the corresponding key on your keyboard:<br><br>\n          <b>A</b> - NO (you did not see this image before)<br>\n          <b>L</b> - YES (you saw this image before)<br><br>\n        The test will proceed at your own pace. You will receive feedback after each response.  \n        Please try to respond <b>as accurately as possible</b>.\n      </p>\n      <p>\n        <b>Reminder:</b> If your computer has multiple language settings (e.g., English and another language),\n        please ensure it is set to English during the test phase.\n      </p>\n      <p>\n        You can track your progress using the <b>completion bar</b> at the top of the screen.  \n        Note that it has been refreshed to reflect your progress during this final phase.\n      </p>\n      <p>\n        Press the button below when you are ready to continue.\n      </p>\n    </div>","response":0,"trial_type":"html-button-response","trial_index":106,"plugin_version":"2.1.0","time_elapsed":218096,"subject_id":"92597","group":"Group1","condition":"1_Rep","full_date":"2026-01-27T14:58:09.041Z","date":"2026-01-27","time":"14:58:09"},{"correct_response":"a","task":"test_phase","broad_category":"I","image_png":"I_Basalt_08.png","image_id":24,"category_name":"Basalt","category":2,"distinct_rating":2.31,"distinct_type":"Bottom","item_type":"Foil","rt":4179,"stimulus":"Stimuli_Rocks480/I_Basalt_08.png","response":"a","trial_type":"image-keyboard-response","trial_index":107,"plugin_version":"2.1.0","time_elapsed":222277,"subject_id":"92597","group":"Group1","condition":"1_Rep","full_date":"2026-01-27T14:58:09.041Z","date":"2026-01-27","time":"14:58:09","cor_ans":true},{"trial_type":"html-keyboard-response","rt":null,"stimulus":"<p style=\"color: green; font-size: 50px; font-weight: bold;\">Correct</p>","response":null,"trial_index":108,"plugin_version":"2.1.0","time_elapsed":222789,"subject_id":"92597","group":"Group1","condition":"1_Rep","full_date":"2026-01-27T14:58:09.041Z","date":"2026-01-27","time":"14:58:09"},{"correct_response":"l","task":"test_phase","broad_category":"M","image_png":"M_Phyllite_10.png","image_id":266,"category_name":"Phyllite","category":17,"distinct_rating":2.6,"distinct_type":"Bottom","item_type":"Target","rt":1423,"stimulus":"Stimuli_Rocks480/M_Phyllite_10.png","response":"l","trial_type":"image-keyboard-response","trial_index":109,"plugin_version":"2.1.0","time_elapsed":224214,"subject_id":"92597","group":"Group1","condition":"1_Rep","full_date":"2026-01-27T14:58:09.041Z","date":"2026-01-27","time":"14:58:09","cor_ans":true},{"trial_type":"html-keyboard-response","rt":null,"stimulus":"<p style=\"color: green; font-size: 50px; font-weight: bold;\">Correct</p>","response":null,"trial_index":110,"plugin_version":"2.1.0","time_elapsed":224715,"subject_id":"92597","group":"Group1","condition":"1_Rep","full_date":"2026-01-27T14:58:09.041Z","date":"2026-01-27","time":"14:58:09"},{"correct_response":"l","task":"test_phase","broad_category":"M","image_png":"M_Slate_15.png","image_id":319,"category_name":"Slate","category":20,"distinct_rating":2.13,"distinct_type":"Bottom","item_type":"Target","rt":886,"stimulus":"Stimuli_Rocks480/M_Slate_15.png","response":"l","trial_type":"image-keyboard-response","trial_index":111,"plugin_version":"2.1.0","time_elapsed":225602,"subject_id":"92597","group":"Group1","condition":"1_Rep","full_date":"2026-01-27T14:58:09.041Z","date":"2026-01-27","time":"14:58:09","cor_ans":true},{"trial_type":"html-keyboard-response","rt":null,"stimulus":"<p style=\"color: green; font-size: 50px; font-weight: bold;\">Correct</p>","response":null,"trial_index":112,"plugin_version":"2.1.0","time_elapsed":226117,"subject_id":"92597","group":"Group1","condition":"1_Rep","full_date":"2026-01-27T14:58:09.041Z","date":"2026-01-27","time":"14:58:09"},{"correct_response":"a","task":"test_phase","broad_category":"I","image_png":"I_Pumice_14.png","image_id":142,"category_name":"Pumice","category":9,"distinct_rating":3.22,"distinct_type":"Bottom","item_type":"Foil","rt":1301,"stimulus":"Stimuli_Rocks480/I_Pumice_14.png","response":"a","trial_type":"image-keyboard-response","trial_index":113,"plugin_version":"2.1.0","time_elapsed":227419,"subject_id":"92597","group":"Group1","condition":"1_Rep","full_date":"2026-01-27T14:58:09.041Z","date":"2026-01-27","time":"14:58:09","cor_ans":true},{"trial_type":"html-keyboard-response","rt":null,"stimulus":"<p style=\"color: green; font-size: 50px; font-weight: bold;\">Correct</p>","response":null,"trial_index":114,"plugin_version":"2.1.0","time_elapsed":227924,"subject_id":"92597","group":"Group1","condition":"1_Rep","full_date":"2026-01-27T14:58:09.041Z","date":"2026-01-27","time":"14:58:09"},{"correct_response":"l","task":"test_phase","broad_category":"M","image_png":"M_Slate_03.png","image_id":307,"category_name":"Slate","category":20,"distinct_rating":1.87,"distinct_type":"Bottom","item_type":"Target","rt":1238,"stimulus":"Stimuli_Rocks480/M_Slate_03.png","response":"l","trial_type":"image-keyboard-response","trial_index":115,"plugin_version":"2.1.0","time_elapsed":229163,"subject_id":"92597","group":"Group1","condition":"1_Rep","full_date":"2026-01-27T14:58:09.041Z","date":"2026-01-27","time":"14:58:09","cor_ans":true},{"trial_type":"html-keyboard-response","rt":null,"stimulus":"<p style=\"color: green; font-size: 50px; font-weight: bold;\">Correct</p>","response":null,"trial_index":116,"plugin_version":"2.1.0","time_elapsed":229665,"subject_id":"92597","group":"Group1","condition":"1_Rep","full_date":"2026-01-27T14:58:09.041Z","date":"2026-01-27","time":"14:58:09"},{"correct_response":"a","task":"test_phase","broad_category":"S","image_png":"S_Chert_13.png","image_id":365,"category_name":"Chert","category":23,"distinct_rating":6.57,"distinct_type":"Top","item_type":"Foil","rt":950,"stimulus":"Stimuli_Rocks480/S_Chert_13.png","response":"a","trial_type":"image-keyboard-response","trial_index":117,"plugin_version":"2.1.0","time_elapsed":230617,"subject_id":"92597","group":"Group1","condition":"1_Rep","full_date":"2026-01-27T14:58:09.041Z","date":"2026-01-27","time":"14:58:09","cor_ans":true},{"trial_type":"html-keyboard-response","rt":null,"stimulus":"<p style=\"color: green; font-size: 50px; font-weight: bold;\">Correct</p>","response":null,"trial_index":118,"plugin_version":"2.1.0","time_elapsed":231118,"subject_id":"92597","group":"Group1","condition":"1_Rep","full_date":"2026-01-27T14:58:09.041Z","date":"2026-01-27","time":"14:58:09"},{"correct_response":"l","task":"test_phase","broad_category":"M","image_png":"M_Gneiss_13.png","image_id":205,"category_name":"Gneiss","category":13,"distinct_rating":3.26,"distinct_type":"Bottom","item_type":"Target","rt":994,"stimulus":"Stimuli_Rocks480/M_Gneiss_13.png","response":"l","trial_type":"image-keyboard-response","trial_index":119,"plugin_version":"2.1.0","time_elapsed":232113,"subject_id":"92597","group":"Group1","condition":"1_Rep","full_date":"2026-01-27T14:58:09.041Z","date":"2026-01-27","time":"14:58:09","cor_ans":true},{"trial_type":"html-keyboard-response","rt":null,"stimulus":"<p style=\"color: green; font-size: 50px; font-weight: bold;\">Correct</p>","response":null,"trial_index":120,"plugin_version":"2.1.0","time_elapsed":232615,"subject_id":"92597","group":"Group1","condition":"1_Rep","full_date":"2026-01-27T14:58:09.041Z","date":"2026-01-27","time":"14:58:09"},{"correct_response":"a","task":"test_phase","broad_category":"S","image_png":"S_Shale_03.png","image_id":467,"category_name":"Shale","category":30,"distinct_rating":1.95,"distinct_type":"Bottom","item_type":"Foil","rt":830,"stimulus":"Stimuli_Rocks480/S_Shale_03.png","response":"a","trial_type":"image-keyboard-response","trial_index":121,"plugin_version":"2.1.0","time_elapsed":233446,"subject_id":"92597","group":"Group1","condition":"1_Rep","full_date":"2026-01-27T14:58:09.041Z","date":"2026-01-27","time":"14:58:09","cor_ans":true},{"trial_type":"html-keyboard-response","rt":null,"stimulus":"<p style=\"color: green; font-size: 50px; font-weight: bold;\">Correct</p>","response":null,"trial_index":122,"plugin_version":"2.1.0","time_elapsed":233954,"subject_id":"92597","group":"Group1","condition":"1_Rep","full_date":"2026-01-27T14:58:09.041Z","date":"2026-01-27","time":"14:58:09"},{"correct_response":"a","task":"test_phase","broad_category":"I","image_png":"I_Pegmatite_11.png","image_id":107,"category_name":"Pegmatite","category":7,"distinct_rating":7.11,"distinct_type":"Top","item_type":"Foil","rt":947,"stimulus":"Stimuli_Rocks480/I_Pegmatite_11.png","response":"a","trial_type":"image-keyboard-response","trial_index":123,"plugin_version":"2.1.0","time_elapsed":234902,"subject_id":"92597","group":"Group1","condition":"1_Rep","full_date":"2026-01-27T14:58:09.041Z","date":"2026-01-27","time":"14:58:09","cor_ans":true},{"trial_type":"html-keyboard-response","rt":null,"stimulus":"<p style=\"color: green; font-size: 50px; font-weight: bold;\">Correct</p>","response":null,"trial_index":124,"plugin_version":"2.1.0","time_elapsed":235408,"subject_id":"92597","group":"Group1","condition":"1_Rep","full_date":"2026-01-27T14:58:09.041Z","date":"2026-01-27","time":"14:58:09"},{"correct_response":"l","task":"test_phase","broad_category":"S","image_png":"S_Dolomite_13.png","image_id":397,"category_name":"Dolomite","category":25,"distinct_rating":1.77,"distinct_type":"Bottom","item_type":"Target","rt":1382,"stimulus":"Stimuli_Rocks480/S_Dolomite_13.png","response":"a","trial_type":"image-keyboard-response","trial_index":125,"plugin_version":"2.1.0","time_elapsed":236791,"subject_id":"92597","group":"Group1","condition":"1_Rep","full_date":"2026-01-27T14:58:09.041Z","date":"2026-01-27","time":"14:58:09","cor_ans":false},{"trial_type":"html-keyboard-response","rt":null,"stimulus":"<p style=\"color: red; font-size: 50px; font-weight: bold;\">Incorrect</p>","response":null,"trial_index":126,"plugin_version":"2.1.0","time_elapsed":237307,"subject_id":"92597","group":"Group1","condition":"1_Rep","full_date":"2026-01-27T14:58:09.041Z","date":"2026-01-27","time":"14:58:09"},{"correct_response":"a","task":"test_phase","broad_category":"I","image_png":"I_Obsidian_06.png","image_id":86,"category_name":"Obsidian","category":6,"distinct_rating":8.01,"distinct_type":"Top","item_type":"Foil","rt":799,"stimulus":"Stimuli_Rocks480/I_Obsidian_06.png","response":"a","trial_type":"image-keyboard-response","trial_index":127,"plugin_version":"2.1.0","time_elapsed":238107,"subject_id":"92597","group":"Group1","condition":"1_Rep","full_date":"2026-01-27T14:58:09.041Z","date":"2026-01-27","time":"14:58:09","cor_ans":true},{"trial_type":"html-keyboard-response","rt":null,"stimulus":"<p style=\"color: green; font-size: 50px; font-weight: bold;\">Correct</p>","response":null,"trial_index":128,"plugin_version":"2.1.0","time_elapsed":238617,"subject_id":"92597","group":"Group1","condition":"1_Rep","full_date":"2026-01-27T14:58:09.041Z","date":"2026-01-27","time":"14:58:09"},{"correct_response":"l","task":"test_phase","broad_category":"M","image_png":"M_Phyllite_03.png","image_id":259,"category_name":"Phyllite","category":17,"distinct_rating":2.5,"distinct_type":"Bottom","item_type":"Target","rt":971,"stimulus":"Stimuli_Rocks480/M_Phyllite_03.png","response":"a","trial_type":"image-keyboard-response","trial_index":129,"plugin_version":"2.1.0","time_elapsed":239589,"subject_id":"92597","group":"Group1","condition":"1_Rep","full_date":"2026-01-27T14:58:09.041Z","date":"2026-01-27","time":"14:58:09","cor_ans":false},{"trial_type":"html-keyboard-response","rt":null,"stimulus":"<p style=\"color: red; font-size: 50px; font-weight: bold;\">Incorrect</p>","response":null,"trial_index":130,"plugin_version":"2.1.0","time_elapsed":240102,"subject_id":"92597","group":"Group1","condition":"1_Rep","full_date":"2026-01-27T14:58:09.041Z","date":"2026-01-27","time":"14:58:09"},{"correct_response":"l","task":"test_phase","broad_category":"M","image_png":"M_Quartzite_05.png","image_id":277,"category_name":"Quartzite","category":18,"distinct_rating":2.23,"distinct_type":"Bottom","item_type":"Target","rt":885,"stimulus":"Stimuli_Rocks480/M_Quartzite_05.png","response":"a","trial_type":"image-keyboard-response","trial_index":131,"plugin_version":"2.1.0","time_elapsed":240988,"subject_id":"92597","group":"Group1","condition":"1_Rep","full_date":"2026-01-27T14:58:09.041Z","date":"2026-01-27","time":"14:58:09","cor_ans":false},{"trial_type":"html-keyboard-response","rt":null,"stimulus":"<p style=\"color: red; font-size: 50px; font-weight: bold;\">Incorrect</p>","response":null,"trial_index":132,"plugin_version":"2.1.0","time_elapsed":241503,"subject_id":"92597","group":"Group1","condition":"1_Rep","full_date":"2026-01-27T14:58:09.041Z","date":"2026-01-27","time":"14:58:09"},{"correct_response":"l","task":"test_phase","broad_category":"I","image_png":"I_Pegmatite_10.png","image_id":106,"category_name":"Pegmatite","category":7,"distinct_rating":7.66,"distinct_type":"Top","item_type":"Target","rt":691,"stimulus":"Stimuli_Rocks480/I_Pegmatite_10.png","response":"l","trial_type":"image-keyboard-response","trial_index":133,"plugin_version":"2.1.0","time_elapsed":242195,"subject_id":"92597","group":"Group1","condition":"1_Rep","full_date":"2026-01-27T14:58:09.041Z","date":"2026-01-27","time":"14:58:09","cor_ans":true},{"trial_type":"html-keyboard-response","rt":null,"stimulus":"<p style=\"color: green; font-size: 50px; font-weight: bold;\">Correct</p>","response":null,"trial_index":134,"plugin_version":"2.1.0","time_elapsed":242698,"subject_id":"92597","group":"Group1","condition":"1_Rep","full_date":"2026-01-27T14:58:09.041Z","date":"2026-01-27","time":"14:58:09"},{"correct_response":"l","task":"test_phase","broad_category":"S","image_png":"S_Shale_12.png","image_id":476,"category_name":"Shale","category":30,"distinct_rating":2.48,"distinct_type":"Bottom","item_type":"Target","rt":725,"stimulus":"Stimuli_Rocks480/S_Shale_12.png","response":"l","trial_type":"image-keyboard-response","trial_index":135,"plugin_version":"2.1.0","time_elapsed":243424,"subject_id":"92597","group":"Group1","condition":"1_Rep","full_date":"2026-01-27T14:58:09.041Z","date":"2026-01-27","time":"14:58:09","cor_ans":true},{"trial_type":"html-keyboard-response","rt":null,"stimulus":"<p style=\"color: green; font-size: 50px; font-weight: bold;\">Correct</p>","response":null,"trial_index":136,"plugin_version":"2.1.0","time_elapsed":243941,"subject_id":"92597","group":"Group1","condition":"1_Rep","full_date":"2026-01-27T14:58:09.041Z","date":"2026-01-27","time":"14:58:09"},{"correct_response":"l","task":"test_phase","broad_category":"I","image_png":"I_Rhyolite_11.png","image_id":155,"category_name":"Rhyolite","category":10,"distinct_rating":1.73,"distinct_type":"Bottom","item_type":"Target","rt":734,"stimulus":"Stimuli_Rocks480/I_Rhyolite_11.png","response":"l","trial_type":"image-keyboard-response","trial_index":137,"plugin_version":"2.1.0","time_elapsed":244676,"subject_id":"92597","group":"Group1","condition":"1_Rep","full_date":"2026-01-27T14:58:09.041Z","date":"2026-01-27","time":"14:58:09","cor_ans":true},{"trial_type":"html-keyboard-response","rt":null,"stimulus":"<p style=\"color: green; font-size: 50px; font-weight: bold;\">Correct</p>","response":null,"trial_index":138,"plugin_version":"2.1.0","time_elapsed":245178,"subject_id":"92597","group":"Group1","condition":"1_Rep","full_date":"2026-01-27T14:58:09.041Z","date":"2026-01-27","time":"14:58:09"},{"correct_response":"a","task":"test_phase","broad_category":"M","image_png":"M_Slate_14.png","image_id":318,"category_name":"Slate","category":20,"distinct_rating":2.58,"distinct_type":"Bottom","item_type":"Foil","rt":692,"stimulus":"Stimuli_Rocks480/M_Slate_14.png","response":"l","trial_type":"image-keyboard-response","trial_index":139,"plugin_version":"2.1.0","time_elapsed":245871,"subject_id":"92597","group":"Group1","condition":"1_Rep","full_date":"2026-01-27T14:58:09.041Z","date":"2026-01-27","time":"14:58:09","cor_ans":false},{"trial_type":"html-keyboard-response","rt":null,"stimulus":"<p style=\"color: red; font-size: 50px; font-weight: bold;\">Incorrect</p>","response":null,"trial_index":140,"plugin_version":"2.1.0","time_elapsed":246376,"subject_id":"92597","group":"Group1","condition":"1_Rep","full_date":"2026-01-27T14:58:09.041Z","date":"2026-01-27","time":"14:58:09"},{"correct_response":"l","task":"test_phase","broad_category":"M","image_png":"M_Gneiss_05.png","image_id":197,"category_name":"Gneiss","category":13,"distinct_rating":2.97,"distinct_type":"Bottom","item_type":"Target","rt":1613,"stimulus":"Stimuli_Rocks480/M_Gneiss_05.png","response":"l","trial_type":"image-keyboard-response","trial_index":141,"plugin_version":"2.1.0","time_elapsed":247990,"subject_id":"92597","group":"Group1","condition":"1_Rep","full_date":"2026-01-27T14:58:09.041Z","date":"2026-01-27","time":"14:58:09","cor_ans":true},{"trial_type":"html-keyboard-response","rt":null,"stimulus":"<p style=\"color: green; font-size: 50px; font-weight: bold;\">Correct</p>","response":null,"trial_index":142,"plugin_version":"2.1.0","time_elapsed":248506,"subject_id":"92597","group":"Group1","condition":"1_Rep","full_date":"2026-01-27T14:58:09.041Z","date":"2026-01-27","time":"14:58:09"},{"correct_response":"a","task":"test_phase","broad_category":"I","image_png":"I_Andesite_04.png","image_id":4,"category_name":"Andesite","category":1,"distinct_rating":3.18,"distinct_type":"Bottom","item_type":"Foil","rt":892,"stimulus":"Stimuli_Rocks480/I_Andesite_04.png","response":"l","trial_type":"image-keyboard-response","trial_index":143,"plugin_version":"2.1.0","time_elapsed":249399,"subject_id":"92597","group":"Group1","condition":"1_Rep","full_date":"2026-01-27T14:58:09.041Z","date":"2026-01-27","time":"14:58:09","cor_ans":false},{"trial_type":"html-keyboard-response","rt":null,"stimulus":"<p style=\"color: red; font-size: 50px; font-weight: bold;\">Incorrect</p>","response":null,"trial_index":144,"plugin_version":"2.1.0","time_elapsed":249908,"subject_id":"92597","group":"Group1","condition":"1_Rep","full_date":"2026-01-27T14:58:09.041Z","date":"2026-01-27","time":"14:58:09"},{"correct_response":"l","task":"test_phase","broad_category":"M","image_png":"M_Quartzite_13.png","image_id":285,"category_name":"Quartzite","category":18,"distinct_rating":2.27,"distinct_type":"Bottom","item_type":"Target","rt":1494,"stimulus":"Stimuli_Rocks480/M_Quartzite_13.png","response":"a","trial_type":"image-keyboard-response","trial_index":145,"plugin_version":"2.1.0","time_elapsed":251403,"subject_id":"92597","group":"Group1","condition":"1_Rep","full_date":"2026-01-27T14:58:09.041Z","date":"2026-01-27","time":"14:58:09","cor_ans":false},{"trial_type":"html-keyboard-response","rt":null,"stimulus":"<p style=\"color: red; font-size: 50px; font-weight: bold;\">Incorrect</p>","response":null,"trial_index":146,"plugin_version":"2.1.0","time_elapsed":251904,"subject_id":"92597","group":"Group1","condition":"1_Rep","full_date":"2026-01-27T14:58:09.041Z","date":"2026-01-27","time":"14:58:09"},{"correct_response":"l","task":"test_phase","broad_category":"I","image_png":"I_Basalt_02.png","image_id":18,"category_name":"Basalt","category":2,"distinct_rating":1.84,"distinct_type":"Bottom","item_type":"Target","rt":1337,"stimulus":"Stimuli_Rocks480/I_Basalt_02.png","response":"l","trial_type":"image-keyboard-response","trial_index":147,"plugin_version":"2.1.0","time_elapsed":253242,"subject_id":"92597","group":"Group1","condition":"1_Rep","full_date":"2026-01-27T14:58:09.041Z","date":"2026-01-27","time":"14:58:09","cor_ans":true},{"trial_type":"html-keyboard-response","rt":null,"stimulus":"<p style=\"color: green; font-size: 50px; font-weight: bold;\">Correct</p>","response":null,"trial_index":148,"plugin_version":"2.1.0","time_elapsed":253745,"subject_id":"92597","group":"Group1","condition":"1_Rep","full_date":"2026-01-27T14:58:09.041Z","date":"2026-01-27","time":"14:58:09"},{"correct_response":"a","task":"test_phase","broad_category":"I","image_png":"I_Rhyolite_10.png","image_id":154,"category_name":"Rhyolite","category":10,"distinct_rating":2.88,"distinct_type":"Bottom","item_type":"Foil","rt":1107,"stimulus":"Stimuli_Rocks480/I_Rhyolite_10.png","response":"l","trial_type":"image-keyboard-response","trial_index":149,"plugin_version":"2.1.0","time_elapsed":254853,"subject_id":"92597","group":"Group1","condition":"1_Rep","full_date":"2026-01-27T14:58:09.041Z","date":"2026-01-27","time":"14:58:09","cor_ans":false},{"trial_type":"html-keyboard-response","rt":null,"stimulus":"<p style=\"color: red; font-size: 50px; font-weight: bold;\">Incorrect</p>","response":null,"trial_index":150,"plugin_version":"2.1.0","time_elapsed":255355,"subject_id":"92597","group":"Group1","condition":"1_Rep","full_date":"2026-01-27T14:58:09.041Z","date":"2026-01-27","time":"14:58:09"},{"correct_response":"a","task":"test_phase","broad_category":"M","image_png":"M_Marble_02.png","image_id":226,"category_name":"Marble","category":15,"distinct_rating":3.2,"distinct_type":"Bottom","item_type":"Foil","rt":1209,"stimulus":"Stimuli_Rocks480/M_Marble_02.png","response":"l","trial_type":"image-keyboard-response","trial_index":151,"plugin_version":"2.1.0","time_elapsed":256565,"subject_id":"92597","group":"Group1","condition":"1_Rep","full_date":"2026-01-27T14:58:09.041Z","date":"2026-01-27","time":"14:58:09","cor_ans":false},{"trial_type":"html-keyboard-response","rt":null,"stimulus":"<p style=\"color: red; font-size: 50px; font-weight: bold;\">Incorrect</p>","response":null,"trial_index":152,"plugin_version":"2.1.0","time_elapsed":257066,"subject_id":"92597","group":"Group1","condition":"1_Rep","full_date":"2026-01-27T14:58:09.041Z","date":"2026-01-27","time":"14:58:09"},{"correct_response":"l","task":"test_phase","broad_category":"I","image_png":"I_Rhyolite_16.png","image_id":160,"category_name":"Rhyolite","category":10,"distinct_rating":2.19,"distinct_type":"Bottom","item_type":"Target","rt":1263,"stimulus":"Stimuli_Rocks480/I_Rhyolite_16.png","response":"l","trial_type":"image-keyboard-response","trial_index":153,"plugin_version":"2.1.0","time_elapsed":258331,"subject_id":"92597","group":"Group1","condition":"1_Rep","full_date":"2026-01-27T14:58:09.041Z","date":"2026-01-27","time":"14:58:09","cor_ans":true},{"trial_type":"html-keyboard-response","rt":null,"stimulus":"<p style=\"color: green; font-size: 50px; font-weight: bold;\">Correct</p>","response":null,"trial_index":154,"plugin_version":"2.1.0","time_elapsed":258836,"subject_id":"92597","group":"Group1","condition":"1_Rep","full_date":"2026-01-27T14:58:09.041Z","date":"2026-01-27","time":"14:58:09"},{"correct_response":"a","task":"test_phase","broad_category":"M","image_png":"M_Phyllite_05.png","image_id":261,"category_name":"Phyllite","category":17,"distinct_rating":2.14,"distinct_type":"Bottom","item_type":"Foil","rt":1285,"stimulus":"Stimuli_Rocks480/M_Phyllite_05.png","response":"a","trial_type":"image-keyboard-response","trial_index":155,"plugin_version":"2.1.0","time_elapsed":260122,"subject_id":"92597","group":"Group1","condition":"1_Rep","full_date":"2026-01-27T14:58:09.041Z","date":"2026-01-27","time":"14:58:09","cor_ans":true},{"trial_type":"html-keyboard-response","rt":null,"stimulus":"<p style=\"color: green; font-size: 50px; font-weight: bold;\">Correct</p>","response":null,"trial_index":156,"plugin_version":"2.1.0","time_elapsed":260623,"subject_id":"92597","group":"Group1","condition":"1_Rep","full_date":"2026-01-27T14:58:09.041Z","date":"2026-01-27","time":"14:58:09"},{"correct_response":"l","task":"test_phase","broad_category":"I","image_png":"I_Gabbro_11.png","image_id":59,"category_name":"Gabbro","category":4,"distinct_rating":1.99,"distinct_type":"Bottom","item_type":"Target","rt":2204,"stimulus":"Stimuli_Rocks480/I_Gabbro_11.png","response":"a","trial_type":"image-keyboard-response","trial_index":157,"plugin_version":"2.1.0","time_elapsed":262828,"subject_id":"92597","group":"Group1","condition":"1_Rep","full_date":"2026-01-27T14:58:09.041Z","date":"2026-01-27","time":"14:58:09","cor_ans":false},{"trial_type":"html-keyboard-response","rt":null,"stimulus":"<p style=\"color: red; font-size: 50px; font-weight: bold;\">Incorrect</p>","response":null,"trial_index":158,"plugin_version":"2.1.0","time_elapsed":263330,"subject_id":"92597","group":"Group1","condition":"1_Rep","full_date":"2026-01-27T14:58:09.041Z","date":"2026-01-27","time":"14:58:09"},{"correct_response":"l","task":"test_phase","broad_category":"S","image_png":"S_Shale_01.png","image_id":465,"category_name":"Shale","category":30,"distinct_rating":2.7,"distinct_type":"Bottom","item_type":"Target","rt":916,"stimulus":"Stimuli_Rocks480/S_Shale_01.png","response":"l","trial_type":"image-keyboard-response","trial_index":159,"plugin_version":"2.1.0","time_elapsed":264247,"subject_id":"92597","group":"Group1","condition":"1_Rep","full_date":"2026-01-27T14:58:09.041Z","date":"2026-01-27","time":"14:58:09","cor_ans":true},{"trial_type":"html-keyboard-response","rt":null,"stimulus":"<p style=\"color: green; font-size: 50px; font-weight: bold;\">Correct</p>","response":null,"trial_index":160,"plugin_version":"2.1.0","time_elapsed":264757,"subject_id":"92597","group":"Group1","condition":"1_Rep","full_date":"2026-01-27T14:58:09.041Z","date":"2026-01-27","time":"14:58:09"},{"correct_response":"a","task":"test_phase","broad_category":"M","image_png":"M_Gneiss_15.png","image_id":207,"category_name":"Gneiss","category":13,"distinct_rating":3.11,"distinct_type":"Bottom","item_type":"Foil","rt":1332,"stimulus":"Stimuli_Rocks480/M_Gneiss_15.png","response":"a","trial_type":"image-keyboard-response","trial_index":161,"plugin_version":"2.1.0","time_elapsed":266090,"subject_id":"92597","group":"Group1","condition":"1_Rep","full_date":"2026-01-27T14:58:09.041Z","date":"2026-01-27","time":"14:58:09","cor_ans":true},{"trial_type":"html-keyboard-response","rt":null,"stimulus":"<p style=\"color: green; font-size: 50px; font-weight: bold;\">Correct</p>","response":null,"trial_index":162,"plugin_version":"2.1.0","time_elapsed":266606,"subject_id":"92597","group":"Group1","condition":"1_Rep","full_date":"2026-01-27T14:58:09.041Z","date":"2026-01-27","time":"14:58:09"},{"correct_response":"a","task":"test_phase","broad_category":"S","image_png":"S_Rock Salt_13.png","image_id":445,"category_name":"Rock Salt","category":28,"distinct_rating":7.58,"distinct_type":"Top","item_type":"Foil","rt":979,"stimulus":"Stimuli_Rocks480/S_Rock Salt_13.png","response":"a","trial_type":"image-keyboard-response","trial_index":163,"plugin_version":"2.1.0","time_elapsed":267586,"subject_id":"92597","group":"Group1","condition":"1_Rep","full_date":"2026-01-27T14:58:09.041Z","date":"2026-01-27","time":"14:58:09","cor_ans":true},{"trial_type":"html-keyboard-response","rt":null,"stimulus":"<p style=\"color: green; font-size: 50px; font-weight: bold;\">Correct</p>","response":null,"trial_index":164,"plugin_version":"2.1.0","time_elapsed":268088,"subject_id":"92597","group":"Group1","condition":"1_Rep","full_date":"2026-01-27T14:58:09.041Z","date":"2026-01-27","time":"14:58:09"},{"correct_response":"a","task":"test_phase","broad_category":"S","image_png":"S_Dolomite_07.png","image_id":391,"category_name":"Dolomite","category":25,"distinct_rating":1.73,"distinct_type":"Bottom","item_type":"Foil","rt":4139,"stimulus":"Stimuli_Rocks480/S_Dolomite_07.png","response":"a","trial_type":"image-keyboard-response","trial_index":165,"plugin_version":"2.1.0","time_elapsed":272228,"subject_id":"92597","group":"Group1","condition":"1_Rep","full_date":"2026-01-27T14:58:09.041Z","date":"2026-01-27","time":"14:58:09","cor_ans":true},{"trial_type":"html-keyboard-response","rt":null,"stimulus":"<p style=\"color: green; font-size: 50px; font-weight: bold;\">Correct</p>","response":null,"trial_index":166,"plugin_version":"2.1.0","time_elapsed":272741,"subject_id":"92597","group":"Group1","condition":"1_Rep","full_date":"2026-01-27T14:58:09.041Z","date":"2026-01-27","time":"14:58:09"},{"correct_response":"l","task":"test_phase","broad_category":"I","image_png":"I_Andesite_08.png","image_id":8,"category_name":"Andesite","category":1,"distinct_rating":1.95,"distinct_type":"Bottom","item_type":"Target","rt":1817,"stimulus":"Stimuli_Rocks480/I_Andesite_08.png","response":"a","trial_type":"image-keyboard-response","trial_index":167,"plugin_version":"2.1.0","time_elapsed":274559,"subject_id":"92597","group":"Group1","condition":"1_Rep","full_date":"2026-01-27T14:58:09.041Z","date":"2026-01-27","time":"14:58:09","cor_ans":false},{"trial_type":"html-keyboard-response","rt":null,"stimulus":"<p style=\"color: red; font-size: 50px; font-weight: bold;\">Incorrect</p>","response":null,"trial_index":168,"plugin_version":"2.1.0","time_elapsed":275063,"subject_id":"92597","group":"Group1","condition":"1_Rep","full_date":"2026-01-27T14:58:09.041Z","date":"2026-01-27","time":"14:58:09"},{"correct_response":"a","task":"test_phase","broad_category":"M","image_png":"M_Quartzite_12.png","image_id":284,"category_name":"Quartzite","category":18,"distinct_rating":1.92,"distinct_type":"Bottom","item_type":"Foil","rt":1328,"stimulus":"Stimuli_Rocks480/M_Quartzite_12.png","response":"a","trial_type":"image-keyboard-response","trial_index":169,"plugin_version":"2.1.0","time_elapsed":276393,"subject_id":"92597","group":"Group1","condition":"1_Rep","full_date":"2026-01-27T14:58:09.041Z","date":"2026-01-27","time":"14:58:09","cor_ans":true},{"trial_type":"html-keyboard-response","rt":null,"stimulus":"<p style=\"color: green; font-size: 50px; font-weight: bold;\">Correct</p>","response":null,"trial_index":170,"plugin_version":"2.1.0","time_elapsed":276895,"subject_id":"92597","group":"Group1","condition":"1_Rep","full_date":"2026-01-27T14:58:09.041Z","date":"2026-01-27","time":"14:58:09"},{"correct_response":"l","task":"test_phase","broad_category":"S","image_png":"S_Conglomerate_05.png","image_id":373,"category_name":"Conglomerate","category":24,"distinct_rating":7.32,"distinct_type":"Top","item_type":"Target","rt":843,"stimulus":"Stimuli_Rocks480/S_Conglomerate_05.png","response":"l","trial_type":"image-keyboard-response","trial_index":171,"plugin_version":"2.1.0","time_elapsed":277739,"subject_id":"92597","group":"Group1","condition":"1_Rep","full_date":"2026-01-27T14:58:09.041Z","date":"2026-01-27","time":"14:58:09","cor_ans":true},{"trial_type":"html-keyboard-response","rt":null,"stimulus":"<p style=\"color: green; font-size: 50px; font-weight: bold;\">Correct</p>","response":null,"trial_index":172,"plugin_version":"2.1.0","time_elapsed":278244,"subject_id":"92597","group":"Group1","condition":"1_Rep","full_date":"2026-01-27T14:58:09.041Z","date":"2026-01-27","time":"14:58:09"},{"correct_response":"l","task":"test_phase","broad_category":"M","image_png":"M_Marble_16.png","image_id":240,"category_name":"Marble","category":15,"distinct_rating":2.57,"distinct_type":"Bottom","item_type":"Target","rt":2221,"stimulus":"Stimuli_Rocks480/M_Marble_16.png","response":"a","trial_type":"image-keyboard-response","trial_index":173,"plugin_version":"2.1.0","time_elapsed":280466,"subject_id":"92597","group":"Group1","condition":"1_Rep","full_date":"2026-01-27T14:58:09.041Z","date":"2026-01-27","time":"14:58:09","cor_ans":false},{"trial_type":"html-keyboard-response","rt":null,"stimulus":"<p style=\"color: red; font-size: 50px; font-weight: bold;\">Incorrect</p>","response":null,"trial_index":174,"plugin_version":"2.1.0","time_elapsed":280975,"subject_id":"92597","group":"Group1","condition":"1_Rep","full_date":"2026-01-27T14:58:09.041Z","date":"2026-01-27","time":"14:58:09"},{"correct_response":"a","task":"test_phase","broad_category":"I","image_png":"I_Basalt_10.png","image_id":26,"category_name":"Basalt","category":2,"distinct_rating":2.76,"distinct_type":"Bottom","item_type":"Foil","rt":955,"stimulus":"Stimuli_Rocks480/I_Basalt_10.png","response":"a","trial_type":"image-keyboard-response","trial_index":175,"plugin_version":"2.1.0","time_elapsed":281931,"subject_id":"92597","group":"Group1","condition":"1_Rep","full_date":"2026-01-27T14:58:09.041Z","date":"2026-01-27","time":"14:58:09","cor_ans":true},{"trial_type":"html-keyboard-response","rt":null,"stimulus":"<p style=\"color: green; font-size: 50px; font-weight: bold;\">Correct</p>","response":null,"trial_index":176,"plugin_version":"2.1.0","time_elapsed":282442,"subject_id":"92597","group":"Group1","condition":"1_Rep","full_date":"2026-01-27T14:58:09.041Z","date":"2026-01-27","time":"14:58:09"},{"correct_response":"a","task":"test_phase","broad_category":"I","image_png":"I_Peridotite_13.png","image_id":125,"category_name":"Peridotite","category":8,"distinct_rating":7.28,"distinct_type":"Top","item_type":"Foil","rt":1534,"stimulus":"Stimuli_Rocks480/I_Peridotite_13.png","response":"a","trial_type":"image-keyboard-response","trial_index":177,"plugin_version":"2.1.0","time_elapsed":283977,"subject_id":"92597","group":"Group1","condition":"1_Rep","full_date":"2026-01-27T14:58:09.041Z","date":"2026-01-27","time":"14:58:09","cor_ans":true},{"trial_type":"html-keyboard-response","rt":null,"stimulus":"<p style=\"color: green; font-size: 50px; font-weight: bold;\">Correct</p>","response":null,"trial_index":178,"plugin_version":"2.1.0","time_elapsed":284478,"subject_id":"92597","group":"Group1","condition":"1_Rep","full_date":"2026-01-27T14:58:09.041Z","date":"2026-01-27","time":"14:58:09"},{"correct_response":"a","task":"test_phase","broad_category":"I","image_png":"I_Pumice_01.png","image_id":129,"category_name":"Pumice","category":9,"distinct_rating":3.25,"distinct_type":"Bottom","item_type":"Foil","rt":1300,"stimulus":"Stimuli_Rocks480/I_Pumice_01.png","response":"a","trial_type":"image-keyboard-response","trial_index":179,"plugin_version":"2.1.0","time_elapsed":285780,"subject_id":"92597","group":"Group1","condition":"1_Rep","full_date":"2026-01-27T14:58:09.041Z","date":"2026-01-27","time":"14:58:09","cor_ans":true},{"trial_type":"html-keyboard-response","rt":null,"stimulus":"<p style=\"color: green; font-size: 50px; font-weight: bold;\">Correct</p>","response":null,"trial_index":180,"plugin_version":"2.1.0","time_elapsed":286295,"subject_id":"92597","group":"Group1","condition":"1_Rep","full_date":"2026-01-27T14:58:09.041Z","date":"2026-01-27","time":"14:58:09"},{"correct_response":"a","task":"test_phase","broad_category":"I","image_png":"I_Diorite_10.png","image_id":42,"category_name":"Diorite","category":3,"distinct_rating":2.84,"distinct_type":"Bottom","item_type":"Foil","rt":1495,"stimulus":"Stimuli_Rocks480/I_Diorite_10.png","response":"a","trial_type":"image-keyboard-response","trial_index":181,"plugin_version":"2.1.0","time_elapsed":287791,"subject_id":"92597","group":"Group1","condition":"1_Rep","full_date":"2026-01-27T14:58:09.041Z","date":"2026-01-27","time":"14:58:09","cor_ans":true},{"trial_type":"html-keyboard-response","rt":null,"stimulus":"<p style=\"color: green; font-size: 50px; font-weight: bold;\">Correct</p>","response":null,"trial_index":182,"plugin_version":"2.1.0","time_elapsed":288291,"subject_id":"92597","group":"Group1","condition":"1_Rep","full_date":"2026-01-27T14:58:09.041Z","date":"2026-01-27","time":"14:58:09"},{"correct_response":"l","task":"test_phase","broad_category":"I","image_png":"I_Diorite_03.png","image_id":35,"category_name":"Diorite","category":3,"distinct_rating":3.14,"distinct_type":"Bottom","item_type":"Target","rt":854,"stimulus":"Stimuli_Rocks480/I_Diorite_03.png","response":"l","trial_type":"image-keyboard-response","trial_index":183,"plugin_version":"2.1.0","time_elapsed":289147,"subject_id":"92597","group":"Group1","condition":"1_Rep","full_date":"2026-01-27T14:58:09.041Z","date":"2026-01-27","time":"14:58:09","cor_ans":true},{"trial_type":"html-keyboard-response","rt":null,"stimulus":"<p style=\"color: green; font-size: 50px; font-weight: bold;\">Correct</p>","response":null,"trial_index":184,"plugin_version":"2.1.0","time_elapsed":289661,"subject_id":"92597","group":"Group1","condition":"1_Rep","full_date":"2026-01-27T14:58:09.041Z","date":"2026-01-27","time":"14:58:09"},{"correct_response":"l","task":"test_phase","broad_category":"M","image_png":"M_Marble_06.png","image_id":230,"category_name":"Marble","category":15,"distinct_rating":3.4,"distinct_type":"Bottom","item_type":"Target","rt":798,"stimulus":"Stimuli_Rocks480/M_Marble_06.png","response":"l","trial_type":"image-keyboard-response","trial_index":185,"plugin_version":"2.1.0","time_elapsed":290460,"subject_id":"92597","group":"Group1","condition":"1_Rep","full_date":"2026-01-27T14:58:09.041Z","date":"2026-01-27","time":"14:58:09","cor_ans":true},{"trial_type":"html-keyboard-response","rt":null,"stimulus":"<p style=\"color: green; font-size: 50px; font-weight: bold;\">Correct</p>","response":null,"trial_index":186,"plugin_version":"2.1.0","time_elapsed":290975,"subject_id":"92597","group":"Group1","condition":"1_Rep","full_date":"2026-01-27T14:58:09.041Z","date":"2026-01-27","time":"14:58:09"},{"correct_response":"l","task":"test_phase","broad_category":"S","image_png":"S_Sandstone_16.png","image_id":464,"category_name":"Sandstone","category":29,"distinct_rating":1.93,"distinct_type":"Bottom","item_type":"Target","rt":764,"stimulus":"Stimuli_Rocks480/S_Sandstone_16.png","response":"l","trial_type":"image-keyboard-response","trial_index":187,"plugin_version":"2.1.0","time_elapsed":291740,"subject_id":"92597","group":"Group1","condition":"1_Rep","full_date":"2026-01-27T14:58:09.041Z","date":"2026-01-27","time":"14:58:09","cor_ans":true},{"trial_type":"html-keyboard-response","rt":null,"stimulus":"<p style=\"color: green; font-size: 50px; font-weight: bold;\">Correct</p>","response":null,"trial_index":188,"plugin_version":"2.1.0","time_elapsed":292252,"subject_id":"92597","group":"Group1","condition":"1_Rep","full_date":"2026-01-27T14:58:09.041Z","date":"2026-01-27","time":"14:58:09"},{"correct_response":"a","task":"test_phase","broad_category":"I","image_png":"I_Rhyolite_08.png","image_id":152,"category_name":"Rhyolite","category":10,"distinct_rating":1.38,"distinct_type":"Bottom","item_type":"Foil","rt":2898,"stimulus":"Stimuli_Rocks480/I_Rhyolite_08.png","response":"a","trial_type":"image-keyboard-response","trial_index":189,"plugin_version":"2.1.0","time_elapsed":295151,"subject_id":"92597","group":"Group1","condition":"1_Rep","full_date":"2026-01-27T14:58:09.041Z","date":"2026-01-27","time":"14:58:09","cor_ans":true},{"trial_type":"html-keyboard-response","rt":null,"stimulus":"<p style=\"color: green; font-size: 50px; font-weight: bold;\">Correct</p>","response":null,"trial_index":190,"plugin_version":"2.1.0","time_elapsed":295656,"subject_id":"92597","group":"Group1","condition":"1_Rep","full_date":"2026-01-27T14:58:09.041Z","date":"2026-01-27","time":"14:58:09"},{"correct_response":"l","task":"test_phase","broad_category":"S","image_png":"S_Shale_08.png","image_id":472,"category_name":"Shale","category":30,"distinct_rating":2.55,"distinct_type":"Bottom","item_type":"Target","rt":1067,"stimulus":"Stimuli_Rocks480/S_Shale_08.png","response":"l","trial_type":"image-keyboard-response","trial_index":191,"plugin_version":"2.1.0","time_elapsed":296724,"subject_id":"92597","group":"Group1","condition":"1_Rep","full_date":"2026-01-27T14:58:09.041Z","date":"2026-01-27","time":"14:58:09","cor_ans":true},{"trial_type":"html-keyboard-response","rt":null,"stimulus":"<p style=\"color: green; font-size: 50px; font-weight: bold;\">Correct</p>","response":null,"trial_index":192,"plugin_version":"2.1.0","time_elapsed":297231,"subject_id":"92597","group":"Group1","condition":"1_Rep","full_date":"2026-01-27T14:58:09.041Z","date":"2026-01-27","time":"14:58:09"},{"correct_response":"l","task":"test_phase","broad_category":"S","image_png":"S_Breccia_11.png","image_id":347,"category_name":"Breccia","category":22,"distinct_rating":6.7,"distinct_type":"Top","item_type":"Target","rt":879,"stimulus":"Stimuli_Rocks480/S_Breccia_11.png","response":"l","trial_type":"image-keyboard-response","trial_index":193,"plugin_version":"2.1.0","time_elapsed":298111,"subject_id":"92597","group":"Group1","condition":"1_Rep","full_date":"2026-01-27T14:58:09.041Z","date":"2026-01-27","time":"14:58:09","cor_ans":true},{"trial_type":"html-keyboard-response","rt":null,"stimulus":"<p style=\"color: green; font-size: 50px; font-weight: bold;\">Correct</p>","response":null,"trial_index":194,"plugin_version":"2.1.0","time_elapsed":298614,"subject_id":"92597","group":"Group1","condition":"1_Rep","full_date":"2026-01-27T14:58:09.041Z","date":"2026-01-27","time":"14:58:09"},{"correct_response":"a","task":"test_phase","broad_category":"I","image_png":"I_Gabbro_14.png","image_id":62,"category_name":"Gabbro","category":4,"distinct_rating":2.95,"distinct_type":"Bottom","item_type":"Foil","rt":4452,"stimulus":"Stimuli_Rocks480/I_Gabbro_14.png","response":"a","trial_type":"image-keyboard-response","trial_index":195,"plugin_version":"2.1.0","time_elapsed":303069,"subject_id":"92597","group":"Group1","condition":"1_Rep","full_date":"2026-01-27T14:58:09.041Z","date":"2026-01-27","time":"14:58:09","cor_ans":true},{"trial_type":"html-keyboard-response","rt":null,"stimulus":"<p style=\"color: green; font-size: 50px; font-weight: bold;\">Correct</p>","response":null,"trial_index":196,"plugin_version":"2.1.0","time_elapsed":303582,"subject_id":"92597","group":"Group1","condition":"1_Rep","full_date":"2026-01-27T14:58:09.041Z","date":"2026-01-27","time":"14:58:09"},{"correct_response":"a","task":"test_phase","broad_category":"S","image_png":"S_Sandstone_08.png","image_id":456,"category_name":"Sandstone","category":29,"distinct_rating":1.5,"distinct_type":"Bottom","item_type":"Foil","rt":1417,"stimulus":"Stimuli_Rocks480/S_Sandstone_08.png","response":"a","trial_type":"image-keyboard-response","trial_index":197,"plugin_version":"2.1.0","time_elapsed":305000,"subject_id":"92597","group":"Group1","condition":"1_Rep","full_date":"2026-01-27T14:58:09.041Z","date":"2026-01-27","time":"14:58:09","cor_ans":true},{"trial_type":"html-keyboard-response","rt":null,"stimulus":"<p style=\"color: green; font-size: 50px; font-weight: bold;\">Correct</p>","response":null,"trial_index":198,"plugin_version":"2.1.0","time_elapsed":305517,"subject_id":"92597","group":"Group1","condition":"1_Rep","full_date":"2026-01-27T14:58:09.041Z","date":"2026-01-27","time":"14:58:09"},{"correct_response":"a","task":"test_phase","broad_category":"M","image_png":"M_Marble_03.png","image_id":227,"category_name":"Marble","category":15,"distinct_rating":2.67,"distinct_type":"Bottom","item_type":"Foil","rt":894,"stimulus":"Stimuli_Rocks480/M_Marble_03.png","response":"a","trial_type":"image-keyboard-response","trial_index":199,"plugin_version":"2.1.0","time_elapsed":306411,"subject_id":"92597","group":"Group1","condition":"1_Rep","full_date":"2026-01-27T14:58:09.041Z","date":"2026-01-27","time":"14:58:09","cor_ans":true},{"trial_type":"html-keyboard-response","rt":null,"stimulus":"<p style=\"color: green; font-size: 50px; font-weight: bold;\">Correct</p>","response":null,"trial_index":200,"plugin_version":"2.1.0","time_elapsed":306919,"subject_id":"92597","group":"Group1","condition":"1_Rep","full_date":"2026-01-27T14:58:09.041Z","date":"2026-01-27","time":"14:58:09"},{"correct_response":"a","task":"test_phase","broad_category":"S","image_png":"S_Shale_07.png","image_id":471,"category_name":"Shale","category":30,"distinct_rating":2.73,"distinct_type":"Bottom","item_type":"Foil","rt":1010,"stimulus":"Stimuli_Rocks480/S_Shale_07.png","response":"a","trial_type":"image-keyboard-response","trial_index":201,"plugin_version":"2.1.0","time_elapsed":307930,"subject_id":"92597","group":"Group1","condition":"1_Rep","full_date":"2026-01-27T14:58:09.041Z","date":"2026-01-27","time":"14:58:09","cor_ans":true},{"trial_type":"html-keyboard-response","rt":null,"stimulus":"<p style=\"color: green; font-size: 50px; font-weight: bold;\">Correct</p>","response":null,"trial_index":202,"plugin_version":"2.1.0","time_elapsed":308438,"subject_id":"92597","group":"Group1","condition":"1_Rep","full_date":"2026-01-27T14:58:09.041Z","date":"2026-01-27","time":"14:58:09"},{"correct_response":"l","task":"test_phase","broad_category":"I","image_png":"I_Andesite_06.png","image_id":6,"category_name":"Andesite","category":1,"distinct_rating":3.17,"distinct_type":"Bottom","item_type":"Target","rt":706,"stimulus":"Stimuli_Rocks480/I_Andesite_06.png","response":"l","trial_type":"image-keyboard-response","trial_index":203,"plugin_version":"2.1.0","time_elapsed":309145,"subject_id":"92597","group":"Group1","condition":"1_Rep","full_date":"2026-01-27T14:58:09.041Z","date":"2026-01-27","time":"14:58:09","cor_ans":true},{"trial_type":"html-keyboard-response","rt":null,"stimulus":"<p style=\"color: green; font-size: 50px; font-weight: bold;\">Correct</p>","response":null,"trial_index":204,"plugin_version":"2.1.0","time_elapsed":309659,"subject_id":"92597","group":"Group1","condition":"1_Rep","full_date":"2026-01-27T14:58:09.041Z","date":"2026-01-27","time":"14:58:09"},{"correct_response":"l","task":"test_phase","broad_category":"I","image_png":"I_Diorite_04.png","image_id":36,"category_name":"Diorite","category":3,"distinct_rating":2.98,"distinct_type":"Bottom","item_type":"Target","rt":2400,"stimulus":"Stimuli_Rocks480/I_Diorite_04.png","response":"a","trial_type":"image-keyboard-response","trial_index":205,"plugin_version":"2.1.0","time_elapsed":312060,"subject_id":"92597","group":"Group1","condition":"1_Rep","full_date":"2026-01-27T14:58:09.041Z","date":"2026-01-27","time":"14:58:09","cor_ans":false},{"trial_type":"html-keyboard-response","rt":null,"stimulus":"<p style=\"color: red; font-size: 50px; font-weight: bold;\">Incorrect</p>","response":null,"trial_index":206,"plugin_version":"2.1.0","time_elapsed":312564,"subject_id":"92597","group":"Group1","condition":"1_Rep","full_date":"2026-01-27T14:58:09.041Z","date":"2026-01-27","time":"14:58:09"},{"correct_response":"a","task":"test_phase","broad_category":"M","image_png":"M_Marble_14.png","image_id":238,"category_name":"Marble","category":15,"distinct_rating":3.31,"distinct_type":"Bottom","item_type":"Foil","rt":1094,"stimulus":"Stimuli_Rocks480/M_Marble_14.png","response":"a","trial_type":"image-keyboard-response","trial_index":207,"plugin_version":"2.1.0","time_elapsed":313659,"subject_id":"92597","group":"Group1","condition":"1_Rep","full_date":"2026-01-27T14:58:09.041Z","date":"2026-01-27","time":"14:58:09","cor_ans":true},{"trial_type":"html-keyboard-response","rt":null,"stimulus":"<p style=\"color: green; font-size: 50px; font-weight: bold;\">Correct</p>","response":null,"trial_index":208,"plugin_version":"2.1.0","time_elapsed":314165,"subject_id":"92597","group":"Group1","condition":"1_Rep","full_date":"2026-01-27T14:58:09.041Z","date":"2026-01-27","time":"14:58:09"},{"correct_response":"a","task":"test_phase","broad_category":"S","image_png":"S_Sandstone_04.png","image_id":452,"category_name":"Sandstone","category":29,"distinct_rating":1.8,"distinct_type":"Bottom","item_type":"Foil","rt":1541,"stimulus":"Stimuli_Rocks480/S_Sandstone_04.png","response":"a","trial_type":"image-keyboard-response","trial_index":209,"plugin_version":"2.1.0","time_elapsed":315708,"subject_id":"92597","group":"Group1","condition":"1_Rep","full_date":"2026-01-27T14:58:09.041Z","date":"2026-01-27","time":"14:58:09","cor_ans":true},{"trial_type":"html-keyboard-response","rt":null,"stimulus":"<p style=\"color: green; font-size: 50px; font-weight: bold;\">Correct</p>","response":null,"trial_index":210,"plugin_version":"2.1.0","time_elapsed":316214,"subject_id":"92597","group":"Group1","condition":"1_Rep","full_date":"2026-01-27T14:58:09.041Z","date":"2026-01-27","time":"14:58:09"},{"correct_response":"a","task":"test_phase","broad_category":"M","image_png":"M_Gneiss_14.png","image_id":206,"category_name":"Gneiss","category":13,"distinct_rating":3.41,"distinct_type":"Bottom","item_type":"Foil","rt":847,"stimulus":"Stimuli_Rocks480/M_Gneiss_14.png","response":"a","trial_type":"image-keyboard-response","trial_index":211,"plugin_version":"2.1.0","time_elapsed":317062,"subject_id":"92597","group":"Group1","condition":"1_Rep","full_date":"2026-01-27T14:58:09.041Z","date":"2026-01-27","time":"14:58:09","cor_ans":true},{"trial_type":"html-keyboard-response","rt":null,"stimulus":"<p style=\"color: green; font-size: 50px; font-weight: bold;\">Correct</p>","response":null,"trial_index":212,"plugin_version":"2.1.0","time_elapsed":317573,"subject_id":"92597","group":"Group1","condition":"1_Rep","full_date":"2026-01-27T14:58:09.041Z","date":"2026-01-27","time":"14:58:09"},{"correct_response":"l","task":"test_phase","broad_category":"I","image_png":"I_Andesite_10.png","image_id":10,"category_name":"Andesite","category":1,"distinct_rating":3.15,"distinct_type":"Bottom","item_type":"Target","rt":1345,"stimulus":"Stimuli_Rocks480/I_Andesite_10.png","response":"l","trial_type":"image-keyboard-response","trial_index":213,"plugin_version":"2.1.0","time_elapsed":318919,"subject_id":"92597","group":"Group1","condition":"1_Rep","full_date":"2026-01-27T14:58:09.041Z","date":"2026-01-27","time":"14:58:09","cor_ans":true},{"trial_type":"html-keyboard-response","rt":null,"stimulus":"<p style=\"color: green; font-size: 50px; font-weight: bold;\">Correct</p>","response":null,"trial_index":214,"plugin_version":"2.1.0","time_elapsed":319434,"subject_id":"92597","group":"Group1","condition":"1_Rep","full_date":"2026-01-27T14:58:09.041Z","date":"2026-01-27","time":"14:58:09"},{"correct_response":"a","task":"test_phase","broad_category":"M","image_png":"M_Quartzite_07.png","image_id":279,"category_name":"Quartzite","category":18,"distinct_rating":1.97,"distinct_type":"Bottom","item_type":"Foil","rt":4290,"stimulus":"Stimuli_Rocks480/M_Quartzite_07.png","response":"a","trial_type":"image-keyboard-response","trial_index":215,"plugin_version":"2.1.0","time_elapsed":323725,"subject_id":"92597","group":"Group1","condition":"1_Rep","full_date":"2026-01-27T14:58:09.041Z","date":"2026-01-27","time":"14:58:09","cor_ans":true},{"trial_type":"html-keyboard-response","rt":null,"stimulus":"<p style=\"color: green; font-size: 50px; font-weight: bold;\">Correct</p>","response":null,"trial_index":216,"plugin_version":"2.1.0","time_elapsed":324227,"subject_id":"92597","group":"Group1","condition":"1_Rep","full_date":"2026-01-27T14:58:09.041Z","date":"2026-01-27","time":"14:58:09"},{"correct_response":"l","task":"test_phase","broad_category":"I","image_png":"I_Gabbro_16.png","image_id":64,"category_name":"Gabbro","category":4,"distinct_rating":2.52,"distinct_type":"Bottom","item_type":"Target","rt":1244,"stimulus":"Stimuli_Rocks480/I_Gabbro_16.png","response":"l","trial_type":"image-keyboard-response","trial_index":217,"plugin_version":"2.1.0","time_elapsed":325472,"subject_id":"92597","group":"Group1","condition":"1_Rep","full_date":"2026-01-27T14:58:09.041Z","date":"2026-01-27","time":"14:58:09","cor_ans":true},{"trial_type":"html-keyboard-response","rt":null,"stimulus":"<p style=\"color: green; font-size: 50px; font-weight: bold;\">Correct</p>","response":null,"trial_index":218,"plugin_version":"2.1.0","time_elapsed":325985,"subject_id":"92597","group":"Group1","condition":"1_Rep","full_date":"2026-01-27T14:58:09.041Z","date":"2026-01-27","time":"14:58:09"},{"correct_response":"l","task":"test_phase","broad_category":"S","image_png":"S_Dolomite_14.png","image_id":398,"category_name":"Dolomite","category":25,"distinct_rating":1.43,"distinct_type":"Bottom","item_type":"Target","rt":4201,"stimulus":"Stimuli_Rocks480/S_Dolomite_14.png","response":"l","trial_type":"image-keyboard-response","trial_index":219,"plugin_version":"2.1.0","time_elapsed":330187,"subject_id":"92597","group":"Group1","condition":"1_Rep","full_date":"2026-01-27T14:58:09.041Z","date":"2026-01-27","time":"14:58:09","cor_ans":true},{"trial_type":"html-keyboard-response","rt":null,"stimulus":"<p style=\"color: green; font-size: 50px; font-weight: bold;\">Correct</p>","response":null,"trial_index":220,"plugin_version":"2.1.0","time_elapsed":330698,"subject_id":"92597","group":"Group1","condition":"1_Rep","full_date":"2026-01-27T14:58:09.041Z","date":"2026-01-27","time":"14:58:09"},{"correct_response":"l","task":"test_phase","broad_category":"M","image_png":"M_Gneiss_06.png","image_id":198,"category_name":"Gneiss","category":13,"distinct_rating":2.65,"distinct_type":"Bottom","item_type":"Target","rt":957,"stimulus":"Stimuli_Rocks480/M_Gneiss_06.png","response":"a","trial_type":"image-keyboard-response","trial_index":221,"plugin_version":"2.1.0","time_elapsed":331656,"subject_id":"92597","group":"Group1","condition":"1_Rep","full_date":"2026-01-27T14:58:09.041Z","date":"2026-01-27","time":"14:58:09","cor_ans":false},{"trial_type":"html-keyboard-response","rt":null,"stimulus":"<p style=\"color: red; font-size: 50px; font-weight: bold;\">Incorrect</p>","response":null,"trial_index":222,"plugin_version":"2.1.0","time_elapsed":332159,"subject_id":"92597","group":"Group1","condition":"1_Rep","full_date":"2026-01-27T14:58:09.041Z","date":"2026-01-27","time":"14:58:09"},{"correct_response":"a","task":"test_phase","broad_category":"I","image_png":"I_Gabbro_12.png","image_id":60,"category_name":"Gabbro","category":4,"distinct_rating":2.6,"distinct_type":"Bottom","item_type":"Foil","rt":1357,"stimulus":"Stimuli_Rocks480/I_Gabbro_12.png","response":"a","trial_type":"image-keyboard-response","trial_index":223,"plugin_version":"2.1.0","time_elapsed":333518,"subject_id":"92597","group":"Group1","condition":"1_Rep","full_date":"2026-01-27T14:58:09.041Z","date":"2026-01-27","time":"14:58:09","cor_ans":true},{"trial_type":"html-keyboard-response","rt":null,"stimulus":"<p style=\"color: green; font-size: 50px; font-weight: bold;\">Correct</p>","response":null,"trial_index":224,"plugin_version":"2.1.0","time_elapsed":334025,"subject_id":"92597","group":"Group1","condition":"1_Rep","full_date":"2026-01-27T14:58:09.041Z","date":"2026-01-27","time":"14:58:09"},{"correct_response":"l","task":"test_phase","broad_category":"I","image_png":"I_Pumice_11.png","image_id":1