[{"width":1358,"height":602,"webaudio":true,"browser":"edge-chromium","browser_version":"144.0.0","mobile":false,"os":"Windows 10","fullscreen":true,"vsync_rate":60.03,"webcam":true,"microphone":true,"trial_type":"browser-check","trial_index":0,"plugin_version":"2.1.0","time_elapsed":8941,"subject_id":"90626","group":"Group1","condition":"1_Rep","full_date":"2026-01-31T22:33:36.973Z","date":"2026-01-31","time":"22:33:36"},{"success":true,"timeout":false,"failed_images":[],"failed_audio":[],"failed_video":[],"trial_type":"preload","trial_index":1,"plugin_version":"2.1.0","time_elapsed":11066,"subject_id":"90626","group":"Group1","condition":"1_Rep","full_date":"2026-01-31T22:33:36.973Z","date":"2026-01-31","time":"22:33:36"},{"rt":36481,"url":"SONA_consent_memorability.html","trial_type":"external-html","trial_index":2,"plugin_version":"2.1.0","time_elapsed":47605,"subject_id":"90626","group":"Group1","condition":"1_Rep","full_date":"2026-01-31T22:33:36.973Z","date":"2026-01-31","time":"22:33:36"},{"success":true,"rt":11874,"trial_type":"fullscreen","trial_index":3,"plugin_version":"2.1.0","time_elapsed":60488,"subject_id":"90626","group":"Group1","condition":"1_Rep","full_date":"2026-01-31T22:33:36.973Z","date":"2026-01-31","time":"22:33:36"},{"rt":35908,"stimulus":"<div style=\"max-width: 760px; margin: auto; font-size: 20px; line-height: 1.5;\">\n      <h1 style=\"text-align:center; font-size: 30px;\">Instructions</h1>\n      <p>\n        Welcome to the study on <b>visual memory</b>. This experiment consists of <b>two phases</b>: \n        a <b>study phase</b> and a <b>test phase</b>.\n      </p>\n      <p>\n        In the study phase, you will see a series of rock images along with their category labels.\n        The images will appear one at a time.\n        <b>Your task</b> is to learn the categories to which the rock images belong \n        and to remember each image as accurately as possible.\n      </p> \n      <p>\n        Note that you will see each image only <b>once</b> during the study phase. \n          So, please pay close attention and try to remember each image carefully.\n      </p>\n      <p>\n        After the study phase, <b>your memory will be tested</b>. \n        Additional instructions for the test phase will be provided at that time.\n      </p>\n      <p>\n        If your computer has multiple <b>language settings</b> (e.g., English and another language),\n        please make sure it is set to English before starting.\n      </p>\n      <p>\n        You can track your progress using the <b>completion bar</b> at the top of the screen. \n        Please note that the bar will refresh when the test phase begins \n        to give you an accurate sense of your progress in both phases.\n      </p> \n      <p>\n        Press the button below when you are ready to begin.\n      </p>\n    </div>","response":0,"trial_type":"html-button-response","trial_index":4,"plugin_version":"2.1.0","time_elapsed":96400,"subject_id":"90626","group":"Group1","condition":"1_Rep","full_date":"2026-01-31T22:33:36.973Z","date":"2026-01-31","time":"22:33:36"},{"rt":null,"stimulus":"<p style=\"font-size: 50px; margin: 0; text-align: center;\">+</p>","response":null,"trial_type":"html-keyboard-response","trial_index":5,"plugin_version":"2.1.0","time_elapsed":97409,"subject_id":"90626","group":"Group1","condition":"1_Rep","full_date":"2026-01-31T22:33:36.973Z","date":"2026-01-31","time":"22:33:36"},{"task":"memory_phase","broad_category":"S","image_png":"S_Rock Gypsum_04.png","image_id":420,"category_name":"Rock Gypsum","category":27,"distinct_rating":7.61,"distinct_type":"Top","rt":null,"stimulus":"Stimuli_Rocks480/S_Rock Gypsum_04.png","response":null,"trial_type":"image-keyboard-response","trial_index":6,"plugin_version":"2.1.0","time_elapsed":99918,"subject_id":"90626","group":"Group1","condition":"1_Rep","full_date":"2026-01-31T22:33:36.973Z","date":"2026-01-31","time":"22:33:36"},{"rt":null,"stimulus":"<p style=\"font-size: 50px; margin: 0; text-align: center;\">+</p>","response":null,"trial_type":"html-keyboard-response","trial_index":7,"plugin_version":"2.1.0","time_elapsed":100927,"subject_id":"90626","group":"Group1","condition":"1_Rep","full_date":"2026-01-31T22:33:36.973Z","date":"2026-01-31","time":"22:33:36"},{"task":"memory_phase","broad_category":"M","image_png":"M_Slate_15.png","image_id":319,"category_name":"Slate","category":20,"distinct_rating":2.13,"distinct_type":"Bottom","rt":null,"stimulus":"Stimuli_Rocks480/M_Slate_15.png","response":null,"trial_type":"image-keyboard-response","trial_index":8,"plugin_version":"2.1.0","time_elapsed":103443,"subject_id":"90626","group":"Group1","condition":"1_Rep","full_date":"2026-01-31T22:33:36.973Z","date":"2026-01-31","time":"22:33:36"},{"rt":null,"stimulus":"<p style=\"font-size: 50px; margin: 0; text-align: center;\">+</p>","response":null,"trial_type":"html-keyboard-response","trial_index":9,"plugin_version":"2.1.0","time_elapsed":104454,"subject_id":"90626","group":"Group1","condition":"1_Rep","full_date":"2026-01-31T22:33:36.973Z","date":"2026-01-31","time":"22:33:36"},{"task":"memory_phase","broad_category":"S","image_png":"S_Breccia_11.png","image_id":347,"category_name":"Breccia","category":22,"distinct_rating":6.7,"distinct_type":"Top","rt":null,"stimulus":"Stimuli_Rocks480/S_Breccia_11.png","response":null,"trial_type":"image-keyboard-response","trial_index":10,"plugin_version":"2.1.0","time_elapsed":106969,"subject_id":"90626","group":"Group1","condition":"1_Rep","full_date":"2026-01-31T22:33:36.973Z","date":"2026-01-31","time":"22:33:36"},{"rt":null,"stimulus":"<p style=\"font-size: 50px; margin: 0; text-align: center;\">+</p>","response":null,"trial_type":"html-keyboard-response","trial_index":11,"plugin_version":"2.1.0","time_elapsed":107983,"subject_id":"90626","group":"Group1","condition":"1_Rep","full_date":"2026-01-31T22:33:36.973Z","date":"2026-01-31","time":"22:33:36"},{"task":"memory_phase","broad_category":"S","image_png":"S_Conglomerate_05.png","image_id":373,"category_name":"Conglomerate","category":24,"distinct_rating":7.32,"distinct_type":"Top","rt":null,"stimulus":"Stimuli_Rocks480/S_Conglomerate_05.png","response":null,"trial_type":"image-keyboard-response","trial_index":12,"plugin_version":"2.1.0","time_elapsed":110497,"subject_id":"90626","group":"Group1","condition":"1_Rep","full_date":"2026-01-31T22:33:36.973Z","date":"2026-01-31","time":"22:33:36"},{"rt":null,"stimulus":"<p style=\"font-size: 50px; margin: 0; text-align: center;\">+</p>","response":null,"trial_type":"html-keyboard-response","trial_index":13,"plugin_version":"2.1.0","time_elapsed":111508,"subject_id":"90626","group":"Group1","condition":"1_Rep","full_date":"2026-01-31T22:33:36.973Z","date":"2026-01-31","time":"22:33:36"},{"task":"memory_phase","broad_category":"S","image_png":"S_Dolomite_14.png","image_id":398,"category_name":"Dolomite","category":25,"distinct_rating":1.43,"distinct_type":"Bottom","rt":null,"stimulus":"Stimuli_Rocks480/S_Dolomite_14.png","response":null,"trial_type":"image-keyboard-response","trial_index":14,"plugin_version":"2.1.0","time_elapsed":114016,"subject_id":"90626","group":"Group1","condition":"1_Rep","full_date":"2026-01-31T22:33:36.973Z","date":"2026-01-31","time":"22:33:36"},{"rt":null,"stimulus":"<p style=\"font-size: 50px; margin: 0; text-align: center;\">+</p>","response":null,"trial_type":"html-keyboard-response","trial_index":15,"plugin_version":"2.1.0","time_elapsed":115030,"subject_id":"90626","group":"Group1","condition":"1_Rep","full_date":"2026-01-31T22:33:36.973Z","date":"2026-01-31","time":"22:33:36"},{"task":"memory_phase","broad_category":"M","image_png":"M_Slate_11.png","image_id":315,"category_name":"Slate","category":20,"distinct_rating":2.75,"distinct_type":"Bottom","rt":null,"stimulus":"Stimuli_Rocks480/M_Slate_11.png","response":null,"trial_type":"image-keyboard-response","trial_index":16,"plugin_version":"2.1.0","time_elapsed":117538,"subject_id":"90626","group":"Group1","condition":"1_Rep","full_date":"2026-01-31T22:33:36.973Z","date":"2026-01-31","time":"22:33:36"},{"rt":null,"stimulus":"<p style=\"font-size: 50px; margin: 0; text-align: center;\">+</p>","response":null,"trial_type":"html-keyboard-response","trial_index":17,"plugin_version":"2.1.0","time_elapsed":118550,"subject_id":"90626","group":"Group1","condition":"1_Rep","full_date":"2026-01-31T22:33:36.973Z","date":"2026-01-31","time":"22:33:36"},{"task":"memory_phase","broad_category":"M","image_png":"M_Marble_06.png","image_id":230,"category_name":"Marble","category":15,"distinct_rating":3.4,"distinct_type":"Bottom","rt":null,"stimulus":"Stimuli_Rocks480/M_Marble_06.png","response":null,"trial_type":"image-keyboard-response","trial_index":18,"plugin_version":"2.1.0","time_elapsed":121063,"subject_id":"90626","group":"Group1","condition":"1_Rep","full_date":"2026-01-31T22:33:36.973Z","date":"2026-01-31","time":"22:33:36"},{"rt":null,"stimulus":"<p style=\"font-size: 50px; margin: 0; text-align: center;\">+</p>","response":null,"trial_type":"html-keyboard-response","trial_index":19,"plugin_version":"2.1.0","time_elapsed":122076,"subject_id":"90626","group":"Group1","condition":"1_Rep","full_date":"2026-01-31T22:33:36.973Z","date":"2026-01-31","time":"22:33:36"},{"task":"memory_phase","broad_category":"M","image_png":"M_Gneiss_05.png","image_id":197,"category_name":"Gneiss","category":13,"distinct_rating":2.97,"distinct_type":"Bottom","rt":null,"stimulus":"Stimuli_Rocks480/M_Gneiss_05.png","response":null,"trial_type":"image-keyboard-response","trial_index":20,"plugin_version":"2.1.0","time_elapsed":124586,"subject_id":"90626","group":"Group1","condition":"1_Rep","full_date":"2026-01-31T22:33:36.973Z","date":"2026-01-31","time":"22:33:36"},{"rt":null,"stimulus":"<p style=\"font-size: 50px; margin: 0; text-align: center;\">+</p>","response":null,"trial_type":"html-keyboard-response","trial_index":21,"plugin_version":"2.1.0","time_elapsed":125603,"subject_id":"90626","group":"Group1","condition":"1_Rep","full_date":"2026-01-31T22:33:36.973Z","date":"2026-01-31","time":"22:33:36"},{"task":"memory_phase","broad_category":"M","image_png":"M_Phyllite_07.png","image_id":263,"category_name":"Phyllite","category":17,"distinct_rating":2.59,"distinct_type":"Bottom","rt":null,"stimulus":"Stimuli_Rocks480/M_Phyllite_07.png","response":null,"trial_type":"image-keyboard-response","trial_index":22,"plugin_version":"2.1.0","time_elapsed":128109,"subject_id":"90626","group":"Group1","condition":"1_Rep","full_date":"2026-01-31T22:33:36.973Z","date":"2026-01-31","time":"22:33:36"},{"rt":null,"stimulus":"<p style=\"font-size: 50px; margin: 0; text-align: center;\">+</p>","response":null,"trial_type":"html-keyboard-response","trial_index":23,"plugin_version":"2.1.0","time_elapsed":129113,"subject_id":"90626","group":"Group1","condition":"1_Rep","full_date":"2026-01-31T22:33:36.973Z","date":"2026-01-31","time":"22:33:36"},{"task":"memory_phase","broad_category":"I","image_png":"I_Andesite_06.png","image_id":6,"category_name":"Andesite","category":1,"distinct_rating":3.17,"distinct_type":"Bottom","rt":null,"stimulus":"Stimuli_Rocks480/I_Andesite_06.png","response":null,"trial_type":"image-keyboard-response","trial_index":24,"plugin_version":"2.1.0","time_elapsed":131628,"subject_id":"90626","group":"Group1","condition":"1_Rep","full_date":"2026-01-31T22:33:36.973Z","date":"2026-01-31","time":"22:33:36"},{"rt":null,"stimulus":"<p style=\"font-size: 50px; margin: 0; text-align: center;\">+</p>","response":null,"trial_type":"html-keyboard-response","trial_index":25,"plugin_version":"2.1.0","time_elapsed":132638,"subject_id":"90626","group":"Group1","condition":"1_Rep","full_date":"2026-01-31T22:33:36.973Z","date":"2026-01-31","time":"22:33:36"},{"task":"memory_phase","broad_category":"M","image_png":"M_Gneiss_06.png","image_id":198,"category_name":"Gneiss","category":13,"distinct_rating":2.65,"distinct_type":"Bottom","rt":null,"stimulus":"Stimuli_Rocks480/M_Gneiss_06.png","response":null,"trial_type":"image-keyboard-response","trial_index":26,"plugin_version":"2.1.0","time_elapsed":135147,"subject_id":"90626","group":"Group1","condition":"1_Rep","full_date":"2026-01-31T22:33:36.973Z","date":"2026-01-31","time":"22:33:36"},{"rt":null,"stimulus":"<p style=\"font-size: 50px; margin: 0; text-align: center;\">+</p>","response":null,"trial_type":"html-keyboard-response","trial_index":27,"plugin_version":"2.1.0","time_elapsed":136155,"subject_id":"90626","group":"Group1","condition":"1_Rep","full_date":"2026-01-31T22:33:36.973Z","date":"2026-01-31","time":"22:33:36"},{"task":"memory_phase","broad_category":"M","image_png":"M_Marble_04.png","image_id":228,"category_name":"Marble","category":15,"distinct_rating":3.15,"distinct_type":"Bottom","rt":null,"stimulus":"Stimuli_Rocks480/M_Marble_04.png","response":null,"trial_type":"image-keyboard-response","trial_index":28,"plugin_version":"2.1.0","time_elapsed":138665,"subject_id":"90626","group":"Group1","condition":"1_Rep","full_date":"2026-01-31T22:33:36.973Z","date":"2026-01-31","time":"22:33:36"},{"rt":null,"stimulus":"<p style=\"font-size: 50px; margin: 0; text-align: center;\">+</p>","response":null,"trial_type":"html-keyboard-response","trial_index":29,"plugin_version":"2.1.0","time_elapsed":139680,"subject_id":"90626","group":"Group1","condition":"1_Rep","full_date":"2026-01-31T22:33:36.973Z","date":"2026-01-31","time":"22:33:36"},{"task":"memory_phase","broad_category":"S","image_png":"S_Sandstone_15.png","image_id":463,"category_name":"Sandstone","category":29,"distinct_rating":2,"distinct_type":"Bottom","rt":null,"stimulus":"Stimuli_Rocks480/S_Sandstone_15.png","response":null,"trial_type":"image-keyboard-response","trial_index":30,"plugin_version":"2.1.0","time_elapsed":142190,"subject_id":"90626","group":"Group1","condition":"1_Rep","full_date":"2026-01-31T22:33:36.973Z","date":"2026-01-31","time":"22:33:36"},{"rt":null,"stimulus":"<p style=\"font-size: 50px; margin: 0; text-align: center;\">+</p>","response":null,"trial_type":"html-keyboard-response","trial_index":31,"plugin_version":"2.1.0","time_elapsed":143192,"subject_id":"90626","group":"Group1","condition":"1_Rep","full_date":"2026-01-31T22:33:36.973Z","date":"2026-01-31","time":"22:33:36"},{"task":"memory_phase","broad_category":"M","image_png":"M_Phyllite_03.png","image_id":259,"category_name":"Phyllite","category":17,"distinct_rating":2.5,"distinct_type":"Bottom","rt":null,"stimulus":"Stimuli_Rocks480/M_Phyllite_03.png","response":null,"trial_type":"image-keyboard-response","trial_index":32,"plugin_version":"2.1.0","time_elapsed":145699,"subject_id":"90626","group":"Group1","condition":"1_Rep","full_date":"2026-01-31T22:33:36.973Z","date":"2026-01-31","time":"22:33:36"},{"rt":null,"stimulus":"<p style=\"font-size: 50px; margin: 0; text-align: center;\">+</p>","response":null,"trial_type":"html-keyboard-response","trial_index":33,"plugin_version":"2.1.0","time_elapsed":146705,"subject_id":"90626","group":"Group1","condition":"1_Rep","full_date":"2026-01-31T22:33:36.973Z","date":"2026-01-31","time":"22:33:36"},{"task":"memory_phase","broad_category":"S","image_png":"S_Dolomite_12.png","image_id":396,"category_name":"Dolomite","category":25,"distinct_rating":1.85,"distinct_type":"Bottom","rt":null,"stimulus":"Stimuli_Rocks480/S_Dolomite_12.png","response":null,"trial_type":"image-keyboard-response","trial_index":34,"plugin_version":"2.1.0","time_elapsed":149211,"subject_id":"90626","group":"Group1","condition":"1_Rep","full_date":"2026-01-31T22:33:36.973Z","date":"2026-01-31","time":"22:33:36"},{"rt":null,"stimulus":"<p style=\"font-size: 50px; margin: 0; text-align: center;\">+</p>","response":null,"trial_type":"html-keyboard-response","trial_index":35,"plugin_version":"2.1.0","time_elapsed":150215,"subject_id":"90626","group":"Group1","condition":"1_Rep","full_date":"2026-01-31T22:33:36.973Z","date":"2026-01-31","time":"22:33:36"},{"task":"memory_phase","broad_category":"M","image_png":"M_Phyllite_10.png","image_id":266,"category_name":"Phyllite","category":17,"distinct_rating":2.6,"distinct_type":"Bottom","rt":null,"stimulus":"Stimuli_Rocks480/M_Phyllite_10.png","response":null,"trial_type":"image-keyboard-response","trial_index":36,"plugin_version":"2.1.0","time_elapsed":152722,"subject_id":"90626","group":"Group1","condition":"1_Rep","full_date":"2026-01-31T22:33:36.973Z","date":"2026-01-31","time":"22:33:36"},{"rt":null,"stimulus":"<p style=\"font-size: 50px; margin: 0; text-align: center;\">+</p>","response":null,"trial_type":"html-keyboard-response","trial_index":37,"plugin_version":"2.1.0","time_elapsed":153735,"subject_id":"90626","group":"Group1","condition":"1_Rep","full_date":"2026-01-31T22:33:36.973Z","date":"2026-01-31","time":"22:33:36"},{"task":"memory_phase","broad_category":"I","image_png":"I_Rhyolite_11.png","image_id":155,"category_name":"Rhyolite","category":10,"distinct_rating":1.73,"distinct_type":"Bottom","rt":null,"stimulus":"Stimuli_Rocks480/I_Rhyolite_11.png","response":null,"trial_type":"image-keyboard-response","trial_index":38,"plugin_version":"2.1.0","time_elapsed":156247,"subject_id":"90626","group":"Group1","condition":"1_Rep","full_date":"2026-01-31T22:33:36.973Z","date":"2026-01-31","time":"22:33:36"},{"rt":null,"stimulus":"<p style=\"font-size: 50px; margin: 0; text-align: center;\">+</p>","response":null,"trial_type":"html-keyboard-response","trial_index":39,"plugin_version":"2.1.0","time_elapsed":157254,"subject_id":"90626","group":"Group1","condition":"1_Rep","full_date":"2026-01-31T22:33:36.973Z","date":"2026-01-31","time":"22:33:36"},{"task":"memory_phase","broad_category":"I","image_png":"I_Pumice_12.png","image_id":140,"category_name":"Pumice","category":9,"distinct_rating":2.97,"distinct_type":"Bottom","rt":null,"stimulus":"Stimuli_Rocks480/I_Pumice_12.png","response":null,"trial_type":"image-keyboard-response","trial_index":40,"plugin_version":"2.1.0","time_elapsed":159763,"subject_id":"90626","group":"Group1","condition":"1_Rep","full_date":"2026-01-31T22:33:36.973Z","date":"2026-01-31","time":"22:33:36"},{"rt":null,"stimulus":"<p style=\"font-size: 50px; margin: 0; text-align: center;\">+</p>","response":null,"trial_type":"html-keyboard-response","trial_index":41,"plugin_version":"2.1.0","time_elapsed":160771,"subject_id":"90626","group":"Group1","condition":"1_Rep","full_date":"2026-01-31T22:33:36.973Z","date":"2026-01-31","time":"22:33:36"},{"task":"memory_phase","broad_category":"S","image_png":"S_Chert_10.png","image_id":362,"category_name":"Chert","category":23,"distinct_rating":7.17,"distinct_type":"Top","rt":null,"stimulus":"Stimuli_Rocks480/S_Chert_10.png","response":null,"trial_type":"image-keyboard-response","trial_index":42,"plugin_version":"2.1.0","time_elapsed":163274,"subject_id":"90626","group":"Group1","condition":"1_Rep","full_date":"2026-01-31T22:33:36.973Z","date":"2026-01-31","time":"22:33:36"},{"rt":null,"stimulus":"<p style=\"font-size: 50px; margin: 0; text-align: center;\">+</p>","response":null,"trial_type":"html-keyboard-response","trial_index":43,"plugin_version":"2.1.0","time_elapsed":164291,"subject_id":"90626","group":"Group1","condition":"1_Rep","full_date":"2026-01-31T22:33:36.973Z","date":"2026-01-31","time":"22:33:36"},{"task":"memory_phase","broad_category":"I","image_png":"I_Pegmatite_16.png","image_id":112,"category_name":"Pegmatite","category":7,"distinct_rating":7.03,"distinct_type":"Top","rt":null,"stimulus":"Stimuli_Rocks480/I_Pegmatite_16.png","response":null,"trial_type":"image-keyboard-response","trial_index":44,"plugin_version":"2.1.0","time_elapsed":166805,"subject_id":"90626","group":"Group1","condition":"1_Rep","full_date":"2026-01-31T22:33:36.973Z","date":"2026-01-31","time":"22:33:36"},{"rt":null,"stimulus":"<p style=\"font-size: 50px; margin: 0; text-align: center;\">+</p>","response":null,"trial_type":"html-keyboard-response","trial_index":45,"plugin_version":"2.1.0","time_elapsed":167820,"subject_id":"90626","group":"Group1","condition":"1_Rep","full_date":"2026-01-31T22:33:36.973Z","date":"2026-01-31","time":"22:33:36"},{"task":"memory_phase","broad_category":"I","image_png":"I_Diorite_05.png","image_id":37,"category_name":"Diorite","category":3,"distinct_rating":3.08,"distinct_type":"Bottom","rt":null,"stimulus":"Stimuli_Rocks480/I_Diorite_05.png","response":null,"trial_type":"image-keyboard-response","trial_index":46,"plugin_version":"2.1.0","time_elapsed":170323,"subject_id":"90626","group":"Group1","condition":"1_Rep","full_date":"2026-01-31T22:33:36.973Z","date":"2026-01-31","time":"22:33:36"},{"rt":null,"stimulus":"<p style=\"font-size: 50px; margin: 0; text-align: center;\">+</p>","response":null,"trial_type":"html-keyboard-response","trial_index":47,"plugin_version":"2.1.0","time_elapsed":171334,"subject_id":"90626","group":"Group1","condition":"1_Rep","full_date":"2026-01-31T22:33:36.973Z","date":"2026-01-31","time":"22:33:36"},{"task":"memory_phase","broad_category":"S","image_png":"S_Rock Salt_01.png","image_id":433,"category_name":"Rock Salt","category":28,"distinct_rating":7.18,"distinct_type":"Top","rt":null,"stimulus":"Stimuli_Rocks480/S_Rock Salt_01.png","response":null,"trial_type":"image-keyboard-response","trial_index":48,"plugin_version":"2.1.0","time_elapsed":173839,"subject_id":"90626","group":"Group1","condition":"1_Rep","full_date":"2026-01-31T22:33:36.973Z","date":"2026-01-31","time":"22:33:36"},{"rt":null,"stimulus":"<p style=\"font-size: 50px; margin: 0; text-align: center;\">+</p>","response":null,"trial_type":"html-keyboard-response","trial_index":49,"plugin_version":"2.1.0","time_elapsed":174850,"subject_id":"90626","group":"Group1","condition":"1_Rep","full_date":"2026-01-31T22:33:36.973Z","date":"2026-01-31","time":"22:33:36"},{"task":"memory_phase","broad_category":"I","image_png":"I_Rhyolite_14.png","image_id":158,"category_name":"Rhyolite","category":10,"distinct_rating":2.59,"distinct_type":"Bottom","rt":null,"stimulus":"Stimuli_Rocks480/I_Rhyolite_14.png","response":null,"trial_type":"image-keyboard-response","trial_index":50,"plugin_version":"2.1.0","time_elapsed":177362,"subject_id":"90626","group":"Group1","condition":"1_Rep","full_date":"2026-01-31T22:33:36.973Z","date":"2026-01-31","time":"22:33:36"},{"rt":null,"stimulus":"<p style=\"font-size: 50px; margin: 0; text-align: center;\">+</p>","response":null,"trial_type":"html-keyboard-response","trial_index":51,"plugin_version":"2.1.0","time_elapsed":178375,"subject_id":"90626","group":"Group1","condition":"1_Rep","full_date":"2026-01-31T22:33:36.973Z","date":"2026-01-31","time":"22:33:36"},{"task":"memory_phase","broad_category":"I","image_png":"I_Basalt_01.png","image_id":17,"category_name":"Basalt","category":2,"distinct_rating":1.92,"distinct_type":"Bottom","rt":null,"stimulus":"Stimuli_Rocks480/I_Basalt_01.png","response":null,"trial_type":"image-keyboard-response","trial_index":52,"plugin_version":"2.1.0","time_elapsed":180890,"subject_id":"90626","group":"Group1","condition":"1_Rep","full_date":"2026-01-31T22:33:36.973Z","date":"2026-01-31","time":"22:33:36"},{"rt":null,"stimulus":"<p style=\"font-size: 50px; margin: 0; text-align: center;\">+</p>","response":null,"trial_type":"html-keyboard-response","trial_index":53,"plugin_version":"2.1.0","time_elapsed":181899,"subject_id":"90626","group":"Group1","condition":"1_Rep","full_date":"2026-01-31T22:33:36.973Z","date":"2026-01-31","time":"22:33:36"},{"task":"memory_phase","broad_category":"M","image_png":"M_Marble_16.png","image_id":240,"category_name":"Marble","category":15,"distinct_rating":2.57,"distinct_type":"Bottom","rt":null,"stimulus":"Stimuli_Rocks480/M_Marble_16.png","response":null,"trial_type":"image-keyboard-response","trial_index":54,"plugin_version":"2.1.0","time_elapsed":184409,"subject_id":"90626","group":"Group1","condition":"1_Rep","full_date":"2026-01-31T22:33:36.973Z","date":"2026-01-31","time":"22:33:36"},{"rt":1580,"stimulus":"<p style=\"max-width: 760px; margin: auto; font-size: 35px; line-height: 1.5;\">\n                Press SPACE to continue study phase\n              </p>","response":" ","trial_type":"html-keyboard-response","trial_index":55,"plugin_version":"2.1.0","time_elapsed":185991,"subject_id":"90626","group":"Group1","condition":"1_Rep","full_date":"2026-01-31T22:33:36.973Z","date":"2026-01-31","time":"22:33:36"},{"rt":null,"stimulus":"<p style=\"font-size: 50px; margin: 0; text-align: center;\">+</p>","response":null,"trial_type":"html-keyboard-response","trial_index":56,"plugin_version":"2.1.0","time_elapsed":187005,"subject_id":"90626","group":"Group1","condition":"1_Rep","full_date":"2026-01-31T22:33:36.973Z","date":"2026-01-31","time":"22:33:36"},{"task":"memory_phase","broad_category":"I","image_png":"I_Andesite_10.png","image_id":10,"category_name":"Andesite","category":1,"distinct_rating":3.15,"distinct_type":"Bottom","rt":null,"stimulus":"Stimuli_Rocks480/I_Andesite_10.png","response":null,"trial_type":"image-keyboard-response","trial_index":57,"plugin_version":"2.1.0","time_elapsed":189510,"subject_id":"90626","group":"Group1","condition":"1_Rep","full_date":"2026-01-31T22:33:36.973Z","date":"2026-01-31","time":"22:33:36"},{"rt":null,"stimulus":"<p style=\"font-size: 50px; margin: 0; text-align: center;\">+</p>","response":null,"trial_type":"html-keyboard-response","trial_index":58,"plugin_version":"2.1.0","time_elapsed":190519,"subject_id":"90626","group":"Group1","condition":"1_Rep","full_date":"2026-01-31T22:33:36.973Z","date":"2026-01-31","time":"22:33:36"},{"task":"memory_phase","broad_category":"I","image_png":"I_Gabbro_08.png","image_id":56,"category_name":"Gabbro","category":4,"distinct_rating":3.02,"distinct_type":"Bottom","rt":null,"stimulus":"Stimuli_Rocks480/I_Gabbro_08.png","response":null,"trial_type":"image-keyboard-response","trial_index":59,"plugin_version":"2.1.0","time_elapsed":193037,"subject_id":"90626","group":"Group1","condition":"1_Rep","full_date":"2026-01-31T22:33:36.973Z","date":"2026-01-31","time":"22:33:36"},{"rt":null,"stimulus":"<p style=\"font-size: 50px; margin: 0; text-align: center;\">+</p>","response":null,"trial_type":"html-keyboard-response","trial_index":60,"plugin_version":"2.1.0","time_elapsed":194045,"subject_id":"90626","group":"Group1","condition":"1_Rep","full_date":"2026-01-31T22:33:36.973Z","date":"2026-01-31","time":"22:33:36"},{"task":"memory_phase","broad_category":"M","image_png":"M_Gneiss_13.png","image_id":205,"category_name":"Gneiss","category":13,"distinct_rating":3.26,"distinct_type":"Bottom","rt":null,"stimulus":"Stimuli_Rocks480/M_Gneiss_13.png","response":null,"trial_type":"image-keyboard-response","trial_index":61,"plugin_version":"2.1.0","time_elapsed":196562,"subject_id":"90626","group":"Group1","condition":"1_Rep","full_date":"2026-01-31T22:33:36.973Z","date":"2026-01-31","time":"22:33:36"},{"rt":null,"stimulus":"<p style=\"font-size: 50px; margin: 0; text-align: center;\">+</p>","response":null,"trial_type":"html-keyboard-response","trial_index":62,"plugin_version":"2.1.0","time_elapsed":197570,"subject_id":"90626","group":"Group1","condition":"1_Rep","full_date":"2026-01-31T22:33:36.973Z","date":"2026-01-31","time":"22:33:36"},{"task":"memory_phase","broad_category":"I","image_png":"I_Pumice_11.png","image_id":139,"category_name":"Pumice","category":9,"distinct_rating":1.74,"distinct_type":"Bottom","rt":null,"stimulus":"Stimuli_Rocks480/I_Pumice_11.png","response":null,"trial_type":"image-keyboard-response","trial_index":63,"plugin_version":"2.1.0","time_elapsed":200082,"subject_id":"90626","group":"Group1","condition":"1_Rep","full_date":"2026-01-31T22:33:36.973Z","date":"2026-01-31","time":"22:33:36"},{"rt":null,"stimulus":"<p style=\"font-size: 50px; margin: 0; text-align: center;\">+</p>","response":null,"trial_type":"html-keyboard-response","trial_index":64,"plugin_version":"2.1.0","time_elapsed":201094,"subject_id":"90626","group":"Group1","condition":"1_Rep","full_date":"2026-01-31T22:33:36.973Z","date":"2026-01-31","time":"22:33:36"},{"task":"memory_phase","broad_category":"I","image_png":"I_Diorite_03.png","image_id":35,"category_name":"Diorite","category":3,"distinct_rating":3.14,"distinct_type":"Bottom","rt":null,"stimulus":"Stimuli_Rocks480/I_Diorite_03.png","response":null,"trial_type":"image-keyboard-response","trial_index":65,"plugin_version":"2.1.0","time_elapsed":203608,"subject_id":"90626","group":"Group1","condition":"1_Rep","full_date":"2026-01-31T22:33:36.973Z","date":"2026-01-31","time":"22:33:36"},{"rt":null,"stimulus":"<p style=\"font-size: 50px; margin: 0; text-align: center;\">+</p>","response":null,"trial_type":"html-keyboard-response","trial_index":66,"plugin_version":"2.1.0","time_elapsed":204610,"subject_id":"90626","group":"Group1","condition":"1_Rep","full_date":"2026-01-31T22:33:36.973Z","date":"2026-01-31","time":"22:33:36"},{"task":"memory_phase","broad_category":"I","image_png":"I_Pumice_08.png","image_id":136,"category_name":"Pumice","category":9,"distinct_rating":3.1,"distinct_type":"Bottom","rt":null,"stimulus":"Stimuli_Rocks480/I_Pumice_08.png","response":null,"trial_type":"image-keyboard-response","trial_index":67,"plugin_version":"2.1.0","time_elapsed":207119,"subject_id":"90626","group":"Group1","condition":"1_Rep","full_date":"2026-01-31T22:33:36.973Z","date":"2026-01-31","time":"22:33:36"},{"rt":null,"stimulus":"<p style=\"font-size: 50px; margin: 0; text-align: center;\">+</p>","response":null,"trial_type":"html-keyboard-response","trial_index":68,"plugin_version":"2.1.0","time_elapsed":208128,"subject_id":"90626","group":"Group1","condition":"1_Rep","full_date":"2026-01-31T22:33:36.973Z","date":"2026-01-31","time":"22:33:36"},{"task":"memory_phase","broad_category":"I","image_png":"I_Pegmatite_10.png","image_id":106,"category_name":"Pegmatite","category":7,"distinct_rating":7.66,"distinct_type":"Top","rt":null,"stimulus":"Stimuli_Rocks480/I_Pegmatite_10.png","response":null,"trial_type":"image-keyboard-response","trial_index":69,"plugin_version":"2.1.0","time_elapsed":210638,"subject_id":"90626","group":"Group1","condition":"1_Rep","full_date":"2026-01-31T22:33:36.973Z","date":"2026-01-31","time":"22:33:36"},{"rt":null,"stimulus":"<p style=\"font-size: 50px; margin: 0; text-align: center;\">+</p>","response":null,"trial_type":"html-keyboard-response","trial_index":70,"plugin_version":"2.1.0","time_elapsed":211648,"subject_id":"90626","group":"Group1","condition":"1_Rep","full_date":"2026-01-31T22:33:36.973Z","date":"2026-01-31","time":"22:33:36"},{"task":"memory_phase","broad_category":"I","image_png":"I_Andesite_08.png","image_id":8,"category_name":"Andesite","category":1,"distinct_rating":1.95,"distinct_type":"Bottom","rt":null,"stimulus":"Stimuli_Rocks480/I_Andesite_08.png","response":null,"trial_type":"image-keyboard-response","trial_index":71,"plugin_version":"2.1.0","time_elapsed":214158,"subject_id":"90626","group":"Group1","condition":"1_Rep","full_date":"2026-01-31T22:33:36.973Z","date":"2026-01-31","time":"22:33:36"},{"rt":null,"stimulus":"<p style=\"font-size: 50px; margin: 0; text-align: center;\">+</p>","response":null,"trial_type":"html-keyboard-response","trial_index":72,"plugin_version":"2.1.0","time_elapsed":215164,"subject_id":"90626","group":"Group1","condition":"1_Rep","full_date":"2026-01-31T22:33:36.973Z","date":"2026-01-31","time":"22:33:36"},{"task":"memory_phase","broad_category":"I","image_png":"I_Diorite_04.png","image_id":36,"category_name":"Diorite","category":3,"distinct_rating":2.98,"distinct_type":"Bottom","rt":null,"stimulus":"Stimuli_Rocks480/I_Diorite_04.png","response":null,"trial_type":"image-keyboard-response","trial_index":73,"plugin_version":"2.1.0","time_elapsed":217668,"subject_id":"90626","group":"Group1","condition":"1_Rep","full_date":"2026-01-31T22:33:36.973Z","date":"2026-01-31","time":"22:33:36"},{"rt":null,"stimulus":"<p style=\"font-size: 50px; margin: 0; text-align: center;\">+</p>","response":null,"trial_type":"html-keyboard-response","trial_index":74,"plugin_version":"2.1.0","time_elapsed":218683,"subject_id":"90626","group":"Group1","condition":"1_Rep","full_date":"2026-01-31T22:33:36.973Z","date":"2026-01-31","time":"22:33:36"},{"task":"memory_phase","broad_category":"S","image_png":"S_Shale_01.png","image_id":465,"category_name":"Shale","category":30,"distinct_rating":2.7,"distinct_type":"Bottom","rt":null,"stimulus":"Stimuli_Rocks480/S_Shale_01.png","response":null,"trial_type":"image-keyboard-response","trial_index":75,"plugin_version":"2.1.0","time_elapsed":221195,"subject_id":"90626","group":"Group1","condition":"1_Rep","full_date":"2026-01-31T22:33:36.973Z","date":"2026-01-31","time":"22:33:36"},{"rt":null,"stimulus":"<p style=\"font-size: 50px; margin: 0; text-align: center;\">+</p>","response":null,"trial_type":"html-keyboard-response","trial_index":76,"plugin_version":"2.1.0","time_elapsed":222206,"subject_id":"90626","group":"Group1","condition":"1_Rep","full_date":"2026-01-31T22:33:36.973Z","date":"2026-01-31","time":"22:33:36"},{"task":"memory_phase","broad_category":"M","image_png":"M_Quartzite_08.png","image_id":280,"category_name":"Quartzite","category":18,"distinct_rating":2.15,"distinct_type":"Bottom","rt":null,"stimulus":"Stimuli_Rocks480/M_Quartzite_08.png","response":null,"trial_type":"image-keyboard-response","trial_index":77,"plugin_version":"2.1.0","time_elapsed":224721,"subject_id":"90626","group":"Group1","condition":"1_Rep","full_date":"2026-01-31T22:33:36.973Z","date":"2026-01-31","time":"22:33:36"},{"rt":null,"stimulus":"<p style=\"font-size: 50px; margin: 0; text-align: center;\">+</p>","response":null,"trial_type":"html-keyboard-response","trial_index":78,"plugin_version":"2.1.0","time_elapsed":225731,"subject_id":"90626","group":"Group1","condition":"1_Rep","full_date":"2026-01-31T22:33:36.973Z","date":"2026-01-31","time":"22:33:36"},{"task":"memory_phase","broad_category":"S","image_png":"S_Dolomite_13.png","image_id":397,"category_name":"Dolomite","category":25,"distinct_rating":1.77,"distinct_type":"Bottom","rt":null,"stimulus":"Stimuli_Rocks480/S_Dolomite_13.png","response":null,"trial_type":"image-keyboard-response","trial_index":79,"plugin_version":"2.1.0","time_elapsed":228246,"subject_id":"90626","group":"Group1","condition":"1_Rep","full_date":"2026-01-31T22:33:36.973Z","date":"2026-01-31","time":"22:33:36"},{"rt":null,"stimulus":"<p style=\"font-size: 50px; margin: 0; text-align: center;\">+</p>","response":null,"trial_type":"html-keyboard-response","trial_index":80,"plugin_version":"2.1.0","time_elapsed":229251,"subject_id":"90626","group":"Group1","condition":"1_Rep","full_date":"2026-01-31T22:33:36.973Z","date":"2026-01-31","time":"22:33:36"},{"task":"memory_phase","broad_category":"S","image_png":"S_Sandstone_16.png","image_id":464,"category_name":"Sandstone","category":29,"distinct_rating":1.93,"distinct_type":"Bottom","rt":null,"stimulus":"Stimuli_Rocks480/S_Sandstone_16.png","response":null,"trial_type":"image-keyboard-response","trial_index":81,"plugin_version":"2.1.0","time_elapsed":231764,"subject_id":"90626","group":"Group1","condition":"1_Rep","full_date":"2026-01-31T22:33:36.973Z","date":"2026-01-31","time":"22:33:36"},{"rt":null,"stimulus":"<p style=\"font-size: 50px; margin: 0; text-align: center;\">+</p>","response":null,"trial_type":"html-keyboard-response","trial_index":82,"plugin_version":"2.1.0","time_elapsed":232768,"subject_id":"90626","group":"Group1","condition":"1_Rep","full_date":"2026-01-31T22:33:36.973Z","date":"2026-01-31","time":"22:33:36"},{"task":"memory_phase","broad_category":"I","image_png":"I_Obsidian_05.png","image_id":85,"category_name":"Obsidian","category":6,"distinct_rating":7.32,"distinct_type":"Top","rt":null,"stimulus":"Stimuli_Rocks480/I_Obsidian_05.png","response":null,"trial_type":"image-keyboard-response","trial_index":83,"plugin_version":"2.1.0","time_elapsed":235279,"subject_id":"90626","group":"Group1","condition":"1_Rep","full_date":"2026-01-31T22:33:36.973Z","date":"2026-01-31","time":"22:33:36"},{"rt":null,"stimulus":"<p style=\"font-size: 50px; margin: 0; text-align: center;\">+</p>","response":null,"trial_type":"html-keyboard-response","trial_index":84,"plugin_version":"2.1.0","time_elapsed":236294,"subject_id":"90626","group":"Group1","condition":"1_Rep","full_date":"2026-01-31T22:33:36.973Z","date":"2026-01-31","time":"22:33:36"},{"task":"memory_phase","broad_category":"I","image_png":"I_Gabbro_11.png","image_id":59,"category_name":"Gabbro","category":4,"distinct_rating":1.99,"distinct_type":"Bottom","rt":null,"stimulus":"Stimuli_Rocks480/I_Gabbro_11.png","response":null,"trial_type":"image-keyboard-response","trial_index":85,"plugin_version":"2.1.0","time_elapsed":238811,"subject_id":"90626","group":"Group1","condition":"1_Rep","full_date":"2026-01-31T22:33:36.973Z","date":"2026-01-31","time":"22:33:36"},{"rt":null,"stimulus":"<p style=\"font-size: 50px; margin: 0; text-align: center;\">+</p>","response":null,"trial_type":"html-keyboard-response","trial_index":86,"plugin_version":"2.1.0","time_elapsed":239813,"subject_id":"90626","group":"Group1","condition":"1_Rep","full_date":"2026-01-31T22:33:36.973Z","date":"2026-01-31","time":"22:33:36"},{"task":"memory_phase","broad_category":"S","image_png":"S_Shale_08.png","image_id":472,"category_name":"Shale","category":30,"distinct_rating":2.55,"distinct_type":"Bottom","rt":null,"stimulus":"Stimuli_Rocks480/S_Shale_08.png","response":null,"trial_type":"image-keyboard-response","trial_index":87,"plugin_version":"2.1.0","time_elapsed":242328,"subject_id":"90626","group":"Group1","condition":"1_Rep","full_date":"2026-01-31T22:33:36.973Z","date":"2026-01-31","time":"22:33:36"},{"rt":null,"stimulus":"<p style=\"font-size: 50px; margin: 0; text-align: center;\">+</p>","response":null,"trial_type":"html-keyboard-response","trial_index":88,"plugin_version":"2.1.0","time_elapsed":243338,"subject_id":"90626","group":"Group1","condition":"1_Rep","full_date":"2026-01-31T22:33:36.973Z","date":"2026-01-31","time":"22:33:36"},{"task":"memory_phase","broad_category":"S","image_png":"S_Shale_12.png","image_id":476,"category_name":"Shale","category":30,"distinct_rating":2.48,"distinct_type":"Bottom","rt":null,"stimulus":"Stimuli_Rocks480/S_Shale_12.png","response":null,"trial_type":"image-keyboard-response","trial_index":89,"plugin_version":"2.1.0","time_elapsed":245850,"subject_id":"90626","group":"Group1","condition":"1_Rep","full_date":"2026-01-31T22:33:36.973Z","date":"2026-01-31","time":"22:33:36"},{"rt":null,"stimulus":"<p style=\"font-size: 50px; margin: 0; text-align: center;\">+</p>","response":null,"trial_type":"html-keyboard-response","trial_index":90,"plugin_version":"2.1.0","time_elapsed":246863,"subject_id":"90626","group":"Group1","condition":"1_Rep","full_date":"2026-01-31T22:33:36.973Z","date":"2026-01-31","time":"22:33:36"},{"task":"memory_phase","broad_category":"M","image_png":"M_Quartzite_13.png","image_id":285,"category_name":"Quartzite","category":18,"distinct_rating":2.27,"distinct_type":"Bottom","rt":null,"stimulus":"Stimuli_Rocks480/M_Quartzite_13.png","response":null,"trial_type":"image-keyboard-response","trial_index":91,"plugin_version":"2.1.0","time_elapsed":249368,"subject_id":"90626","group":"Group1","condition":"1_Rep","full_date":"2026-01-31T22:33:36.973Z","date":"2026-01-31","time":"22:33:36"},{"rt":null,"stimulus":"<p style=\"font-size: 50px; margin: 0; text-align: center;\">+</p>","response":null,"trial_type":"html-keyboard-response","trial_index":92,"plugin_version":"2.1.0","time_elapsed":250372,"subject_id":"90626","group":"Group1","condition":"1_Rep","full_date":"2026-01-31T22:33:36.973Z","date":"2026-01-31","time":"22:33:36"},{"task":"memory_phase","broad_category":"S","image_png":"S_Sandstone_03.png","image_id":451,"category_name":"Sandstone","category":29,"distinct_rating":1.86,"distinct_type":"Bottom","rt":null,"stimulus":"Stimuli_Rocks480/S_Sandstone_03.png","response":null,"trial_type":"image-keyboard-response","trial_index":93,"plugin_version":"2.1.0","time_elapsed":252885,"subject_id":"90626","group":"Group1","condition":"1_Rep","full_date":"2026-01-31T22:33:36.973Z","date":"2026-01-31","time":"22:33:36"},{"rt":null,"stimulus":"<p style=\"font-size: 50px; margin: 0; text-align: center;\">+</p>","response":null,"trial_type":"html-keyboard-response","trial_index":94,"plugin_version":"2.1.0","time_elapsed":253899,"subject_id":"90626","group":"Group1","condition":"1_Rep","full_date":"2026-01-31T22:33:36.973Z","date":"2026-01-31","time":"22:33:36"},{"task":"memory_phase","broad_category":"I","image_png":"I_Gabbro_16.png","image_id":64,"category_name":"Gabbro","category":4,"distinct_rating":2.52,"distinct_type":"Bottom","rt":null,"stimulus":"Stimuli_Rocks480/I_Gabbro_16.png","response":null,"trial_type":"image-keyboard-response","trial_index":95,"plugin_version":"2.1.0","time_elapsed":256418,"subject_id":"90626","group":"Group1","condition":"1_Rep","full_date":"2026-01-31T22:33:36.973Z","date":"2026-01-31","time":"22:33:36"},{"rt":null,"stimulus":"<p style=\"font-size: 50px; margin: 0; text-align: center;\">+</p>","response":null,"trial_type":"html-keyboard-response","trial_index":96,"plugin_version":"2.1.0","time_elapsed":257432,"subject_id":"90626","group":"Group1","condition":"1_Rep","full_date":"2026-01-31T22:33:36.973Z","date":"2026-01-31","time":"22:33:36"},{"task":"memory_phase","broad_category":"I","image_png":"I_Rhyolite_16.png","image_id":160,"category_name":"Rhyolite","category":10,"distinct_rating":2.19,"distinct_type":"Bottom","rt":null,"stimulus":"Stimuli_Rocks480/I_Rhyolite_16.png","response":null,"trial_type":"image-keyboard-response","trial_index":97,"plugin_version":"2.1.0","time_elapsed":259945,"subject_id":"90626","group":"Group1","condition":"1_Rep","full_date":"2026-01-31T22:33:36.973Z","date":"2026-01-31","time":"22:33:36"},{"rt":null,"stimulus":"<p style=\"font-size: 50px; margin: 0; text-align: center;\">+</p>","response":null,"trial_type":"html-keyboard-response","trial_index":98,"plugin_version":"2.1.0","time_elapsed":260956,"subject_id":"90626","group":"Group1","condition":"1_Rep","full_date":"2026-01-31T22:33:36.973Z","date":"2026-01-31","time":"22:33:36"},{"task":"memory_phase","broad_category":"I","image_png":"I_Basalt_02.png","image_id":18,"category_name":"Basalt","category":2,"distinct_rating":1.84,"distinct_type":"Bottom","rt":null,"stimulus":"Stimuli_Rocks480/I_Basalt_02.png","response":null,"trial_type":"image-keyboard-response","trial_index":99,"plugin_version":"2.1.0","time_elapsed":263469,"subject_id":"90626","group":"Group1","condition":"1_Rep","full_date":"2026-01-31T22:33:36.973Z","date":"2026-01-31","time":"22:33:36"},{"rt":null,"stimulus":"<p style=\"font-size: 50px; margin: 0; text-align: center;\">+</p>","response":null,"trial_type":"html-keyboard-response","trial_index":100,"plugin_version":"2.1.0","time_elapsed":264472,"subject_id":"90626","group":"Group1","condition":"1_Rep","full_date":"2026-01-31T22:33:36.973Z","date":"2026-01-31","time":"22:33:36"},{"task":"memory_phase","broad_category":"M","image_png":"M_Quartzite_05.png","image_id":277,"category_name":"Quartzite","category":18,"distinct_rating":2.23,"distinct_type":"Bottom","rt":null,"stimulus":"Stimuli_Rocks480/M_Quartzite_05.png","response":null,"trial_type":"image-keyboard-response","trial_index":101,"plugin_version":"2.1.0","time_elapsed":266979,"subject_id":"90626","group":"Group1","condition":"1_Rep","full_date":"2026-01-31T22:33:36.973Z","date":"2026-01-31","time":"22:33:36"},{"rt":null,"stimulus":"<p style=\"font-size: 50px; margin: 0; text-align: center;\">+</p>","response":null,"trial_type":"html-keyboard-response","trial_index":102,"plugin_version":"2.1.0","time_elapsed":267984,"subject_id":"90626","group":"Group1","condition":"1_Rep","full_date":"2026-01-31T22:33:36.973Z","date":"2026-01-31","time":"22:33:36"},{"task":"memory_phase","broad_category":"I","image_png":"I_Basalt_09.png","image_id":25,"category_name":"Basalt","category":2,"distinct_rating":1.89,"distinct_type":"Bottom","rt":null,"stimulus":"Stimuli_Rocks480/I_Basalt_09.png","response":null,"trial_type":"image-keyboard-response","trial_index":103,"plugin_version":"2.1.0","time_elapsed":270493,"subject_id":"90626","group":"Group1","condition":"1_Rep","full_date":"2026-01-31T22:33:36.973Z","date":"2026-01-31","time":"22:33:36"},{"rt":null,"stimulus":"<p style=\"font-size: 50px; margin: 0; text-align: center;\">+</p>","response":null,"trial_type":"html-keyboard-response","trial_index":104,"plugin_version":"2.1.0","time_elapsed":271495,"subject_id":"90626","group":"Group1","condition":"1_Rep","full_date":"2026-01-31T22:33:36.973Z","date":"2026-01-31","time":"22:33:36"},{"task":"memory_phase","broad_category":"M","image_png":"M_Slate_03.png","image_id":307,"category_name":"Slate","category":20,"distinct_rating":1.87,"distinct_type":"Bottom","rt":null,"stimulus":"Stimuli_Rocks480/M_Slate_03.png","response":null,"trial_type":"image-keyboard-response","trial_index":105,"plugin_version":"2.1.0","time_elapsed":274013,"subject_id":"90626","group":"Group1","condition":"1_Rep","full_date":"2026-01-31T22:33:36.973Z","date":"2026-01-31","time":"22:33:36"},{"rt":35386,"stimulus":"<div style=\"max-width: 760px; margin: auto; font-size: 20px; line-height: 1.5;\">\n      <h1 style=\"text-align:center; font-size: 30px;\">Instructions for the Test Phase</h1>\n      <p>\n        The study phase is now complete.\n      </p>\n      <p>\n        In the test phase, you will again see a series of rock images. \n        Some will be ones you saw before - during the study phase, while others will be new.  \n        <b>Your task</b> is to decide whether you have seen each image before by pressing the corresponding key on your keyboard:<br><br>\n          <b>A</b> - NO (you did not see this image before)<br>\n          <b>L</b> - YES (you saw this image before)<br><br>\n        The test will proceed at your own pace. You will receive feedback after each response.  \n        Please try to respond <b>as accurately as possible</b>.\n      </p>\n      <p>\n        <b>Reminder:</b> If your computer has multiple language settings (e.g., English and another language),\n        please ensure it is set to English during the test phase.\n      </p>\n      <p>\n        You can track your progress using the <b>completion bar</b> at the top of the screen.  \n        Note that it has been refreshed to reflect your progress during this final phase.\n      </p>\n      <p>\n        Press the button below when you are ready to continue.\n      </p>\n    </div>","response":0,"trial_type":"html-button-response","trial_index":106,"plugin_version":"2.1.0","time_elapsed":309403,"subject_id":"90626","group":"Group1","condition":"1_Rep","full_date":"2026-01-31T22:33:36.973Z","date":"2026-01-31","time":"22:33:36"},{"correct_response":"a","task":"test_phase","broad_category":"I","image_png":"I_Andesite_04.png","image_id":4,"category_name":"Andesite","category":1,"distinct_rating":3.18,"distinct_type":"Bottom","item_type":"Foil","rt":2223,"stimulus":"Stimuli_Rocks480/I_Andesite_04.png","response":"l","trial_type":"image-keyboard-response","trial_index":107,"plugin_version":"2.1.0","time_elapsed":311630,"subject_id":"90626","group":"Group1","condition":"1_Rep","full_date":"2026-01-31T22:33:36.973Z","date":"2026-01-31","time":"22:33:36","cor_ans":false},{"trial_type":"html-keyboard-response","rt":null,"stimulus":"<p style=\"color: red; font-size: 50px; font-weight: bold;\">Incorrect</p>","response":null,"trial_index":108,"plugin_version":"2.1.0","time_elapsed":312139,"subject_id":"90626","group":"Group1","condition":"1_Rep","full_date":"2026-01-31T22:33:36.973Z","date":"2026-01-31","time":"22:33:36"},{"correct_response":"l","task":"test_phase","broad_category":"I","image_png":"I_Gabbro_08.png","image_id":56,"category_name":"Gabbro","category":4,"distinct_rating":3.02,"distinct_type":"Bottom","item_type":"Target","rt":1554,"stimulus":"Stimuli_Rocks480/I_Gabbro_08.png","response":"l","trial_type":"image-keyboard-response","trial_index":109,"plugin_version":"2.1.0","time_elapsed":313695,"subject_id":"90626","group":"Group1","condition":"1_Rep","full_date":"2026-01-31T22:33:36.973Z","date":"2026-01-31","time":"22:33:36","cor_ans":true},{"trial_type":"html-keyboard-response","rt":null,"stimulus":"<p style=\"color: green; font-size: 50px; font-weight: bold;\">Correct</p>","response":null,"trial_index":110,"plugin_version":"2.1.0","time_elapsed":314204,"subject_id":"90626","group":"Group1","condition":"1_Rep","full_date":"2026-01-31T22:33:36.973Z","date":"2026-01-31","time":"22:33:36"},{"correct_response":"a","task":"test_phase","broad_category":"S","image_png":"S_Conglomerate_14.png","image_id":382,"category_name":"Conglomerate","category":24,"distinct_rating":6.86,"distinct_type":"Top","item_type":"Foil","rt":1361,"stimulus":"Stimuli_Rocks480/S_Conglomerate_14.png","response":"a","trial_type":"image-keyboard-response","trial_index":111,"plugin_version":"2.1.0","time_elapsed":315568,"subject_id":"90626","group":"Group1","condition":"1_Rep","full_date":"2026-01-31T22:33:36.973Z","date":"2026-01-31","time":"22:33:36","cor_ans":true},{"trial_type":"html-keyboard-response","rt":null,"stimulus":"<p style=\"color: green; font-size: 50px; font-weight: bold;\">Correct</p>","response":null,"trial_index":112,"plugin_version":"2.1.0","time_elapsed":316075,"subject_id":"90626","group":"Group1","condition":"1_Rep","full_date":"2026-01-31T22:33:36.973Z","date":"2026-01-31","time":"22:33:36"},{"correct_response":"a","task":"test_phase","broad_category":"M","image_png":"M_Phyllite_05.png","image_id":261,"category_name":"Phyllite","category":17,"distinct_rating":2.14,"distinct_type":"Bottom","item_type":"Foil","rt":1039,"stimulus":"Stimuli_Rocks480/M_Phyllite_05.png","response":"l","trial_type":"image-keyboard-response","trial_index":113,"plugin_version":"2.1.0","time_elapsed":317116,"subject_id":"90626","group":"Group1","condition":"1_Rep","full_date":"2026-01-31T22:33:36.973Z","date":"2026-01-31","time":"22:33:36","cor_ans":false},{"trial_type":"html-keyboard-response","rt":null,"stimulus":"<p style=\"color: red; font-size: 50px; font-weight: bold;\">Incorrect</p>","response":null,"trial_index":114,"plugin_version":"2.1.0","time_elapsed":317628,"subject_id":"90626","group":"Group1","condition":"1_Rep","full_date":"2026-01-31T22:33:36.973Z","date":"2026-01-31","time":"22:33:36"},{"correct_response":"a","task":"test_phase","broad_category":"M","image_png":"M_Quartzite_07.png","image_id":279,"category_name":"Quartzite","category":18,"distinct_rating":1.97,"distinct_type":"Bottom","item_type":"Foil","rt":984,"stimulus":"Stimuli_Rocks480/M_Quartzite_07.png","response":"l","trial_type":"image-keyboard-response","trial_index":115,"plugin_version":"2.1.0","time_elapsed":318615,"subject_id":"90626","group":"Group1","condition":"1_Rep","full_date":"2026-01-31T22:33:36.973Z","date":"2026-01-31","time":"22:33:36","cor_ans":false},{"trial_type":"html-keyboard-response","rt":null,"stimulus":"<p style=\"color: red; font-size: 50px; font-weight: bold;\">Incorrect</p>","response":null,"trial_index":116,"plugin_version":"2.1.0","time_elapsed":319121,"subject_id":"90626","group":"Group1","condition":"1_Rep","full_date":"2026-01-31T22:33:36.973Z","date":"2026-01-31","time":"22:33:36"},{"correct_response":"l","task":"test_phase","broad_category":"M","image_png":"M_Slate_15.png","image_id":319,"category_name":"Slate","category":20,"distinct_rating":2.13,"distinct_type":"Bottom","item_type":"Target","rt":1619,"stimulus":"Stimuli_Rocks480/M_Slate_15.png","response":"l","trial_type":"image-keyboard-response","trial_index":117,"plugin_version":"2.1.0","time_elapsed":320743,"subject_id":"90626","group":"Group1","condition":"1_Rep","full_date":"2026-01-31T22:33:36.973Z","date":"2026-01-31","time":"22:33:36","cor_ans":true},{"trial_type":"html-keyboard-response","rt":null,"stimulus":"<p style=\"color: green; font-size: 50px; font-weight: bold;\">Correct</p>","response":null,"trial_index":118,"plugin_version":"2.1.0","time_elapsed":321255,"subject_id":"90626","group":"Group1","condition":"1_Rep","full_date":"2026-01-31T22:33:36.973Z","date":"2026-01-31","time":"22:33:36"},{"correct_response":"a","task":"test_phase","broad_category":"S","image_png":"S_Rock Salt_13.png","image_id":445,"category_name":"Rock Salt","category":28,"distinct_rating":7.58,"distinct_type":"Top","item_type":"Foil","rt":1157,"stimulus":"Stimuli_Rocks480/S_Rock Salt_13.png","response":"a","trial_type":"image-keyboard-response","trial_index":119,"plugin_version":"2.1.0","time_elapsed":322415,"subject_id":"90626","group":"Group1","condition":"1_Rep","full_date":"2026-01-31T22:33:36.973Z","date":"2026-01-31","time":"22:33:36","cor_ans":true},{"trial_type":"html-keyboard-response","rt":null,"stimulus":"<p style=\"color: green; font-size: 50px; font-weight: bold;\">Correct</p>","response":null,"trial_index":120,"plugin_version":"2.1.0","time_elapsed":322922,"subject_id":"90626","group":"Group1","condition":"1_Rep","full_date":"2026-01-31T22:33:36.973Z","date":"2026-01-31","time":"22:33:36"},{"correct_response":"l","task":"test_phase","broad_category":"S","image_png":"S_Rock Salt_01.png","image_id":433,"category_name":"Rock Salt","category":28,"distinct_rating":7.18,"distinct_type":"Top","item_type":"Target","rt":1325,"stimulus":"Stimuli_Rocks480/S_Rock Salt_01.png","response":"a","trial_type":"image-keyboard-response","trial_index":121,"plugin_version":"2.1.0","time_elapsed":324249,"subject_id":"90626","group":"Group1","condition":"1_Rep","full_date":"2026-01-31T22:33:36.973Z","date":"2026-01-31","time":"22:33:36","cor_ans":false},{"trial_type":"html-keyboard-response","rt":null,"stimulus":"<p style=\"color: red; font-size: 50px; font-weight: bold;\">Incorrect</p>","response":null,"trial_index":122,"plugin_version":"2.1.0","time_elapsed":324756,"subject_id":"90626","group":"Group1","condition":"1_Rep","full_date":"2026-01-31T22:33:36.973Z","date":"2026-01-31","time":"22:33:36"},{"correct_response":"l","task":"test_phase","broad_category":"I","image_png":"I_Diorite_04.png","image_id":36,"category_name":"Diorite","category":3,"distinct_rating":2.98,"distinct_type":"Bottom","item_type":"Target","rt":1540,"stimulus":"Stimuli_Rocks480/I_Diorite_04.png","response":"l","trial_type":"image-keyboard-response","trial_index":123,"plugin_version":"2.1.0","time_elapsed":326299,"subject_id":"90626","group":"Group1","condition":"1_Rep","full_date":"2026-01-31T22:33:36.973Z","date":"2026-01-31","time":"22:33:36","cor_ans":true},{"trial_type":"html-keyboard-response","rt":null,"stimulus":"<p style=\"color: green; font-size: 50px; font-weight: bold;\">Correct</p>","response":null,"trial_index":124,"plugin_version":"2.1.0","time_elapsed":326812,"subject_id":"90626","group":"Group1","condition":"1_Rep","full_date":"2026-01-31T22:33:36.973Z","date":"2026-01-31","time":"22:33:36"},{"correct_response":"l","task":"test_phase","broad_category":"I","image_png":"I_Basalt_02.png","image_id":18,"category_name":"Basalt","category":2,"distinct_rating":1.84,"distinct_type":"Bottom","item_type":"Target","rt":1733,"stimulus":"Stimuli_Rocks480/I_Basalt_02.png","response":"l","trial_type":"image-keyboard-response","trial_index":125,"plugin_version":"2.1.0","time_elapsed":328548,"subject_id":"90626","group":"Group1","condition":"1_Rep","full_date":"2026-01-31T22:33:36.973Z","date":"2026-01-31","time":"22:33:36","cor_ans":true},{"trial_type":"html-keyboard-response","rt":null,"stimulus":"<p style=\"color: green; font-size: 50px; font-weight: bold;\">Correct</p>","response":null,"trial_index":126,"plugin_version":"2.1.0","time_elapsed":329056,"subject_id":"90626","group":"Group1","condition":"1_Rep","full_date":"2026-01-31T22:33:36.973Z","date":"2026-01-31","time":"22:33:36"},{"correct_response":"a","task":"test_phase","broad_category":"I","image_png":"I_Pumice_14.png","image_id":142,"category_name":"Pumice","category":9,"distinct_rating":3.22,"distinct_type":"Bottom","item_type":"Foil","rt":906,"stimulus":"Stimuli_Rocks480/I_Pumice_14.png","response":"l","trial_type":"image-keyboard-response","trial_index":127,"plugin_version":"2.1.0","time_elapsed":329965,"subject_id":"90626","group":"Group1","condition":"1_Rep","full_date":"2026-01-31T22:33:36.973Z","date":"2026-01-31","time":"22:33:36","cor_ans":false},{"trial_type":"html-keyboard-response","rt":null,"stimulus":"<p style=\"color: red; font-size: 50px; font-weight: bold;\">Incorrect</p>","response":null,"trial_index":128,"plugin_version":"2.1.0","time_elapsed":330481,"subject_id":"90626","group":"Group1","condition":"1_Rep","full_date":"2026-01-31T22:33:36.973Z","date":"2026-01-31","time":"22:33:36"},{"correct_response":"l","task":"test_phase","broad_category":"S","image_png":"S_Rock Gypsum_04.png","image_id":420,"category_name":"Rock Gypsum","category":27,"distinct_rating":7.61,"distinct_type":"Top","item_type":"Target","rt":996,"stimulus":"Stimuli_Rocks480/S_Rock Gypsum_04.png","response":"l","trial_type":"image-keyboard-response","trial_index":129,"plugin_version":"2.1.0","time_elapsed":331480,"subject_id":"90626","group":"Group1","condition":"1_Rep","full_date":"2026-01-31T22:33:36.973Z","date":"2026-01-31","time":"22:33:36","cor_ans":true},{"trial_type":"html-keyboard-response","rt":null,"stimulus":"<p style=\"color: green; font-size: 50px; font-weight: bold;\">Correct</p>","response":null,"trial_index":130,"plugin_version":"2.1.0","time_elapsed":331987,"subject_id":"90626","group":"Group1","condition":"1_Rep","full_date":"2026-01-31T22:33:36.973Z","date":"2026-01-31","time":"22:33:36"},{"correct_response":"l","task":"test_phase","broad_category":"I","image_png":"I_Pegmatite_16.png","image_id":112,"category_name":"Pegmatite","category":7,"distinct_rating":7.03,"distinct_type":"Top","item_type":"Target","rt":1201,"stimulus":"Stimuli_Rocks480/I_Pegmatite_16.png","response":"l","trial_type":"image-keyboard-response","trial_index":131,"plugin_version":"2.1.0","time_elapsed":333190,"subject_id":"90626","group":"Group1","condition":"1_Rep","full_date":"2026-01-31T22:33:36.973Z","date":"2026-01-31","time":"22:33:36","cor_ans":true},{"trial_type":"html-keyboard-response","rt":null,"stimulus":"<p style=\"color: green; font-size: 50px; font-weight: bold;\">Correct</p>","response":null,"trial_index":132,"plugin_version":"2.1.0","time_elapsed":333692,"subject_id":"90626","group":"Group1","condition":"1_Rep","full_date":"2026-01-31T22:33:36.973Z","date":"2026-01-31","time":"22:33:36"},{"correct_response":"a","task":"test_phase","broad_category":"M","image_png":"M_Slate_10.png","image_id":314,"category_name":"Slate","category":20,"distinct_rating":1.94,"distinct_type":"Bottom","item_type":"Foil","rt":1132,"stimulus":"Stimuli_Rocks480/M_Slate_10.png","response":"l","trial_type":"image-keyboard-response","trial_index":133,"plugin_version":"2.1.0","time_elapsed":334829,"subject_id":"90626","group":"Group1","condition":"1_Rep","full_date":"2026-01-31T22:33:36.973Z","date":"2026-01-31","time":"22:33:36","cor_ans":false},{"trial_type":"html-keyboard-response","rt":null,"stimulus":"<p style=\"color: red; font-size: 50px; font-weight: bold;\">Incorrect</p>","response":null,"trial_index":134,"plugin_version":"2.1.0","time_elapsed":335342,"subject_id":"90626","group":"Group1","condition":"1_Rep","full_date":"2026-01-31T22:33:36.973Z","date":"2026-01-31","time":"22:33:36"},{"correct_response":"l","task":"test_phase","broad_category":"I","image_png":"I_Andesite_06.png","image_id":6,"category_name":"Andesite","category":1,"distinct_rating":3.17,"distinct_type":"Bottom","item_type":"Target","rt":1152,"stimulus":"Stimuli_Rocks480/I_Andesite_06.png","response":"l","trial_type":"image-keyboard-response","trial_index":135,"plugin_version":"2.1.0","time_elapsed":336498,"subject_id":"90626","group":"Group1","condition":"1_Rep","full_date":"2026-01-31T22:33:36.973Z","date":"2026-01-31","time":"22:33:36","cor_ans":true},{"trial_type":"html-keyboard-response","rt":null,"stimulus":"<p style=\"color: green; font-size: 50px; font-weight: bold;\">Correct</p>","response":null,"trial_index":136,"plugin_version":"2.1.0","time_elapsed":337013,"subject_id":"90626","group":"Group1","condition":"1_Rep","full_date":"2026-01-31T22:33:36.973Z","date":"2026-01-31","time":"22:33:36"},{"correct_response":"a","task":"test_phase","broad_category":"M","image_png":"M_Slate_04.png","image_id":308,"category_name":"Slate","category":20,"distinct_rating":2.2,"distinct_type":"Bottom","item_type":"Foil","rt":1058,"stimulus":"Stimuli_Rocks480/M_Slate_04.png","response":"l","trial_type":"image-keyboard-response","trial_index":137,"plugin_version":"2.1.0","time_elapsed":338074,"subject_id":"90626","group":"Group1","condition":"1_Rep","full_date":"2026-01-31T22:33:36.973Z","date":"2026-01-31","time":"22:33:36","cor_ans":false},{"trial_type":"html-keyboard-response","rt":null,"stimulus":"<p style=\"color: red; font-size: 50px; font-weight: bold;\">Incorrect</p>","response":null,"trial_index":138,"plugin_version":"2.1.0","time_elapsed":338576,"subject_id":"90626","group":"Group1","condition":"1_Rep","full_date":"2026-01-31T22:33:36.973Z","date":"2026-01-31","time":"22:33:36"},{"correct_response":"a","task":"test_phase","broad_category":"I","image_png":"I_Basalt_13.png","image_id":29,"category_name":"Basalt","category":2,"distinct_rating":2.68,"distinct_type":"Bottom","item_type":"Foil","rt":1234,"stimulus":"Stimuli_Rocks480/I_Basalt_13.png","response":"l","trial_type":"image-keyboard-response","trial_index":139,"plugin_version":"2.1.0","time_elapsed":339814,"subject_id":"90626","group":"Group1","condition":"1_Rep","full_date":"2026-01-31T22:33:36.973Z","date":"2026-01-31","time":"22:33:36","cor_ans":false},{"trial_type":"html-keyboard-response","rt":null,"stimulus":"<p style=\"color: red; font-size: 50px; font-weight: bold;\">Incorrect</p>","response":null,"trial_index":140,"plugin_version":"2.1.0","time_elapsed":340319,"subject_id":"90626","group":"Group1","condition":"1_Rep","full_date":"2026-01-31T22:33:36.973Z","date":"2026-01-31","time":"22:33:36"},{"correct_response":"a","task":"test_phase","broad_category":"I","image_png":"I_Basalt_08.png","image_id":24,"category_name":"Basalt","category":2,"distinct_rating":2.31,"distinct_type":"Bottom","item_type":"Foil","rt":739,"stimulus":"Stimuli_Rocks480/I_Basalt_08.png","response":"a","trial_type":"image-keyboard-response","trial_index":141,"plugin_version":"2.1.0","time_elapsed":341061,"subject_id":"90626","group":"Group1","condition":"1_Rep","full_date":"2026-01-31T22:33:36.973Z","date":"2026-01-31","time":"22:33:36","cor_ans":true},{"trial_type":"html-keyboard-response","rt":null,"stimulus":"<p style=\"color: green; font-size: 50px; font-weight: bold;\">Correct</p>","response":null,"trial_index":142,"plugin_version":"2.1.0","time_elapsed":341570,"subject_id":"90626","group":"Group1","condition":"1_Rep","full_date":"2026-01-31T22:33:36.973Z","date":"2026-01-31","time":"22:33:36"},{"correct_response":"l","task":"test_phase","broad_category":"I","image_png":"I_Pumice_12.png","image_id":140,"category_name":"Pumice","category":9,"distinct_rating":2.97,"distinct_type":"Bottom","item_type":"Target","rt":991,"stimulus":"Stimuli_Rocks480/I_Pumice_12.png","response":"a","trial_type":"image-keyboard-response","trial_index":143,"plugin_version":"2.1.0","time_elapsed":342563,"subject_id":"90626","group":"Group1","condition":"1_Rep","full_date":"2026-01-31T22:33:36.973Z","date":"2026-01-31","time":"22:33:36","cor_ans":false},{"trial_type":"html-keyboard-response","rt":null,"stimulus":"<p style=\"color: red; font-size: 50px; font-weight: bold;\">Incorrect</p>","response":null,"trial_index":144,"plugin_version":"2.1.0","time_elapsed":343068,"subject_id":"90626","group":"Group1","condition":"1_Rep","full_date":"2026-01-31T22:33:36.973Z","date":"2026-01-31","time":"22:33:36"},{"correct_response":"a","task":"test_phase","broad_category":"I","image_png":"I_Rhyolite_10.png","image_id":154,"category_name":"Rhyolite","category":10,"distinct_rating":2.88,"distinct_type":"Bottom","item_type":"Foil","rt":1094,"stimulus":"Stimuli_Rocks480/I_Rhyolite_10.png","response":"l","trial_type":"image-keyboard-response","trial_index":145,"plugin_version":"2.1.0","time_elapsed":344164,"subject_id":"90626","group":"Group1","condition":"1_Rep","full_date":"2026-01-31T22:33:36.973Z","date":"2026-01-31","time":"22:33:36","cor_ans":false},{"trial_type":"html-keyboard-response","rt":null,"stimulus":"<p style=\"color: red; font-size: 50px; font-weight: bold;\">Incorrect</p>","response":null,"trial_index":146,"plugin_version":"2.1.0","time_elapsed":344674,"subject_id":"90626","group":"Group1","condition":"1_Rep","full_date":"2026-01-31T22:33:36.973Z","date":"2026-01-31","time":"22:33:36"},{"correct_response":"l","task":"test_phase","broad_category":"S","image_png":"S_Dolomite_12.png","image_id":396,"category_name":"Dolomite","category":25,"distinct_rating":1.85,"distinct_type":"Bottom","item_type":"Target","rt":1405,"stimulus":"Stimuli_Rocks480/S_Dolomite_12.png","response":"a","trial_type":"image-keyboard-response","trial_index":147,"plugin_version":"2.1.0","time_elapsed":346081,"subject_id":"90626","group":"Group1","condition":"1_Rep","full_date":"2026-01-31T22:33:36.973Z","date":"2026-01-31","time":"22:33:36","cor_ans":false},{"trial_type":"html-keyboard-response","rt":null,"stimulus":"<p style=\"color: red; font-size: 50px; font-weight: bold;\">Incorrect</p>","response":null,"trial_index":148,"plugin_version":"2.1.0","time_elapsed":346585,"subject_id":"90626","group":"Group1","condition":"1_Rep","full_date":"2026-01-31T22:33:36.973Z","date":"2026-01-31","time":"22:33:36"},{"correct_response":"l","task":"test_phase","broad_category":"I","image_png":"I_Gabbro_16.png","image_id":64,"category_name":"Gabbro","category":4,"distinct_rating":2.52,"distinct_type":"Bottom","item_type":"Target","rt":1736,"stimulus":"Stimuli_Rocks480/I_Gabbro_16.png","response":"a","trial_type":"image-keyboard-response","trial_index":149,"plugin_version":"2.1.0","time_elapsed":348323,"subject_id":"90626","group":"Group1","condition":"1_Rep","full_date":"2026-01-31T22:33:36.973Z","date":"2026-01-31","time":"22:33:36","cor_ans":false},{"trial_type":"html-keyboard-response","rt":null,"stimulus":"<p style=\"color: red; font-size: 50px; font-weight: bold;\">Incorrect</p>","response":null,"trial_index":150,"plugin_version":"2.1.0","time_elapsed":348835,"subject_id":"90626","group":"Group1","condition":"1_Rep","full_date":"2026-01-31T22:33:36.973Z","date":"2026-01-31","time":"22:33:36"},{"correct_response":"a","task":"test_phase","broad_category":"I","image_png":"I_Andesite_09.png","image_id":9,"category_name":"Andesite","category":1,"distinct_rating":2.49,"distinct_type":"Bottom","item_type":"Foil","rt":828,"stimulus":"Stimuli_Rocks480/I_Andesite_09.png","response":"l","trial_type":"image-keyboard-response","trial_index":151,"plugin_version":"2.1.0","time_elapsed":349665,"subject_id":"90626","group":"Group1","condition":"1_Rep","full_date":"2026-01-31T22:33:36.973Z","date":"2026-01-31","time":"22:33:36","cor_ans":false},{"trial_type":"html-keyboard-response","rt":null,"stimulus":"<p style=\"color: red; font-size: 50px; font-weight: bold;\">Incorrect</p>","response":null,"trial_index":152,"plugin_version":"2.1.0","time_elapsed":350186,"subject_id":"90626","group":"Group1","condition":"1_Rep","full_date":"2026-01-31T22:33:36.973Z","date":"2026-01-31","time":"22:33:36"},{"correct_response":"a","task":"test_phase","broad_category":"S","image_png":"S_Shale_02.png","image_id":466,"category_name":"Shale","category":30,"distinct_rating":2.9,"distinct_type":"Bottom","item_type":"Foil","rt":788,"stimulus":"Stimuli_Rocks480/S_Shale_02.png","response":"l","trial_type":"image-keyboard-response","trial_index":153,"plugin_version":"2.1.0","time_elapsed":350977,"subject_id":"90626","group":"Group1","condition":"1_Rep","full_date":"2026-01-31T22:33:36.973Z","date":"2026-01-31","time":"22:33:36","cor_ans":false},{"trial_type":"html-keyboard-response","rt":null,"stimulus":"<p style=\"color: red; font-size: 50px; font-weight: bold;\">Incorrect</p>","response":null,"trial_index":154,"plugin_version":"2.1.0","time_elapsed":351486,"subject_id":"90626","group":"Group1","condition":"1_Rep","full_date":"2026-01-31T22:33:36.973Z","date":"2026-01-31","time":"22:33:36"},{"correct_response":"l","task":"test_phase","broad_category":"I","image_png":"I_Basalt_01.png","image_id":17,"category_name":"Basalt","category":2,"distinct_rating":1.92,"distinct_type":"Bottom","item_type":"Target","rt":2876,"stimulus":"Stimuli_Rocks480/I_Basalt_01.png","response":"l","trial_type":"image-keyboard-response","trial_index":155,"plugin_version":"2.1.0","time_elapsed":354364,"subject_id":"90626","group":"Group1","condition":"1_Rep","full_date":"2026-01-31T22:33:36.973Z","date":"2026-01-31","time":"22:33:36","cor_ans":true},{"trial_type":"html-keyboard-response","rt":null,"stimulus":"<p style=\"color: green; font-size: 50px; font-weight: bold;\">Correct</p>","response":null,"trial_index":156,"plugin_version":"2.1.0","time_elapsed":354872,"subject_id":"90626","group":"Group1","condition":"1_Rep","full_date":"2026-01-31T22:33:36.973Z","date":"2026-01-31","time":"22:33:36"},{"correct_response":"l","task":"test_phase","broad_category":"M","image_png":"M_Quartzite_08.png","image_id":280,"category_name":"Quartzite","category":18,"distinct_rating":2.15,"distinct_type":"Bottom","item_type":"Target","rt":2256,"stimulus":"Stimuli_Rocks480/M_Quartzite_08.png","response":"l","trial_type":"image-keyboard-response","trial_index":157,"plugin_version":"2.1.0","time_elapsed":357130,"subject_id":"90626","group":"Group1","condition":"1_Rep","full_date":"2026-01-31T22:33:36.973Z","date":"2026-01-31","time":"22:33:36","cor_ans":true},{"trial_type":"html-keyboard-response","rt":null,"stimulus":"<p style=\"color: green; font-size: 50px; font-weight: bold;\">Correct</p>","response":null,"trial_index":158,"plugin_version":"2.1.0","time_elapsed":357636,"subject_id":"90626","group":"Group1","condition":"1_Rep","full_date":"2026-01-31T22:33:36.973Z","date":"2026-01-31","time":"22:33:36"},{"correct_response":"a","task":"test_phase","broad_category":"S","image_png":"S_Dolomite_07.png","image_id":391,"category_name":"Dolomite","category":25,"distinct_rating":1.73,"distinct_type":"Bottom","item_type":"Foil","rt":2442,"stimulus":"Stimuli_Rocks480/S_Dolomite_07.png","response":"l","trial_type":"image-keyboard-response","trial_index":159,"plugin_version":"2.1.0","time_elapsed":360080,"subject_id":"90626","group":"Group1","condition":"1_Rep","full_date":"2026-01-31T22:33:36.973Z","date":"2026-01-31","time":"22:33:36","cor_ans":false},{"trial_type":"html-keyboard-response","rt":null,"stimulus":"<p style=\"color: red; font-size: 50px; font-weight: bold;\">Incorrect</p>","response":null,"trial_index":160,"plugin_version":"2.1.0","time_elapsed":360588,"subject_id":"90626","group":"Group1","condition":"1_Rep","full_date":"2026-01-31T22:33:36.973Z","date":"2026-01-31","time":"22:33:36"},{"correct_response":"a","task":"test_phase","broad_category":"M","image_png":"M_Marble_14.png","image_id":238,"category_name":"Marble","category":15,"distinct_rating":3.31,"distinct_type":"Bottom","item_type":"Foil","rt":1558,"stimulus":"Stimuli_Rocks480/M_Marble_14.png","response":"a","trial_type":"image-keyboard-response","trial_index":161,"plugin_version":"2.1.0","time_elapsed":362148,"subject_id":"90626","group":"Group1","condition":"1_Rep","full_date":"2026-01-31T22:33:36.973Z","date":"2026-01-31","time":"22:33:36","cor_ans":true},{"trial_type":"html-keyboard-response","rt":null,"stimulus":"<p style=\"color: green; font-size: 50px; font-weight: bold;\">Correct</p>","response":null,"trial_index":162,"plugin_version":"2.1.0","time_elapsed":362654,"subject_id":"90626","group":"Group1","condition":"1_Rep","full_date":"2026-01-31T22:33:36.973Z","date":"2026-01-31","time":"22:33:36"},{"correct_response":"a","task":"test_phase","broad_category":"M","image_png":"M_Marble_03.png","image_id":227,"category_name":"Marble","category":15,"distinct_rating":2.67,"distinct_type":"Bottom","item_type":"Foil","rt":3354,"stimulus":"Stimuli_Rocks480/M_Marble_03.png","response":"a","trial_type":"image-keyboard-response","trial_index":163,"plugin_version":"2.1.0","time_elapsed":366010,"subject_id":"90626","group":"Group1","condition":"1_Rep","full_date":"2026-01-31T22:33:36.973Z","date":"2026-01-31","time":"22:33:36","cor_ans":true},{"trial_type":"html-keyboard-response","rt":null,"stimulus":"<p style=\"color: green; font-size: 50px; font-weight: bold;\">Correct</p>","response":null,"trial_index":164,"plugin_version":"2.1.0","time_elapsed":366520,"subject_id":"90626","group":"Group1","condition":"1_Rep","full_date":"2026-01-31T22:33:36.973Z","date":"2026-01-31","time":"22:33:36"},{"correct_response":"l","task":"test_phase","broad_category":"S","image_png":"S_Conglomerate_05.png","image_id":373,"category_name":"Conglomerate","category":24,"distinct_rating":7.32,"distinct_type":"Top","item_type":"Target","rt":792,"stimulus":"Stimuli_Rocks480/S_Conglomerate_05.png","response":"l","trial_type":"image-keyboard-response","trial_index":165,"plugin_version":"2.1.0","time_elapsed":367314,"subject_id":"90626","group":"Group1","condition":"1_Rep","full_date":"2026-01-31T22:33:36.973Z","date":"2026-01-31","time":"22:33:36","cor_ans":true},{"trial_type":"html-keyboard-response","rt":null,"stimulus":"<p style=\"color: green; font-size: 50px; font-weight: bold;\">Correct</p>","response":null,"trial_index":166,"plugin_version":"2.1.0","time_elapsed":367826,"subject_id":"90626","group":"Group1","condition":"1_Rep","full_date":"2026-01-31T22:33:36.973Z","date":"2026-01-31","time":"22:33:36"},{"correct_response":"l","task":"test_phase","broad_category":"S","image_png":"S_Sandstone_03.png","image_id":451,"category_name":"Sandstone","category":29,"distinct_rating":1.86,"distinct_type":"Bottom","item_type":"Target","rt":1583,"stimulus":"Stimuli_Rocks480/S_Sandstone_03.png","response":"a","trial_type":"image-keyboard-response","trial_index":167,"plugin_version":"2.1.0","time_elapsed":369413,"subject_id":"90626","group":"Group1","condition":"1_Rep","full_date":"2026-01-31T22:33:36.973Z","date":"2026-01-31","time":"22:33:36","cor_ans":false},{"trial_type":"html-keyboard-response","rt":null,"stimulus":"<p style=\"color: red; font-size: 50px; font-weight: bold;\">Incorrect</p>","response":null,"trial_index":168,"plugin_version":"2.1.0","time_elapsed":369925,"subject_id":"90626","group":"Group1","condition":"1_Rep","full_date":"2026-01-31T22:33:36.973Z","date":"2026-01-31","time":"22:33:36"},{"correct_response":"a","task":"test_phase","broad_category":"I","image_png":"I_Diorite_01.png","image_id":33,"category_name":"Diorite","category":3,"distinct_rating":2.97,"distinct_type":"Bottom","item_type":"Foil","rt":1051,"stimulus":"Stimuli_Rocks480/I_Diorite_01.png","response":"l","trial_type":"image-keyboard-response","trial_index":169,"plugin_version":"2.1.0","time_elapsed":370980,"subject_id":"90626","group":"Group1","condition":"1_Rep","full_date":"2026-01-31T22:33:36.973Z","date":"2026-01-31","time":"22:33:36","cor_ans":false},{"trial_type":"html-keyboard-response","rt":null,"stimulus":"<p style=\"color: red; font-size: 50px; font-weight: bold;\">Incorrect</p>","response":null,"trial_index":170,"plugin_version":"2.1.0","time_elapsed":371486,"subject_id":"90626","group":"Group1","condition":"1_Rep","full_date":"2026-01-31T22:33:36.973Z","date":"2026-01-31","time":"22:33:36"},{"correct_response":"l","task":"test_phase","broad_category":"I","image_png":"I_Diorite_05.png","image_id":37,"category_name":"Diorite","category":3,"distinct_rating":3.08,"distinct_type":"Bottom","item_type":"Target","rt":826,"stimulus":"Stimuli_Rocks480/I_Diorite_05.png","response":"a","trial_type":"image-keyboard-response","trial_index":171,"plugin_version":"2.1.0","time_elapsed":372315,"subject_id":"90626","group":"Group1","condition":"1_Rep","full_date":"2026-01-31T22:33:36.973Z","date":"2026-01-31","time":"22:33:36","cor_ans":false},{"trial_type":"html-keyboard-response","rt":null,"stimulus":"<p style=\"color: red; font-size: 50px; font-weight: bold;\">Incorrect</p>","response":null,"trial_index":172,"plugin_version":"2.1.0","time_elapsed":372819,"subject_id":"90626","group":"Group1","condition":"1_Rep","full_date":"2026-01-31T22:33:36.973Z","date":"2026-01-31","time":"22:33:36"},{"correct_response":"l","task":"test_phase","broad_category":"M","image_png":"M_Gneiss_13.png","image_id":205,"category_name":"Gneiss","category":13,"distinct_rating":3.26,"distinct_type":"Bottom","item_type":"Target","rt":626,"stimulus":"Stimuli_Rocks480/M_Gneiss_13.png","response":"a","trial_type":"image-keyboard-response","trial_index":173,"plugin_version":"2.1.0","time_elapsed":373448,"subject_id":"90626","group":"Group1","condition":"1_Rep","full_date":"2026-01-31T22:33:36.973Z","date":"2026-01-31","time":"22:33:36","cor_ans":false},{"trial_type":"html-keyboard-response","rt":null,"stimulus":"<p style=\"color: red; font-size: 50px; font-weight: bold;\">Incorrect</p>","response":null,"trial_index":174,"plugin_version":"2.1.0","time_elapsed":373956,"subject_id":"90626","group":"Group1","condition":"1_Rep","full_date":"2026-01-31T22:33:36.973Z","date":"2026-01-31","time":"22:33:36"},{"correct_response":"a","task":"test_phase","broad_category":"S","image_png":"S_Sandstone_11.png","image_id":459,"category_name":"Sandstone","category":29,"distinct_rating":1.82,"distinct_type":"Bottom","item_type":"Foil","rt":2053,"stimulus":"Stimuli_Rocks480/S_Sandstone_11.png","response":"a","trial_type":"image-keyboard-response","trial_index":175,"plugin_version":"2.1.0","time_elapsed":376012,"subject_id":"90626","group":"Group1","condition":"1_Rep","full_date":"2026-01-31T22:33:36.973Z","date":"2026-01-31","time":"22:33:36","cor_ans":true},{"trial_type":"html-keyboard-response","rt":null,"stimulus":"<p style=\"color: green; font-size: 50px; font-weight: bold;\">Correct</p>","response":null,"trial_index":176,"plugin_version":"2.1.0","time_elapsed":376517,"subject_id":"90626","group":"Group1","condition":"1_Rep","full_date":"2026-01-31T22:33:36.973Z","date":"2026-01-31","time":"22:33:36"},{"correct_response":"a","task":"test_phase","broad_category":"S","image_png":"S_Sandstone_04.png","image_id":452,"category_name":"Sandstone","category":29,"distinct_rating":1.8,"distinct_type":"Bottom","item_type":"Foil","rt":1092,"stimulus":"Stimuli_Rocks480/S_Sandstone_04.png","response":"a","trial_type":"image-keyboard-response","trial_index":177,"plugin_version":"2.1.0","time_elapsed":377612,"subject_id":"90626","group":"Group1","condition":"1_Rep","full_date":"2026-01-31T22:33:36.973Z","date":"2026-01-31","time":"22:33:36","cor_ans":true},{"trial_type":"html-keyboard-response","rt":null,"stimulus":"<p style=\"color: green; font-size: 50px; font-weight: bold;\">Correct</p>","response":null,"trial_index":178,"plugin_version":"2.1.0","time_elapsed":378121,"subject_id":"90626","group":"Group1","condition":"1_Rep","full_date":"2026-01-31T22:33:36.973Z","date":"2026-01-31","time":"22:33:36"},{"correct_response":"a","task":"test_phase","broad_category":"I","image_png":"I_Diorite_10.png","image_id":42,"category_name":"Diorite","category":3,"distinct_rating":2.84,"distinct_type":"Bottom","item_type":"Foil","rt":856,"stimulus":"Stimuli_Rocks480/I_Diorite_10.png","response":"l","trial_type":"image-keyboard-response","trial_index":179,"plugin_version":"2.1.0","time_elapsed":378979,"subject_id":"90626","group":"Group1","condition":"1_Rep","full_date":"2026-01-31T22:33:36.973Z","date":"2026-01-31","time":"22:33:36","cor_ans":false},{"trial_type":"html-keyboard-response","rt":null,"stimulus":"<p style=\"color: red; font-size: 50px; font-weight: bold;\">Incorrect</p>","response":null,"trial_index":180,"plugin_version":"2.1.0","time_elapsed":379489,"subject_id":"90626","group":"Group1","condition":"1_Rep","full_date":"2026-01-31T22:33:36.973Z","date":"2026-01-31","time":"22:33:36"},{"correct_response":"a","task":"test_phase","broad_category":"I","image_png":"I_Rhyolite_08.png","image_id":152,"category_name":"Rhyolite","category":10,"distinct_rating":1.38,"distinct_type":"Bottom","item_type":"Foil","rt":1054,"stimulus":"Stimuli_Rocks480/I_Rhyolite_08.png","response":"l","trial_type":"image-keyboard-response","trial_index":181,"plugin_version":"2.1.0","time_elapsed":380546,"subject_id":"90626","group":"Group1","condition":"1_Rep","full_date":"2026-01-31T22:33:36.973Z","date":"2026-01-31","time":"22:33:36","cor_ans":false},{"trial_type":"html-keyboard-response","rt":null,"stimulus":"<p style=\"color: red; font-size: 50px; font-weight: bold;\">Incorrect</p>","response":null,"trial_index":182,"plugin_version":"2.1.0","time_elapsed":381052,"subject_id":"90626","group":"Group1","condition":"1_Rep","full_date":"2026-01-31T22:33:36.973Z","date":"2026-01-31","time":"22:33:36"},{"correct_response":"a","task":"test_phase","broad_category":"I","image_png":"I_Gabbro_12.png","image_id":60,"category_name":"Gabbro","category":4,"distinct_rating":2.6,"distinct_type":"Bottom","item_type":"Foil","rt":713,"stimulus":"Stimuli_Rocks480/I_Gabbro_12.png","response":"a","trial_type":"image-keyboard-response","trial_index":183,"plugin_version":"2.1.0","time_elapsed":381768,"subject_id":"90626","group":"Group1","condition":"1_Rep","full_date":"2026-01-31T22:33:36.973Z","date":"2026-01-31","time":"22:33:36","cor_ans":true},{"trial_type":"html-keyboard-response","rt":null,"stimulus":"<p style=\"color: green; font-size: 50px; font-weight: bold;\">Correct</p>","response":null,"trial_index":184,"plugin_version":"2.1.0","time_elapsed":382270,"subject_id":"90626","group":"Group1","condition":"1_Rep","full_date":"2026-01-31T22:33:36.973Z","date":"2026-01-31","time":"22:33:36"},{"correct_response":"l","task":"test_phase","broad_category":"I","image_png":"I_Obsidian_05.png","image_id":85,"category_name":"Obsidian","category":6,"distinct_rating":7.32,"distinct_type":"Top","item_type":"Target","rt":1106,"stimulus":"Stimuli_Rocks480/I_Obsidian_05.png","response":"a","trial_type":"image-keyboard-response","trial_index":185,"plugin_version":"2.1.0","time_elapsed":383379,"subject_id":"90626","group":"Group1","condition":"1_Rep","full_date":"2026-01-31T22:33:36.973Z","date":"2026-01-31","time":"22:33:36","cor_ans":false},{"trial_type":"html-keyboard-response","rt":null,"stimulus":"<p style=\"color: red; font-size: 50px; font-weight: bold;\">Incorrect</p>","response":null,"trial_index":186,"plugin_version":"2.1.0","time_elapsed":383895,"subject_id":"90626","group":"Group1","condition":"1_Rep","full_date":"2026-01-31T22:33:36.973Z","date":"2026-01-31","time":"22:33:36"},{"correct_response":"l","task":"test_phase","broad_category":"M","image_png":"M_Marble_04.png","image_id":228,"category_name":"Marble","category":15,"distinct_rating":3.15,"distinct_type":"Bottom","item_type":"Target","rt":993,"stimulus":"Stimuli_Rocks480/M_Marble_04.png","response":"a","trial_type":"image-keyboard-response","trial_index":187,"plugin_version":"2.1.0","time_elapsed":384890,"subject_id":"90626","group":"Group1","condition":"1_Rep","full_date":"2026-01-31T22:33:36.973Z","date":"2026-01-31","time":"22:33:36","cor_ans":false},{"trial_type":"html-keyboard-response","rt":null,"stimulus":"<p style=\"color: red; font-size: 50px; font-weight: bold;\">Incorrect</p>","response":null,"trial_index":188,"plugin_version":"2.1.0","time_elapsed":385395,"subject_id":"90626","group":"Group1","condition":"1_Rep","full_date":"2026-01-31T22:33:36.973Z","date":"2026-01-31","time":"22:33:36"},{"correct_response":"l","task":"test_phase","broad_category":"S","image_png":"S_Breccia_11.png","image_id":347,"category_name":"Breccia","category":22,"distinct_rating":6.7,"distinct_type":"Top","item_type":"Target","rt":1353,"stimulus":"Stimuli_Rocks480/S_Breccia_11.png","response":"l","trial_type":"image-keyboard-response","trial_index":189,"plugin_version":"2.1.0","time_elapsed":386750,"subject_id":"90626","group":"Group1","condition":"1_Rep","full_date":"2026-01-31T22:33:36.973Z","date":"2026-01-31","time":"22:33:36","cor_ans":true},{"trial_type":"html-keyboard-response","rt":null,"stimulus":"<p style=\"color: green; font-size: 50px; font-weight: bold;\">Correct</p>","response":null,"trial_index":190,"plugin_version":"2.1.0","time_elapsed":387266,"subject_id":"90626","group":"Group1","condition":"1_Rep","full_date":"2026-01-31T22:33:36.973Z","date":"2026-01-31","time":"22:33:36"},{"correct_response":"a","task":"test_phase","broad_category":"I","image_png":"I_Pumice_13.png","image_id":141,"category_name":"Pumice","category":9,"distinct_rating":3.12,"distinct_type":"Bottom","item_type":"Foil","rt":945,"stimulus":"Stimuli_Rocks480/I_Pumice_13.png","response":"l","trial_type":"image-keyboard-response","trial_index":191,"plugin_version":"2.1.0","time_elapsed":388214,"subject_id":"90626","group":"Group1","condition":"1_Rep","full_date":"2026-01-31T22:33:36.973Z","date":"2026-01-31","time":"22:33:36","cor_ans":false},{"trial_type":"html-keyboard-response","rt":null,"stimulus":"<p style=\"color: red; font-size: 50px; font-weight: bold;\">Incorrect</p>","response":null,"trial_index":192,"plugin_version":"2.1.0","time_elapsed":388728,"subject_id":"90626","group":"Group1","condition":"1_Rep","full_date":"2026-01-31T22:33:36.973Z","date":"2026-01-31","time":"22:33:36"},{"correct_response":"a","task":"test_phase","broad_category":"I","image_png":"I_Obsidian_06.png","image_id":86,"category_name":"Obsidian","category":6,"distinct_rating":8.01,"distinct_type":"Top","item_type":"Foil","rt":599,"stimulus":"Stimuli_Rocks480/I_Obsidian_06.png","response":"l","trial_type":"image-keyboard-response","trial_index":193,"plugin_version":"2.1.0","time_elapsed":389329,"subject_id":"90626","group":"Group1","condition":"1_Rep","full_date":"2026-01-31T22:33:36.973Z","date":"2026-01-31","time":"22:33:36","cor_ans":false},{"trial_type":"html-keyboard-response","rt":null,"stimulus":"<p style=\"color: red; font-size: 50px; font-weight: bold;\">Incorrect</p>","response":null,"trial_index":194,"plugin_version":"2.1.0","time_elapsed":389832,"subject_id":"90626","group":"Group1","condition":"1_Rep","full_date":"2026-01-31T22:33:36.973Z","date":"2026-01-31","time":"22:33:36"},{"correct_response":"a","task":"test_phase","broad_category":"M","image_png":"M_Slate_14.png","image_id":318,"category_name":"Slate","category":20,"distinct_rating":2.58,"distinct_type":"Bottom","item_type":"Foil","rt":1211,"stimulus":"Stimuli_Rocks480/M_Slate_14.png","response":"l","trial_type":"image-keyboard-response","trial_index":195,"plugin_version":"2.1.0","time_elapsed":391046,"subject_id":"90626","group":"Group1","condition":"1_Rep","full_date":"2026-01-31T22:33:36.973Z","date":"2026-01-31","time":"22:33:36","cor_ans":false},{"trial_type":"html-keyboard-response","rt":null,"stimulus":"<p style=\"color: red; font-size: 50px; font-weight: bold;\">Incorrect</p>","response":null,"trial_index":196,"plugin_version":"2.1.0","time_elapsed":391561,"subject_id":"90626","group":"Group1","condition":"1_Rep","full_date":"2026-01-31T22:33:36.973Z","date":"2026-01-31","time":"22:33:36"},{"correct_response":"l","task":"test_phase","broad_category":"M","image_png":"M_Phyllite_03.png","image_id":259,"category_name":"Phyllite","category":17,"distinct_rating":2.5,"distinct_type":"Bottom","item_type":"Target","rt":983,"stimulus":"Stimuli_Rocks480/M_Phyllite_03.png","response":"a","trial_type":"image-keyboard-response","trial_index":197,"plugin_version":"2.1.0","time_elapsed":392547,"subject_id":"90626","group":"Group1","condition":"1_Rep","full_date":"2026-01-31T22:33:36.973Z","date":"2026-01-31","time":"22:33:36","cor_ans":false},{"trial_type":"html-keyboard-response","rt":null,"stimulus":"<p style=\"color: red; font-size: 50px; font-weight: bold;\">Incorrect</p>","response":null,"trial_index":198,"plugin_version":"2.1.0","time_elapsed":393052,"subject_id":"90626","group":"Group1","condition":"1_Rep","full_date":"2026-01-31T22:33:36.973Z","date":"2026-01-31","time":"22:33:36"},{"correct_response":"l","task":"test_phase","broad_category":"S","image_png":"S_Chert_10.png","image_id":362,"category_name":"Chert","category":23,"distinct_rating":7.17,"distinct_type":"Top","item_type":"Target","rt":1576,"stimulus":"Stimuli_Rocks480/S_Chert_10.png","response":"l","trial_type":"image-keyboard-response","trial_index":199,"plugin_version":"2.1.0","time_elapsed":394631,"subject_id":"90626","group":"Group1","condition":"1_Rep","full_date":"2026-01-31T22:33:36.973Z","date":"2026-01-31","time":"22:33:36","cor_ans":true},{"trial_type":"html-keyboard-response","rt":null,"stimulus":"<p style=\"color: green; font-size: 50px; font-weight: bold;\">Correct</p>","response":null,"trial_index":200,"plugin_version":"2.1.0","time_elapsed":395134,"subject_id":"90626","group":"Group1","condition":"1_Rep","full_date":"2026-01-31T22:33:36.973Z","date":"2026-01-31","time":"22:33:36"},{"correct_response":"l","task":"test_phase","broad_category":"I","image_png":"I_Andesite_10.png","image_id":10,"category_name":"Andesite","category":1,"distinct_rating":3.15,"distinct_type":"Bottom","item_type":"Target","rt":1120,"stimulus":"Stimuli_Rocks480/I_Andesite_10.png","response":"l","trial_type":"image-keyboard-response","trial_index":201,"plugin_version":"2.1.0","time_elapsed":396257,"subject_id":"90626","group":"Group1","condition":"1_Rep","full_date":"2026-01-31T22:33:36.973Z","date":"2026-01-31","time":"22:33:36","cor_ans":true},{"trial_type":"html-keyboard-response","rt":null,"stimulus":"<p style=\"color: green; font-size: 50px; font-weight: bold;\">Correct</p>","response":null,"trial_index":202,"plugin_version":"2.1.0","time_elapsed":396771,"subject_id":"90626","group":"Group1","condition":"1_Rep","full_date":"2026-01-31T22:33:36.973Z","date":"2026-01-31","time":"22:33:36"},{"correct_response":"a","task":"test_phase","broad_category":"M","image_png":"M_Gneiss_15.png","image_id":207,"category_name":"Gneiss","category":13,"distinct_rating":3.11,"distinct_type":"Bottom","item_type":"Foil","rt":1478,"stimulus":"Stimuli_Rocks480/M_Gneiss_15.png","response":"a","trial_type":"image-keyboard-response","trial_index":203,"plugin_version":"2.1.0","time_elapsed":398251,"subject_id":"90626","group":"Group1","condition":"1_Rep","full_date":"2026-01-31T22:33:36.973Z","date":"2026-01-31","time":"22:33:36","cor_ans":true},{"trial_type":"html-keyboard-response","rt":null,"stimulus":"<p style=\"color: green; font-size: 50px; font-weight: bold;\">Correct</p>","response":null,"trial_index":204,"plugin_version":"2.1.0","time_elapsed":398753,"subject_id":"90626","group":"Group1","condition":"1_Rep","full_date":"2026-01-31T22:33:36.973Z","date":"2026-01-31","time":"22:33:36"},{"correct_response":"a","task":"test_phase","broad_category":"M","image_png":"M_Quartzite_12.png","image_id":284,"category_name":"Quartzite","category":18,"distinct_rating":1.92,"distinct_type":"Bottom","item_type":"Foil","rt":1307,"stimulus":"Stimuli_Rocks480/M_Quartzite_12.png","response":"a","trial_type":"image-keyboard-response","trial_index":205,"plugin_version":"2.1.0","time_elapsed":400062,"subject_id":"90626","group":"Group1","condition":"1_Rep","full_date":"2026-01-31T22:33:36.973Z","date":"2026-01-31","time":"22:33:36","cor_ans":true},{"trial_type":"html-keyboard-response","rt":null,"stimulus":"<p style=\"color: green; font-size: 50px; font-weight: bold;\">Correct</p>","response":null,"trial_index":206,"plugin_version":"2.1.0","time_elapsed":400578,"subject_id":"90626","group":"Group1","condition":"1_Rep","full_date":"2026-01-31T22:33:36.973Z","date":"2026-01-31","time":"22:33:36"},{"correct_response":"a","task":"test_phase","broad_category":"I","image_png":"I_Basalt_10.png","image_id":26,"category_name":"Basalt","category":2,"distinct_rating":2.76,"distinct_type":"Bottom","item_type":"Foil","rt":1448,"stimulus":"Stimuli_Rocks480/I_Basalt_10.png","response":"a","trial_type":"image-keyboard-response","trial_index":207,"plugin_version":"2.1.0","time_elapsed":402029,"subject_id":"90626","group":"Group1","condition":"1_Rep","full_date":"2026-01-31T22:33:36.973Z","date":"2026-01-31","time":"22:33:36","cor_ans":true},{"trial_type":"html-keyboard-response","rt":null,"stimulus":"<p style=\"color: green; font-size: 50px; font-weight: bold;\">Correct</p>","response":null,"trial_index":208,"plugin_version":"2.1.0","time_elapsed":402539,"subject_id":"90626","group":"Group1","condition":"1_Rep","full_date":"2026-01-31T22:33:36.973Z","date":"2026-01-31","time":"22:33:36"},{"correct_response":"a","task":"test_phase","broad_category":"M","image_png":"M_Gneiss_10.png","image_id":202,"category_name":"Gneiss","category":13,"distinct_rating":3.09,"distinct_type":"Bottom","item_type":"Foil","rt":850,"stimulus":"Stimuli_Rocks480/M_Gneiss_10.png","response":"a","trial_type":"image-keyboard-response","trial_index":209,"plugin_version":"2.1.0","time_elapsed":403394,"subject_id":"90626","group":"Group1","condition":"1_Rep","full_date":"2026-01-31T22:33:36.973Z","date":"2026-01-31","time":"22:33:36","cor_ans":true},{"trial_type":"html-keyboard-response","rt":null,"stimulus":"<p style=\"color: green; font-size: 50px; font-weight: bold;\">Correct</p>","response":null,"trial_index":210,"plugin_version":"2.1.0","time_elapsed":403904,"subject_id":"90626","group":"Group1","condition":"1_Rep","full_date":"2026-01-31T22:33:36.973Z","date":"2026-01-31","time":"22:33:36"},{"correct_response":"a","task":"test_phase","broad_category":"I","image_png":"I_Gabbro_02.png","image_id":50,"category_name":"Gabbro","category":4,"distinct_rating":2.73,"distinct_type":"Bottom","item_type":"Foil","rt":818,"stimulus":"Stimuli_Rocks480/I_Gabbro_02.png","response":"a","trial_type":"image-keyboard-response","trial_index":211,"plugin_version":"2.1.0","time_elapsed":404724,"subject_id":"90626","group":"Group1","condition":"1_Rep","full_date":"2026-01-31T22:33:36.973Z","date":"2026-01-31","time":"22:33:36","cor_ans":true},{"trial_type":"html-keyboard-response","rt":null,"stimulus":"<p style=\"color: green; font-size: 50px; font-weight: bold;\">Correct</p>","response":null,"trial_index":212,"plugin_version":"2.1.0","time_elapsed":405234,"subject_id":"90626","group":"Group1","condition":"1_Rep","full_date":"2026-01-31T22:33:36.973Z","date":"2026-01-31","time":"22:33:36"},{"correct_response":"a","task":"test_phase","broad_category":"I","image_png":"I_Pegmatite_03.png","image_id":99,"category_name":"Pegmatite","category":7,"distinct_rating":7.24,"distinct_type":"Top","item_type":"Foil","rt":1092,"stimulus":"Stimuli_Rocks480/I_Pegmatite_03.png","response":"l","trial_type":"image-keyboard-response","trial_index":213,"plugin_version":"2.1.0","time_elapsed":406328,"subject_id":"90626","group":"Group1","condition":"1_Rep","full_date":"2026-01-31T22:33:36.973Z","date":"2026-01-31","time":"22:33:36","cor_ans":false},{"trial_type":"html-keyboard-response","rt":null,"stimulus":"<p style=\"color: red; font-size: 50px; font-weight: bold;\">Incorrect</p>","response":null,"trial_index":214,"plugin_version":"2.1.0","time_elapsed":406844,"subject_id":"90626","group":"Group1","condition":"1_Rep","full_date":"2026-01-31T22:33:36.973Z","date":"2026-01-31","time":"22:33:36"},{"correct_response":"l","task":"test_phase","broad_category":"I","image_png":"I_Diorite_03.png","image_id":35,"category_name":"Diorite","category":3,"distinct_rating":3.14,"distinct_type":"Bottom","item_type":"Target","rt":1164,"stimulus":"Stimuli_Rocks480/I_Diorite_03.png","response":"l","trial_type":"image-keyboard-response","trial_index":215,"plugin_version":"2.1.0","time_elapsed":408010,"subject_id":"90626","group":"Group1","condition":"1_Rep","full_date":"2026-01-31T22:33:36.973Z","date":"2026-01-31","time":"22:33:36","cor_ans":true},{"trial_type":"html-keyboard-response","rt":null,"stimulus":"<p style=\"color: green; font-size: 50px; font-weight: bold;\">Correct</p>","response":null,"trial_index":216,"plugin_version":"2.1.0","time_elapsed":408527,"subject_id":"90626","group":"Group1","condition":"1_Rep","full_date":"2026-01-31T22:33:36.973Z","date":"2026-01-31","time":"22:33:36"},{"correct_response":"l","task":"test_phase","broad_category":"S","image_png":"S_Sandstone_15.png","image_id":463,"category_name":"Sandstone","category":29,"distinct_rating":2,"distinct_type":"Bottom","item_type":"Target","rt":767,"stimulus":"Stimuli_Rocks480/S_Sandstone_15.png","response":"a","trial_type":"image-keyboard-response","trial_index":217,"plugin_version":"2.1.0","time_elapsed":409296,"subject_id":"90626","group":"Group1","condition":"1_Rep","full_date":"2026-01-31T22:33:36.973Z","date":"2026-01-31","time":"22:33:36","cor_ans":false},{"trial_type":"html-keyboard-response","rt":null,"stimulus":"<p style=\"color: red; font-size: 50px; font-weight: bold;\">Incorrect</p>","response":null,"trial_index":218,"plugin_version":"2.1.0","time_elapsed":409807,"subject_id":"90626","group":"Group1","condition":"1_Rep","full_date":"2026-01-31T22:33:36.973Z","date":"2026-01-31","time":"22:33:36"},{"correct_response":"l","task":"test_phase","broad_category":"I","image_png":"I_Pumice_11.png","image_id":139,"category_name":"Pumice","category":9,"distinct_rating":1.74,"distinct_type":"Bottom","item_type":"Target","rt":781,"stimulus":"Stimuli_Rocks480/I_Pumice_11.png","response":"l","trial_type":"image-keyboard-response","trial_index":219,"plugin_version":"2.1.0","time_elapsed":410591,"subject_id":"90626","group":"Group1","condition":"1_Rep","full_date":"2026-01-31T22:33:36.973Z","date":"2026-01-31","time":"22:33:36","cor_ans":true},{"trial_type":"html-keyboard-response","rt":null,"stimulus":"<p style=\"color: green; font-size: 50px; font-weight: bold;\">Correct</p>","response":null,"trial_index":220,"plugin_version":"2.1.0","time_elapsed":411102,"subject_id":"90626","group":"Group1","condition":"1_Rep","full_date":"2026-01-31T22:33:36.973Z","date":"2026-01-31","time":"22:33:36"},{"correct_response":"a","task":"test_phase","broad_category":"S","image_png":"S_Sandstone_08.png","image_id":456,"category_name":"Sandstone","category":29,"distinct_rating":1.5,"distinct_type":"Bottom","item_type":"Foil","rt":740,"stimulus":"Stimuli_Rocks480/S_Sandstone_08.png","response":"l","trial_type":"image-keyboard-response","trial_index":221,"plugin_version":"2.1.0","time_elapsed":411845,"subject_id":"90626","group":"Group1","condition":"1_Rep","full_date":"2026-01-31T22:33:36.973Z","date":"2026-01-31","time":"22:33:36","cor_ans":false},{"trial_type":"html-keyboard-response","rt":null,"stimulus":"<p style=\"color: red; font-size: 50px; font-weight: bold;\">Incorrect</p>","response":null,"trial_index":222,"plugin_version":"2.1.0","time_elapsed":412352,"subject_id":"90626","group":"Group1","condition":"1_Rep","full_date":"2026-01-31T22:33:36.973Z","date":"2026-01-31","time":"22:33:36"},{"correct_response":"l","task":"test_phase","broad_category":"I","image_png":"I_Basalt_09.png","image_id":25,"category_name":"Basalt","category":2,"distinct_rating":1.89,"distinct_type":"Bottom","item_type":"Target","rt":690,"stimulus":"Stimuli_Rocks480/I_Basalt_09.png","response":"l","trial_type":"image-keyboard-response","trial_index":223,"plugin_version":"2.1.0","time_elapsed":413044,"subject_id":"90626","group":"Group1","condition":"1_Rep","full_date":"2026-01-31T22:33:36.973Z","date":"2026-01-31","time":"22:33:36","cor_ans":true},{"trial_type":"html-keyboard-response","rt":null,"stimulus":"<p style=\"color: green; font-size: 50px; font-weight: bold;\">Correct</p>","response":null,"trial_index":224,"plugin_version":"2.1.0","time_elapsed":413551,"subject_id":"90626","group":"Group1","condition":"1_Rep","full_date":"2026-01-31T22:33:36.973Z","date":"2026-01-31","time":"22:33:36"},{"correct_response":"l","task