[{"width":1710,"height":981,"webaudio":true,"browser":"chrome","browser_version":"143.0.0","mobile":false,"os":"Mac OS","fullscreen":true,"vsync_rate":60.14,"webcam":true,"microphone":true,"trial_type":"browser-check","trial_index":0,"plugin_version":"2.1.0","time_elapsed":1008,"subject_id":"91374","group":"Group1","condition":"3_Rep","full_date":"2026-02-23T19:36:54.632Z","date":"2026-02-23","time":"19:36:54"},{"success":true,"timeout":false,"failed_images":[],"failed_audio":[],"failed_video":[],"trial_type":"preload","trial_index":1,"plugin_version":"2.1.0","time_elapsed":21919,"subject_id":"91374","group":"Group1","condition":"3_Rep","full_date":"2026-02-23T19:36:54.632Z","date":"2026-02-23","time":"19:36:54"},{"rt":18062,"url":"SONA_consent_memorability.html","trial_type":"external-html","trial_index":2,"plugin_version":"2.1.0","time_elapsed":40006,"subject_id":"91374","group":"Group1","condition":"3_Rep","full_date":"2026-02-23T19:36:54.632Z","date":"2026-02-23","time":"19:36:54"},{"success":true,"rt":6656953,"trial_type":"fullscreen","trial_index":3,"plugin_version":"2.1.0","time_elapsed":13698528,"subject_id":"91374","group":"Group1","condition":"3_Rep","full_date":"2026-02-23T19:36:54.632Z","date":"2026-02-23","time":"19:36:54"},{"rt":5828,"stimulus":"<div style=\"max-width: 760px; margin: auto; font-size: 20px; line-height: 1.5;\">\n      <h1 style=\"text-align:center; font-size: 30px;\">Instructions</h1>\n      <p>\n        Welcome to the study on <b>visual memory</b>. This experiment consists of <b>two phases</b>: \n        a <b>study phase</b> and a <b>test phase</b>.\n      </p>\n      <p>\n        In the study phase, you will see a series of rock images along with their category labels.\n        The images will appear one at a time.\n        <b>Your task</b> is to learn the categories to which the rock images belong \n        and to remember each image as accurately as possible.\n      </p> \n      <p>\n        Note that we will repeat the study phase <b>3 times</b>, \n             so you will have multiple opportunities to see and remember each image.\n      </p>\n      <p>\n        After the study phase, <b>your memory will be tested</b>. \n        Additional instructions for the test phase will be provided at that time.\n      </p>\n      <p>\n        If your computer has multiple <b>language settings</b> (e.g., English and another language),\n        please make sure it is set to English before starting.\n      </p>\n      <p>\n        You can track your progress using the <b>completion bar</b> at the top of the screen. \n        Please note that the bar will refresh when the test phase begins \n        to give you an accurate sense of your progress in both phases.\n      </p> \n      <p>\n        Press the button below when you are ready to begin.\n      </p>\n    </div>","response":0,"trial_type":"html-button-response","trial_index":4,"plugin_version":"2.1.0","time_elapsed":13704359,"subject_id":"91374","group":"Group1","condition":"3_Rep","full_date":"2026-02-23T19:36:54.632Z","date":"2026-02-23","time":"19:36:54"},{"rt":null,"stimulus":"<p style=\"font-size: 50px; margin: 0; text-align: center;\">+</p>","response":null,"trial_type":"html-keyboard-response","trial_index":5,"plugin_version":"2.1.0","time_elapsed":13705362,"subject_id":"91374","group":"Group1","condition":"3_Rep","full_date":"2026-02-23T19:36:54.632Z","date":"2026-02-23","time":"19:36:54"},{"task":"memory_phase","broad_category":"I","image_png":"I_Basalt_02.png","image_id":18,"category_name":"Basalt","category":2,"distinct_rating":1.84,"distinct_type":"Bottom","rt":null,"stimulus":"Stimuli_Rocks480/I_Basalt_02.png","response":null,"trial_type":"image-keyboard-response","trial_index":6,"plugin_version":"2.1.0","time_elapsed":13707865,"subject_id":"91374","group":"Group1","condition":"3_Rep","full_date":"2026-02-23T19:36:54.632Z","date":"2026-02-23","time":"19:36:54"},{"rt":null,"stimulus":"<p style=\"font-size: 50px; margin: 0; text-align: center;\">+</p>","response":null,"trial_type":"html-keyboard-response","trial_index":7,"plugin_version":"2.1.0","time_elapsed":13708867,"subject_id":"91374","group":"Group1","condition":"3_Rep","full_date":"2026-02-23T19:36:54.632Z","date":"2026-02-23","time":"19:36:54"},{"task":"memory_phase","broad_category":"M","image_png":"M_Phyllite_10.png","image_id":266,"category_name":"Phyllite","category":17,"distinct_rating":2.6,"distinct_type":"Bottom","rt":null,"stimulus":"Stimuli_Rocks480/M_Phyllite_10.png","response":null,"trial_type":"image-keyboard-response","trial_index":8,"plugin_version":"2.1.0","time_elapsed":13711371,"subject_id":"91374","group":"Group1","condition":"3_Rep","full_date":"2026-02-23T19:36:54.632Z","date":"2026-02-23","time":"19:36:54"},{"rt":null,"stimulus":"<p style=\"font-size: 50px; margin: 0; text-align: center;\">+</p>","response":null,"trial_type":"html-keyboard-response","trial_index":9,"plugin_version":"2.1.0","time_elapsed":13712374,"subject_id":"91374","group":"Group1","condition":"3_Rep","full_date":"2026-02-23T19:36:54.632Z","date":"2026-02-23","time":"19:36:54"},{"task":"memory_phase","broad_category":"M","image_png":"M_Marble_04.png","image_id":228,"category_name":"Marble","category":15,"distinct_rating":3.15,"distinct_type":"Bottom","rt":null,"stimulus":"Stimuli_Rocks480/M_Marble_04.png","response":null,"trial_type":"image-keyboard-response","trial_index":10,"plugin_version":"2.1.0","time_elapsed":13714878,"subject_id":"91374","group":"Group1","condition":"3_Rep","full_date":"2026-02-23T19:36:54.632Z","date":"2026-02-23","time":"19:36:54"},{"rt":null,"stimulus":"<p style=\"font-size: 50px; margin: 0; text-align: center;\">+</p>","response":null,"trial_type":"html-keyboard-response","trial_index":11,"plugin_version":"2.1.0","time_elapsed":13715881,"subject_id":"91374","group":"Group1","condition":"3_Rep","full_date":"2026-02-23T19:36:54.632Z","date":"2026-02-23","time":"19:36:54"},{"task":"memory_phase","broad_category":"M","image_png":"M_Quartzite_08.png","image_id":280,"category_name":"Quartzite","category":18,"distinct_rating":2.15,"distinct_type":"Bottom","rt":null,"stimulus":"Stimuli_Rocks480/M_Quartzite_08.png","response":null,"trial_type":"image-keyboard-response","trial_index":12,"plugin_version":"2.1.0","time_elapsed":13718385,"subject_id":"91374","group":"Group1","condition":"3_Rep","full_date":"2026-02-23T19:36:54.632Z","date":"2026-02-23","time":"19:36:54"},{"rt":null,"stimulus":"<p style=\"font-size: 50px; margin: 0; text-align: center;\">+</p>","response":null,"trial_type":"html-keyboard-response","trial_index":13,"plugin_version":"2.1.0","time_elapsed":13719387,"subject_id":"91374","group":"Group1","condition":"3_Rep","full_date":"2026-02-23T19:36:54.632Z","date":"2026-02-23","time":"19:36:54"},{"task":"memory_phase","broad_category":"S","image_png":"S_Dolomite_14.png","image_id":398,"category_name":"Dolomite","category":25,"distinct_rating":1.43,"distinct_type":"Bottom","rt":null,"stimulus":"Stimuli_Rocks480/S_Dolomite_14.png","response":null,"trial_type":"image-keyboard-response","trial_index":14,"plugin_version":"2.1.0","time_elapsed":13721891,"subject_id":"91374","group":"Group1","condition":"3_Rep","full_date":"2026-02-23T19:36:54.632Z","date":"2026-02-23","time":"19:36:54"},{"rt":null,"stimulus":"<p style=\"font-size: 50px; margin: 0; text-align: center;\">+</p>","response":null,"trial_type":"html-keyboard-response","trial_index":15,"plugin_version":"2.1.0","time_elapsed":13722894,"subject_id":"91374","group":"Group1","condition":"3_Rep","full_date":"2026-02-23T19:36:54.632Z","date":"2026-02-23","time":"19:36:54"},{"task":"memory_phase","broad_category":"I","image_png":"I_Rhyolite_16.png","image_id":160,"category_name":"Rhyolite","category":10,"distinct_rating":2.19,"distinct_type":"Bottom","rt":null,"stimulus":"Stimuli_Rocks480/I_Rhyolite_16.png","response":null,"trial_type":"image-keyboard-response","trial_index":16,"plugin_version":"2.1.0","time_elapsed":13725398,"subject_id":"91374","group":"Group1","condition":"3_Rep","full_date":"2026-02-23T19:36:54.632Z","date":"2026-02-23","time":"19:36:54"},{"rt":null,"stimulus":"<p style=\"font-size: 50px; margin: 0; text-align: center;\">+</p>","response":null,"trial_type":"html-keyboard-response","trial_index":17,"plugin_version":"2.1.0","time_elapsed":13726401,"subject_id":"91374","group":"Group1","condition":"3_Rep","full_date":"2026-02-23T19:36:54.632Z","date":"2026-02-23","time":"19:36:54"},{"task":"memory_phase","broad_category":"I","image_png":"I_Pumice_11.png","image_id":139,"category_name":"Pumice","category":9,"distinct_rating":1.74,"distinct_type":"Bottom","rt":null,"stimulus":"Stimuli_Rocks480/I_Pumice_11.png","response":null,"trial_type":"image-keyboard-response","trial_index":18,"plugin_version":"2.1.0","time_elapsed":13728904,"subject_id":"91374","group":"Group1","condition":"3_Rep","full_date":"2026-02-23T19:36:54.632Z","date":"2026-02-23","time":"19:36:54"},{"rt":null,"stimulus":"<p style=\"font-size: 50px; margin: 0; text-align: center;\">+</p>","response":null,"trial_type":"html-keyboard-response","trial_index":19,"plugin_version":"2.1.0","time_elapsed":13729906,"subject_id":"91374","group":"Group1","condition":"3_Rep","full_date":"2026-02-23T19:36:54.632Z","date":"2026-02-23","time":"19:36:54"},{"task":"memory_phase","broad_category":"M","image_png":"M_Marble_16.png","image_id":240,"category_name":"Marble","category":15,"distinct_rating":2.57,"distinct_type":"Bottom","rt":null,"stimulus":"Stimuli_Rocks480/M_Marble_16.png","response":null,"trial_type":"image-keyboard-response","trial_index":20,"plugin_version":"2.1.0","time_elapsed":13732410,"subject_id":"91374","group":"Group1","condition":"3_Rep","full_date":"2026-02-23T19:36:54.632Z","date":"2026-02-23","time":"19:36:54"},{"rt":null,"stimulus":"<p style=\"font-size: 50px; margin: 0; text-align: center;\">+</p>","response":null,"trial_type":"html-keyboard-response","trial_index":21,"plugin_version":"2.1.0","time_elapsed":13733412,"subject_id":"91374","group":"Group1","condition":"3_Rep","full_date":"2026-02-23T19:36:54.632Z","date":"2026-02-23","time":"19:36:54"},{"task":"memory_phase","broad_category":"S","image_png":"S_Conglomerate_05.png","image_id":373,"category_name":"Conglomerate","category":24,"distinct_rating":7.32,"distinct_type":"Top","rt":null,"stimulus":"Stimuli_Rocks480/S_Conglomerate_05.png","response":null,"trial_type":"image-keyboard-response","trial_index":22,"plugin_version":"2.1.0","time_elapsed":13735916,"subject_id":"91374","group":"Group1","condition":"3_Rep","full_date":"2026-02-23T19:36:54.632Z","date":"2026-02-23","time":"19:36:54"},{"rt":null,"stimulus":"<p style=\"font-size: 50px; margin: 0; text-align: center;\">+</p>","response":null,"trial_type":"html-keyboard-response","trial_index":23,"plugin_version":"2.1.0","time_elapsed":13736919,"subject_id":"91374","group":"Group1","condition":"3_Rep","full_date":"2026-02-23T19:36:54.632Z","date":"2026-02-23","time":"19:36:54"},{"task":"memory_phase","broad_category":"S","image_png":"S_Sandstone_03.png","image_id":451,"category_name":"Sandstone","category":29,"distinct_rating":1.86,"distinct_type":"Bottom","rt":null,"stimulus":"Stimuli_Rocks480/S_Sandstone_03.png","response":null,"trial_type":"image-keyboard-response","trial_index":24,"plugin_version":"2.1.0","time_elapsed":13739423,"subject_id":"91374","group":"Group1","condition":"3_Rep","full_date":"2026-02-23T19:36:54.632Z","date":"2026-02-23","time":"19:36:54"},{"rt":null,"stimulus":"<p style=\"font-size: 50px; margin: 0; text-align: center;\">+</p>","response":null,"trial_type":"html-keyboard-response","trial_index":25,"plugin_version":"2.1.0","time_elapsed":13740426,"subject_id":"91374","group":"Group1","condition":"3_Rep","full_date":"2026-02-23T19:36:54.632Z","date":"2026-02-23","time":"19:36:54"},{"task":"memory_phase","broad_category":"M","image_png":"M_Gneiss_06.png","image_id":198,"category_name":"Gneiss","category":13,"distinct_rating":2.65,"distinct_type":"Bottom","rt":null,"stimulus":"Stimuli_Rocks480/M_Gneiss_06.png","response":null,"trial_type":"image-keyboard-response","trial_index":26,"plugin_version":"2.1.0","time_elapsed":13742930,"subject_id":"91374","group":"Group1","condition":"3_Rep","full_date":"2026-02-23T19:36:54.632Z","date":"2026-02-23","time":"19:36:54"},{"rt":null,"stimulus":"<p style=\"font-size: 50px; margin: 0; text-align: center;\">+</p>","response":null,"trial_type":"html-keyboard-response","trial_index":27,"plugin_version":"2.1.0","time_elapsed":13743932,"subject_id":"91374","group":"Group1","condition":"3_Rep","full_date":"2026-02-23T19:36:54.632Z","date":"2026-02-23","time":"19:36:54"},{"task":"memory_phase","broad_category":"M","image_png":"M_Quartzite_05.png","image_id":277,"category_name":"Quartzite","category":18,"distinct_rating":2.23,"distinct_type":"Bottom","rt":null,"stimulus":"Stimuli_Rocks480/M_Quartzite_05.png","response":null,"trial_type":"image-keyboard-response","trial_index":28,"plugin_version":"2.1.0","time_elapsed":13746436,"subject_id":"91374","group":"Group1","condition":"3_Rep","full_date":"2026-02-23T19:36:54.632Z","date":"2026-02-23","time":"19:36:54"},{"rt":null,"stimulus":"<p style=\"font-size: 50px; margin: 0; text-align: center;\">+</p>","response":null,"trial_type":"html-keyboard-response","trial_index":29,"plugin_version":"2.1.0","time_elapsed":13747439,"subject_id":"91374","group":"Group1","condition":"3_Rep","full_date":"2026-02-23T19:36:54.632Z","date":"2026-02-23","time":"19:36:54"},{"task":"memory_phase","broad_category":"S","image_png":"S_Dolomite_13.png","image_id":397,"category_name":"Dolomite","category":25,"distinct_rating":1.77,"distinct_type":"Bottom","rt":null,"stimulus":"Stimuli_Rocks480/S_Dolomite_13.png","response":null,"trial_type":"image-keyboard-response","trial_index":30,"plugin_version":"2.1.0","time_elapsed":13749943,"subject_id":"91374","group":"Group1","condition":"3_Rep","full_date":"2026-02-23T19:36:54.632Z","date":"2026-02-23","time":"19:36:54"},{"rt":null,"stimulus":"<p style=\"font-size: 50px; margin: 0; text-align: center;\">+</p>","response":null,"trial_type":"html-keyboard-response","trial_index":31,"plugin_version":"2.1.0","time_elapsed":13750945,"subject_id":"91374","group":"Group1","condition":"3_Rep","full_date":"2026-02-23T19:36:54.632Z","date":"2026-02-23","time":"19:36:54"},{"task":"memory_phase","broad_category":"I","image_png":"I_Pumice_12.png","image_id":140,"category_name":"Pumice","category":9,"distinct_rating":2.97,"distinct_type":"Bottom","rt":null,"stimulus":"Stimuli_Rocks480/I_Pumice_12.png","response":null,"trial_type":"image-keyboard-response","trial_index":32,"plugin_version":"2.1.0","time_elapsed":13753449,"subject_id":"91374","group":"Group1","condition":"3_Rep","full_date":"2026-02-23T19:36:54.632Z","date":"2026-02-23","time":"19:36:54"},{"rt":null,"stimulus":"<p style=\"font-size: 50px; margin: 0; text-align: center;\">+</p>","response":null,"trial_type":"html-keyboard-response","trial_index":33,"plugin_version":"2.1.0","time_elapsed":13754452,"subject_id":"91374","group":"Group1","condition":"3_Rep","full_date":"2026-02-23T19:36:54.632Z","date":"2026-02-23","time":"19:36:54"},{"task":"memory_phase","broad_category":"I","image_png":"I_Rhyolite_14.png","image_id":158,"category_name":"Rhyolite","category":10,"distinct_rating":2.59,"distinct_type":"Bottom","rt":null,"stimulus":"Stimuli_Rocks480/I_Rhyolite_14.png","response":null,"trial_type":"image-keyboard-response","trial_index":34,"plugin_version":"2.1.0","time_elapsed":13756955,"subject_id":"91374","group":"Group1","condition":"3_Rep","full_date":"2026-02-23T19:36:54.632Z","date":"2026-02-23","time":"19:36:54"},{"rt":null,"stimulus":"<p style=\"font-size: 50px; margin: 0; text-align: center;\">+</p>","response":null,"trial_type":"html-keyboard-response","trial_index":35,"plugin_version":"2.1.0","time_elapsed":13757958,"subject_id":"91374","group":"Group1","condition":"3_Rep","full_date":"2026-02-23T19:36:54.632Z","date":"2026-02-23","time":"19:36:54"},{"task":"memory_phase","broad_category":"I","image_png":"I_Andesite_10.png","image_id":10,"category_name":"Andesite","category":1,"distinct_rating":3.15,"distinct_type":"Bottom","rt":null,"stimulus":"Stimuli_Rocks480/I_Andesite_10.png","response":null,"trial_type":"image-keyboard-response","trial_index":36,"plugin_version":"2.1.0","time_elapsed":13760460,"subject_id":"91374","group":"Group1","condition":"3_Rep","full_date":"2026-02-23T19:36:54.632Z","date":"2026-02-23","time":"19:36:54"},{"rt":null,"stimulus":"<p style=\"font-size: 50px; margin: 0; text-align: center;\">+</p>","response":null,"trial_type":"html-keyboard-response","trial_index":37,"plugin_version":"2.1.0","time_elapsed":13761463,"subject_id":"91374","group":"Group1","condition":"3_Rep","full_date":"2026-02-23T19:36:54.632Z","date":"2026-02-23","time":"19:36:54"},{"task":"memory_phase","broad_category":"I","image_png":"I_Andesite_06.png","image_id":6,"category_name":"Andesite","category":1,"distinct_rating":3.17,"distinct_type":"Bottom","rt":null,"stimulus":"Stimuli_Rocks480/I_Andesite_06.png","response":null,"trial_type":"image-keyboard-response","trial_index":38,"plugin_version":"2.1.0","time_elapsed":13763967,"subject_id":"91374","group":"Group1","condition":"3_Rep","full_date":"2026-02-23T19:36:54.632Z","date":"2026-02-23","time":"19:36:54"},{"rt":null,"stimulus":"<p style=\"font-size: 50px; margin: 0; text-align: center;\">+</p>","response":null,"trial_type":"html-keyboard-response","trial_index":39,"plugin_version":"2.1.0","time_elapsed":13764969,"subject_id":"91374","group":"Group1","condition":"3_Rep","full_date":"2026-02-23T19:36:54.632Z","date":"2026-02-23","time":"19:36:54"},{"task":"memory_phase","broad_category":"I","image_png":"I_Basalt_01.png","image_id":17,"category_name":"Basalt","category":2,"distinct_rating":1.92,"distinct_type":"Bottom","rt":null,"stimulus":"Stimuli_Rocks480/I_Basalt_01.png","response":null,"trial_type":"image-keyboard-response","trial_index":40,"plugin_version":"2.1.0","time_elapsed":13767473,"subject_id":"91374","group":"Group1","condition":"3_Rep","full_date":"2026-02-23T19:36:54.632Z","date":"2026-02-23","time":"19:36:54"},{"rt":null,"stimulus":"<p style=\"font-size: 50px; margin: 0; text-align: center;\">+</p>","response":null,"trial_type":"html-keyboard-response","trial_index":41,"plugin_version":"2.1.0","time_elapsed":13768476,"subject_id":"91374","group":"Group1","condition":"3_Rep","full_date":"2026-02-23T19:36:54.632Z","date":"2026-02-23","time":"19:36:54"},{"task":"memory_phase","broad_category":"S","image_png":"S_Shale_12.png","image_id":476,"category_name":"Shale","category":30,"distinct_rating":2.48,"distinct_type":"Bottom","rt":null,"stimulus":"Stimuli_Rocks480/S_Shale_12.png","response":null,"trial_type":"image-keyboard-response","trial_index":42,"plugin_version":"2.1.0","time_elapsed":13770979,"subject_id":"91374","group":"Group1","condition":"3_Rep","full_date":"2026-02-23T19:36:54.632Z","date":"2026-02-23","time":"19:36:54"},{"rt":null,"stimulus":"<p style=\"font-size: 50px; margin: 0; text-align: center;\">+</p>","response":null,"trial_type":"html-keyboard-response","trial_index":43,"plugin_version":"2.1.0","time_elapsed":13771981,"subject_id":"91374","group":"Group1","condition":"3_Rep","full_date":"2026-02-23T19:36:54.632Z","date":"2026-02-23","time":"19:36:54"},{"task":"memory_phase","broad_category":"S","image_png":"S_Shale_08.png","image_id":472,"category_name":"Shale","category":30,"distinct_rating":2.55,"distinct_type":"Bottom","rt":null,"stimulus":"Stimuli_Rocks480/S_Shale_08.png","response":null,"trial_type":"image-keyboard-response","trial_index":44,"plugin_version":"2.1.0","time_elapsed":13774485,"subject_id":"91374","group":"Group1","condition":"3_Rep","full_date":"2026-02-23T19:36:54.632Z","date":"2026-02-23","time":"19:36:54"},{"rt":null,"stimulus":"<p style=\"font-size: 50px; margin: 0; text-align: center;\">+</p>","response":null,"trial_type":"html-keyboard-response","trial_index":45,"plugin_version":"2.1.0","time_elapsed":13775487,"subject_id":"91374","group":"Group1","condition":"3_Rep","full_date":"2026-02-23T19:36:54.632Z","date":"2026-02-23","time":"19:36:54"},{"task":"memory_phase","broad_category":"S","image_png":"S_Breccia_11.png","image_id":347,"category_name":"Breccia","category":22,"distinct_rating":6.7,"distinct_type":"Top","rt":null,"stimulus":"Stimuli_Rocks480/S_Breccia_11.png","response":null,"trial_type":"image-keyboard-response","trial_index":46,"plugin_version":"2.1.0","time_elapsed":13777991,"subject_id":"91374","group":"Group1","condition":"3_Rep","full_date":"2026-02-23T19:36:54.632Z","date":"2026-02-23","time":"19:36:54"},{"rt":null,"stimulus":"<p style=\"font-size: 50px; margin: 0; text-align: center;\">+</p>","response":null,"trial_type":"html-keyboard-response","trial_index":47,"plugin_version":"2.1.0","time_elapsed":13778994,"subject_id":"91374","group":"Group1","condition":"3_Rep","full_date":"2026-02-23T19:36:54.632Z","date":"2026-02-23","time":"19:36:54"},{"task":"memory_phase","broad_category":"I","image_png":"I_Obsidian_05.png","image_id":85,"category_name":"Obsidian","category":6,"distinct_rating":7.32,"distinct_type":"Top","rt":null,"stimulus":"Stimuli_Rocks480/I_Obsidian_05.png","response":null,"trial_type":"image-keyboard-response","trial_index":48,"plugin_version":"2.1.0","time_elapsed":13781497,"subject_id":"91374","group":"Group1","condition":"3_Rep","full_date":"2026-02-23T19:36:54.632Z","date":"2026-02-23","time":"19:36:54"},{"rt":null,"stimulus":"<p style=\"font-size: 50px; margin: 0; text-align: center;\">+</p>","response":null,"trial_type":"html-keyboard-response","trial_index":49,"plugin_version":"2.1.0","time_elapsed":13782499,"subject_id":"91374","group":"Group1","condition":"3_Rep","full_date":"2026-02-23T19:36:54.632Z","date":"2026-02-23","time":"19:36:54"},{"task":"memory_phase","broad_category":"M","image_png":"M_Gneiss_05.png","image_id":197,"category_name":"Gneiss","category":13,"distinct_rating":2.97,"distinct_type":"Bottom","rt":null,"stimulus":"Stimuli_Rocks480/M_Gneiss_05.png","response":null,"trial_type":"image-keyboard-response","trial_index":50,"plugin_version":"2.1.0","time_elapsed":13785003,"subject_id":"91374","group":"Group1","condition":"3_Rep","full_date":"2026-02-23T19:36:54.632Z","date":"2026-02-23","time":"19:36:54"},{"rt":null,"stimulus":"<p style=\"font-size: 50px; margin: 0; text-align: center;\">+</p>","response":null,"trial_type":"html-keyboard-response","trial_index":51,"plugin_version":"2.1.0","time_elapsed":13786006,"subject_id":"91374","group":"Group1","condition":"3_Rep","full_date":"2026-02-23T19:36:54.632Z","date":"2026-02-23","time":"19:36:54"},{"task":"memory_phase","broad_category":"I","image_png":"I_Diorite_05.png","image_id":37,"category_name":"Diorite","category":3,"distinct_rating":3.08,"distinct_type":"Bottom","rt":null,"stimulus":"Stimuli_Rocks480/I_Diorite_05.png","response":null,"trial_type":"image-keyboard-response","trial_index":52,"plugin_version":"2.1.0","time_elapsed":13788509,"subject_id":"91374","group":"Group1","condition":"3_Rep","full_date":"2026-02-23T19:36:54.632Z","date":"2026-02-23","time":"19:36:54"},{"rt":null,"stimulus":"<p style=\"font-size: 50px; margin: 0; text-align: center;\">+</p>","response":null,"trial_type":"html-keyboard-response","trial_index":53,"plugin_version":"2.1.0","time_elapsed":13789511,"subject_id":"91374","group":"Group1","condition":"3_Rep","full_date":"2026-02-23T19:36:54.632Z","date":"2026-02-23","time":"19:36:54"},{"task":"memory_phase","broad_category":"S","image_png":"S_Sandstone_15.png","image_id":463,"category_name":"Sandstone","category":29,"distinct_rating":2,"distinct_type":"Bottom","rt":null,"stimulus":"Stimuli_Rocks480/S_Sandstone_15.png","response":null,"trial_type":"image-keyboard-response","trial_index":54,"plugin_version":"2.1.0","time_elapsed":13792015,"subject_id":"91374","group":"Group1","condition":"3_Rep","full_date":"2026-02-23T19:36:54.632Z","date":"2026-02-23","time":"19:36:54"},{"rt":2287,"stimulus":"<p style=\"max-width: 760px; margin: auto; font-size: 35px; line-height: 1.5;\">\n                Press SPACE to continue study phase\n              </p>","response":" ","trial_type":"html-keyboard-response","trial_index":55,"plugin_version":"2.1.0","time_elapsed":13794304,"subject_id":"91374","group":"Group1","condition":"3_Rep","full_date":"2026-02-23T19:36:54.632Z","date":"2026-02-23","time":"19:36:54"},{"rt":null,"stimulus":"<p style=\"font-size: 50px; margin: 0; text-align: center;\">+</p>","response":null,"trial_type":"html-keyboard-response","trial_index":56,"plugin_version":"2.1.0","time_elapsed":13795307,"subject_id":"91374","group":"Group1","condition":"3_Rep","full_date":"2026-02-23T19:36:54.632Z","date":"2026-02-23","time":"19:36:54"},{"task":"memory_phase","broad_category":"M","image_png":"M_Marble_06.png","image_id":230,"category_name":"Marble","category":15,"distinct_rating":3.4,"distinct_type":"Bottom","rt":null,"stimulus":"Stimuli_Rocks480/M_Marble_06.png","response":null,"trial_type":"image-keyboard-response","trial_index":57,"plugin_version":"2.1.0","time_elapsed":13797810,"subject_id":"91374","group":"Group1","condition":"3_Rep","full_date":"2026-02-23T19:36:54.632Z","date":"2026-02-23","time":"19:36:54"},{"rt":null,"stimulus":"<p style=\"font-size: 50px; margin: 0; text-align: center;\">+</p>","response":null,"trial_type":"html-keyboard-response","trial_index":58,"plugin_version":"2.1.0","time_elapsed":13798813,"subject_id":"91374","group":"Group1","condition":"3_Rep","full_date":"2026-02-23T19:36:54.632Z","date":"2026-02-23","time":"19:36:54"},{"task":"memory_phase","broad_category":"I","image_png":"I_Basalt_09.png","image_id":25,"category_name":"Basalt","category":2,"distinct_rating":1.89,"distinct_type":"Bottom","rt":null,"stimulus":"Stimuli_Rocks480/I_Basalt_09.png","response":null,"trial_type":"image-keyboard-response","trial_index":59,"plugin_version":"2.1.0","time_elapsed":13801316,"subject_id":"91374","group":"Group1","condition":"3_Rep","full_date":"2026-02-23T19:36:54.632Z","date":"2026-02-23","time":"19:36:54"},{"rt":null,"stimulus":"<p style=\"font-size: 50px; margin: 0; text-align: center;\">+</p>","response":null,"trial_type":"html-keyboard-response","trial_index":60,"plugin_version":"2.1.0","time_elapsed":13802318,"subject_id":"91374","group":"Group1","condition":"3_Rep","full_date":"2026-02-23T19:36:54.632Z","date":"2026-02-23","time":"19:36:54"},{"task":"memory_phase","broad_category":"I","image_png":"I_Pumice_08.png","image_id":136,"category_name":"Pumice","category":9,"distinct_rating":3.1,"distinct_type":"Bottom","rt":null,"stimulus":"Stimuli_Rocks480/I_Pumice_08.png","response":null,"trial_type":"image-keyboard-response","trial_index":61,"plugin_version":"2.1.0","time_elapsed":13804822,"subject_id":"91374","group":"Group1","condition":"3_Rep","full_date":"2026-02-23T19:36:54.632Z","date":"2026-02-23","time":"19:36:54"},{"rt":null,"stimulus":"<p style=\"font-size: 50px; margin: 0; text-align: center;\">+</p>","response":null,"trial_type":"html-keyboard-response","trial_index":62,"plugin_version":"2.1.0","time_elapsed":13805824,"subject_id":"91374","group":"Group1","condition":"3_Rep","full_date":"2026-02-23T19:36:54.632Z","date":"2026-02-23","time":"19:36:54"},{"task":"memory_phase","broad_category":"M","image_png":"M_Slate_11.png","image_id":315,"category_name":"Slate","category":20,"distinct_rating":2.75,"distinct_type":"Bottom","rt":null,"stimulus":"Stimuli_Rocks480/M_Slate_11.png","response":null,"trial_type":"image-keyboard-response","trial_index":63,"plugin_version":"2.1.0","time_elapsed":13808328,"subject_id":"91374","group":"Group1","condition":"3_Rep","full_date":"2026-02-23T19:36:54.632Z","date":"2026-02-23","time":"19:36:54"},{"rt":null,"stimulus":"<p style=\"font-size: 50px; margin: 0; text-align: center;\">+</p>","response":null,"trial_type":"html-keyboard-response","trial_index":64,"plugin_version":"2.1.0","time_elapsed":13809330,"subject_id":"91374","group":"Group1","condition":"3_Rep","full_date":"2026-02-23T19:36:54.632Z","date":"2026-02-23","time":"19:36:54"},{"task":"memory_phase","broad_category":"M","image_png":"M_Phyllite_03.png","image_id":259,"category_name":"Phyllite","category":17,"distinct_rating":2.5,"distinct_type":"Bottom","rt":null,"stimulus":"Stimuli_Rocks480/M_Phyllite_03.png","response":null,"trial_type":"image-keyboard-response","trial_index":65,"plugin_version":"2.1.0","time_elapsed":13811833,"subject_id":"91374","group":"Group1","condition":"3_Rep","full_date":"2026-02-23T19:36:54.632Z","date":"2026-02-23","time":"19:36:54"},{"rt":null,"stimulus":"<p style=\"font-size: 50px; margin: 0; text-align: center;\">+</p>","response":null,"trial_type":"html-keyboard-response","trial_index":66,"plugin_version":"2.1.0","time_elapsed":13812836,"subject_id":"91374","group":"Group1","condition":"3_Rep","full_date":"2026-02-23T19:36:54.632Z","date":"2026-02-23","time":"19:36:54"},{"task":"memory_phase","broad_category":"S","image_png":"S_Rock Salt_01.png","image_id":433,"category_name":"Rock Salt","category":28,"distinct_rating":7.18,"distinct_type":"Top","rt":null,"stimulus":"Stimuli_Rocks480/S_Rock Salt_01.png","response":null,"trial_type":"image-keyboard-response","trial_index":67,"plugin_version":"2.1.0","time_elapsed":13815339,"subject_id":"91374","group":"Group1","condition":"3_Rep","full_date":"2026-02-23T19:36:54.632Z","date":"2026-02-23","time":"19:36:54"},{"rt":null,"stimulus":"<p style=\"font-size: 50px; margin: 0; text-align: center;\">+</p>","response":null,"trial_type":"html-keyboard-response","trial_index":68,"plugin_version":"2.1.0","time_elapsed":13816341,"subject_id":"91374","group":"Group1","condition":"3_Rep","full_date":"2026-02-23T19:36:54.632Z","date":"2026-02-23","time":"19:36:54"},{"task":"memory_phase","broad_category":"I","image_png":"I_Pegmatite_16.png","image_id":112,"category_name":"Pegmatite","category":7,"distinct_rating":7.03,"distinct_type":"Top","rt":null,"stimulus":"Stimuli_Rocks480/I_Pegmatite_16.png","response":null,"trial_type":"image-keyboard-response","trial_index":69,"plugin_version":"2.1.0","time_elapsed":13818845,"subject_id":"91374","group":"Group1","condition":"3_Rep","full_date":"2026-02-23T19:36:54.632Z","date":"2026-02-23","time":"19:36:54"},{"rt":null,"stimulus":"<p style=\"font-size: 50px; margin: 0; text-align: center;\">+</p>","response":null,"trial_type":"html-keyboard-response","trial_index":70,"plugin_version":"2.1.0","time_elapsed":13819847,"subject_id":"91374","group":"Group1","condition":"3_Rep","full_date":"2026-02-23T19:36:54.632Z","date":"2026-02-23","time":"19:36:54"},{"task":"memory_phase","broad_category":"M","image_png":"M_Slate_15.png","image_id":319,"category_name":"Slate","category":20,"distinct_rating":2.13,"distinct_type":"Bottom","rt":null,"stimulus":"Stimuli_Rocks480/M_Slate_15.png","response":null,"trial_type":"image-keyboard-response","trial_index":71,"plugin_version":"2.1.0","time_elapsed":13822350,"subject_id":"91374","group":"Group1","condition":"3_Rep","full_date":"2026-02-23T19:36:54.632Z","date":"2026-02-23","time":"19:36:54"},{"rt":null,"stimulus":"<p style=\"font-size: 50px; margin: 0; text-align: center;\">+</p>","response":null,"trial_type":"html-keyboard-response","trial_index":72,"plugin_version":"2.1.0","time_elapsed":13823353,"subject_id":"91374","group":"Group1","condition":"3_Rep","full_date":"2026-02-23T19:36:54.632Z","date":"2026-02-23","time":"19:36:54"},{"task":"memory_phase","broad_category":"M","image_png":"M_Phyllite_07.png","image_id":263,"category_name":"Phyllite","category":17,"distinct_rating":2.59,"distinct_type":"Bottom","rt":null,"stimulus":"Stimuli_Rocks480/M_Phyllite_07.png","response":null,"trial_type":"image-keyboard-response","trial_index":73,"plugin_version":"2.1.0","time_elapsed":13825856,"subject_id":"91374","group":"Group1","condition":"3_Rep","full_date":"2026-02-23T19:36:54.632Z","date":"2026-02-23","time":"19:36:54"},{"rt":null,"stimulus":"<p style=\"font-size: 50px; margin: 0; text-align: center;\">+</p>","response":null,"trial_type":"html-keyboard-response","trial_index":74,"plugin_version":"2.1.0","time_elapsed":13826859,"subject_id":"91374","group":"Group1","condition":"3_Rep","full_date":"2026-02-23T19:36:54.632Z","date":"2026-02-23","time":"19:36:54"},{"task":"memory_phase","broad_category":"S","image_png":"S_Chert_10.png","image_id":362,"category_name":"Chert","category":23,"distinct_rating":7.17,"distinct_type":"Top","rt":null,"stimulus":"Stimuli_Rocks480/S_Chert_10.png","response":null,"trial_type":"image-keyboard-response","trial_index":75,"plugin_version":"2.1.0","time_elapsed":13829362,"subject_id":"91374","group":"Group1","condition":"3_Rep","full_date":"2026-02-23T19:36:54.632Z","date":"2026-02-23","time":"19:36:54"},{"rt":null,"stimulus":"<p style=\"font-size: 50px; margin: 0; text-align: center;\">+</p>","response":null,"trial_type":"html-keyboard-response","trial_index":76,"plugin_version":"2.1.0","time_elapsed":13830365,"subject_id":"91374","group":"Group1","condition":"3_Rep","full_date":"2026-02-23T19:36:54.632Z","date":"2026-02-23","time":"19:36:54"},{"task":"memory_phase","broad_category":"I","image_png":"I_Gabbro_11.png","image_id":59,"category_name":"Gabbro","category":4,"distinct_rating":1.99,"distinct_type":"Bottom","rt":null,"stimulus":"Stimuli_Rocks480/I_Gabbro_11.png","response":null,"trial_type":"image-keyboard-response","trial_index":77,"plugin_version":"2.1.0","time_elapsed":13832868,"subject_id":"91374","group":"Group1","condition":"3_Rep","full_date":"2026-02-23T19:36:54.632Z","date":"2026-02-23","time":"19:36:54"},{"rt":null,"stimulus":"<p style=\"font-size: 50px; margin: 0; text-align: center;\">+</p>","response":null,"trial_type":"html-keyboard-response","trial_index":78,"plugin_version":"2.1.0","time_elapsed":13833870,"subject_id":"91374","group":"Group1","condition":"3_Rep","full_date":"2026-02-23T19:36:54.632Z","date":"2026-02-23","time":"19:36:54"},{"task":"memory_phase","broad_category":"S","image_png":"S_Dolomite_12.png","image_id":396,"category_name":"Dolomite","category":25,"distinct_rating":1.85,"distinct_type":"Bottom","rt":null,"stimulus":"Stimuli_Rocks480/S_Dolomite_12.png","response":null,"trial_type":"image-keyboard-response","trial_index":79,"plugin_version":"2.1.0","time_elapsed":13836374,"subject_id":"91374","group":"Group1","condition":"3_Rep","full_date":"2026-02-23T19:36:54.632Z","date":"2026-02-23","time":"19:36:54"},{"rt":null,"stimulus":"<p style=\"font-size: 50px; margin: 0; text-align: center;\">+</p>","response":null,"trial_type":"html-keyboard-response","trial_index":80,"plugin_version":"2.1.0","time_elapsed":13837377,"subject_id":"91374","group":"Group1","condition":"3_Rep","full_date":"2026-02-23T19:36:54.632Z","date":"2026-02-23","time":"19:36:54"},{"task":"memory_phase","broad_category":"I","image_png":"I_Diorite_04.png","image_id":36,"category_name":"Diorite","category":3,"distinct_rating":2.98,"distinct_type":"Bottom","rt":null,"stimulus":"Stimuli_Rocks480/I_Diorite_04.png","response":null,"trial_type":"image-keyboard-response","trial_index":81,"plugin_version":"2.1.0","time_elapsed":13839880,"subject_id":"91374","group":"Group1","condition":"3_Rep","full_date":"2026-02-23T19:36:54.632Z","date":"2026-02-23","time":"19:36:54"},{"rt":null,"stimulus":"<p style=\"font-size: 50px; margin: 0; text-align: center;\">+</p>","response":null,"trial_type":"html-keyboard-response","trial_index":82,"plugin_version":"2.1.0","time_elapsed":13840882,"subject_id":"91374","group":"Group1","condition":"3_Rep","full_date":"2026-02-23T19:36:54.632Z","date":"2026-02-23","time":"19:36:54"},{"task":"memory_phase","broad_category":"I","image_png":"I_Pegmatite_10.png","image_id":106,"category_name":"Pegmatite","category":7,"distinct_rating":7.66,"distinct_type":"Top","rt":null,"stimulus":"Stimuli_Rocks480/I_Pegmatite_10.png","response":null,"trial_type":"image-keyboard-response","trial_index":83,"plugin_version":"2.1.0","time_elapsed":13843386,"subject_id":"91374","group":"Group1","condition":"3_Rep","full_date":"2026-02-23T19:36:54.632Z","date":"2026-02-23","time":"19:36:54"},{"rt":null,"stimulus":"<p style=\"font-size: 50px; margin: 0; text-align: center;\">+</p>","response":null,"trial_type":"html-keyboard-response","trial_index":84,"plugin_version":"2.1.0","time_elapsed":13844389,"subject_id":"91374","group":"Group1","condition":"3_Rep","full_date":"2026-02-23T19:36:54.632Z","date":"2026-02-23","time":"19:36:54"},{"task":"memory_phase","broad_category":"S","image_png":"S_Rock Gypsum_04.png","image_id":420,"category_name":"Rock Gypsum","category":27,"distinct_rating":7.61,"distinct_type":"Top","rt":null,"stimulus":"Stimuli_Rocks480/S_Rock Gypsum_04.png","response":null,"trial_type":"image-keyboard-response","trial_index":85,"plugin_version":"2.1.0","time_elapsed":13846892,"subject_id":"91374","group":"Group1","condition":"3_Rep","full_date":"2026-02-23T19:36:54.632Z","date":"2026-02-23","time":"19:36:54"},{"rt":null,"stimulus":"<p style=\"font-size: 50px; margin: 0; text-align: center;\">+</p>","response":null,"trial_type":"html-keyboard-response","trial_index":86,"plugin_version":"2.1.0","time_elapsed":13847895,"subject_id":"91374","group":"Group1","condition":"3_Rep","full_date":"2026-02-23T19:36:54.632Z","date":"2026-02-23","time":"19:36:54"},{"task":"memory_phase","broad_category":"M","image_png":"M_Quartzite_13.png","image_id":285,"category_name":"Quartzite","category":18,"distinct_rating":2.27,"distinct_type":"Bottom","rt":null,"stimulus":"Stimuli_Rocks480/M_Quartzite_13.png","response":null,"trial_type":"image-keyboard-response","trial_index":87,"plugin_version":"2.1.0","time_elapsed":13850398,"subject_id":"91374","group":"Group1","condition":"3_Rep","full_date":"2026-02-23T19:36:54.632Z","date":"2026-02-23","time":"19:36:54"},{"rt":null,"stimulus":"<p style=\"font-size: 50px; margin: 0; text-align: center;\">+</p>","response":null,"trial_type":"html-keyboard-response","trial_index":88,"plugin_version":"2.1.0","time_elapsed":13851401,"subject_id":"91374","group":"Group1","condition":"3_Rep","full_date":"2026-02-23T19:36:54.632Z","date":"2026-02-23","time":"19:36:54"},{"task":"memory_phase","broad_category":"I","image_png":"I_Andesite_08.png","image_id":8,"category_name":"Andesite","category":1,"distinct_rating":1.95,"distinct_type":"Bottom","rt":null,"stimulus":"Stimuli_Rocks480/I_Andesite_08.png","response":null,"trial_type":"image-keyboard-response","trial_index":89,"plugin_version":"2.1.0","time_elapsed":13853904,"subject_id":"91374","group":"Group1","condition":"3_Rep","full_date":"2026-02-23T19:36:54.632Z","date":"2026-02-23","time":"19:36:54"},{"rt":null,"stimulus":"<p style=\"font-size: 50px; margin: 0; text-align: center;\">+</p>","response":null,"trial_type":"html-keyboard-response","trial_index":90,"plugin_version":"2.1.0","time_elapsed":13854906,"subject_id":"91374","group":"Group1","condition":"3_Rep","full_date":"2026-02-23T19:36:54.632Z","date":"2026-02-23","time":"19:36:54"},{"task":"memory_phase","broad_category":"S","image_png":"S_Sandstone_16.png","image_id":464,"category_name":"Sandstone","category":29,"distinct_rating":1.93,"distinct_type":"Bottom","rt":null,"stimulus":"Stimuli_Rocks480/S_Sandstone_16.png","response":null,"trial_type":"image-keyboard-response","trial_index":91,"plugin_version":"2.1.0","time_elapsed":13857410,"subject_id":"91374","group":"Group1","condition":"3_Rep","full_date":"2026-02-23T19:36:54.632Z","date":"2026-02-23","time":"19:36:54"},{"rt":null,"stimulus":"<p style=\"font-size: 50px; margin: 0; text-align: center;\">+</p>","response":null,"trial_type":"html-keyboard-response","trial_index":92,"plugin_version":"2.1.0","time_elapsed":13858412,"subject_id":"91374","group":"Group1","condition":"3_Rep","full_date":"2026-02-23T19:36:54.632Z","date":"2026-02-23","time":"19:36:54"},{"task":"memory_phase","broad_category":"I","image_png":"I_Gabbro_16.png","image_id":64,"category_name":"Gabbro","category":4,"distinct_rating":2.52,"distinct_type":"Bottom","rt":null,"stimulus":"Stimuli_Rocks480/I_Gabbro_16.png","response":null,"trial_type":"image-keyboard-response","trial_index":93,"plugin_version":"2.1.0","time_elapsed":13860915,"subject_id":"91374","group":"Group1","condition":"3_Rep","full_date":"2026-02-23T19:36:54.632Z","date":"2026-02-23","time":"19:36:54"},{"rt":null,"stimulus":"<p style=\"font-size: 50px; margin: 0; text-align: center;\">+</p>","response":null,"trial_type":"html-keyboard-response","trial_index":94,"plugin_version":"2.1.0","time_elapsed":13861918,"subject_id":"91374","group":"Group1","condition":"3_Rep","full_date":"2026-02-23T19:36:54.632Z","date":"2026-02-23","time":"19:36:54"},{"task":"memory_phase","broad_category":"M","image_png":"M_Slate_03.png","image_id":307,"category_name":"Slate","category":20,"distinct_rating":1.87,"distinct_type":"Bottom","rt":null,"stimulus":"Stimuli_Rocks480/M_Slate_03.png","response":null,"trial_type":"image-keyboard-response","trial_index":95,"plugin_version":"2.1.0","time_elapsed":13864421,"subject_id":"91374","group":"Group1","condition":"3_Rep","full_date":"2026-02-23T19:36:54.632Z","date":"2026-02-23","time":"19:36:54"},{"rt":null,"stimulus":"<p style=\"font-size: 50px; margin: 0; text-align: center;\">+</p>","response":null,"trial_type":"html-keyboard-response","trial_index":96,"plugin_version":"2.1.0","time_elapsed":13865424,"subject_id":"91374","group":"Group1","condition":"3_Rep","full_date":"2026-02-23T19:36:54.632Z","date":"2026-02-23","time":"19:36:54"},{"task":"memory_phase","broad_category":"I","image_png":"I_Diorite_03.png","image_id":35,"category_name":"Diorite","category":3,"distinct_rating":3.14,"distinct_type":"Bottom","rt":null,"stimulus":"Stimuli_Rocks480/I_Diorite_03.png","response":null,"trial_type":"image-keyboard-response","trial_index":97,"plugin_version":"2.1.0","time_elapsed":13867927,"subject_id":"91374","group":"Group1","condition":"3_Rep","full_date":"2026-02-23T19:36:54.632Z","date":"2026-02-23","time":"19:36:54"},{"rt":null,"stimulus":"<p style=\"font-size: 50px; margin: 0; text-align: center;\">+</p>","response":null,"trial_type":"html-keyboard-response","trial_index":98,"plugin_version":"2.1.0","time_elapsed":13868930,"subject_id":"91374","group":"Group1","condition":"3_Rep","full_date":"2026-02-23T19:36:54.632Z","date":"2026-02-23","time":"19:36:54"},{"task":"memory_phase","broad_category":"I","image_png":"I_Rhyolite_11.png","image_id":155,"category_name":"Rhyolite","category":10,"distinct_rating":1.73,"distinct_type":"Bottom","rt":null,"stimulus":"Stimuli_Rocks480/I_Rhyolite_11.png","response":null,"trial_type":"image-keyboard-response","trial_index":99,"plugin_version":"2.1.0","time_elapsed":13871433,"subject_id":"91374","group":"Group1","condition":"3_Rep","full_date":"2026-02-23T19:36:54.632Z","date":"2026-02-23","time":"19:36:54"},{"rt":null,"stimulus":"<p style=\"font-size: 50px; margin: 0; text-align: center;\">+</p>","response":null,"trial_type":"html-keyboard-response","trial_index":100,"plugin_version":"2.1.0","time_elapsed":13872436,"subject_id":"91374","group":"Group1","condition":"3_Rep","full_date":"2026-02-23T19:36:54.632Z","date":"2026-02-23","time":"19:36:54"},{"task":"memory_phase","broad_category":"M","image_png":"M_Gneiss_13.png","image_id":205,"category_name":"Gneiss","category":13,"distinct_rating":3.26,"distinct_type":"Bottom","rt":null,"stimulus":"Stimuli_Rocks480/M_Gneiss_13.png","response":null,"trial_type":"image-keyboard-response","trial_index":101,"plugin_version":"2.1.0","time_elapsed":13874939,"subject_id":"91374","group":"Group1","condition":"3_Rep","full_date":"2026-02-23T19:36:54.632Z","date":"2026-02-23","time":"19:36:54"},{"rt":null,"stimulus":"<p style=\"font-size: 50px; margin: 0; text-align: center;\">+</p>","response":null,"trial_type":"html-keyboard-response","trial_index":102,"plugin_version":"2.1.0","time_elapsed":13875941,"subject_id":"91374","group":"Group1","condition":"3_Rep","full_date":"2026-02-23T19:36:54.632Z","date":"2026-02-23","time":"19:36:54"},{"task":"memory_phase","broad_category":"S","image_png":"S_Shale_01.png","image_id":465,"category_name":"Shale","category":30,"distinct_rating":2.7,"distinct_type":"Bottom","rt":null,"stimulus":"Stimuli_Rocks480/S_Shale_01.png","response":null,"trial_type":"image-keyboard-response","trial_index":103,"plugin_version":"2.1.0","time_elapsed":13878443,"subject_id":"91374","group":"Group1","condition":"3_Rep","full_date":"2026-02-23T19:36:54.632Z","date":"2026-02-23","time":"19:36:54"},{"rt":null,"stimulus":"<p style=\"font-size: 50px; margin: 0; text-align: center;\">+</p>","response":null,"trial_type":"html-keyboard-response","trial_index":104,"plugin_version":"2.1.0","time_elapsed":13879446,"subject_id":"91374","group":"Group1","condition":"3_Rep","full_date":"2026-02-23T19:36:54.632Z","date":"2026-02-23","time":"19:36:54"},{"task":"memory_phase","broad_category":"I","image_png":"I_Gabbro_08.png","image_id":56,"category_name":"Gabbro","category":4,"distinct_rating":3.02,"distinct_type":"Bottom","rt":null,"stimulus":"Stimuli_Rocks480/I_Gabbro_08.png","response":null,"trial_type":"image-keyboard-response","trial_index":105,"plugin_version":"2.1.0","time_elapsed":13881950,"subject_id":"91374","group":"Group1","condition":"3_Rep","full_date":"2026-02-23T19:36:54.632Z","date":"2026-02-23","time":"19:36:54"},{"rt":3862,"stimulus":"<p style=\"max-width: 760px; margin: auto; font-size: 35px; line-height: 1.5;\">\n                You have completed 1 study phase. \n                Now, we'll show you all the images again 2 more times.\n                <br><br>Press SPACE to continue\n              </p>","response":" ","trial_type":"html-keyboard-response","trial_index":106,"plugin_version":"2.1.0","time_elapsed":13885813,"subject_id":"91374","group":"Group1","condition":"3_Rep","full_date":"2026-02-23T19:36:54.632Z","date":"2026-02-23","time":"19:36:54"},{"rt":null,"stimulus":"<p style=\"font-size: 50px; margin: 0; text-align: center;\">+</p>","response":null,"trial_type":"html-keyboard-response","trial_index":107,"plugin_version":"2.1.0","time_elapsed":13886816,"subject_id":"91374","group":"Group1","condition":"3_Rep","full_date":"2026-02-23T19:36:54.632Z","date":"2026-02-23","time":"19:36:54"},{"task":"memory_phase","broad_category":"M","image_png":"M_Quartzite_05.png","image_id":277,"category_name":"Quartzite","category":18,"distinct_rating":2.23,"distinct_type":"Bottom","rt":null,"stimulus":"Stimuli_Rocks480/M_Quartzite_05.png","response":null,"trial_type":"image-keyboard-response","trial_index":108,"plugin_version":"2.1.0","time_elapsed":13889320,"subject_id":"91374","group":"Group1","condition":"3_Rep","full_date":"2026-02-23T19:36:54.632Z","date":"2026-02-23","time":"19:36:54"},{"rt":null,"stimulus":"<p style=\"font-size: 50px; margin: 0; text-align: center;\">+</p>","response":null,"trial_type":"html-keyboard-response","trial_index":109,"plugin_version":"2.1.0","time_elapsed":13890323,"subject_id":"91374","group":"Group1","condition":"3_Rep","full_date":"2026-02-23T19:36:54.632Z","date":"2026-02-23","time":"19:36:54"},{"task":"memory_phase","broad_category":"S","image_png":"S_Chert_10.png","image_id":362,"category_name":"Chert","category":23,"distinct_rating":7.17,"distinct_type":"Top","rt":null,"stimulus":"Stimuli_Rocks480/S_Chert_10.png","response":null,"trial_type":"image-keyboard-response","trial_index":110,"plugin_version":"2.1.0","time_elapsed":13892826,"subject_id":"91374","group":"Group1","condition":"3_Rep","full_date":"2026-02-23T19:36:54.632Z","date":"2026-02-23","time":"19:36:54"},{"rt":null,"stimulus":"<p style=\"font-size: 50px; margin: 0; text-align: center;\">+</p>","response":null,"trial_type":"html-keyboard-response","trial_index":111,"plugin_version":"2.1.0","time_elapsed":13893828,"subject_id":"91374","group":"Group1","condition":"3_Rep","full_date":"2026-02-23T19:36:54.632Z","date":"2026-02-23","time":"19:36:54"},{"task":"memory_phase","broad_category":"I","image_png":"I_Rhyolite_14.png","image_id":158,"category_name":"Rhyolite","category":10,"distinct_rating":2.59,"distinct_type":"Bottom","rt":null,"stimulus":"Stimuli_Rocks480/I_Rhyolite_14.png","response":null,"trial_type":"image-keyboard-response","trial_index":112,"plugin_version":"2.1.0","time_elapsed":13896332,"subject_id":"91374","group":"Group1","condition":"3_Rep","full_date":"2026-02-23T19:36:54.632Z","date":"2026-02-23","time":"19:36:54"},{"rt":null,"stimulus":"<p style=\"font-size: 50px; margin: 0; text-align: center;\">+</p>","response":null,"trial_type":"html-keyboard-response","trial_index":113,"plugin_version":"2.1.0","time_elapsed":13897334,"subject_id":"91374","group":"Group1","condition":"3_Rep","full_date":"2026-02-23T19:36:54.632Z","date":"2026-02-23","time":"19:36:54"},{"task":"memory_phase","broad_category":"I","image_png":"I_Pumice_08.png","image_id":136,"category_name":"Pumice","category":9,"distinct_rating":3.1,"distinct_type":"Bottom","rt":null,"stimulus":"Stimuli_Rocks480/I_Pumice_08.png","response":null,"trial_type":"image-keyboard-response","trial_index":114,"plugin_version":"2.1.0","time_elapsed":13899837,"subject_id":"91374","group":"Group1","condition":"3_Rep","full_date":"2026-02-23T19:36:54.632Z","date":"2026-02-23","time":"19:36:54"},{"rt":null,"stimulus":"<p style=\"font-size: 50px; margin: 0; text-align: center;\">+</p>","response":null,"trial_type":"html-keyboard-response","trial_index":115,"plugin_version":"2.1.0","time_elapsed":13900839,"subject_id":"91374","group":"Group1","condition":"3_Rep","full_date":"2026-02-23T19:36:54.632Z","date":"2026-02-23","time":"19:36:54"},{"task":"memory_phase","broad_category":"I","image_png":"I_Gabbro_11.png","image_id":59,"category_name":"Gabbro","category":4,"distinct_rating":1.99,"distinct_type":"Bottom","rt":null,"stimulus":"Stimuli_Rocks480/I_Gabbro_11.png","response":null,"trial_type":"image-keyboard-response","trial_index":116,"plugin_version":"2.1.0","time_elapsed":13903342,"subject_id":"91374","group":"Group1","condition":"3_Rep","full_date":"2026-02-23T19:36:54.632Z","date":"2026-02-23","time":"19:36:54"},{"rt":null,"stimulus":"<p style=\"font-size: 50px; margin: 0; text-align: center;\">+</p>","response":null,"trial_type":"html-keyboard-response","trial_index":117,"plugin_version":"2.1.0","time_elapsed":13904345,"subject_id":"91374","group":"Group1","condition":"3_Rep","full_date":"2026-02-23T19:36:54.632Z","date":"2026-02-23","time":"19:36:54"},{"task":"memory_phase","broad_category":"S","image_png":"S_Sandstone_16.png","image_id":464,"category_name":"Sandstone","category":29,"distinct_rating":1.93,"distinct_type":"Bottom","rt":null,"stimulus":"Stimuli_Rocks480/S_Sandstone_16.png","response":null,"trial_type":"image-keyboard-response","trial_index":118,"plugin_version":"2.1.0","time_elapsed":13906849,"subject_id":"91374","group":"Group1","condition":"3_Rep","full_date":"2026-02-23T19:36:54.632Z","date":"2026-02-23","time":"19:36:54"},{"rt":null,"stimulus":"<p style=\"font-size: 50px; margin: 0; text-align: center;\">+</p>","response":null,"trial_type":"html-keyboard-response","trial_index":119,"plugin_version":"2.1.0","time_elapsed":13907852,"subject_id":"91374","group":"Group1","condition":"3_Rep","full_date":"2026-02-23T19:36:54.632Z","date":"2026-02-23","time":"19:36:54"},{"task":"memory_phase","broad_category":"I","image_png":"I_Andesite_08.png","image_id":8,"category_name":"Andesite","category":1,"distinct_rating":1.95,"distinct_type":"Bottom","rt":null,"stimulus":"Stimuli_Rocks480/I_Andesite_08.png","response":null,"trial_type":"image-keyboard-response","trial_index":120,"plugin_version":"2.1.0","time_elapsed":13910355,"subject_id":"91374","group":"Group1","condition":"3_Rep","full_date":"2026-02-23T19:36:54.632Z","date":"2026-02-23","time":"19:36:54"},{"rt":null,"stimulus":"<p style=\"font-size: 50px; margin: 0; text-align: center;\">+</p>","response":null,"trial_type":"html-keyboard-response","trial_index":121,"plugin_version":"2.1.0","time_elapsed":13911358,"subject_id":"91374","group":"Group1","condition":"3_Rep","full_date":"2026-02-23T19:36:54.632Z","date":"2026-02-23","time":"19:36:54"},{"task":"memory_phase","broad_category":"S","image_png":"S_Shale_12.png","image_id":476,"category_name":"Shale","category":30,"distinct_rating":2.48,"distinct_type":"Bottom","rt":null,"stimulus":"Stimuli_Rocks480/S_Shale_12.png","response":null,"trial_type":"image-keyboard-response","trial_index":122,"plugin_version":"2.1.0","time_elapsed":13913862,"subject_id":"91374","group":"Group1","condition":"3_Rep","full_date":"2026-02-23T19:36:54.632Z","date":"2026-02-23","time":"19:36:54"},{"rt":null,"stimulus":"<p style=\"font-size: 50px; margin: 0; text-align: center;\">+</p>","response":null,"trial_type":"html-keyboard-response","trial_index":123,"plugin_version":"2.1.0","time_elapsed":13914864,"subject_id":"91374","group":"Group1","condition":"3_Rep","full_date":"2026-02-23T19:36:54.632Z","date":"2026-02-23","time":"19:36:54"},{"task":"memory_phase","broad_category":"I","image_png":"I_Gabbro_08.png","image_id":56,"category_name":"Gabbro","category":4,"distinct_rating":3.02,"distinct_type":"Bottom","rt":null,"stimulus":"Stimuli_Rocks480/I_Gabbro_08.png","response":null,"trial_type":"image-keyboard-response","trial_index":124,"plugin_version":"2.1.0","time_elapsed":13917368,"subject_id":"91374","group":"Group1","condition":"3_Rep","full_date":"2026-02-23T19:36:54.632Z","date":"2026-02-23","time":"19:36:54"},{"rt":null,"stimulus":"<p style=\"font-size: 50px; margin: 0; text-align: center;\">+</p>","response":null,"trial_type":"html-keyboard-response","trial_index":125,"plugin_version":"2.1.0","time_elapsed":13918371,"subject_id":"91374","group":"Group1","condition":"3_Rep","full_date":"2026-02-23T19:36:54.632Z","date":"2026-02-23","time":"19:36:54"},{"task":"memory_phase","broad_category":"S","image_png":"S_Dolomite_14.png","image_id":398,"category_name":"Dolomite","category":25,"distinct_rating":1.43,"distinct_type":"Bottom","rt":null,"stimulus":"Stimuli_Rocks480/S_Dolomite_14.png","response":null,"trial_type":"image-keyboard-response","trial_index":126,"plugin_version":"2.1.0","time_elapsed":13920874,"subject_id":"91374","group":"Group1","condition":"3_Rep","full_date":"2026-02-23T19:36:54.632Z","date":"2026-02-23","time":"19:36:54"},{"rt":null,"stimulus":"<p style=\"font-size: 50px; margin: 0; text-align: center;\">+</p>","response":null,"trial_type":"html-keyboard-response","trial_index":127,"plugin_version":"2.1.0","time_elapsed":13921877,"subject_id":"91374","group":"Group1","condition":"3_Rep","full_date":"2026-02-23T19:36:54.632Z","date":"2026-02-23","time":"19:36:54"},{"task":"memory_phase","broad_category":"M","image_png":"M_Marble_06.png","image_id":230,"category_name":"Marble","category":15,"distinct_rating":3.4,"distinct_type":"Bottom","rt":null,"stimulus":"Stimuli_Rocks480/M_Marble_06.png","response":null,"trial_type":"image-keyboard-response","trial_index":128,"plugin_version":"2.1.0","time_elapsed":13924380,"subject_id":"91374","group":"Group1","condition":"3_Rep","full_date":"2026-02-23T19:36:54.632Z","date":"2026-02-23","time":"19:36:54"},{"rt":null,"stimulus":"<p style=\"font-size: 50px; margin: 0; text-align: center;\">+</p>","response":null,"trial_type":"html-keyboard-response","trial_index":129,"plugin_version":"2.1.0","time_elapsed":13925382,"subject_id":"91374","group":"Group1","condition":"3_Rep","full_date":"2026-02-23T19:36:54.632Z","date":"2026-02-23","time":"19:36:54"},{"task":"memory_phase","broad_category":"I","image_png":"I_Basalt_02.png","image_id":18,"category_name":"Basalt","category":2,"distinct_rating":1.84,"distinct_type":"Bottom","rt":null,"stimulus":"Stimuli_Rocks480/I_Basalt_02.png","response":null,"trial_type":"image-keyboard-response","trial_index":130,"plugin_version":"2.1.0","time_elapsed":13927885,"subject_id":"91374","group":"Group1","condition":"3_Rep","full_date":"2026-02-23T19:36:54.632Z","date":"2026-02-23","time":"19:36:54"},{"rt":null,"stimulus":"<p style=\"font-size: 50px; margin: 0; text-align: center;\">+</p>","response":null,"trial_type":"html-keyboard-response","trial_index":131,"plugin_version":"2.1.0","time_elapsed":13928889,"subject_id":"91374","group":"Group1","condition":"3_Rep","full_date":"2026-02-23T19:36:54.632Z","date":"2026-02-23","time":"19:36:54"},{"task":"memory_phase","broad_category":"M","image_png":"M_Phyllite_03.png","image_id":259,"category_name":"Phyllite","category":17,"distinct_rating":2.5,"distinct_type":"Bottom","rt":null,"stimulus":"Stimuli_Rocks480/M_Phyllite_03.png","response":null,"trial_type":"image-keyboard-response","trial_index":132,"plugin_version":"2.1.0","time_elapsed":13931392,"subject_id":"91374","group":"Group1","condition":"3_Rep","full_date":"2026-02-23T19:36:54.632Z","date":"2026-02-23","time":"19:36:54"},{"rt":null,"stimulus":"<p style=\"font-size: 50px; margin: 0; text-align: center;\">+</p>","response":null,"trial_type":"html-keyboard-response","trial_index":133,"plugin_version":"2.1.0","time_elapsed":13932395,"subject_id":"91374","group":"Group1","condition":"3_Rep","full_date":"2026-02-23T19:36:54.632Z","date":"2026-02-23","time":"19:36:54"},{"task":"memory_phase","broad_category":"S","image_png":"S_Sandstone_03.png","image_id":451,"category_name":"Sandstone","category":29,"distinct_rating":1.86,"distinct_type":"Bottom","rt":null,"stimulus":"Stimuli_Rocks480/S_Sandstone_03.png","response":null,"trial_type":"image-keyboard-response","trial_index":134,"plugin_version":"2.1.0","time_elapsed":13934899,"subject_id":"91374","group":"Group1","condition":"3_Rep","full_date":"2026-02-23T19:36:54.632Z","date":"2026-02-23","time":"19:36:54"},{"rt":null,"stimulus":"<p style=\"font-size: 50px; margin: 0; text-align: center;\">+</p>","response":null,"trial_type":"html-keyboard-response","trial_index":135,"plugin_version":"2.1.0","time_elapsed":13935902,"subject_id":"91374","group":"Group1","condition":"3_Rep","full_date":"2026-02-23T19:36:54.632Z","date":"2026-02-23","time":"19:36:54"},{"task":"memory_phase","broad_category":"I","image_png":"I_Pegmatite_16.png","image_id":112,"category_name":"Pegmatite","category":7,"distinct_rating":7.03,"distinct_type":"Top","rt":null,"stimulus":"Stimuli_Rocks480/I_Pegmatite_16.png","response":null,"trial_type":"image-keyboard-response","trial_index":136,"plugin_version":"2.1.0","time_elapsed":13938406,"subject_id":"91374","group":"Group1","condition":"3_Rep","full_date":"2026-02-23T19:36:54.632Z","date":"2026-02-23","time":"19:36:54"},{"rt":null,"stimulus":"<p style=\"font-size: 50px; margin: 0; text-align: center;\">+</p>","response":null,"trial_type":"html-keyboard-response","trial_index":137,"plugin_version":"2.1.0","time_elapsed":13939408,"subject_id":"91374","group":"Group1","condition":"3_Rep","full_date":"2026-02-23T19:36:54.632Z","date":"2026-02-23","time":"19:36:54"},{"task":"memory_phase","broad_category":"I","image_png":"I_Pumice_11.png","image_id":139,"category_name":"Pumice","category":9,"distinct_rating":1.74,"distinct_type":"Bottom","rt":null,"stimulus":"Stimuli_Rocks480/I_Pumice_11.png","response":null,"trial_type":"image-keyboard-response","trial_index":138,"plugin_version":"2.1.0","time_elapsed":13941912,"subject_id":"91374","group":"Group1","condition":"3_Rep","full_date":"2026-02-23T19:36:54.632Z","date":"2026-02-23","time":"19:36:54"},{"rt":null,"stimulus":"<p style=\"font-size: 50px; margin: 0; text-align: center;\">+</p>","response":null,"trial_type":"html-keyboard-response","trial_index":139,"plugin_version":"2.1.0","time_elapsed":13942914,"subject_id":"91374","group":"Group1","condition":"3_Rep","full_date":"2026-02-23T19:36:54.632Z","date":"2026-02-23","time":"19:36:54"},{"task":"memory_phase","broad_category":"I","image_png":"I_Diorite_05.png","image_id":37,"category_name":"Diorite","category":3,"distinct_rating":3.08,"distinct_type":"Bottom","rt":null,"stimulus":"Stimuli_Rocks480/I_Diorite_05.png","response":null,"trial_type":"image-keyboard-response","trial_index":140,"plugin_version":"2.1.0","time_elapsed":13945418,"subject_id":"91374","group":"Group1","condition":"3_Rep","full_date":"2026-02-23T19:36:54.632Z","date":"2026-02-23","time":"19:36:54"},{"rt":null,"stimulus":"<p style=\"font-size: 50px; margin: 0; text-align: center;\">+</p>","response":null,"trial_type":"html-keyboard-response","trial_index":141,"plugin_version":"2.1.0","time_elapsed":13946421,"subject_id":"91374","group":"Group1","condition":"3_Rep","full_date":"2026-02-23T19:36:54.632Z","date":"2026-02-23","time":"19:36:54"},{"task":"memory_phase","broad_category":"M","image_png":"M_Quartzite_13.png","image_id":285,"category_name":"Quartzite","category":18,"distinct_rating":2.27,"distinct_type":"Bottom","rt":null,"stimulus":"Stimuli_Rocks480/M_Quartzite_13.png","response":null,"trial_type":"image-keyboard-response","trial_index":142,"plugin_version":"2.1.0","time_elapsed":13948924,"subject_id":"91374","group":"Group1","condition":"3_Rep","full_date":"2026-02-23T19:36:54.632Z","date":"2026-02-23","time":"19:36:54"},{"rt":null,"stimulus":"<p style=\"font-size: 50px; margin: 0; text-align: center;\">+</p>","response":null,"trial_type":"html-keyboard-response","trial_index":143,"plugin_version":"2.1.0","time_elapsed":13949927,"subject_id":"91374","group":"Group1","condition":"3_Rep","full_date":"2026-02-23T19:36:54.632Z","date":"2026-02-23","time":"19:36:54"},{"task":"memory_phase","broad_category":"S","image_png":"S_Shale_01.png","image_id":465,"category_name":"Shale","category":30,"distinct_rating":2.7,"distinct_type":"Bottom","rt":null,"stimulus":"Stimuli_Rocks480/S_Shale_01.png","response":null,"trial_type":"image-keyboard-response","trial_index":144,"plugin_version":"2.1.0","time_elapsed":13952430,"subject_id":"91374","group":"Group1","condition":"3_Rep","full_date":"2026-02-23T19:36:54.632Z","date":"2026-02-23","time":"19:36:54"},{"rt":null,"stimulus":"<p style=\"font-size: 50px; margin: 0; text-align: center;\">+</p>","response":null,"trial_type":"html-keyboard-response","trial_index":145,"plugin_version":"2.1.0","time_elapsed":13953433,"subject_id":"91374","group":"Group1","condition":"3_Rep","full_date":"2026-02-23T19:36:54.632Z","date":"2026-02-23","time":"19:36:54"},{"task":"memory_phase","broad_category":"S","image_png":"S_Rock Salt_01.png","image_id":433,"category_name":"Rock Salt","category":28,"distinct_rating":7.18,"distinct_type":"Top","rt":null,"stimulus":"Stimuli_Rocks480/S_Rock Salt_01.png","response":null,"trial_type":"image-keyboard-response","trial_index":146,"plugin_version":"2.1.0","time_elapsed":13955936,"subject_id":"91374","group":"Group1","condition":"3_Rep","full_date":"2026-02-23T19:36:54.632Z","date":"2026-02-23","time":"19:36:54"},{"rt":null,"stimulus":"<p style=\"font-size: 50px; margin: 0; text-align: center;\">+</p>","response":null,"trial_type":"html-keyboard-response","trial_index":147,"plugin_version":"2.1.0","time_elapsed":13956938,"subject_id":"91374","group":"Group1","condition":"3_Rep","full_date":"2026-02-23T19:36:54.632Z","date":"2026-02-23","time":"19:36:54"},{"task":"memory_phase","broad_category":"M","image_png":"M_Marble_16.png","image_id":240,"category_name":"Marble","category":15,"distinct_rating":2.57,"distinct_type":"Bottom","rt":null,"stimulus":"Stimuli_Rocks480/M_Marble_16.png","response":null,"trial_type":"image-keyboard-response","trial_index":148,"plugin_version":"2.1.0","time_elapsed":13959442,"subject_id":"91374","group":"Group1","condition":"3_Rep","full_date":"2026-02-23T19:36:54.632Z","date":"2026-02-23","time":"19:36:54"},{"rt":null,"stimulus":"<p style=\"font-size: 50px; margin: 0; text-align: center;\">+</p>","response":null,"trial_type":"html-keyboard-response","trial_index":149,"plugin_version":"2.1.0","time_elapsed":13960444,"subject_id":"91374","group":"Group1","condition":"3_Rep","full_date":"2026-02-23T19:36:54.632Z","date":"2026-02-23","time":"19:36:54"},{"task":"memory_phase","broad_category":"M","image_png":"M_Gneiss_06.png","image_id":198,"category_name":"Gneiss","category":13,"distinct_rating":2.65,"distinct_type":"Bottom","rt":null,"stimulus":"Stimuli_Rocks480/M_Gneiss_06.png","response":null,"trial_type":"image-keyboard-response","trial_index":150,"plugin_version":"2.1.0","time_elapsed":13962947,"subject_id":"91374","group":"Group1","condition":"3_Rep","full_date":"2026-02-23T19:36:54.632Z","date":"2026-02-23","time":"19:36:54"},{"rt":null,"stimulus":"<p style=\"font-size: 50px; margin: 0; text-align: center;\">+</p>","response":null,"trial_type":"html-keyboard-response","trial_index":151,"plugin_version":"2.1.0","time_elapsed":13963950,"subject_id":"91374","group":"Group1","condition":"3_Rep","full_date":"2026-02-23T19:36:54.632Z","date":"2026-02-23","time":"19:36:54"},{"task":"memory_phase","broad_category":"S","image_png":"S_Dolomite_12.png","image_id":396,"category_name":"Dolomite","category":25,"distinct_rating":1.85,"distinct_type":"Bottom","rt":null,"stimulus":"Stimuli_Rocks480/S_Dolomite_12.png","response":null,"trial_type":"image-keyboard-response","trial_index":152,"plugin_version":"2.1.0","time_elapsed":13966454,"subject_id":"91374","group":"Group1","condition":"3_Rep","full_date":"2026-02-23T19:36:54.632Z","date":"2026-02-23","time":"19:36:54"},{"rt":null,"stimulus":"<p style=\"font-size: 50px; margin: 0; text-align: center;\">+</p>","response":null,"trial_type":"html-keyboard-response","trial_index":153,"plugin_version":"2.1.0","time_elapsed":13967456,"subject_id":"91374","group":"Group1","condition":"3_Rep","full_date":"2026-02-23T19:36:54.632Z","date":"2026-02-23","time":"19:36:54"},{"task":"memory_phase","broad_category":"I","image_png":"I_Rhyolite_16.png","image_id":160,"category_name":"Rhyolite","category":10,"distinct_rating":2.19,"distinct_type":"Bottom","rt":null,"stimulus":"Stimuli_Rocks480/I_Rhyolite_16.png","response":null,"trial_type":"image-keyboard-response","trial_index":154,"plugin_version":"2.1.0","time_elapsed":13969960,"subject_id":"91374","group":"Group1","condition":"3_Rep","full_date":"2026-02-23T19:36:54.632Z","date":"2026-02-23","time":"19:36:54"},{"rt":null,"stimulus":"<p style=\"font-size: 50px; margin: 0; text-align: center;\">+</p>","response":null,"trial_type":"html-keyboard-response","trial_index":155,"plugin_version":"2.1.0","time_elapsed":13970962,"subject_id":"91374","group":"Group1","condition":"3_Rep","full_date":"2026-02-23T19:36:54.632Z","date":"2026-02-23","time":"19:36:54"},{"task":"memory_phase","broad_category":"I","image_png":"I_Rhyolite_11.png","image_id":155,"category_name":"Rhyolite","category":10,"distinct_rating":1.73,"distinct_type":"Bottom","rt":null,"stimulus":"Stimuli_Rocks480/I_Rhyolite_11.png","response":null,"trial_type":"image-keyboard-response","trial_index":156,"plugin_version":"2.1.0","time_elapsed":13973471,"subject_id":"91374","group":"Group1","condition":"3_Rep","full_date":"2026-02-23T19:36:54.632Z","date":"2026-02-23","time":"19:36:54"},{"rt":1369,"stimulus":"<p style=\"max-width: 760px; margin: auto; font-size: 35px; line-height: 1.5;\">\n                Press SPACE to continue study phase\n              </p>","response":" ","trial_type":"html-keyboard-response","trial_index":157,"plugin_version":"2.1.0","time_elapsed":13974841,"subject_id":"91374","group":"Group1","condition":"3_Rep","full_date":"2026-02-23T19:36:54.632Z","date":"2026-02-23","time":"19:36:54"},{"rt":null,"stimulus":"<p style=\"font-size: 50px; margin: 0; text-align: center;\">+</p>","response":null,"trial_type":"html-keyboard-response","trial_index":158,"plugin_version":"2.1.0","time_elapsed":13975843,"subject_id":"91374","group":"Group1","condition":"3_Rep","full_date":"2026-02-23T19:36:54.632Z","date":"2026-02-23","time":"19:36:54"},{"task":"memory_phase","broad_category":"S","image_png":"S_Breccia_11.png","image_id":347,"category_name":"Breccia","category":22,"distinct_rating":6.7,"distinct_type":"Top","rt":null,"stimulus":"Stimuli_Rocks480/S_Breccia_11.png","response":null,"trial_type":"image-keyboard-response","trial_index":159,"plugin_version":"2.1.0","time_elapsed":13978347,"subject_id":"91374","group":"Group1","condition":"3_Rep","full_date":"2026-02-23T19:36:54.632Z","date":"2026-02-23","time":"19:36:54"},{"rt":null,"stimulus":"<p style=\"font-size: 50px; margin: 0; text-align: center;\">+</p>","response":null,"trial_type":"html-keyboard-response","trial_index":160,"plugin_version":"2.1.0","time_elapsed":13979349,"subject_id":"91374","group":"Group1","condition":"3_Rep","full_date":"2026-02-23T19:36:54.632Z","date":"2026-02-23","time":"19:36:54"},{"task":"memory_phase","broad_category":"I","image_png":"I_Basalt_09.png","image_id":25,"category_name":"Basalt","category":2,"distinct_rating":1.89,"distinct_type":"Bottom","rt":null,"stimulus":"Stimuli_Rocks480/I_Basalt_09.png","response":null,"trial_type":"image-keyboard-response","trial_index":161,"plugin_version":"2.1.0","time_elapsed":13981852,"subject_id":"91374","group":"Group1","condition":"3_Rep","full_date":"2026-02-23T19:36:54.632Z","date":"2026-02-23","time":"19:36:54"},{"rt":null,"stimulus":"<p style=\"font-size: 50px; margin: 0; text-align: center;\">+</p>","response":null,"trial_type":"html-keyboard-response","trial_index":162,"plugin_version":"2.1.0","time_elapsed":13982855,"subject_id":"91374","group":"Group1","condition":"3_Rep","full_date":"2026-02-23T19:36:54.632Z","date":"2026-02-23","time":"19:36:54"},{"task":"memory_phase","broad_category":"M","image_png":"M_Slate_15.png","image_id":319,"category_name":"Slate","category":20,"distinct_rating":2.13,"distinct_type":"Bottom","rt":null,"stimulus":"Stimuli_Rocks480/M_Slate_15.png","response":null,"trial_type":"image-keyboard-response","trial_index":163,"plugin_version":"2.1.0","time_elapsed":13985359,"subject_id":"91374","group":"Group1","condition":"3_Rep","full_date":"2026-02-23T19:36:54.632Z","date":"2026-02-23","time":"19:36:54"},{"rt":null,"stimulus":"<p style=\"font-size: 50px; margin: 0; text-align: center;\">+</p>","response":null,"trial_type":"html-keyboard-response","trial_index":164,"plugin_version":"2.1.0","time_elapsed":13986361,"subject_id":"91374","group":"Group1","condition":"3_Rep","full_date":"2026-02-23T19:36:54.632Z","date":"2026-02-23","time":"19:36:54"},{"task":"memory_phase","broad_category":"I","image_png":"I_Gabbro_16.png","image_id":64,"category_name":"Gabbro","category":4,"distinct_rating":2.52,"distinct_type":"Bottom","rt":null,"stimulus":"Stimuli_Rocks480/I_Gabbro_16.png","response":null,"trial_type":"image-keyboard-response","trial_index":165,"plugin_version":"2.1.0","time_elapsed":13988864,"subject_id":"91374","group":"Group1","condition":"3_Rep","full_date":"2026-02-23T19:36:54.632Z","date":"2026-02-23","time":"19:36:54"},{"rt":null,"stimulus":"<p style=\"font-size: 50px; margin: 0; text-align: center;\">+</p>","response":null,"trial_type":"html-keyboard-response","trial_index":166,"plugin_version":"2.1.0","time_elapsed":13989867,"subject_id":"91374","group":"Group1","condition":"3_Rep","full_date":"2026-02-23T19:36:54.632Z","date":"2026-02-23","time":"19:36:54"},{"task":"memory_phase","broad_category":"S","image_png":"S_Dolomite_13.png","image_id":397,"category_name":"Dolomite","category":25,"distinct_rating":1.77,"distinct_type":"Bottom","rt":null,"stimulus":"Stimuli_Rocks480/S_Dolomite_13.png","response":null,"trial_type":"image-keyboard-response","trial_index":167,"plugin_version":"2.1.0","time_elapsed":13992371,"subject_id":"91374","group":"Group1","condition":"3_Rep","full_date":"2026-02-23T19:36:54.632Z","date":"2026-02-23","time":"19:36:54"},{"rt":null,"stimulus":"<p style=\"font-size: 50px; margin: 0; text-align: center;\">+</p>","response":null,"trial_type":"html-keyboard-response","trial_index":168,"plugin_version":"2.1.0","time_elapsed":13993373,"subject_id":"91374","group":"Group1","condition":"3_Rep","full_date":"2026-02-23T19:36:54.632Z","date":"2026-02-23","time":"19:36:54"},{"task":"memory_phase","broad_category":"S","image_png":"S_Rock Gypsum_04.png","image_id":420,"category_name":"Rock Gypsum","category":27,"distinct_rating":7.61,"distinct_type":"Top","rt":null,"stimulus":"Stimuli_Rocks480/S_Rock Gypsum_04.png","response":null,"trial_type":"image-keyboard-response","trial_index":169,"plugin_version":"2.1.0","time_elapsed":13995877,"subject_id":"91374","group":"Group1","condition":"3_Rep","full_date":"2026-02-23T19:36:54.632Z","date":"2026-02-23","time":"19:36:54"},{"rt":null,"stimulus":"<p style=\"font-size: 50px; margin: 0; text-align: center;\">+</p>","response":null,"trial_type":"html-keyboard-response","trial_index":170,"plugin_version":"2.1.0","time_elapsed":13996880,"subject_id":"91374","group":"Group1","condition":"3_Rep","full_date":"2026-02-23T19:36:54.632Z","date":"2026-02-23","time":"19:36:54"},{"task":"memory_phase","broad_category":"M","image_png":"M_Slate_03.png","image_id":307,"category_name":"Slate","category":20,"distinct_rating":1.87,"distinct_type":"Bottom","rt":null,"stimulus":"Stimuli_Rocks480/M_Slate_03.png","response":null,"trial_type":"image-keyboard-response","trial_index":171,"plugin_version":"2.1.0","time_elapsed":13999384,"subject_id":"91374","group":"Group1","condition":"3_Rep","full_date":"2026-02-23T19:36:54.632Z","date":"2026-02-23","time":"19:36:54"},{"rt":null,"stimulus":"<p style=\"font-size: 50px; margin: 0; text-align: center;\">+</p>","response":null,"trial_type":"html-keyboard-response","trial_index":172,"plugin_version":"2.1.0","time_elapsed":14000386,"subject_id":"91374","group":"Group1","condition":"3_Rep","full_date":"2026-02-23T19:36:54.632Z","date":"2026-02-23","time":"19:36:54"},{"task":"memory_phase","broad_category":"S","image_png":"S_Conglomerate_05.png","image_id":373,"category_name":"Conglomerate","category":24,"distinct_rating":7.32,"distinct_type":"Top","rt":null,"stimulus":"Stimuli_Rocks480/S_Conglomerate_05.png","response":null,"trial_type":"image-keyboard-response","trial_index":173,"plugin_version":"2.1.0","time_elapsed":14002890,"subject_id":"91374","group":"Group1","condition":"3_Rep","full_date":"2026-02-23T19:36:54.632Z","date":"2026-02-23","time":"19:36:54"},{"rt":null,"stimulus":"<p style=\"font-size: 50px; margin: 0; text-align: center;\">+</p>","response":null,"trial_type":"html-keyboard-response","trial_index":174,"plugin_version":"2.1.0","time_elapsed":14003892,"subject_id":"91374","group":"Group1","condition":"3_Rep","full_date":"2026-02-23T19:36:54.632Z","date":"2026-02-23","time":"19:36:54"},{"task":"memory_phase","broad_category":"M","image_png":"M_Phyllite_07.png","image_id":263,"category_name":"Phyllite","category":17,"distinct_rating":2.59,"distinct_type":"Bottom","rt":null,"stimulus":"Stimuli_Rocks480/M_Phyllite_07.png","response":null,"trial_type":"image-keyboard-response","trial_index":175,"plugin_version":"2.1.0","time_elapsed":14006395,"subject_id":"91374","group":"Group1","condition":"3_Rep","full_date":"2026-02-23T19:36:54.632Z","date":"2026-02-23","time":"19:36:54"},{"rt":null,"stimulus":"<p style=\"font-size: 50px; margin: 0; text-align: center;\">+</p>","response":null,"trial_type":"html-keyboard-response","trial_index":176,"plugin_version":"2.1.0","time_elapsed":14007398,"subject_id":"91374","group":"Group1","condition":"3_Rep","full_date":"2026-02-23T19:36:54.632Z","date":"2026-02-23","time":"19:36:54"},{"task":"memory_phase","broad_category":"I","image_png":"I_Pumice_12.png","image_id":140,"category_name":"Pumice","category":9,"distinct_rating":2.97,"distinct_type":"Bottom","rt":null,"stimulus":"Stimuli_Rocks480/I_Pumice_12.png","response":null,"trial_type":"image-keyboard-response","trial_index":177,"plugin_version":"2.1.0","time_elapsed":14009901,"subject_id":"91374","group":"Group1","condition":"3_Rep","full_date":"2026-02-23T19:36:54.632Z","date":"2026-02-23","time":"19:36:54"},{"rt":null,"stimulus":"<p style=\"font-size: 50px; margin: 0; text-align: center;\">+</p>","response":null,"trial_type":"html-keyboard-response","trial_index":178,"plugin_version":"2.1.0","time_elapsed":14010903,"subject_id":"91374","group":"Group1","condition":"3_Rep","full_date":"2026-02-23T19:36:54.632Z","date":"2026-02-23","time":"19:36:54"},{"task":"memory_phase","broad_category":"S","image_png":"S_Sandstone_15.png","image_id":463,"category_name":"Sandstone","category":29,"distinct_rating":2,"distinct_type":"Bottom","rt":null,"stimulus":"Stimuli_Rocks480/S_Sandstone_15.png","response":null,"trial_type":"image-keyboard-response","trial_index":179,"plugin_version":"2.1.0","time_elapsed":14013405,"subject_id":"91374","group":"Group1","condition":"3_Rep","full_date":"2026-02-23T19:36:54.632Z","date":"2026-02-23","time":"19:36:54"},{"rt":null,"stimulus":"<p style=\"font-size: 50px; margin: 0; text-align: center;\">+</p>","response":null,"trial_type":"html-keyboard-response","trial_index":180,"plugin_version":"2.1.0","time_elapsed":14014408,"subject_id":"91374","group":"Group1","condition":"3_Rep","full_date":"2026-02-23T19:36:54.632Z","date":"2026-02-23","time":"19:36:54"},{"task":"memory_phase","broad_category":"I","image_png":"I_Andesite_06.png","image_id":6,"category_name":"Andesite","category":1,"distinct_rating":3.17,"distinct_type":"Bottom","rt":null,"stimulus":"Stimuli_Rocks480/I_Andesite_06.png","response":null,"trial_type":"image-keyboard-response","trial_index":181,"plugin_version":"2.1.0","time_elapsed":14016912,"subject_id":"91374","group":"Group1","condition":"3_Rep","full_date":"2026-02-23T19:36:54.632Z","date":"2026-02-23","time":"19:36:54"},{"rt":null,"stimulus":"<p style=\"font-size: 50px; margin: 0; text-align: center;\">+</p>","response":null,"trial_type":"html-keyboard-response","trial_index":182,"plugin_version":"2.1.0","time_elapsed":14017915,"subject_id":"91374","group":"Group1","condition":"3_Rep","full_date":"2026-02-23T19:36:54.632Z","date":"2026-02-23","time":"19:36:54"},{"task":"memory_phase","broad_category":"I","image_png":"I_Obsidian_05.png","image_id":85,"category_name":"Obsidian","category":6,"distinct_rating":7.32,"distinct_type":"Top","rt":null,"stimulus":"Stimuli_Rocks480/I_Obsidian_05.png","response":null,"trial_type":"image-keyboard-response","trial_index":183,"plugin_version":"2.1.0","time_elapsed":14020418,"subject_id":"91374","group":"Group1","condition":"3_Rep","full_date":"2026-02-23T19:36:54.632Z","date":"2026-02-23","time":"19:36:54"},{"rt":null,"stimulus":"<p style=\"font-size: 50px; margin: 0; text-align: center;\">+</p>","response":null,"trial_type":"html-keyboard-response","trial_index":184,"plugin_version":"2.1.0","time_elapsed":14021420,"subject_id":"91374","group":"Group1","condition":"3_Rep","full_date":"2026-02-23T19:36:54.632Z","date":"2026-02-23","time":"19:36:54"},{"task":"memory_phase","broad_category":"I","image_png":"I_Andesite_10.png","image_id":10,"category_name":"Andesite","category":1,"distinct_rating":3.15,"distinct_type":"Bottom","rt":null,"stimulus":"Stimuli_Rocks480/I_Andesite_10.png","response":null,"trial_type":"image-keyboard-response","trial_index":185,"plugin_version":"2.1.0","time_elapsed":14023923,"subject_id":"91374","group":"Group1","condition":"3_Rep","full_date":"2026-02-23T19:36:54.632Z","date":"2026-02-23","time":"19:36:54"},{"rt":null,"stimulus":"<p style=\"font-size: 50px; margin: 0; text-align: center;\">+</p>","response":null,"trial_type":"html-keyboard-response","trial_index":186,"plugin_version":"2.1.0","time_elapsed":14024926,"subject_id":"91374","group":"Group1","condition":"3_Rep","full_date":"2026-02-23T19:36:54.632Z","date":"2026-02-23","time":"19:36:54"},{"task":"memory_phase","broad_category":"S","image_png":"S_Shale_08.png","image_id":472,"category_name":"Shale","category":30,"distinct_rating":2.55,"distinct_type":"Bottom","rt":null,"stimulus":"Stimuli_Rocks480/S_Shale_08.png","response":null,"trial_type":"image-keyboard-response","trial_index":187,"plugin_version":"2.1.0","time_elapsed":14027429,"subject_id":"91374","group":"Group1","condition":"3_Rep","full_date":"2026-02-23T19:36:54.632Z","date":"2026-02-23","time":"19:36:54"},{"rt":null,"stimulus":"<p style=\"font-size: 50px; margin: 0; text-align: center;\">+</p>","response":null,"trial_type":"html-keyboard-response","trial_index":188,"plugin_version":"2.1.0","time_elapsed":14028433,"subject_id":"91374","group":"Group1","condition":"3_Rep","full_date":"2026-02-23T19:36:54.632Z","date":"2026-02-23","time":"19:36:54"},{"task":"memory_phase","broad_category":"M","image_png":"M_Phyllite_10.png","image_id":266,"category_name":"Phyllite","category":17,"distinct_rating":2.6,"distinct_type":"Bottom","rt":null,"stimulus":"Stimuli_Rocks480/M_Phyllite_10.png","response":null,"trial_type":"image-keyboard-response","trial_index":189,"plugin_version":"2.1.0","time_elapsed":14030936,"subject_id":"91374","group":"Group1","condition":"3_Rep","full_date":"2026-02-23T19:36:54.632Z","date":"2026-02-23","time":"19:36:54"},{"rt":null,"stimulus":"<p style=\"font-size: 50px; margin: 0; text-align: center;\">+</p>","response":null,"trial_type":"html-keyboard-response","trial_index":190,"plugin_version":"2.1.0","time_elapsed":14031938,"subject_id":"91374","group":"Group1","condition":"3_Rep","full_date":"2026-02-23T19:36:54.632Z","date":"2026-02-23","time":"19:36:54"},{"task":"memory_phase","broad_category":"M","image_png":"M_Slate_11.png","image_id":315,"category_name":"Slate","category":20,"distinct_rating":2.75,"distinct_type":"Bottom","rt":null,"stimulus":"Stimuli_Rocks480/M_Slate_11.png","response":null,"trial_type":"image-keyboard-response","trial_index":191,"plugin_version":"2.1.0","time_elapsed":14034441,"subject_id":"91374","group":"Group1","condition":"3_Rep","full_date":"2026-02-23T19:36:54.632Z","date":"2026-02-23","time":"19:36:54"},{"rt":null,"stimulus":"<p style=\"font-size: 50px; margin: 0; text-align: center;\">+</p>","response":null,"trial_type":"html-keyboard-response","trial_index":192,"plugin_version":"2.1.0","time_elapsed":14035444,"subject_id":"91374","group":"Group1","condition":"3_Rep","full_date":"2026-02-23T19:36:54.632Z","date":"2026-02-23","time":"19:36:54"},{"task":"memory_phase","broad_category":"I","image_png":"I_Pegmatite_10.png","image_id":106,"category_name":"Pegmatite","category":7,"distinct_rating":7.66,"distinct_type":"Top","rt":null,"stimulus":"Stimuli_Rocks480/I_Pegmatite_10.png","response":null,"trial_type":"image-keyboard-response","trial_index":193,"plugin_version":"2.1.0","time_elapsed":14037947,"subject_id":"91374","group":"Group1","condition":"3_Rep","full_date":"2026-02-23T19:36:54.632Z","date":"2026-02-23","time":"19:36:54"},{"rt":null,"stimulus":"<p style=\"font-size: 50px; margin: 0; text-align: center;\">+</p>","response":null,"trial_type":"html-keyboard-response","trial_index":194,"plugin_version":"2.1.0","time_elapsed":14038950,"subject_id":"91374","group":"Group1","condition":"3_Rep","full_date":"2026-02-23T19:36:54.632Z","date":"2026-02-23","time":"19:36:54"},{"task":"memory_phase","broad_category":"I","image_png":"I_Diorite_04.png","image_id":36,"category_name":"Diorite","category":3,"distinct_rating":2.98,"distinct_type":"Bottom","rt":null,"stimulus":"Stimuli_Rocks480/I_Diorite_04.png","response":null,"trial_type":"image-keyboard-response","trial_index":195,"plugin_version":"2.1.0","time_elapsed":14041453,"subject_id":"91374","group":"Group1","condition":"3_Rep","full_date":"2026-02-23T19:36:54.632Z","date":"2026-02-23","time":"19:36:54"},{"rt":null,"stimulus":"<p style=\"font-size: 50px; margin: 0; text-align: center;\">+</p>","response":null,"trial_type":"html-keyboard-response","trial_index":196,"plugin_version":"2.1.0","time_elapsed":14042455,"subject_id":"91374","group":"Group1","condition":"3_Rep","full_date":"2026-02-23T19:36:54.632Z","date":"2026-02-23","time":"19:36:54"},{"task":"memory_phase","broad_category":"I","image_png":"I_Basalt_01.png","image_id":17,"category_name":"Basalt","category":2,"distinct_rating":1.92,"distinct_type":"Bottom","rt":null,"stimulus":"Stimuli_Rocks480/I_Basalt_01.png","response":null,"trial_type":"image-keyboard-response","trial_index":197,"plugin_version":"2.1.0","time_elapsed":14044959,"subject_id":"91374","group":"Group1","condition":"3_Rep","full_date":"2026-02-23T19:36:54.632Z","date":"2026-02-23","time":"19:36:54"},{"rt":null,"stimulus":"<p style=\"font-size: 50px; margin: 0; text-align: center;\">+</p>","response":null,"trial_type":"html-keyboard-response","trial_index":198,"plugin_version":"2.1.0","time_elapsed":14045961,"subject_id":"91374","group":"Group1","condition":"3_Rep","full_date":"2026-02-23T19:36:54.632Z","date":"2026-02-23","time":"19:36:54"},{"task":"memory_phase","broad_category":"I","image_png":"I_Diorite_03.png","image_id":35,"category_name":"Diorite","category":3,"distinct_rating":3.14,"distinct_type":"Bottom","rt":null,"stimulus":"Stimuli_Rocks480/I_Diorite_03.png","response":null,"trial_type":"image-keyboard-response","trial_index":199,"plugin_version":"2.1.0","time_elapsed":14048465,"subject_id":"91374","group":"Group1","condition":"3_Rep","full_date":"2026-02-23T19:36:54.632Z","date":"2026-02-23","time":"19:36:54"},{"rt":null,"stimulus":"<p style=\"font-size: 50px; margin: 0; text-align: center;\">+</p>","response":null,"trial_type":"html-keyboard-response","trial_index":200,"plugin_version":"2.1.0","time_elapsed":14049468,"subject_id":"91374","group":"Group1","condition":"3_Rep","full_date":"2026-02-23T19:36:54.632Z","date":"2026-02-23","time":"19:36:54"},{"task":"memory_phase","broad_category":"M","image_png":"M_Quartzite_08.png","image_id":280,"category_name":"Quartzite","category":18,"distinct_rating":2.15,"distinct_type":"Bottom","rt":null,"stimulus":"Stimuli_Rocks480/M_Quartzite_08.png","response":null,"trial_type":"image-keyboard-response","trial_index":201,"plugin_version":"2.1.0","time_elapsed":14051971,"subject_id":"91374","group":"Group1","condition":"3_Rep","full_date":"2026-02-23T19:36:54.632Z","date":"2026-02-23","time":"19:36:54"},{"rt":null,"stimulus":"<p style=\"font-size: 50px; margin: 0; text-align: center;\">+</p>","response":null,"trial_type":"html-keyboard-response","trial_index":202,"plugin_version":"2.1.0","time_elapsed":14052974,"subject_id":"91374","group":"Group1","condition":"3_Rep","full_date":"2026-02-23T19:36:54.632Z","date":"2026-02-23","time":"19:36:54"},{"task":"memory_phase","broad_category":"M","image_png":"M_Gneiss_05.png","image_id":197,"category_name":"Gneiss","category":13,"distinct_rating":2.97,"distinct_type":"Bottom","rt":null,"stimulus":"Stimuli_Rocks480/M_Gneiss_05.png","response":null,"trial_type":"image-keyboard-response","trial_index":203,"plugin_version":"2.1.0","time_elapsed":14055478,"subject_id":"91374","group":"Group1","condition":"3_Rep","full_date":"2026-02-23T19:36:54.632Z","date":"2026-02-23","time":"19:36:54"},{"rt":null,"stimulus":"<p style=\"font-size: 50px; margin: 0; text-align: center;\">+</p>","response":null,"trial_type":"html-keyboard-response","trial_index":204,"plugin_version":"2.1.0","time_elapsed":14056480,"subject_id":"91374","group":"Group1","condition":"3_Rep","full_date":"2026-02-23T19:36:54.632Z","date":"2026-02-23","time":"19:36:54"},{"task":"memory_phase","broad_category":"M","image_png":"M_Gneiss_13.png","image_id":205,"category_name":"Gneiss","category":13,"distinct_rating":3.26,"distinct_type":"Bottom","rt":null,"stimulus":"Stimuli_Rocks480/M_Gneiss_13.png","response":null,"trial_type":"image-keyboard-response","trial_index":205,"plugin_version":"2.1.0","time_elapsed":14058983,"subject_id":"91374","group":"Group1","condition":"3_Rep","full_date":"2026-02-23T19:36:54.632Z","date":"2026-02-23","time":"19:36:54"},{"rt":null,"stimulus":"<p style=\"font-size: 50px; margin: 0; text-align: center;\">+</p>","response":null,"trial_type":"html-keyboard-response","trial_index":206,"plugin_version":"2.1.0","time_elapsed":14059986,"subject_id":"91374","group":"Group1","condition":"3_Rep","full_date":"2026-02-23T19:36:54.632Z","date":"2026-02-23","time":"19:36:54"},{"task":"memory_phase","broad_category":"M","image_png":"M_Marble_04.png","image_id":228,"category_name":"Marble","category":15,"distinct_rating":3.15,"distinct_type":"Bottom","rt":null,"stimulus":"Stimuli_Rocks480/M_Marble_04.png","response":null,"trial_type":"image-keyboard-response","trial_index":207,"plugin_version":"2.1.0","time_elapsed":14062489,"subject_id":"91374","group":"Group1","condition":"3_Rep","full_date":"2026-02-23T19:36:54.632Z","date":"2026-02-23","time":"19:36:54"},{"rt":5447,"stimulus":"<p style=\"max-width: 760px; margin: auto; font-size: 35px; line-height: 1.5;\">\n                You have completed 2 study phases. \n                Now, we'll show you all the images again 1 more time.\n                <br><br>Press SPACE to continue\n              </p>","response":" ","trial_type":"html-keyboard-response","trial_index":208,"plugin_version":"2.1.0","time_elapsed":14067937,"subject_id":"91374","group":"Group1","condition":"3_Rep","full_date":"2026-02-23T19:36:54.632Z","date":"2026-02-23","time":"19:36:54"},{"rt":null,"stimulus":"<p style=\"font-size: 50px; margin: 0; text-align: center;\">+</p>","response":null,"trial_type":"html-keyboard-response","trial_index":209,"plugin_version":"2.1.0","time_elapsed":14068940,"subject_id":"91374","group":"Group1","condition":"3_Rep","full_date":"2026-02-23T19:36:54.632Z","date":"2026-02-23","time":"19:36:54"},{"task":"memory_phase","broad_category":"S","image_png":"S_Rock Gypsum_04.png","image_id":420,"category_name":"Rock Gypsum","category":27,"distinct_rating":7.61,"distinct_type":"Top","rt":null,"stimulus":"Stimuli_Rocks480/S_Rock Gypsum_04.png","response":null,"trial_type":"image-keyboard-response","trial_index":210,"plugin_version":"2.1.0","time_elapsed":14071443,"subject_id":"91374","group":"Group1","condition":"3_Rep","full_date":"2026-02-23T19:36:54.632Z","date":"2026-02-23","time":"19:36:54"},{"rt":null,"stimulus":"<p style=\"font-size: 50px; margin: 0; text-align: center;\">+</p>","response":null,"trial_type":"html-keyboard-response","trial_index":211,"plugin_version":"2.1.0","time_elapsed":14072445,"subject_id":"91374","group":"Group1","condition":"3_Rep","full_date":"2026-02-23T19:36:54.632Z","date":"2026-02-23","time":"19:36:54"},{"task":"memory_phase","broad_category":"M","image_png":"M_Quartzite_13.png","image_id":285,"category_name":"Quartzite","category":18,"distinct_rating":2.27,"distinct_type":"Bottom","rt":null,"stimulus":"Stimuli_Rocks480/M_Quartzite_13.png","response":null,"trial_type":"image-keyboard-response","trial_index":212,"plugin_version":"2.1.0","time_elapsed":14074949,"subject_id":"91374","group":"Group1","condition":"3_Rep","full_date":"2026-02-23T19:36:54.632Z","date":"2026-02-23","time":"19:36:54"},{"rt":null,"stimulus":"<p style=\"font-size: 50px; margin: 0; text-align: center;\">+</p>","response":null,"trial_type":"html-keyboard-response","trial_index":213,"plugin_version":"2.1.0","time_elapsed":14075952,"subject_id":"91374","group":"Group1","condition":"3_Rep","full_date":"2026-02-23T19:36:54.632Z","date":"2026-02-23","time":"19:36:54"},{"task":"memory_phase","broad_category":"I","image_png":"I_Gabbro_16.png","image_id":64,"category_name":"Gabbro","category":4,"distinct_rating":2.52,"distinct_type":"Bottom","rt":null,"stimulus":"Stimuli_Rocks480/I_Gabbro_16.png","response":null,"trial_type":"image-keyboard-response","trial_index":214,"plugin_version":"2.1.0","time_elapsed":14078455,"subject_id":"91374","group":"Group1","condition":"3_Rep","full_date":"2026-02-23T19:36:54.632Z","date":"2026-02-23","time":"19:36:54"},{"rt":null,"stimulus":"<p style=\"font-size: 50px; margin: 0; text-align: center;\">+</p>","response":null,"trial_type":"html-keyboard-response","trial_index":215,"plugin_version":"2.1.0","time_elapsed":14079458,"subject_id":"91374","group":"Group1","condition":"3_Rep","full_date":"2026-02-23T19:36:54.632Z","date":"2026-02-23","time":"19:36:54"},{"task":"memory_phase","broad_category":"S","image_png":"S_Sandstone_03.png","image_id":451,"category_name":"Sandstone","category":29,"distinct_rating":1.86,"distinct_type":"Bottom","rt":null,"stimulus":"Stimuli_Rocks480/S_Sandstone_03.png","response":null,"trial_type":"image-keyboard-response","trial_index":216,"plugin_version":"2.1.0","time_elapsed":14081961,"subject_id":"91374","group":"Group1","condition":"3_Rep","full_date":"2026-02-23T19:36:54.632Z","date":"2026-02-23","time":"19:36:54"},{"rt":null,"stimulus":"<p style=\"font-size: 50px; margin: 0; text-align: center;\">+</p>","response":null,"trial_type":"html-keyboard-response","trial_index":217,"plugin_version":"2.1.0","time_elapsed":14082963,"subject_id":"91374","group":"Group1","condition":"3_Rep","full_date":"2026-02-23T19:36:54.632Z","date":"2026-02-23","time":"19:36:54"},{"task":"memory_phase","broad_category":"M","image_png":"M_Marble_06.png","image_id":230,"category_name":"Marble","category":15,"distinct_rating":3.4,"distinct_type":"Bottom","rt":null,"stimulus":"Stimuli_Rocks480/M_Marble_06.png","response":null,"trial_type":"image-keyboard-response","trial_index":218,"plugin_version":"2.1.0","time_elapsed":14085467,"subject_id":"91374","group":"Group1","condition":"3_Rep","full_date":"2026-02-23T19:36:54.632Z","date":"2026-02-23","time":"19:36:54"},{"rt":null,"stimulus":"<p style=\"font-size: 50px; margin: 0; text-align: center;\">+</p>","response":null,"trial_type":"html-keyboard-response","trial_index":219,"plugin_version":"2.1.0","time_elapsed":14086470,"subject_id":"91374","group":"Group1","condition":"3_Rep","full_date":"2026-02-23T19:36:54.632Z","date":"2026-02-23","time":"19:36:54"},{"task":"memory_phase","broad_category":"I","image_png":"I_Obsidian_05.png","image_id":85,"category_name":"Obsidian","category":6,"distinct_rating":7.32,"distinct_type":"Top","rt":null,"stimulus":"Stimuli_Rocks480/I_Obsidian_05.png","response":null,"trial_type":"image-keyboard-response","trial_index":220,"plugin_version":"2.1.0","time_elapsed":14088973,"subject_id":"91374","group":"Group1","condition":"3_Rep","full_date":"2026-02-23T19:36:54.632Z","date":"2026-02-23","time":"19:36:54"},{"rt":null,"stimulus":"<p style=\"font-size: 50px; margin: 0; text-align: center;\">+</p>","response":null,"trial_type":"html-keyboard-response","trial_index":221,"plugin_version":"2.1.0","time_elapsed":14089976,"subject_id":"91374","group":"Group1","condition":"3_Rep","full_date":"2026-02-23T19:36:54.632Z","date":"2026-02-23","time":"19:36:54"},{"task":"memory_phase","broad_category":"M","image_png":"M_Gneiss_13.png","image_id":205,"category_name":"Gneiss","category":13,"distinct_rating":3.26,"distinct_type":"Bottom","rt":null,"stimulus":"Stimuli_Rocks480/M_Gneiss_13.png","response":null,"trial_type":"image-keyboard-response","trial_index":222,"plugin_version":"2.1.0","time_elapsed":14092478,"subject_id":"91374","group":"Group1","condition":"3_Rep","full_date":"2026-02-23T19:36:54.632Z","date":"2026-02-23","time":"19:36:54"},{"rt":null,"stimulus":"<p style=\"font-size: 50px; margin: 0; text-align: center;\">+</p>","response":null,"trial_type":"html-keyboard-response","trial_index":223,"plugin_version":"2.1.0","time_elapsed":14093481,"subject_id":"91374","group":"Group1","condition":"3_Rep","full_date":"2026-02-23T19:36:54.632Z","date":"2026-02-23","time":"19:36:54"},{"task":"memory_phase","broad_category":"I","image_png":"I_Basalt_09.png","image_id":25,"category_name":"Basalt","category":2,"distinct_rating":1.89,"distinct_type":"Bottom","rt":null,"stimulus":"Stimuli_Rocks480/I_Basalt_09.png","response":null,"trial_type":"image-keyboard-response","trial_index":224,"plugin_version":"2.1.0","time_elapsed":14095985,"subject_id":"91374","group":"Group1","condition":"3_Rep","full_date":"2026-02-23T19:36:54.632Z","date":"2026-02-23","time":"19:36:54"},{"rt":null,"stimulus":"<p style=\"font-size: 50px; margin: 0; text-align: center;\">+</p>","response":null,"trial_type":"html-keyboard-response","trial_index":225,"plugin_version":"2.1.0","time_elapsed":14096988,"subject_id":"91374","group":"Group1","condition":"3_Rep","full_date":"2026-02-23T19:36:54.632Z","date":"2026-02-23","time":"19:36:54"},{"task":"memory_phase","broad_category":"I","image_png":"I_Pumice_08.png","image_id":136,"category_name":"Pumice","category":9,"distinct_rating":3.1,"distinct_type":"Bottom","rt":null,"stimulus":"Stimuli_Rocks480/I_Pumice_08.png","response":null,"trial_type":"image-keyboard-response","trial_index":226,"plugin_version":"2.1.0","time_elapsed":14099492,"subject_id":"91374","group":"Group1","condition":"3_Rep","full_date":"2026-02-23T19:36:54.632Z","date":"2026-02-23","time":"19:36:54"},{"rt":null,"stimulus":"<p style=\"font-size: 50px; margin: 0; text-align: center;\">+</p>","response":null,"trial_type":"html-keyboard-response","trial_index":227,"plugin_version":"2.1.0","time_elapsed":14100494,"subject_id":"91374","group":"Group1","condition":"3_Rep","full_date":"2026-02-23T19:36:54.632Z","date":"2026-02-23","time":"19:36:54"},{"task":"memory_phase","broad_category":"I","image_png":"I_Rhyolite_14.png","image_id":158,"category_name":"Rhyolite","category":10,"distinct_rating":2.59,"distinct_type":"Bottom","rt":null,"stimulus":"Stimuli_Rocks480/I_Rhyolite_14.png","response":null,"trial_type":"image-keyboard-response","trial_index":228,"plugin_version":"2.1.0","time_elapsed":14102998,"subject_id":"91374","group":"Group1","condition":"3_Rep","full_date":"2026-02-23T19:36:54.632Z","date":"2026-02-23","time":"19:36:54"},{"rt":null,"stimulus":"<p style=\"font-size: 50px; margin: 0; text-align: center;\">+</p>","response":null,"trial_type":"html-keyboard-response","trial_index":229,"plugin_version":"2.1.0","time_elapsed":14104001,"subject_id":"91374","group":"Group1","condition":"3_Rep","full_date":"2026-02-23T19:36:54.632Z","date":"2026-02-23","time":"19:36:54"},{"task":"memory_phase","broad_category":"I","image_png":"I_Rhyolite_16.png","image_id":160,"category_name":"Rhyolite","category":10,"distinct_rating":2.19,"distinct_type":"Bottom","rt":null,"stimulus":"Stimuli_Rocks480/I_Rhyolite_16.png","response":null,"trial_type":"image-keyboard-response","trial_index":230,"plugin_version":"2.1.0","time_elapsed":14106504,"subject_id":"91374","group":"Group1","condition":"3_Rep","full_date":"2026-02-23T19:36:54.632Z","date":"2026-02-23","time":"19:36:54"},{"rt":null,"stimulus":"<p style=\"font-size: 50px; margin: 0; text-align: center;\">+</p>","response":null,"trial_type":"html-keyboard-response","trial_index":231,"plugin_version":"2.1.0","time_elapsed":14107506,"subject_id":"91374","group":"Group1","condition":"3_Rep","full_date":"2026-02-23T19:36:54.632Z","date":"2026-02-23","time":"19:36:54"},{"task":"memory_phase","broad_category":"M","image_png":"M_Gneiss_05.png","image_id":197,"category_name":"Gneiss","category":13,"distinct_rating":2.97,"distinct_type":"Bottom","rt":null,"stimulus":"Stimuli_Rocks480/M_Gneiss_05.png","response":null,"trial_type":"image-keyboard-response","trial_index":232,"plugin_version":"2.1.0","time_elapsed":14110009,"subject_id":"91374","group":"Group1","condition":"3_Rep","full_date":"2026-02-23T19:36:54.632Z","date":"2026-02-23","time":"19:36:54"},{"rt":null,"stimulus":"<p style=\"font-size: 50px; margin: 0; text-align: center;\">+</p>","response":null,"trial_type":"html-keyboard-response","trial_index":233,"plugin_version":"2.1.0","time_elapsed":14111012,"subject_id":"91374","group":"Group1","condition":"3_Rep","full_date":"2026-02-23T19:36:54.632Z","date":"2026-02-23","time":"19:36:54"},{"task":"memory_phase","broad_category":"I","image_png":"I_Diorite_05.png","image_id":37,"category_name":"Diorite","category":3,"distinct_rating":3.08,"distinct_type":"Bottom","rt":null,"stimulus":"Stimuli_Rocks480/I_Diorite_05.png","response":null,"trial_type":"image-keyboard-response","trial_index":234,"plugin_version":"2.1.0","time_elapsed":14113515,"subject_id":"91374","group":"Group1","condition":"3_Rep","full_date":"2026-02-23T19:36:54.632Z","date":"2026-02-23","time":"19:36:54"},{"rt":null,"stimulus":"<p style=\"font-size: 50px; margin: 0; text-