[{"width":1656,"height":944,"webaudio":true,"browser":"edge-chromium","browser_version":"145.0.0","mobile":false,"os":"Windows 10","fullscreen":true,"vsync_rate":61.02,"webcam":true,"microphone":true,"trial_type":"browser-check","trial_index":0,"plugin_version":"2.1.0","time_elapsed":991,"subject_id":"91173","group":"Group1","condition":"3_Rep","full_date":"2026-02-18T01:58:16.915Z","date":"2026-02-18","time":"01:58:16"},{"success":true,"timeout":false,"failed_images":[],"failed_audio":[],"failed_video":[],"trial_type":"preload","trial_index":1,"plugin_version":"2.1.0","time_elapsed":1375,"subject_id":"91173","group":"Group1","condition":"3_Rep","full_date":"2026-02-18T01:58:16.915Z","date":"2026-02-18","time":"01:58:16"},{"rt":8359,"url":"SONA_consent_memorability.html","trial_type":"external-html","trial_index":2,"plugin_version":"2.1.0","time_elapsed":9860,"subject_id":"91173","group":"Group1","condition":"3_Rep","full_date":"2026-02-18T01:58:16.915Z","date":"2026-02-18","time":"01:58:16"},{"success":true,"rt":4345,"trial_type":"fullscreen","trial_index":3,"plugin_version":"2.1.0","time_elapsed":15214,"subject_id":"91173","group":"Group1","condition":"3_Rep","full_date":"2026-02-18T01:58:16.915Z","date":"2026-02-18","time":"01:58:16"},{"rt":22568,"stimulus":"<div style=\"max-width: 760px; margin: auto; font-size: 20px; line-height: 1.5;\">\n      <h1 style=\"text-align:center; font-size: 30px;\">Instructions</h1>\n      <p>\n        Welcome to the study on <b>visual memory</b>. This experiment consists of <b>two phases</b>: \n        a <b>study phase</b> and a <b>test phase</b>.\n      </p>\n      <p>\n        In the study phase, you will see a series of rock images along with their category labels.\n        The images will appear one at a time.\n        <b>Your task</b> is to learn the categories to which the rock images belong \n        and to remember each image as accurately as possible.\n      </p> \n      <p>\n        Note that we will repeat the study phase <b>3 times</b>, \n             so you will have multiple opportunities to see and remember each image.\n      </p>\n      <p>\n        After the study phase, <b>your memory will be tested</b>. \n        Additional instructions for the test phase will be provided at that time.\n      </p>\n      <p>\n        If your computer has multiple <b>language settings</b> (e.g., English and another language),\n        please make sure it is set to English before starting.\n      </p>\n      <p>\n        You can track your progress using the <b>completion bar</b> at the top of the screen. \n        Please note that the bar will refresh when the test phase begins \n        to give you an accurate sense of your progress in both phases.\n      </p> \n      <p>\n        Press the button below when you are ready to begin.\n      </p>\n    </div>","response":0,"trial_type":"html-button-response","trial_index":4,"plugin_version":"2.1.0","time_elapsed":37787,"subject_id":"91173","group":"Group1","condition":"3_Rep","full_date":"2026-02-18T01:58:16.915Z","date":"2026-02-18","time":"01:58:16"},{"rt":null,"stimulus":"<p style=\"font-size: 50px; margin: 0; text-align: center;\">+</p>","response":null,"trial_type":"html-keyboard-response","trial_index":5,"plugin_version":"2.1.0","time_elapsed":38793,"subject_id":"91173","group":"Group1","condition":"3_Rep","full_date":"2026-02-18T01:58:16.915Z","date":"2026-02-18","time":"01:58:16"},{"task":"memory_phase","broad_category":"M","image_png":"M_Slate_03.png","image_id":307,"category_name":"Slate","category":20,"distinct_rating":1.87,"distinct_type":"Bottom","rt":null,"stimulus":"Stimuli_Rocks480/M_Slate_03.png","response":null,"trial_type":"image-keyboard-response","trial_index":6,"plugin_version":"2.1.0","time_elapsed":41304,"subject_id":"91173","group":"Group1","condition":"3_Rep","full_date":"2026-02-18T01:58:16.915Z","date":"2026-02-18","time":"01:58:16"},{"rt":null,"stimulus":"<p style=\"font-size: 50px; margin: 0; text-align: center;\">+</p>","response":null,"trial_type":"html-keyboard-response","trial_index":7,"plugin_version":"2.1.0","time_elapsed":42310,"subject_id":"91173","group":"Group1","condition":"3_Rep","full_date":"2026-02-18T01:58:16.915Z","date":"2026-02-18","time":"01:58:16"},{"task":"memory_phase","broad_category":"M","image_png":"M_Gneiss_06.png","image_id":198,"category_name":"Gneiss","category":13,"distinct_rating":2.65,"distinct_type":"Bottom","rt":null,"stimulus":"Stimuli_Rocks480/M_Gneiss_06.png","response":null,"trial_type":"image-keyboard-response","trial_index":8,"plugin_version":"2.1.0","time_elapsed":44827,"subject_id":"91173","group":"Group1","condition":"3_Rep","full_date":"2026-02-18T01:58:16.915Z","date":"2026-02-18","time":"01:58:16"},{"rt":null,"stimulus":"<p style=\"font-size: 50px; margin: 0; text-align: center;\">+</p>","response":null,"trial_type":"html-keyboard-response","trial_index":9,"plugin_version":"2.1.0","time_elapsed":45838,"subject_id":"91173","group":"Group1","condition":"3_Rep","full_date":"2026-02-18T01:58:16.915Z","date":"2026-02-18","time":"01:58:16"},{"task":"memory_phase","broad_category":"I","image_png":"I_Basalt_02.png","image_id":18,"category_name":"Basalt","category":2,"distinct_rating":1.84,"distinct_type":"Bottom","rt":null,"stimulus":"Stimuli_Rocks480/I_Basalt_02.png","response":null,"trial_type":"image-keyboard-response","trial_index":10,"plugin_version":"2.1.0","time_elapsed":48356,"subject_id":"91173","group":"Group1","condition":"3_Rep","full_date":"2026-02-18T01:58:16.915Z","date":"2026-02-18","time":"01:58:16"},{"rt":null,"stimulus":"<p style=\"font-size: 50px; margin: 0; text-align: center;\">+</p>","response":null,"trial_type":"html-keyboard-response","trial_index":11,"plugin_version":"2.1.0","time_elapsed":49365,"subject_id":"91173","group":"Group1","condition":"3_Rep","full_date":"2026-02-18T01:58:16.915Z","date":"2026-02-18","time":"01:58:16"},{"task":"memory_phase","broad_category":"S","image_png":"S_Sandstone_03.png","image_id":451,"category_name":"Sandstone","category":29,"distinct_rating":1.86,"distinct_type":"Bottom","rt":null,"stimulus":"Stimuli_Rocks480/S_Sandstone_03.png","response":null,"trial_type":"image-keyboard-response","trial_index":12,"plugin_version":"2.1.0","time_elapsed":51881,"subject_id":"91173","group":"Group1","condition":"3_Rep","full_date":"2026-02-18T01:58:16.915Z","date":"2026-02-18","time":"01:58:16"},{"rt":null,"stimulus":"<p style=\"font-size: 50px; margin: 0; text-align: center;\">+</p>","response":null,"trial_type":"html-keyboard-response","trial_index":13,"plugin_version":"2.1.0","time_elapsed":52884,"subject_id":"91173","group":"Group1","condition":"3_Rep","full_date":"2026-02-18T01:58:16.915Z","date":"2026-02-18","time":"01:58:16"},{"task":"memory_phase","broad_category":"S","image_png":"S_Sandstone_15.png","image_id":463,"category_name":"Sandstone","category":29,"distinct_rating":2,"distinct_type":"Bottom","rt":null,"stimulus":"Stimuli_Rocks480/S_Sandstone_15.png","response":null,"trial_type":"image-keyboard-response","trial_index":14,"plugin_version":"2.1.0","time_elapsed":55398,"subject_id":"91173","group":"Group1","condition":"3_Rep","full_date":"2026-02-18T01:58:16.915Z","date":"2026-02-18","time":"01:58:16"},{"rt":null,"stimulus":"<p style=\"font-size: 50px; margin: 0; text-align: center;\">+</p>","response":null,"trial_type":"html-keyboard-response","trial_index":15,"plugin_version":"2.1.0","time_elapsed":56406,"subject_id":"91173","group":"Group1","condition":"3_Rep","full_date":"2026-02-18T01:58:16.915Z","date":"2026-02-18","time":"01:58:16"},{"task":"memory_phase","broad_category":"I","image_png":"I_Gabbro_16.png","image_id":64,"category_name":"Gabbro","category":4,"distinct_rating":2.52,"distinct_type":"Bottom","rt":null,"stimulus":"Stimuli_Rocks480/I_Gabbro_16.png","response":null,"trial_type":"image-keyboard-response","trial_index":16,"plugin_version":"2.1.0","time_elapsed":58916,"subject_id":"91173","group":"Group1","condition":"3_Rep","full_date":"2026-02-18T01:58:16.915Z","date":"2026-02-18","time":"01:58:16"},{"rt":null,"stimulus":"<p style=\"font-size: 50px; margin: 0; text-align: center;\">+</p>","response":null,"trial_type":"html-keyboard-response","trial_index":17,"plugin_version":"2.1.0","time_elapsed":59919,"subject_id":"91173","group":"Group1","condition":"3_Rep","full_date":"2026-02-18T01:58:16.915Z","date":"2026-02-18","time":"01:58:16"},{"task":"memory_phase","broad_category":"I","image_png":"I_Obsidian_05.png","image_id":85,"category_name":"Obsidian","category":6,"distinct_rating":7.32,"distinct_type":"Top","rt":null,"stimulus":"Stimuli_Rocks480/I_Obsidian_05.png","response":null,"trial_type":"image-keyboard-response","trial_index":18,"plugin_version":"2.1.0","time_elapsed":62426,"subject_id":"91173","group":"Group1","condition":"3_Rep","full_date":"2026-02-18T01:58:16.915Z","date":"2026-02-18","time":"01:58:16"},{"rt":null,"stimulus":"<p style=\"font-size: 50px; margin: 0; text-align: center;\">+</p>","response":null,"trial_type":"html-keyboard-response","trial_index":19,"plugin_version":"2.1.0","time_elapsed":63441,"subject_id":"91173","group":"Group1","condition":"3_Rep","full_date":"2026-02-18T01:58:16.915Z","date":"2026-02-18","time":"01:58:16"},{"task":"memory_phase","broad_category":"I","image_png":"I_Pegmatite_10.png","image_id":106,"category_name":"Pegmatite","category":7,"distinct_rating":7.66,"distinct_type":"Top","rt":null,"stimulus":"Stimuli_Rocks480/I_Pegmatite_10.png","response":null,"trial_type":"image-keyboard-response","trial_index":20,"plugin_version":"2.1.0","time_elapsed":65960,"subject_id":"91173","group":"Group1","condition":"3_Rep","full_date":"2026-02-18T01:58:16.915Z","date":"2026-02-18","time":"01:58:16"},{"rt":null,"stimulus":"<p style=\"font-size: 50px; margin: 0; text-align: center;\">+</p>","response":null,"trial_type":"html-keyboard-response","trial_index":21,"plugin_version":"2.1.0","time_elapsed":66973,"subject_id":"91173","group":"Group1","condition":"3_Rep","full_date":"2026-02-18T01:58:16.915Z","date":"2026-02-18","time":"01:58:16"},{"task":"memory_phase","broad_category":"M","image_png":"M_Phyllite_07.png","image_id":263,"category_name":"Phyllite","category":17,"distinct_rating":2.59,"distinct_type":"Bottom","rt":null,"stimulus":"Stimuli_Rocks480/M_Phyllite_07.png","response":null,"trial_type":"image-keyboard-response","trial_index":22,"plugin_version":"2.1.0","time_elapsed":69480,"subject_id":"91173","group":"Group1","condition":"3_Rep","full_date":"2026-02-18T01:58:16.915Z","date":"2026-02-18","time":"01:58:16"},{"rt":null,"stimulus":"<p style=\"font-size: 50px; margin: 0; text-align: center;\">+</p>","response":null,"trial_type":"html-keyboard-response","trial_index":23,"plugin_version":"2.1.0","time_elapsed":70490,"subject_id":"91173","group":"Group1","condition":"3_Rep","full_date":"2026-02-18T01:58:16.915Z","date":"2026-02-18","time":"01:58:16"},{"task":"memory_phase","broad_category":"I","image_png":"I_Pegmatite_16.png","image_id":112,"category_name":"Pegmatite","category":7,"distinct_rating":7.03,"distinct_type":"Top","rt":null,"stimulus":"Stimuli_Rocks480/I_Pegmatite_16.png","response":null,"trial_type":"image-keyboard-response","trial_index":24,"plugin_version":"2.1.0","time_elapsed":72996,"subject_id":"91173","group":"Group1","condition":"3_Rep","full_date":"2026-02-18T01:58:16.915Z","date":"2026-02-18","time":"01:58:16"},{"rt":null,"stimulus":"<p style=\"font-size: 50px; margin: 0; text-align: center;\">+</p>","response":null,"trial_type":"html-keyboard-response","trial_index":25,"plugin_version":"2.1.0","time_elapsed":74016,"subject_id":"91173","group":"Group1","condition":"3_Rep","full_date":"2026-02-18T01:58:16.915Z","date":"2026-02-18","time":"01:58:16"},{"task":"memory_phase","broad_category":"S","image_png":"S_Shale_12.png","image_id":476,"category_name":"Shale","category":30,"distinct_rating":2.48,"distinct_type":"Bottom","rt":null,"stimulus":"Stimuli_Rocks480/S_Shale_12.png","response":null,"trial_type":"image-keyboard-response","trial_index":26,"plugin_version":"2.1.0","time_elapsed":76523,"subject_id":"91173","group":"Group1","condition":"3_Rep","full_date":"2026-02-18T01:58:16.915Z","date":"2026-02-18","time":"01:58:16"},{"rt":null,"stimulus":"<p style=\"font-size: 50px; margin: 0; text-align: center;\">+</p>","response":null,"trial_type":"html-keyboard-response","trial_index":27,"plugin_version":"2.1.0","time_elapsed":77540,"subject_id":"91173","group":"Group1","condition":"3_Rep","full_date":"2026-02-18T01:58:16.915Z","date":"2026-02-18","time":"01:58:16"},{"task":"memory_phase","broad_category":"I","image_png":"I_Gabbro_11.png","image_id":59,"category_name":"Gabbro","category":4,"distinct_rating":1.99,"distinct_type":"Bottom","rt":null,"stimulus":"Stimuli_Rocks480/I_Gabbro_11.png","response":null,"trial_type":"image-keyboard-response","trial_index":28,"plugin_version":"2.1.0","time_elapsed":80055,"subject_id":"91173","group":"Group1","condition":"3_Rep","full_date":"2026-02-18T01:58:16.915Z","date":"2026-02-18","time":"01:58:16"},{"rt":null,"stimulus":"<p style=\"font-size: 50px; margin: 0; text-align: center;\">+</p>","response":null,"trial_type":"html-keyboard-response","trial_index":29,"plugin_version":"2.1.0","time_elapsed":81063,"subject_id":"91173","group":"Group1","condition":"3_Rep","full_date":"2026-02-18T01:58:16.915Z","date":"2026-02-18","time":"01:58:16"},{"task":"memory_phase","broad_category":"I","image_png":"I_Rhyolite_14.png","image_id":158,"category_name":"Rhyolite","category":10,"distinct_rating":2.59,"distinct_type":"Bottom","rt":null,"stimulus":"Stimuli_Rocks480/I_Rhyolite_14.png","response":null,"trial_type":"image-keyboard-response","trial_index":30,"plugin_version":"2.1.0","time_elapsed":83569,"subject_id":"91173","group":"Group1","condition":"3_Rep","full_date":"2026-02-18T01:58:16.915Z","date":"2026-02-18","time":"01:58:16"},{"rt":null,"stimulus":"<p style=\"font-size: 50px; margin: 0; text-align: center;\">+</p>","response":null,"trial_type":"html-keyboard-response","trial_index":31,"plugin_version":"2.1.0","time_elapsed":84572,"subject_id":"91173","group":"Group1","condition":"3_Rep","full_date":"2026-02-18T01:58:16.915Z","date":"2026-02-18","time":"01:58:16"},{"task":"memory_phase","broad_category":"S","image_png":"S_Rock Gypsum_04.png","image_id":420,"category_name":"Rock Gypsum","category":27,"distinct_rating":7.61,"distinct_type":"Top","rt":null,"stimulus":"Stimuli_Rocks480/S_Rock Gypsum_04.png","response":null,"trial_type":"image-keyboard-response","trial_index":32,"plugin_version":"2.1.0","time_elapsed":87088,"subject_id":"91173","group":"Group1","condition":"3_Rep","full_date":"2026-02-18T01:58:16.915Z","date":"2026-02-18","time":"01:58:16"},{"rt":null,"stimulus":"<p style=\"font-size: 50px; margin: 0; text-align: center;\">+</p>","response":null,"trial_type":"html-keyboard-response","trial_index":33,"plugin_version":"2.1.0","time_elapsed":88090,"subject_id":"91173","group":"Group1","condition":"3_Rep","full_date":"2026-02-18T01:58:16.915Z","date":"2026-02-18","time":"01:58:16"},{"task":"memory_phase","broad_category":"M","image_png":"M_Marble_06.png","image_id":230,"category_name":"Marble","category":15,"distinct_rating":3.4,"distinct_type":"Bottom","rt":null,"stimulus":"Stimuli_Rocks480/M_Marble_06.png","response":null,"trial_type":"image-keyboard-response","trial_index":34,"plugin_version":"2.1.0","time_elapsed":90604,"subject_id":"91173","group":"Group1","condition":"3_Rep","full_date":"2026-02-18T01:58:16.915Z","date":"2026-02-18","time":"01:58:16"},{"rt":null,"stimulus":"<p style=\"font-size: 50px; margin: 0; text-align: center;\">+</p>","response":null,"trial_type":"html-keyboard-response","trial_index":35,"plugin_version":"2.1.0","time_elapsed":91614,"subject_id":"91173","group":"Group1","condition":"3_Rep","full_date":"2026-02-18T01:58:16.915Z","date":"2026-02-18","time":"01:58:16"},{"task":"memory_phase","broad_category":"S","image_png":"S_Rock Salt_01.png","image_id":433,"category_name":"Rock Salt","category":28,"distinct_rating":7.18,"distinct_type":"Top","rt":null,"stimulus":"Stimuli_Rocks480/S_Rock Salt_01.png","response":null,"trial_type":"image-keyboard-response","trial_index":36,"plugin_version":"2.1.0","time_elapsed":94122,"subject_id":"91173","group":"Group1","condition":"3_Rep","full_date":"2026-02-18T01:58:16.915Z","date":"2026-02-18","time":"01:58:16"},{"rt":null,"stimulus":"<p style=\"font-size: 50px; margin: 0; text-align: center;\">+</p>","response":null,"trial_type":"html-keyboard-response","trial_index":37,"plugin_version":"2.1.0","time_elapsed":95139,"subject_id":"91173","group":"Group1","condition":"3_Rep","full_date":"2026-02-18T01:58:16.915Z","date":"2026-02-18","time":"01:58:16"},{"task":"memory_phase","broad_category":"S","image_png":"S_Sandstone_16.png","image_id":464,"category_name":"Sandstone","category":29,"distinct_rating":1.93,"distinct_type":"Bottom","rt":null,"stimulus":"Stimuli_Rocks480/S_Sandstone_16.png","response":null,"trial_type":"image-keyboard-response","trial_index":38,"plugin_version":"2.1.0","time_elapsed":97654,"subject_id":"91173","group":"Group1","condition":"3_Rep","full_date":"2026-02-18T01:58:16.915Z","date":"2026-02-18","time":"01:58:16"},{"rt":null,"stimulus":"<p style=\"font-size: 50px; margin: 0; text-align: center;\">+</p>","response":null,"trial_type":"html-keyboard-response","trial_index":39,"plugin_version":"2.1.0","time_elapsed":98660,"subject_id":"91173","group":"Group1","condition":"3_Rep","full_date":"2026-02-18T01:58:16.915Z","date":"2026-02-18","time":"01:58:16"},{"task":"memory_phase","broad_category":"I","image_png":"I_Basalt_09.png","image_id":25,"category_name":"Basalt","category":2,"distinct_rating":1.89,"distinct_type":"Bottom","rt":null,"stimulus":"Stimuli_Rocks480/I_Basalt_09.png","response":null,"trial_type":"image-keyboard-response","trial_index":40,"plugin_version":"2.1.0","time_elapsed":101173,"subject_id":"91173","group":"Group1","condition":"3_Rep","full_date":"2026-02-18T01:58:16.915Z","date":"2026-02-18","time":"01:58:16"},{"rt":null,"stimulus":"<p style=\"font-size: 50px; margin: 0; text-align: center;\">+</p>","response":null,"trial_type":"html-keyboard-response","trial_index":41,"plugin_version":"2.1.0","time_elapsed":102177,"subject_id":"91173","group":"Group1","condition":"3_Rep","full_date":"2026-02-18T01:58:16.915Z","date":"2026-02-18","time":"01:58:16"},{"task":"memory_phase","broad_category":"M","image_png":"M_Gneiss_13.png","image_id":205,"category_name":"Gneiss","category":13,"distinct_rating":3.26,"distinct_type":"Bottom","rt":null,"stimulus":"Stimuli_Rocks480/M_Gneiss_13.png","response":null,"trial_type":"image-keyboard-response","trial_index":42,"plugin_version":"2.1.0","time_elapsed":104692,"subject_id":"91173","group":"Group1","condition":"3_Rep","full_date":"2026-02-18T01:58:16.915Z","date":"2026-02-18","time":"01:58:16"},{"rt":null,"stimulus":"<p style=\"font-size: 50px; margin: 0; text-align: center;\">+</p>","response":null,"trial_type":"html-keyboard-response","trial_index":43,"plugin_version":"2.1.0","time_elapsed":105709,"subject_id":"91173","group":"Group1","condition":"3_Rep","full_date":"2026-02-18T01:58:16.915Z","date":"2026-02-18","time":"01:58:16"},{"task":"memory_phase","broad_category":"M","image_png":"M_Marble_04.png","image_id":228,"category_name":"Marble","category":15,"distinct_rating":3.15,"distinct_type":"Bottom","rt":null,"stimulus":"Stimuli_Rocks480/M_Marble_04.png","response":null,"trial_type":"image-keyboard-response","trial_index":44,"plugin_version":"2.1.0","time_elapsed":108225,"subject_id":"91173","group":"Group1","condition":"3_Rep","full_date":"2026-02-18T01:58:16.915Z","date":"2026-02-18","time":"01:58:16"},{"rt":null,"stimulus":"<p style=\"font-size: 50px; margin: 0; text-align: center;\">+</p>","response":null,"trial_type":"html-keyboard-response","trial_index":45,"plugin_version":"2.1.0","time_elapsed":109236,"subject_id":"91173","group":"Group1","condition":"3_Rep","full_date":"2026-02-18T01:58:16.915Z","date":"2026-02-18","time":"01:58:16"},{"task":"memory_phase","broad_category":"S","image_png":"S_Dolomite_13.png","image_id":397,"category_name":"Dolomite","category":25,"distinct_rating":1.77,"distinct_type":"Bottom","rt":null,"stimulus":"Stimuli_Rocks480/S_Dolomite_13.png","response":null,"trial_type":"image-keyboard-response","trial_index":46,"plugin_version":"2.1.0","time_elapsed":111754,"subject_id":"91173","group":"Group1","condition":"3_Rep","full_date":"2026-02-18T01:58:16.915Z","date":"2026-02-18","time":"01:58:16"},{"rt":null,"stimulus":"<p style=\"font-size: 50px; margin: 0; text-align: center;\">+</p>","response":null,"trial_type":"html-keyboard-response","trial_index":47,"plugin_version":"2.1.0","time_elapsed":112773,"subject_id":"91173","group":"Group1","condition":"3_Rep","full_date":"2026-02-18T01:58:16.915Z","date":"2026-02-18","time":"01:58:16"},{"task":"memory_phase","broad_category":"I","image_png":"I_Andesite_08.png","image_id":8,"category_name":"Andesite","category":1,"distinct_rating":1.95,"distinct_type":"Bottom","rt":null,"stimulus":"Stimuli_Rocks480/I_Andesite_08.png","response":null,"trial_type":"image-keyboard-response","trial_index":48,"plugin_version":"2.1.0","time_elapsed":115292,"subject_id":"91173","group":"Group1","condition":"3_Rep","full_date":"2026-02-18T01:58:16.915Z","date":"2026-02-18","time":"01:58:16"},{"rt":null,"stimulus":"<p style=\"font-size: 50px; margin: 0; text-align: center;\">+</p>","response":null,"trial_type":"html-keyboard-response","trial_index":49,"plugin_version":"2.1.0","time_elapsed":116305,"subject_id":"91173","group":"Group1","condition":"3_Rep","full_date":"2026-02-18T01:58:16.915Z","date":"2026-02-18","time":"01:58:16"},{"task":"memory_phase","broad_category":"I","image_png":"I_Gabbro_08.png","image_id":56,"category_name":"Gabbro","category":4,"distinct_rating":3.02,"distinct_type":"Bottom","rt":null,"stimulus":"Stimuli_Rocks480/I_Gabbro_08.png","response":null,"trial_type":"image-keyboard-response","trial_index":50,"plugin_version":"2.1.0","time_elapsed":118822,"subject_id":"91173","group":"Group1","condition":"3_Rep","full_date":"2026-02-18T01:58:16.915Z","date":"2026-02-18","time":"01:58:16"},{"rt":null,"stimulus":"<p style=\"font-size: 50px; margin: 0; text-align: center;\">+</p>","response":null,"trial_type":"html-keyboard-response","trial_index":51,"plugin_version":"2.1.0","time_elapsed":119838,"subject_id":"91173","group":"Group1","condition":"3_Rep","full_date":"2026-02-18T01:58:16.915Z","date":"2026-02-18","time":"01:58:16"},{"task":"memory_phase","broad_category":"I","image_png":"I_Pumice_12.png","image_id":140,"category_name":"Pumice","category":9,"distinct_rating":2.97,"distinct_type":"Bottom","rt":null,"stimulus":"Stimuli_Rocks480/I_Pumice_12.png","response":null,"trial_type":"image-keyboard-response","trial_index":52,"plugin_version":"2.1.0","time_elapsed":122342,"subject_id":"91173","group":"Group1","condition":"3_Rep","full_date":"2026-02-18T01:58:16.915Z","date":"2026-02-18","time":"01:58:16"},{"rt":null,"stimulus":"<p style=\"font-size: 50px; margin: 0; text-align: center;\">+</p>","response":null,"trial_type":"html-keyboard-response","trial_index":53,"plugin_version":"2.1.0","time_elapsed":123347,"subject_id":"91173","group":"Group1","condition":"3_Rep","full_date":"2026-02-18T01:58:16.915Z","date":"2026-02-18","time":"01:58:16"},{"task":"memory_phase","broad_category":"M","image_png":"M_Phyllite_03.png","image_id":259,"category_name":"Phyllite","category":17,"distinct_rating":2.5,"distinct_type":"Bottom","rt":null,"stimulus":"Stimuli_Rocks480/M_Phyllite_03.png","response":null,"trial_type":"image-keyboard-response","trial_index":54,"plugin_version":"2.1.0","time_elapsed":125858,"subject_id":"91173","group":"Group1","condition":"3_Rep","full_date":"2026-02-18T01:58:16.915Z","date":"2026-02-18","time":"01:58:16"},{"rt":1457,"stimulus":"<p style=\"max-width: 760px; margin: auto; font-size: 35px; line-height: 1.5;\">\n                Press SPACE to continue study phase\n              </p>","response":" ","trial_type":"html-keyboard-response","trial_index":55,"plugin_version":"2.1.0","time_elapsed":127317,"subject_id":"91173","group":"Group1","condition":"3_Rep","full_date":"2026-02-18T01:58:16.915Z","date":"2026-02-18","time":"01:58:16"},{"rt":null,"stimulus":"<p style=\"font-size: 50px; margin: 0; text-align: center;\">+</p>","response":null,"trial_type":"html-keyboard-response","trial_index":56,"plugin_version":"2.1.0","time_elapsed":128333,"subject_id":"91173","group":"Group1","condition":"3_Rep","full_date":"2026-02-18T01:58:16.915Z","date":"2026-02-18","time":"01:58:16"},{"task":"memory_phase","broad_category":"S","image_png":"S_Shale_08.png","image_id":472,"category_name":"Shale","category":30,"distinct_rating":2.55,"distinct_type":"Bottom","rt":null,"stimulus":"Stimuli_Rocks480/S_Shale_08.png","response":null,"trial_type":"image-keyboard-response","trial_index":57,"plugin_version":"2.1.0","time_elapsed":130843,"subject_id":"91173","group":"Group1","condition":"3_Rep","full_date":"2026-02-18T01:58:16.915Z","date":"2026-02-18","time":"01:58:16"},{"rt":null,"stimulus":"<p style=\"font-size: 50px; margin: 0; text-align: center;\">+</p>","response":null,"trial_type":"html-keyboard-response","trial_index":58,"plugin_version":"2.1.0","time_elapsed":131852,"subject_id":"91173","group":"Group1","condition":"3_Rep","full_date":"2026-02-18T01:58:16.915Z","date":"2026-02-18","time":"01:58:16"},{"task":"memory_phase","broad_category":"I","image_png":"I_Rhyolite_11.png","image_id":155,"category_name":"Rhyolite","category":10,"distinct_rating":1.73,"distinct_type":"Bottom","rt":null,"stimulus":"Stimuli_Rocks480/I_Rhyolite_11.png","response":null,"trial_type":"image-keyboard-response","trial_index":59,"plugin_version":"2.1.0","time_elapsed":134355,"subject_id":"91173","group":"Group1","condition":"3_Rep","full_date":"2026-02-18T01:58:16.915Z","date":"2026-02-18","time":"01:58:16"},{"rt":null,"stimulus":"<p style=\"font-size: 50px; margin: 0; text-align: center;\">+</p>","response":null,"trial_type":"html-keyboard-response","trial_index":60,"plugin_version":"2.1.0","time_elapsed":135374,"subject_id":"91173","group":"Group1","condition":"3_Rep","full_date":"2026-02-18T01:58:16.915Z","date":"2026-02-18","time":"01:58:16"},{"task":"memory_phase","broad_category":"I","image_png":"I_Basalt_01.png","image_id":17,"category_name":"Basalt","category":2,"distinct_rating":1.92,"distinct_type":"Bottom","rt":null,"stimulus":"Stimuli_Rocks480/I_Basalt_01.png","response":null,"trial_type":"image-keyboard-response","trial_index":61,"plugin_version":"2.1.0","time_elapsed":137889,"subject_id":"91173","group":"Group1","condition":"3_Rep","full_date":"2026-02-18T01:58:16.915Z","date":"2026-02-18","time":"01:58:16"},{"rt":null,"stimulus":"<p style=\"font-size: 50px; margin: 0; text-align: center;\">+</p>","response":null,"trial_type":"html-keyboard-response","trial_index":62,"plugin_version":"2.1.0","time_elapsed":138906,"subject_id":"91173","group":"Group1","condition":"3_Rep","full_date":"2026-02-18T01:58:16.915Z","date":"2026-02-18","time":"01:58:16"},{"task":"memory_phase","broad_category":"M","image_png":"M_Phyllite_10.png","image_id":266,"category_name":"Phyllite","category":17,"distinct_rating":2.6,"distinct_type":"Bottom","rt":null,"stimulus":"Stimuli_Rocks480/M_Phyllite_10.png","response":null,"trial_type":"image-keyboard-response","trial_index":63,"plugin_version":"2.1.0","time_elapsed":141426,"subject_id":"91173","group":"Group1","condition":"3_Rep","full_date":"2026-02-18T01:58:16.915Z","date":"2026-02-18","time":"01:58:16"},{"rt":null,"stimulus":"<p style=\"font-size: 50px; margin: 0; text-align: center;\">+</p>","response":null,"trial_type":"html-keyboard-response","trial_index":64,"plugin_version":"2.1.0","time_elapsed":142441,"subject_id":"91173","group":"Group1","condition":"3_Rep","full_date":"2026-02-18T01:58:16.915Z","date":"2026-02-18","time":"01:58:16"},{"task":"memory_phase","broad_category":"M","image_png":"M_Quartzite_13.png","image_id":285,"category_name":"Quartzite","category":18,"distinct_rating":2.27,"distinct_type":"Bottom","rt":null,"stimulus":"Stimuli_Rocks480/M_Quartzite_13.png","response":null,"trial_type":"image-keyboard-response","trial_index":65,"plugin_version":"2.1.0","time_elapsed":144955,"subject_id":"91173","group":"Group1","condition":"3_Rep","full_date":"2026-02-18T01:58:16.915Z","date":"2026-02-18","time":"01:58:16"},{"rt":null,"stimulus":"<p style=\"font-size: 50px; margin: 0; text-align: center;\">+</p>","response":null,"trial_type":"html-keyboard-response","trial_index":66,"plugin_version":"2.1.0","time_elapsed":145959,"subject_id":"91173","group":"Group1","condition":"3_Rep","full_date":"2026-02-18T01:58:16.915Z","date":"2026-02-18","time":"01:58:16"},{"task":"memory_phase","broad_category":"I","image_png":"I_Rhyolite_16.png","image_id":160,"category_name":"Rhyolite","category":10,"distinct_rating":2.19,"distinct_type":"Bottom","rt":null,"stimulus":"Stimuli_Rocks480/I_Rhyolite_16.png","response":null,"trial_type":"image-keyboard-response","trial_index":67,"plugin_version":"2.1.0","time_elapsed":148475,"subject_id":"91173","group":"Group1","condition":"3_Rep","full_date":"2026-02-18T01:58:16.915Z","date":"2026-02-18","time":"01:58:16"},{"rt":null,"stimulus":"<p style=\"font-size: 50px; margin: 0; text-align: center;\">+</p>","response":null,"trial_type":"html-keyboard-response","trial_index":68,"plugin_version":"2.1.0","time_elapsed":149490,"subject_id":"91173","group":"Group1","condition":"3_Rep","full_date":"2026-02-18T01:58:16.915Z","date":"2026-02-18","time":"01:58:16"},{"task":"memory_phase","broad_category":"I","image_png":"I_Andesite_10.png","image_id":10,"category_name":"Andesite","category":1,"distinct_rating":3.15,"distinct_type":"Bottom","rt":null,"stimulus":"Stimuli_Rocks480/I_Andesite_10.png","response":null,"trial_type":"image-keyboard-response","trial_index":69,"plugin_version":"2.1.0","time_elapsed":152009,"subject_id":"91173","group":"Group1","condition":"3_Rep","full_date":"2026-02-18T01:58:16.915Z","date":"2026-02-18","time":"01:58:16"},{"rt":null,"stimulus":"<p style=\"font-size: 50px; margin: 0; text-align: center;\">+</p>","response":null,"trial_type":"html-keyboard-response","trial_index":70,"plugin_version":"2.1.0","time_elapsed":153022,"subject_id":"91173","group":"Group1","condition":"3_Rep","full_date":"2026-02-18T01:58:16.915Z","date":"2026-02-18","time":"01:58:16"},{"task":"memory_phase","broad_category":"I","image_png":"I_Diorite_03.png","image_id":35,"category_name":"Diorite","category":3,"distinct_rating":3.14,"distinct_type":"Bottom","rt":null,"stimulus":"Stimuli_Rocks480/I_Diorite_03.png","response":null,"trial_type":"image-keyboard-response","trial_index":71,"plugin_version":"2.1.0","time_elapsed":155539,"subject_id":"91173","group":"Group1","condition":"3_Rep","full_date":"2026-02-18T01:58:16.915Z","date":"2026-02-18","time":"01:58:16"},{"rt":null,"stimulus":"<p style=\"font-size: 50px; margin: 0; text-align: center;\">+</p>","response":null,"trial_type":"html-keyboard-response","trial_index":72,"plugin_version":"2.1.0","time_elapsed":156557,"subject_id":"91173","group":"Group1","condition":"3_Rep","full_date":"2026-02-18T01:58:16.915Z","date":"2026-02-18","time":"01:58:16"},{"task":"memory_phase","broad_category":"I","image_png":"I_Pumice_08.png","image_id":136,"category_name":"Pumice","category":9,"distinct_rating":3.1,"distinct_type":"Bottom","rt":null,"stimulus":"Stimuli_Rocks480/I_Pumice_08.png","response":null,"trial_type":"image-keyboard-response","trial_index":73,"plugin_version":"2.1.0","time_elapsed":159072,"subject_id":"91173","group":"Group1","condition":"3_Rep","full_date":"2026-02-18T01:58:16.915Z","date":"2026-02-18","time":"01:58:16"},{"rt":null,"stimulus":"<p style=\"font-size: 50px; margin: 0; text-align: center;\">+</p>","response":null,"trial_type":"html-keyboard-response","trial_index":74,"plugin_version":"2.1.0","time_elapsed":160077,"subject_id":"91173","group":"Group1","condition":"3_Rep","full_date":"2026-02-18T01:58:16.915Z","date":"2026-02-18","time":"01:58:16"},{"task":"memory_phase","broad_category":"I","image_png":"I_Diorite_04.png","image_id":36,"category_name":"Diorite","category":3,"distinct_rating":2.98,"distinct_type":"Bottom","rt":null,"stimulus":"Stimuli_Rocks480/I_Diorite_04.png","response":null,"trial_type":"image-keyboard-response","trial_index":75,"plugin_version":"2.1.0","time_elapsed":162589,"subject_id":"91173","group":"Group1","condition":"3_Rep","full_date":"2026-02-18T01:58:16.915Z","date":"2026-02-18","time":"01:58:16"},{"rt":null,"stimulus":"<p style=\"font-size: 50px; margin: 0; text-align: center;\">+</p>","response":null,"trial_type":"html-keyboard-response","trial_index":76,"plugin_version":"2.1.0","time_elapsed":163604,"subject_id":"91173","group":"Group1","condition":"3_Rep","full_date":"2026-02-18T01:58:16.915Z","date":"2026-02-18","time":"01:58:16"},{"task":"memory_phase","broad_category":"M","image_png":"M_Quartzite_05.png","image_id":277,"category_name":"Quartzite","category":18,"distinct_rating":2.23,"distinct_type":"Bottom","rt":null,"stimulus":"Stimuli_Rocks480/M_Quartzite_05.png","response":null,"trial_type":"image-keyboard-response","trial_index":77,"plugin_version":"2.1.0","time_elapsed":166109,"subject_id":"91173","group":"Group1","condition":"3_Rep","full_date":"2026-02-18T01:58:16.915Z","date":"2026-02-18","time":"01:58:16"},{"rt":null,"stimulus":"<p style=\"font-size: 50px; margin: 0; text-align: center;\">+</p>","response":null,"trial_type":"html-keyboard-response","trial_index":78,"plugin_version":"2.1.0","time_elapsed":167123,"subject_id":"91173","group":"Group1","condition":"3_Rep","full_date":"2026-02-18T01:58:16.915Z","date":"2026-02-18","time":"01:58:16"},{"task":"memory_phase","broad_category":"S","image_png":"S_Conglomerate_05.png","image_id":373,"category_name":"Conglomerate","category":24,"distinct_rating":7.32,"distinct_type":"Top","rt":null,"stimulus":"Stimuli_Rocks480/S_Conglomerate_05.png","response":null,"trial_type":"image-keyboard-response","trial_index":79,"plugin_version":"2.1.0","time_elapsed":169640,"subject_id":"91173","group":"Group1","condition":"3_Rep","full_date":"2026-02-18T01:58:16.915Z","date":"2026-02-18","time":"01:58:16"},{"rt":null,"stimulus":"<p style=\"font-size: 50px; margin: 0; text-align: center;\">+</p>","response":null,"trial_type":"html-keyboard-response","trial_index":80,"plugin_version":"2.1.0","time_elapsed":170658,"subject_id":"91173","group":"Group1","condition":"3_Rep","full_date":"2026-02-18T01:58:16.915Z","date":"2026-02-18","time":"01:58:16"},{"task":"memory_phase","broad_category":"M","image_png":"M_Marble_16.png","image_id":240,"category_name":"Marble","category":15,"distinct_rating":2.57,"distinct_type":"Bottom","rt":null,"stimulus":"Stimuli_Rocks480/M_Marble_16.png","response":null,"trial_type":"image-keyboard-response","trial_index":81,"plugin_version":"2.1.0","time_elapsed":173168,"subject_id":"91173","group":"Group1","condition":"3_Rep","full_date":"2026-02-18T01:58:16.915Z","date":"2026-02-18","time":"01:58:16"},{"rt":null,"stimulus":"<p style=\"font-size: 50px; margin: 0; text-align: center;\">+</p>","response":null,"trial_type":"html-keyboard-response","trial_index":82,"plugin_version":"2.1.0","time_elapsed":174182,"subject_id":"91173","group":"Group1","condition":"3_Rep","full_date":"2026-02-18T01:58:16.915Z","date":"2026-02-18","time":"01:58:16"},{"task":"memory_phase","broad_category":"I","image_png":"I_Andesite_06.png","image_id":6,"category_name":"Andesite","category":1,"distinct_rating":3.17,"distinct_type":"Bottom","rt":null,"stimulus":"Stimuli_Rocks480/I_Andesite_06.png","response":null,"trial_type":"image-keyboard-response","trial_index":83,"plugin_version":"2.1.0","time_elapsed":176693,"subject_id":"91173","group":"Group1","condition":"3_Rep","full_date":"2026-02-18T01:58:16.915Z","date":"2026-02-18","time":"01:58:16"},{"rt":null,"stimulus":"<p style=\"font-size: 50px; margin: 0; text-align: center;\">+</p>","response":null,"trial_type":"html-keyboard-response","trial_index":84,"plugin_version":"2.1.0","time_elapsed":177705,"subject_id":"91173","group":"Group1","condition":"3_Rep","full_date":"2026-02-18T01:58:16.915Z","date":"2026-02-18","time":"01:58:16"},{"task":"memory_phase","broad_category":"S","image_png":"S_Dolomite_14.png","image_id":398,"category_name":"Dolomite","category":25,"distinct_rating":1.43,"distinct_type":"Bottom","rt":null,"stimulus":"Stimuli_Rocks480/S_Dolomite_14.png","response":null,"trial_type":"image-keyboard-response","trial_index":85,"plugin_version":"2.1.0","time_elapsed":180214,"subject_id":"91173","group":"Group1","condition":"3_Rep","full_date":"2026-02-18T01:58:16.915Z","date":"2026-02-18","time":"01:58:16"},{"rt":null,"stimulus":"<p style=\"font-size: 50px; margin: 0; text-align: center;\">+</p>","response":null,"trial_type":"html-keyboard-response","trial_index":86,"plugin_version":"2.1.0","time_elapsed":181225,"subject_id":"91173","group":"Group1","condition":"3_Rep","full_date":"2026-02-18T01:58:16.915Z","date":"2026-02-18","time":"01:58:16"},{"task":"memory_phase","broad_category":"S","image_png":"S_Shale_01.png","image_id":465,"category_name":"Shale","category":30,"distinct_rating":2.7,"distinct_type":"Bottom","rt":null,"stimulus":"Stimuli_Rocks480/S_Shale_01.png","response":null,"trial_type":"image-keyboard-response","trial_index":87,"plugin_version":"2.1.0","time_elapsed":183736,"subject_id":"91173","group":"Group1","condition":"3_Rep","full_date":"2026-02-18T01:58:16.915Z","date":"2026-02-18","time":"01:58:16"},{"rt":null,"stimulus":"<p style=\"font-size: 50px; margin: 0; text-align: center;\">+</p>","response":null,"trial_type":"html-keyboard-response","trial_index":88,"plugin_version":"2.1.0","time_elapsed":184739,"subject_id":"91173","group":"Group1","condition":"3_Rep","full_date":"2026-02-18T01:58:16.915Z","date":"2026-02-18","time":"01:58:16"},{"task":"memory_phase","broad_category":"I","image_png":"I_Pumice_11.png","image_id":139,"category_name":"Pumice","category":9,"distinct_rating":1.74,"distinct_type":"Bottom","rt":null,"stimulus":"Stimuli_Rocks480/I_Pumice_11.png","response":null,"trial_type":"image-keyboard-response","trial_index":89,"plugin_version":"2.1.0","time_elapsed":187257,"subject_id":"91173","group":"Group1","condition":"3_Rep","full_date":"2026-02-18T01:58:16.915Z","date":"2026-02-18","time":"01:58:16"},{"rt":null,"stimulus":"<p style=\"font-size: 50px; margin: 0; text-align: center;\">+</p>","response":null,"trial_type":"html-keyboard-response","trial_index":90,"plugin_version":"2.1.0","time_elapsed":188272,"subject_id":"91173","group":"Group1","condition":"3_Rep","full_date":"2026-02-18T01:58:16.915Z","date":"2026-02-18","time":"01:58:16"},{"task":"memory_phase","broad_category":"M","image_png":"M_Gneiss_05.png","image_id":197,"category_name":"Gneiss","category":13,"distinct_rating":2.97,"distinct_type":"Bottom","rt":null,"stimulus":"Stimuli_Rocks480/M_Gneiss_05.png","response":null,"trial_type":"image-keyboard-response","trial_index":91,"plugin_version":"2.1.0","time_elapsed":190790,"subject_id":"91173","group":"Group1","condition":"3_Rep","full_date":"2026-02-18T01:58:16.915Z","date":"2026-02-18","time":"01:58:16"},{"rt":null,"stimulus":"<p style=\"font-size: 50px; margin: 0; text-align: center;\">+</p>","response":null,"trial_type":"html-keyboard-response","trial_index":92,"plugin_version":"2.1.0","time_elapsed":191806,"subject_id":"91173","group":"Group1","condition":"3_Rep","full_date":"2026-02-18T01:58:16.915Z","date":"2026-02-18","time":"01:58:16"},{"task":"memory_phase","broad_category":"M","image_png":"M_Slate_11.png","image_id":315,"category_name":"Slate","category":20,"distinct_rating":2.75,"distinct_type":"Bottom","rt":null,"stimulus":"Stimuli_Rocks480/M_Slate_11.png","response":null,"trial_type":"image-keyboard-response","trial_index":93,"plugin_version":"2.1.0","time_elapsed":194323,"subject_id":"91173","group":"Group1","condition":"3_Rep","full_date":"2026-02-18T01:58:16.915Z","date":"2026-02-18","time":"01:58:16"},{"rt":null,"stimulus":"<p style=\"font-size: 50px; margin: 0; text-align: center;\">+</p>","response":null,"trial_type":"html-keyboard-response","trial_index":94,"plugin_version":"2.1.0","time_elapsed":195340,"subject_id":"91173","group":"Group1","condition":"3_Rep","full_date":"2026-02-18T01:58:16.915Z","date":"2026-02-18","time":"01:58:16"},{"task":"memory_phase","broad_category":"S","image_png":"S_Dolomite_12.png","image_id":396,"category_name":"Dolomite","category":25,"distinct_rating":1.85,"distinct_type":"Bottom","rt":null,"stimulus":"Stimuli_Rocks480/S_Dolomite_12.png","response":null,"trial_type":"image-keyboard-response","trial_index":95,"plugin_version":"2.1.0","time_elapsed":197852,"subject_id":"91173","group":"Group1","condition":"3_Rep","full_date":"2026-02-18T01:58:16.915Z","date":"2026-02-18","time":"01:58:16"},{"rt":null,"stimulus":"<p style=\"font-size: 50px; margin: 0; text-align: center;\">+</p>","response":null,"trial_type":"html-keyboard-response","trial_index":96,"plugin_version":"2.1.0","time_elapsed":198858,"subject_id":"91173","group":"Group1","condition":"3_Rep","full_date":"2026-02-18T01:58:16.915Z","date":"2026-02-18","time":"01:58:16"},{"task":"memory_phase","broad_category":"M","image_png":"M_Quartzite_08.png","image_id":280,"category_name":"Quartzite","category":18,"distinct_rating":2.15,"distinct_type":"Bottom","rt":null,"stimulus":"Stimuli_Rocks480/M_Quartzite_08.png","response":null,"trial_type":"image-keyboard-response","trial_index":97,"plugin_version":"2.1.0","time_elapsed":201371,"subject_id":"91173","group":"Group1","condition":"3_Rep","full_date":"2026-02-18T01:58:16.915Z","date":"2026-02-18","time":"01:58:16"},{"rt":null,"stimulus":"<p style=\"font-size: 50px; margin: 0; text-align: center;\">+</p>","response":null,"trial_type":"html-keyboard-response","trial_index":98,"plugin_version":"2.1.0","time_elapsed":202373,"subject_id":"91173","group":"Group1","condition":"3_Rep","full_date":"2026-02-18T01:58:16.915Z","date":"2026-02-18","time":"01:58:16"},{"task":"memory_phase","broad_category":"S","image_png":"S_Chert_10.png","image_id":362,"category_name":"Chert","category":23,"distinct_rating":7.17,"distinct_type":"Top","rt":null,"stimulus":"Stimuli_Rocks480/S_Chert_10.png","response":null,"trial_type":"image-keyboard-response","trial_index":99,"plugin_version":"2.1.0","time_elapsed":204877,"subject_id":"91173","group":"Group1","condition":"3_Rep","full_date":"2026-02-18T01:58:16.915Z","date":"2026-02-18","time":"01:58:16"},{"rt":null,"stimulus":"<p style=\"font-size: 50px; margin: 0; text-align: center;\">+</p>","response":null,"trial_type":"html-keyboard-response","trial_index":100,"plugin_version":"2.1.0","time_elapsed":205893,"subject_id":"91173","group":"Group1","condition":"3_Rep","full_date":"2026-02-18T01:58:16.915Z","date":"2026-02-18","time":"01:58:16"},{"task":"memory_phase","broad_category":"I","image_png":"I_Diorite_05.png","image_id":37,"category_name":"Diorite","category":3,"distinct_rating":3.08,"distinct_type":"Bottom","rt":null,"stimulus":"Stimuli_Rocks480/I_Diorite_05.png","response":null,"trial_type":"image-keyboard-response","trial_index":101,"plugin_version":"2.1.0","time_elapsed":208404,"subject_id":"91173","group":"Group1","condition":"3_Rep","full_date":"2026-02-18T01:58:16.915Z","date":"2026-02-18","time":"01:58:16"},{"rt":null,"stimulus":"<p style=\"font-size: 50px; margin: 0; text-align: center;\">+</p>","response":null,"trial_type":"html-keyboard-response","trial_index":102,"plugin_version":"2.1.0","time_elapsed":209423,"subject_id":"91173","group":"Group1","condition":"3_Rep","full_date":"2026-02-18T01:58:16.915Z","date":"2026-02-18","time":"01:58:16"},{"task":"memory_phase","broad_category":"M","image_png":"M_Slate_15.png","image_id":319,"category_name":"Slate","category":20,"distinct_rating":2.13,"distinct_type":"Bottom","rt":null,"stimulus":"Stimuli_Rocks480/M_Slate_15.png","response":null,"trial_type":"image-keyboard-response","trial_index":103,"plugin_version":"2.1.0","time_elapsed":211926,"subject_id":"91173","group":"Group1","condition":"3_Rep","full_date":"2026-02-18T01:58:16.915Z","date":"2026-02-18","time":"01:58:16"},{"rt":null,"stimulus":"<p style=\"font-size: 50px; margin: 0; text-align: center;\">+</p>","response":null,"trial_type":"html-keyboard-response","trial_index":104,"plugin_version":"2.1.0","time_elapsed":212932,"subject_id":"91173","group":"Group1","condition":"3_Rep","full_date":"2026-02-18T01:58:16.915Z","date":"2026-02-18","time":"01:58:16"},{"task":"memory_phase","broad_category":"S","image_png":"S_Breccia_11.png","image_id":347,"category_name":"Breccia","category":22,"distinct_rating":6.7,"distinct_type":"Top","rt":null,"stimulus":"Stimuli_Rocks480/S_Breccia_11.png","response":null,"trial_type":"image-keyboard-response","trial_index":105,"plugin_version":"2.1.0","time_elapsed":215441,"subject_id":"91173","group":"Group1","condition":"3_Rep","full_date":"2026-02-18T01:58:16.915Z","date":"2026-02-18","time":"01:58:16"},{"rt":6759,"stimulus":"<p style=\"max-width: 760px; margin: auto; font-size: 35px; line-height: 1.5;\">\n                You have completed 1 study phase. \n                Now, we'll show you all the images again 2 more times.\n                <br><br>Press SPACE to continue\n              </p>","response":" ","trial_type":"html-keyboard-response","trial_index":106,"plugin_version":"2.1.0","time_elapsed":222201,"subject_id":"91173","group":"Group1","condition":"3_Rep","full_date":"2026-02-18T01:58:16.915Z","date":"2026-02-18","time":"01:58:16"},{"rt":null,"stimulus":"<p style=\"font-size: 50px; margin: 0; text-align: center;\">+</p>","response":null,"trial_type":"html-keyboard-response","trial_index":107,"plugin_version":"2.1.0","time_elapsed":223205,"subject_id":"91173","group":"Group1","condition":"3_Rep","full_date":"2026-02-18T01:58:16.915Z","date":"2026-02-18","time":"01:58:16"},{"task":"memory_phase","broad_category":"I","image_png":"I_Basalt_09.png","image_id":25,"category_name":"Basalt","category":2,"distinct_rating":1.89,"distinct_type":"Bottom","rt":null,"stimulus":"Stimuli_Rocks480/I_Basalt_09.png","response":null,"trial_type":"image-keyboard-response","trial_index":108,"plugin_version":"2.1.0","time_elapsed":225709,"subject_id":"91173","group":"Group1","condition":"3_Rep","full_date":"2026-02-18T01:58:16.915Z","date":"2026-02-18","time":"01:58:16"},{"rt":null,"stimulus":"<p style=\"font-size: 50px; margin: 0; text-align: center;\">+</p>","response":null,"trial_type":"html-keyboard-response","trial_index":109,"plugin_version":"2.1.0","time_elapsed":226721,"subject_id":"91173","group":"Group1","condition":"3_Rep","full_date":"2026-02-18T01:58:16.915Z","date":"2026-02-18","time":"01:58:16"},{"task":"memory_phase","broad_category":"I","image_png":"I_Basalt_01.png","image_id":17,"category_name":"Basalt","category":2,"distinct_rating":1.92,"distinct_type":"Bottom","rt":null,"stimulus":"Stimuli_Rocks480/I_Basalt_01.png","response":null,"trial_type":"image-keyboard-response","trial_index":110,"plugin_version":"2.1.0","time_elapsed":229241,"subject_id":"91173","group":"Group1","condition":"3_Rep","full_date":"2026-02-18T01:58:16.915Z","date":"2026-02-18","time":"01:58:16"},{"rt":null,"stimulus":"<p style=\"font-size: 50px; margin: 0; text-align: center;\">+</p>","response":null,"trial_type":"html-keyboard-response","trial_index":111,"plugin_version":"2.1.0","time_elapsed":230243,"subject_id":"91173","group":"Group1","condition":"3_Rep","full_date":"2026-02-18T01:58:16.915Z","date":"2026-02-18","time":"01:58:16"},{"task":"memory_phase","broad_category":"S","image_png":"S_Chert_10.png","image_id":362,"category_name":"Chert","category":23,"distinct_rating":7.17,"distinct_type":"Top","rt":null,"stimulus":"Stimuli_Rocks480/S_Chert_10.png","response":null,"trial_type":"image-keyboard-response","trial_index":112,"plugin_version":"2.1.0","time_elapsed":232756,"subject_id":"91173","group":"Group1","condition":"3_Rep","full_date":"2026-02-18T01:58:16.915Z","date":"2026-02-18","time":"01:58:16"},{"rt":null,"stimulus":"<p style=\"font-size: 50px; margin: 0; text-align: center;\">+</p>","response":null,"trial_type":"html-keyboard-response","trial_index":113,"plugin_version":"2.1.0","time_elapsed":233759,"subject_id":"91173","group":"Group1","condition":"3_Rep","full_date":"2026-02-18T01:58:16.915Z","date":"2026-02-18","time":"01:58:16"},{"task":"memory_phase","broad_category":"I","image_png":"I_Andesite_06.png","image_id":6,"category_name":"Andesite","category":1,"distinct_rating":3.17,"distinct_type":"Bottom","rt":null,"stimulus":"Stimuli_Rocks480/I_Andesite_06.png","response":null,"trial_type":"image-keyboard-response","trial_index":114,"plugin_version":"2.1.0","time_elapsed":236274,"subject_id":"91173","group":"Group1","condition":"3_Rep","full_date":"2026-02-18T01:58:16.915Z","date":"2026-02-18","time":"01:58:16"},{"rt":null,"stimulus":"<p style=\"font-size: 50px; margin: 0; text-align: center;\">+</p>","response":null,"trial_type":"html-keyboard-response","trial_index":115,"plugin_version":"2.1.0","time_elapsed":237292,"subject_id":"91173","group":"Group1","condition":"3_Rep","full_date":"2026-02-18T01:58:16.915Z","date":"2026-02-18","time":"01:58:16"},{"task":"memory_phase","broad_category":"I","image_png":"I_Rhyolite_14.png","image_id":158,"category_name":"Rhyolite","category":10,"distinct_rating":2.59,"distinct_type":"Bottom","rt":null,"stimulus":"Stimuli_Rocks480/I_Rhyolite_14.png","response":null,"trial_type":"image-keyboard-response","trial_index":116,"plugin_version":"2.1.0","time_elapsed":239806,"subject_id":"91173","group":"Group1","condition":"3_Rep","full_date":"2026-02-18T01:58:16.915Z","date":"2026-02-18","time":"01:58:16"},{"rt":null,"stimulus":"<p style=\"font-size: 50px; margin: 0; text-align: center;\">+</p>","response":null,"trial_type":"html-keyboard-response","trial_index":117,"plugin_version":"2.1.0","time_elapsed":240823,"subject_id":"91173","group":"Group1","condition":"3_Rep","full_date":"2026-02-18T01:58:16.915Z","date":"2026-02-18","time":"01:58:16"},{"task":"memory_phase","broad_category":"M","image_png":"M_Marble_16.png","image_id":240,"category_name":"Marble","category":15,"distinct_rating":2.57,"distinct_type":"Bottom","rt":null,"stimulus":"Stimuli_Rocks480/M_Marble_16.png","response":null,"trial_type":"image-keyboard-response","trial_index":118,"plugin_version":"2.1.0","time_elapsed":243340,"subject_id":"91173","group":"Group1","condition":"3_Rep","full_date":"2026-02-18T01:58:16.915Z","date":"2026-02-18","time":"01:58:16"},{"rt":null,"stimulus":"<p style=\"font-size: 50px; margin: 0; text-align: center;\">+</p>","response":null,"trial_type":"html-keyboard-response","trial_index":119,"plugin_version":"2.1.0","time_elapsed":244346,"subject_id":"91173","group":"Group1","condition":"3_Rep","full_date":"2026-02-18T01:58:16.915Z","date":"2026-02-18","time":"01:58:16"},{"task":"memory_phase","broad_category":"I","image_png":"I_Gabbro_11.png","image_id":59,"category_name":"Gabbro","category":4,"distinct_rating":1.99,"distinct_type":"Bottom","rt":null,"stimulus":"Stimuli_Rocks480/I_Gabbro_11.png","response":null,"trial_type":"image-keyboard-response","trial_index":120,"plugin_version":"2.1.0","time_elapsed":246855,"subject_id":"91173","group":"Group1","condition":"3_Rep","full_date":"2026-02-18T01:58:16.915Z","date":"2026-02-18","time":"01:58:16"},{"rt":null,"stimulus":"<p style=\"font-size: 50px; margin: 0; text-align: center;\">+</p>","response":null,"trial_type":"html-keyboard-response","trial_index":121,"plugin_version":"2.1.0","time_elapsed":247866,"subject_id":"91173","group":"Group1","condition":"3_Rep","full_date":"2026-02-18T01:58:16.915Z","date":"2026-02-18","time":"01:58:16"},{"task":"memory_phase","broad_category":"I","image_png":"I_Gabbro_08.png","image_id":56,"category_name":"Gabbro","category":4,"distinct_rating":3.02,"distinct_type":"Bottom","rt":null,"stimulus":"Stimuli_Rocks480/I_Gabbro_08.png","response":null,"trial_type":"image-keyboard-response","trial_index":122,"plugin_version":"2.1.0","time_elapsed":250370,"subject_id":"91173","group":"Group1","condition":"3_Rep","full_date":"2026-02-18T01:58:16.915Z","date":"2026-02-18","time":"01:58:16"},{"rt":null,"stimulus":"<p style=\"font-size: 50px; margin: 0; text-align: center;\">+</p>","response":null,"trial_type":"html-keyboard-response","trial_index":123,"plugin_version":"2.1.0","time_elapsed":251374,"subject_id":"91173","group":"Group1","condition":"3_Rep","full_date":"2026-02-18T01:58:16.915Z","date":"2026-02-18","time":"01:58:16"},{"task":"memory_phase","broad_category":"S","image_png":"S_Shale_12.png","image_id":476,"category_name":"Shale","category":30,"distinct_rating":2.48,"distinct_type":"Bottom","rt":null,"stimulus":"Stimuli_Rocks480/S_Shale_12.png","response":null,"trial_type":"image-keyboard-response","trial_index":124,"plugin_version":"2.1.0","time_elapsed":253891,"subject_id":"91173","group":"Group1","condition":"3_Rep","full_date":"2026-02-18T01:58:16.915Z","date":"2026-02-18","time":"01:58:16"},{"rt":null,"stimulus":"<p style=\"font-size: 50px; margin: 0; text-align: center;\">+</p>","response":null,"trial_type":"html-keyboard-response","trial_index":125,"plugin_version":"2.1.0","time_elapsed":254893,"subject_id":"91173","group":"Group1","condition":"3_Rep","full_date":"2026-02-18T01:58:16.915Z","date":"2026-02-18","time":"01:58:16"},{"task":"memory_phase","broad_category":"S","image_png":"S_Shale_01.png","image_id":465,"category_name":"Shale","category":30,"distinct_rating":2.7,"distinct_type":"Bottom","rt":null,"stimulus":"Stimuli_Rocks480/S_Shale_01.png","response":null,"trial_type":"image-keyboard-response","trial_index":126,"plugin_version":"2.1.0","time_elapsed":257407,"subject_id":"91173","group":"Group1","condition":"3_Rep","full_date":"2026-02-18T01:58:16.915Z","date":"2026-02-18","time":"01:58:16"},{"rt":null,"stimulus":"<p style=\"font-size: 50px; margin: 0; text-align: center;\">+</p>","response":null,"trial_type":"html-keyboard-response","trial_index":127,"plugin_version":"2.1.0","time_elapsed":258423,"subject_id":"91173","group":"Group1","condition":"3_Rep","full_date":"2026-02-18T01:58:16.915Z","date":"2026-02-18","time":"01:58:16"},{"task":"memory_phase","broad_category":"M","image_png":"M_Slate_03.png","image_id":307,"category_name":"Slate","category":20,"distinct_rating":1.87,"distinct_type":"Bottom","rt":null,"stimulus":"Stimuli_Rocks480/M_Slate_03.png","response":null,"trial_type":"image-keyboard-response","trial_index":128,"plugin_version":"2.1.0","time_elapsed":260927,"subject_id":"91173","group":"Group1","condition":"3_Rep","full_date":"2026-02-18T01:58:16.915Z","date":"2026-02-18","time":"01:58:16"},{"rt":null,"stimulus":"<p style=\"font-size: 50px; margin: 0; text-align: center;\">+</p>","response":null,"trial_type":"html-keyboard-response","trial_index":129,"plugin_version":"2.1.0","time_elapsed":261938,"subject_id":"91173","group":"Group1","condition":"3_Rep","full_date":"2026-02-18T01:58:16.915Z","date":"2026-02-18","time":"01:58:16"},{"task":"memory_phase","broad_category":"M","image_png":"M_Gneiss_06.png","image_id":198,"category_name":"Gneiss","category":13,"distinct_rating":2.65,"distinct_type":"Bottom","rt":null,"stimulus":"Stimuli_Rocks480/M_Gneiss_06.png","response":null,"trial_type":"image-keyboard-response","trial_index":130,"plugin_version":"2.1.0","time_elapsed":264453,"subject_id":"91173","group":"Group1","condition":"3_Rep","full_date":"2026-02-18T01:58:16.915Z","date":"2026-02-18","time":"01:58:16"},{"rt":null,"stimulus":"<p style=\"font-size: 50px; margin: 0; text-align: center;\">+</p>","response":null,"trial_type":"html-keyboard-response","trial_index":131,"plugin_version":"2.1.0","time_elapsed":265471,"subject_id":"91173","group":"Group1","condition":"3_Rep","full_date":"2026-02-18T01:58:16.915Z","date":"2026-02-18","time":"01:58:16"},{"task":"memory_phase","broad_category":"S","image_png":"S_Rock Salt_01.png","image_id":433,"category_name":"Rock Salt","category":28,"distinct_rating":7.18,"distinct_type":"Top","rt":null,"stimulus":"Stimuli_Rocks480/S_Rock Salt_01.png","response":null,"trial_type":"image-keyboard-response","trial_index":132,"plugin_version":"2.1.0","time_elapsed":267990,"subject_id":"91173","group":"Group1","condition":"3_Rep","full_date":"2026-02-18T01:58:16.915Z","date":"2026-02-18","time":"01:58:16"},{"rt":null,"stimulus":"<p style=\"font-size: 50px; margin: 0; text-align: center;\">+</p>","response":null,"trial_type":"html-keyboard-response","trial_index":133,"plugin_version":"2.1.0","time_elapsed":269005,"subject_id":"91173","group":"Group1","condition":"3_Rep","full_date":"2026-02-18T01:58:16.915Z","date":"2026-02-18","time":"01:58:16"},{"task":"memory_phase","broad_category":"I","image_png":"I_Pumice_12.png","image_id":140,"category_name":"Pumice","category":9,"distinct_rating":2.97,"distinct_type":"Bottom","rt":null,"stimulus":"Stimuli_Rocks480/I_Pumice_12.png","response":null,"trial_type":"image-keyboard-response","trial_index":134,"plugin_version":"2.1.0","time_elapsed":271525,"subject_id":"91173","group":"Group1","condition":"3_Rep","full_date":"2026-02-18T01:58:16.915Z","date":"2026-02-18","time":"01:58:16"},{"rt":null,"stimulus":"<p style=\"font-size: 50px; margin: 0; text-align: center;\">+</p>","response":null,"trial_type":"html-keyboard-response","trial_index":135,"plugin_version":"2.1.0","time_elapsed":272541,"subject_id":"91173","group":"Group1","condition":"3_Rep","full_date":"2026-02-18T01:58:16.915Z","date":"2026-02-18","time":"01:58:16"},{"task":"memory_phase","broad_category":"I","image_png":"I_Diorite_03.png","image_id":35,"category_name":"Diorite","category":3,"distinct_rating":3.14,"distinct_type":"Bottom","rt":null,"stimulus":"Stimuli_Rocks480/I_Diorite_03.png","response":null,"trial_type":"image-keyboard-response","trial_index":136,"plugin_version":"2.1.0","time_elapsed":275045,"subject_id":"91173","group":"Group1","condition":"3_Rep","full_date":"2026-02-18T01:58:16.915Z","date":"2026-02-18","time":"01:58:16"},{"rt":null,"stimulus":"<p style=\"font-size: 50px; margin: 0; text-align: center;\">+</p>","response":null,"trial_type":"html-keyboard-response","trial_index":137,"plugin_version":"2.1.0","time_elapsed":276056,"subject_id":"91173","group":"Group1","condition":"3_Rep","full_date":"2026-02-18T01:58:16.915Z","date":"2026-02-18","time":"01:58:16"},{"task":"memory_phase","broad_category":"I","image_png":"I_Diorite_04.png","image_id":36,"category_name":"Diorite","category":3,"distinct_rating":2.98,"distinct_type":"Bottom","rt":null,"stimulus":"Stimuli_Rocks480/I_Diorite_04.png","response":null,"trial_type":"image-keyboard-response","trial_index":138,"plugin_version":"2.1.0","time_elapsed":278571,"subject_id":"91173","group":"Group1","condition":"3_Rep","full_date":"2026-02-18T01:58:16.915Z","date":"2026-02-18","time":"01:58:16"},{"rt":null,"stimulus":"<p style=\"font-size: 50px; margin: 0; text-align: center;\">+</p>","response":null,"trial_type":"html-keyboard-response","trial_index":139,"plugin_version":"2.1.0","time_elapsed":279588,"subject_id":"91173","group":"Group1","condition":"3_Rep","full_date":"2026-02-18T01:58:16.915Z","date":"2026-02-18","time":"01:58:16"},{"task":"memory_phase","broad_category":"I","image_png":"I_Basalt_02.png","image_id":18,"category_name":"Basalt","category":2,"distinct_rating":1.84,"distinct_type":"Bottom","rt":null,"stimulus":"Stimuli_Rocks480/I_Basalt_02.png","response":null,"trial_type":"image-keyboard-response","trial_index":140,"plugin_version":"2.1.0","time_elapsed":282105,"subject_id":"91173","group":"Group1","condition":"3_Rep","full_date":"2026-02-18T01:58:16.915Z","date":"2026-02-18","time":"01:58:16"},{"rt":null,"stimulus":"<p style=\"font-size: 50px; margin: 0; text-align: center;\">+</p>","response":null,"trial_type":"html-keyboard-response","trial_index":141,"plugin_version":"2.1.0","time_elapsed":283109,"subject_id":"91173","group":"Group1","condition":"3_Rep","full_date":"2026-02-18T01:58:16.915Z","date":"2026-02-18","time":"01:58:16"},{"task":"memory_phase","broad_category":"M","image_png":"M_Phyllite_10.png","image_id":266,"category_name":"Phyllite","category":17,"distinct_rating":2.6,"distinct_type":"Bottom","rt":null,"stimulus":"Stimuli_Rocks480/M_Phyllite_10.png","response":null,"trial_type":"image-keyboard-response","trial_index":142,"plugin_version":"2.1.0","time_elapsed":285623,"subject_id":"91173","group":"Group1","condition":"3_Rep","full_date":"2026-02-18T01:58:16.915Z","date":"2026-02-18","time":"01:58:16"},{"rt":null,"stimulus":"<p style=\"font-size: 50px; margin: 0; text-align: center;\">+</p>","response":null,"trial_type":"html-keyboard-response","trial_index":143,"plugin_version":"2.1.0","time_elapsed":286640,"subject_id":"91173","group":"Group1","condition":"3_Rep","full_date":"2026-02-18T01:58:16.915Z","date":"2026-02-18","time":"01:58:16"},{"task":"memory_phase","broad_category":"I","image_png":"I_Pumice_11.png","image_id":139,"category_name":"Pumice","category":9,"distinct_rating":1.74,"distinct_type":"Bottom","rt":null,"stimulus":"Stimuli_Rocks480/I_Pumice_11.png","response":null,"trial_type":"image-keyboard-response","trial_index":144,"plugin_version":"2.1.0","time_elapsed":289157,"subject_id":"91173","group":"Group1","condition":"3_Rep","full_date":"2026-02-18T01:58:16.915Z","date":"2026-02-18","time":"01:58:16"},{"rt":null,"stimulus":"<p style=\"font-size: 50px; margin: 0; text-align: center;\">+</p>","response":null,"trial_type":"html-keyboard-response","trial_index":145,"plugin_version":"2.1.0","time_elapsed":290160,"subject_id":"91173","group":"Group1","condition":"3_Rep","full_date":"2026-02-18T01:58:16.915Z","date":"2026-02-18","time":"01:58:16"},{"task":"memory_phase","broad_category":"I","image_png":"I_Rhyolite_16.png","image_id":160,"category_name":"Rhyolite","category":10,"distinct_rating":2.19,"distinct_type":"Bottom","rt":null,"stimulus":"Stimuli_Rocks480/I_Rhyolite_16.png","response":null,"trial_type":"image-keyboard-response","trial_index":146,"plugin_version":"2.1.0","time_elapsed":292675,"subject_id":"91173","group":"Group1","condition":"3_Rep","full_date":"2026-02-18T01:58:16.915Z","date":"2026-02-18","time":"01:58:16"},{"rt":null,"stimulus":"<p style=\"font-size: 50px; margin: 0; text-align: center;\">+</p>","response":null,"trial_type":"html-keyboard-response","trial_index":147,"plugin_version":"2.1.0","time_elapsed":293688,"subject_id":"91173","group":"Group1","condition":"3_Rep","full_date":"2026-02-18T01:58:16.915Z","date":"2026-02-18","time":"01:58:16"},{"task":"memory_phase","broad_category":"M","image_png":"M_Phyllite_07.png","image_id":263,"category_name":"Phyllite","category":17,"distinct_rating":2.59,"distinct_type":"Bottom","rt":null,"stimulus":"Stimuli_Rocks480/M_Phyllite_07.png","response":null,"trial_type":"image-keyboard-response","trial_index":148,"plugin_version":"2.1.0","time_elapsed":296205,"subject_id":"91173","group":"Group1","condition":"3_Rep","full_date":"2026-02-18T01:58:16.915Z","date":"2026-02-18","time":"01:58:16"},{"rt":null,"stimulus":"<p style=\"font-size: 50px; margin: 0; text-align: center;\">+</p>","response":null,"trial_type":"html-keyboard-response","trial_index":149,"plugin_version":"2.1.0","time_elapsed":297222,"subject_id":"91173","group":"Group1","condition":"3_Rep","full_date":"2026-02-18T01:58:16.915Z","date":"2026-02-18","time":"01:58:16"},{"task":"memory_phase","broad_category":"S","image_png":"S_Dolomite_12.png","image_id":396,"category_name":"Dolomite","category":25,"distinct_rating":1.85,"distinct_type":"Bottom","rt":null,"stimulus":"Stimuli_Rocks480/S_Dolomite_12.png","response":null,"trial_type":"image-keyboard-response","trial_index":150,"plugin_version":"2.1.0","time_elapsed":299737,"subject_id":"91173","group":"Group1","condition":"3_Rep","full_date":"2026-02-18T01:58:16.915Z","date":"2026-02-18","time":"01:58:16"},{"rt":null,"stimulus":"<p style=\"font-size: 50px; margin: 0; text-align: center;\">+</p>","response":null,"trial_type":"html-keyboard-response","trial_index":151,"plugin_version":"2.1.0","time_elapsed":300754,"subject_id":"91173","group":"Group1","condition":"3_Rep","full_date":"2026-02-18T01:58:16.915Z","date":"2026-02-18","time":"01:58:16"},{"task":"memory_phase","broad_category":"I","image_png":"I_Pegmatite_16.png","image_id":112,"category_name":"Pegmatite","category":7,"distinct_rating":7.03,"distinct_type":"Top","rt":null,"stimulus":"Stimuli_Rocks480/I_Pegmatite_16.png","response":null,"trial_type":"image-keyboard-response","trial_index":152,"plugin_version":"2.1.0","time_elapsed":303272,"subject_id":"91173","group":"Group1","condition":"3_Rep","full_date":"2026-02-18T01:58:16.915Z","date":"2026-02-18","time":"01:58:16"},{"rt":null,"stimulus":"<p style=\"font-size: 50px; margin: 0; text-align: center;\">+</p>","response":null,"trial_type":"html-keyboard-response","trial_index":153,"plugin_version":"2.1.0","time_elapsed":304291,"subject_id":"91173","group":"Group1","condition":"3_Rep","full_date":"2026-02-18T01:58:16.915Z","date":"2026-02-18","time":"01:58:16"},{"task":"memory_phase","broad_category":"I","image_png":"I_Pumice_08.png","image_id":136,"category_name":"Pumice","category":9,"distinct_rating":3.1,"distinct_type":"Bottom","rt":null,"stimulus":"Stimuli_Rocks480/I_Pumice_08.png","response":null,"trial_type":"image-keyboard-response","trial_index":154,"plugin_version":"2.1.0","time_elapsed":306806,"subject_id":"91173","group":"Group1","condition":"3_Rep","full_date":"2026-02-18T01:58:16.915Z","date":"2026-02-18","time":"01:58:16"},{"rt":null,"stimulus":"<p style=\"font-size: 50px; margin: 0; text-align: center;\">+</p>","response":null,"trial_type":"html-keyboard-response","trial_index":155,"plugin_version":"2.1.0","time_elapsed":307820,"subject_id":"91173","group":"Group1","condition":"3_Rep","full_date":"2026-02-18T01:58:16.915Z","date":"2026-02-18","time":"01:58:16"},{"task":"memory_phase","broad_category":"M","image_png":"M_Slate_11.png","image_id":315,"category_name":"Slate","category":20,"distinct_rating":2.75,"distinct_type":"Bottom","rt":null,"stimulus":"Stimuli_Rocks480/M_Slate_11.png","response":null,"trial_type":"image-keyboard-response","trial_index":156,"plugin_version":"2.1.0","time_elapsed":310329,"subject_id":"91173","group":"Group1","condition":"3_Rep","full_date":"2026-02-18T01:58:16.915Z","date":"2026-02-18","time":"01:58:16"},{"rt":1319,"stimulus":"<p style=\"max-width: 760px; margin: auto; font-size: 35px; line-height: 1.5;\">\n                Press SPACE to continue study phase\n              </p>","response":" ","trial_type":"html-keyboard-response","trial_index":157,"plugin_version":"2.1.0","time_elapsed":311650,"subject_id":"91173","group":"Group1","condition":"3_Rep","full_date":"2026-02-18T01:58:16.915Z","date":"2026-02-18","time":"01:58:16"},{"rt":null,"stimulus":"<p style=\"font-size: 50px; margin: 0; text-align: center;\">+</p>","response":null,"trial_type":"html-keyboard-response","trial_index":158,"plugin_version":"2.1.0","time_elapsed":312655,"subject_id":"91173","group":"Group1","condition":"3_Rep","full_date":"2026-02-18T01:58:16.915Z","date":"2026-02-18","time":"01:58:16"},{"task":"memory_phase","broad_category":"S","image_png":"S_Sandstone_03.png","image_id":451,"category_name":"Sandstone","category":29,"distinct_rating":1.86,"distinct_type":"Bottom","rt":null,"stimulus":"Stimuli_Rocks480/S_Sandstone_03.png","response":null,"trial_type":"image-keyboard-response","trial_index":159,"plugin_version":"2.1.0","time_elapsed":315161,"subject_id":"91173","group":"Group1","condition":"3_Rep","full_date":"2026-02-18T01:58:16.915Z","date":"2026-02-18","time":"01:58:16"},{"rt":null,"stimulus":"<p style=\"font-size: 50px; margin: 0; text-align: center;\">+</p>","response":null,"trial_type":"html-keyboard-response","trial_index":160,"plugin_version":"2.1.0","time_elapsed":316170,"subject_id":"91173","group":"Group1","condition":"3_Rep","full_date":"2026-02-18T01:58:16.915Z","date":"2026-02-18","time":"01:58:16"},{"task":"memory_phase","broad_category":"M","image_png":"M_Marble_06.png","image_id":230,"category_name":"Marble","category":15,"distinct_rating":3.4,"distinct_type":"Bottom","rt":null,"stimulus":"Stimuli_Rocks480/M_Marble_06.png","response":null,"trial_type":"image-keyboard-response","trial_index":161,"plugin_version":"2.1.0","time_elapsed":318676,"subject_id":"91173","group":"Group1","condition":"3_Rep","full_date":"2026-02-18T01:58:16.915Z","date":"2026-02-18","time":"01:58:16"},{"rt":null,"stimulus":"<p style=\"font-size: 50px; margin: 0; text-align: center;\">+</p>","response":null,"trial_type":"html-keyboard-response","trial_index":162,"plugin_version":"2.1.0","time_elapsed":319691,"subject_id":"91173","group":"Group1","condition":"3_Rep","full_date":"2026-02-18T01:58:16.915Z","date":"2026-02-18","time":"01:58:16"},{"task":"memory_phase","broad_category":"I","image_png":"I_Diorite_05.png","image_id":37,"category_name":"Diorite","category":3,"distinct_rating":3.08,"distinct_type":"Bottom","rt":null,"stimulus":"Stimuli_Rocks480/I_Diorite_05.png","response":null,"trial_type":"image-keyboard-response","trial_index":163,"plugin_version":"2.1.0","time_elapsed":322208,"subject_id":"91173","group":"Group1","condition":"3_Rep","full_date":"2026-02-18T01:58:16.915Z","date":"2026-02-18","time":"01:58:16"},{"rt":null,"stimulus":"<p style=\"font-size: 50px; margin: 0; text-align: center;\">+</p>","response":null,"trial_type":"html-keyboard-response","trial_index":164,"plugin_version":"2.1.0","time_elapsed":323214,"subject_id":"91173","group":"Group1","condition":"3_Rep","full_date":"2026-02-18T01:58:16.915Z","date":"2026-02-18","time":"01:58:16"},{"task":"memory_phase","broad_category":"M","image_png":"M_Quartzite_05.png","image_id":277,"category_name":"Quartzite","category":18,"distinct_rating":2.23,"distinct_type":"Bottom","rt":null,"stimulus":"Stimuli_Rocks480/M_Quartzite_05.png","response":null,"trial_type":"image-keyboard-response","trial_index":165,"plugin_version":"2.1.0","time_elapsed":325724,"subject_id":"91173","group":"Group1","condition":"3_Rep","full_date":"2026-02-18T01:58:16.915Z","date":"2026-02-18","time":"01:58:16"},{"rt":null,"stimulus":"<p style=\"font-size: 50px; margin: 0; text-align: center;\">+</p>","response":null,"trial_type":"html-keyboard-response","trial_index":166,"plugin_version":"2.1.0","time_elapsed":326743,"subject_id":"91173","group":"Group1","condition":"3_Rep","full_date":"2026-02-18T01:58:16.915Z","date":"2026-02-18","time":"01:58:16"},{"task":"memory_phase","broad_category":"I","image_png":"I_Andesite_10.png","image_id":10,"category_name":"Andesite","category":1,"distinct_rating":3.15,"distinct_type":"Bottom","rt":null,"stimulus":"Stimuli_Rocks480/I_Andesite_10.png","response":null,"trial_type":"image-keyboard-response","trial_index":167,"plugin_version":"2.1.0","time_elapsed":329251,"subject_id":"91173","group":"Group1","condition":"3_Rep","full_date":"2026-02-18T01:58:16.915Z","date":"2026-02-18","time":"01:58:16"},{"rt":null,"stimulus":"<p style=\"font-size: 50px; margin: 0; text-align: center;\">+</p>","response":null,"trial_type":"html-keyboard-response","trial_index":168,"plugin_version":"2.1.0","time_elapsed":330257,"subject_id":"91173","group":"Group1","condition":"3_Rep","full_date":"2026-02-18T01:58:16.915Z","date":"2026-02-18","time":"01:58:16"},{"task":"memory_phase","broad_category":"M","image_png":"M_Marble_04.png","image_id":228,"category_name":"Marble","category":15,"distinct_rating":3.15,"distinct_type":"Bottom","rt":null,"stimulus":"Stimuli_Rocks480/M_Marble_04.png","response":null,"trial_type":"image-keyboard-response","trial_index":169,"plugin_version":"2.1.0","time_elapsed":332773,"subject_id":"91173","group":"Group1","condition":"3_Rep","full_date":"2026-02-18T01:58:16.915Z","date":"2026-02-18","time":"01:58:16"},{"rt":null,"stimulus":"<p style=\"font-size: 50px; margin: 0; text-align: center;\">+</p>","response":null,"trial_type":"html-keyboard-response","trial_index":170,"plugin_version":"2.1.0","time_elapsed":333787,"subject_id":"91173","group":"Group1","condition":"3_Rep","full_date":"2026-02-18T01:58:16.915Z","date":"2026-02-18","time":"01:58:16"},{"task":"memory_phase","broad_category":"S","image_png":"S_Dolomite_13.png","image_id":397,"category_name":"Dolomite","category":25,"distinct_rating":1.77,"distinct_type":"Bottom","rt":null,"stimulus":"Stimuli_Rocks480/S_Dolomite_13.png","response":null,"trial_type":"image-keyboard-response","trial_index":171,"plugin_version":"2.1.0","time_elapsed":336305,"subject_id":"91173","group":"Group1","condition":"3_Rep","full_date":"2026-02-18T01:58:16.915Z","date":"2026-02-18","time":"01:58:16"},{"rt":null,"stimulus":"<p style=\"font-size: 50px; margin: 0; text-align: center;\">+</p>","response":null,"trial_type":"html-keyboard-response","trial_index":172,"plugin_version":"2.1.0","time_elapsed":337321,"subject_id":"91173","group":"Group1","condition":"3_Rep","full_date":"2026-02-18T01:58:16.915Z","date":"2026-02-18","time":"01:58:16"},{"task":"memory_phase","broad_category":"S","image_png":"S_Sandstone_16.png","image_id":464,"category_name":"Sandstone","category":29,"distinct_rating":1.93,"distinct_type":"Bottom","rt":null,"stimulus":"Stimuli_Rocks480/S_Sandstone_16.png","response":null,"trial_type":"image-keyboard-response","trial_index":173,"plugin_version":"2.1.0","time_elapsed":339826,"subject_id":"91173","group":"Group1","condition":"3_Rep","full_date":"2026-02-18T01:58:16.915Z","date":"2026-02-18","time":"01:58:16"},{"rt":null,"stimulus":"<p style=\"font-size: 50px; margin: 0; text-align: center;\">+</p>","response":null,"trial_type":"html-keyboard-response","trial_index":174,"plugin_version":"2.1.0","time_elapsed":340838,"subject_id":"91173","group":"Group1","condition":"3_Rep","full_date":"2026-02-18T01:58:16.915Z","date":"2026-02-18","time":"01:58:16"},{"task":"memory_phase","broad_category":"S","image_png":"S_Sandstone_15.png","image_id":463,"category_name":"Sandstone","category":29,"distinct_rating":2,"distinct_type":"Bottom","rt":null,"stimulus":"Stimuli_Rocks480/S_Sandstone_15.png","response":null,"trial_type":"image-keyboard-response","trial_index":175,"plugin_version":"2.1.0","time_elapsed":343354,"subject_id":"91173","group":"Group1","condition":"3_Rep","full_date":"2026-02-18T01:58:16.915Z","date":"2026-02-18","time":"01:58:16"},{"rt":null,"stimulus":"<p style=\"font-size: 50px; margin: 0; text-align: center;\">+</p>","response":null,"trial_type":"html-keyboard-response","trial_index":176,"plugin_version":"2.1.0","time_elapsed":344371,"subject_id":"91173","group":"Group1","condition":"3_Rep","full_date":"2026-02-18T01:58:16.915Z","date":"2026-02-18","time":"01:58:16"},{"task":"memory_phase","broad_category":"M","image_png":"M_Quartzite_08.png","image_id":280,"category_name":"Quartzite","category":18,"distinct_rating":2.15,"distinct_type":"Bottom","rt":null,"stimulus":"Stimuli_Rocks480/M_Quartzite_08.png","response":null,"trial_type":"image-keyboard-response","trial_index":177,"plugin_version":"2.1.0","time_elapsed":346881,"subject_id":"91173","group":"Group1","condition":"3_Rep","full_date":"2026-02-18T01:58:16.915Z","date":"2026-02-18","time":"01:58:16"},{"rt":null,"stimulus":"<p style=\"font-size: 50px; margin: 0; text-align: center;\">+</p>","response":null,"trial_type":"html-keyboard-response","trial_index":178,"plugin_version":"2.1.0","time_elapsed":347894,"subject_id":"91173","group":"Group1","condition":"3_Rep","full_date":"2026-02-18T01:58:16.915Z","date":"2026-02-18","time":"01:58:16"},{"task":"memory_phase","broad_category":"S","image_png":"S_Dolomite_14.png","image_id":398,"category_name":"Dolomite","category":25,"distinct_rating":1.43,"distinct_type":"Bottom","rt":null,"stimulus":"Stimuli_Rocks480/S_Dolomite_14.png","response":null,"trial_type":"image-keyboard-response","trial_index":179,"plugin_version":"2.1.0","time_elapsed":350410,"subject_id":"91173","group":"Group1","condition":"3_Rep","full_date":"2026-02-18T01:58:16.915Z","date":"2026-02-18","time":"01:58:16"},{"rt":null,"stimulus":"<p style=\"font-size: 50px; margin: 0; text-align: center;\">+</p>","response":null,"trial_type":"html-keyboard-response","trial_index":180,"plugin_version":"2.1.0","time_elapsed":351418,"subject_id":"91173","group":"Group1","condition":"3_Rep","full_date":"2026-02-18T01:58:16.915Z","date":"2026-02-18","time":"01:58:16"},{"task":"memory_phase","broad_category":"M","image_png":"M_Phyllite_03.png","image_id":259,"category_name":"Phyllite","category":17,"distinct_rating":2.5,"distinct_type":"Bottom","rt":null,"stimulus":"Stimuli_Rocks480/M_Phyllite_03.png","response":null,"trial_type":"image-keyboard-response","trial_index":181,"plugin_version":"2.1.0","time_elapsed":353931,"subject_id":"91173","group":"Group1","condition":"3_Rep","full_date":"2026-02-18T01:58:16.915Z","date":"2026-02-18","time":"01:58:16"},{"rt":null,"stimulus":"<p style=\"font-size: 50px; margin: 0; text-align: center;\">+</p>","response":null,"trial_type":"html-keyboard-response","trial_index":182,"plugin_version":"2.1.0","time_elapsed":354941,"subject_id":"91173","group":"Group1","condition":"3_Rep","full_date":"2026-02-18T01:58:16.915Z","date":"2026-02-18","time":"01:58:16"},{"task":"memory_phase","broad_category":"I","image_png":"I_Pegmatite_10.png","image_id":106,"category_name":"Pegmatite","category":7,"distinct_rating":7.66,"distinct_type":"Top","rt":null,"stimulus":"Stimuli_Rocks480/I_Pegmatite_10.png","response":null,"trial_type":"image-keyboard-response","trial_index":183,"plugin_version":"2.1.0","time_elapsed":357456,"subject_id":"91173","group":"Group1","condition":"3_Rep","full_date":"2026-02-18T01:58:16.915Z","date":"2026-02-18","time":"01:58:16"},{"rt":null,"stimulus":"<p style=\"font-size: 50px; margin: 0; text-align: center;\">+</p>","response":null,"trial_type":"html-keyboard-response","trial_index":184,"plugin_version":"2.1.0","time_elapsed":358475,"subject_id":"91173","group":"Group1","condition":"3_Rep","full_date":"2026-02-18T01:58:16.915Z","date":"2026-02-18","time":"01:58:16"},{"task":"memory_phase","broad_category":"S","image_png":"S_Breccia_11.png","image_id":347,"category_name":"Breccia","category":22,"distinct_rating":6.7,"distinct_type":"Top","rt":null,"stimulus":"Stimuli_Rocks480/S_Breccia_11.png","response":null,"trial_type":"image-keyboard-response","trial_index":185,"plugin_version":"2.1.0","time_elapsed":360995,"subject_id":"91173","group":"Group1","condition":"3_Rep","full_date":"2026-02-18T01:58:16.915Z","date":"2026-02-18","time":"01:58:16"},{"rt":null,"stimulus":"<p style=\"font-size: 50px; margin: 0; text-align: center;\">+</p>","response":null,"trial_type":"html-keyboard-response","trial_index":186,"plugin_version":"2.1.0","time_elapsed":362009,"subject_id":"91173","group":"Group1","condition":"3_Rep","full_date":"2026-02-18T01:58:16.915Z","date":"2026-02-18","time":"01:58:16"},{"task":"memory_phase","broad_category":"M","image_png":"M_Quartzite_13.png","image_id":285,"category_name":"Quartzite","category":18,"distinct_rating":2.27,"distinct_type":"Bottom","rt":null,"stimulus":"Stimuli_Rocks480/M_Quartzite_13.png","response":null,"trial_type":"image-keyboard-response","trial_index":187,"plugin_version":"2.1.0","time_elapsed":364530,"subject_id":"91173","group":"Group1","condition":"3_Rep","full_date":"2026-02-18T01:58:16.915Z","date":"2026-02-18","time":"01:58:16"},{"rt":null,"stimulus":"<p style=\"font-size: 50px; margin: 0; text-align: center;\">+</p>","response":null,"trial_type":"html-keyboard-response","trial_index":188,"plugin_version":"2.1.0","time_elapsed":365539,"subject_id":"91173","group":"Group1","condition":"3_Rep","full_date":"2026-02-18T01:58:16.915Z","date":"2026-02-18","time":"01:58:16"},{"task":"memory_phase","broad_category":"I","image_png":"I_Rhyolite_11.png","image_id":155,"category_name":"Rhyolite","category":10,"distinct_rating":1.73,"distinct_type":"Bottom","rt":null,"stimulus":"Stimuli_Rocks480/I_Rhyolite_11.png","response":null,"trial_type":"image-keyboard-response","trial_index":189,"plugin_version":"2.1.0","time_elapsed":368052,"subject_id":"91173","group":"Group1","condition":"3_Rep","full_date":"2026-02-18T01:58:16.915Z","date":"2026-02-18","time":"01:58:16"},{"rt":null,"stimulus":"<p style=\"font-size: 50px; margin: 0; text-align: center;\">+</p>","response":null,"trial_type":"html-keyboard-response","trial_index":190,"plugin_version":"2.1.0","time_elapsed":369054,"subject_id":"91173","group":"Group1","condition":"3_Rep","full_date":"2026-02-18T01:58:16.915Z","date":"2026-02-18","time":"01:58:16"},{"task":"memory_phase","broad_category":"I","image_png":"I_Obsidian_05.png","image_id":85,"category_name":"Obsidian","category":6,"distinct_rating":7.32,"distinct_type":"Top","rt":null,"stimulus":"Stimuli_Rocks480/I_Obsidian_05.png","response":null,"trial_type":"image-keyboard-response","trial_index":191,"plugin_version":"2.1.0","time_elapsed":371573,"subject_id":"91173","group":"Group1","condition":"3_Rep","full_date":"2026-02-18T01:58:16.915Z","date":"2026-02-18","time":"01:58:16"},{"rt":null,"stimulus":"<p style=\"font-size: 50px; margin: 0; text-align: center;\">+</p>","response":null,"trial_type":"html-keyboard-response","trial_index":192,"plugin_version":"2.1.0","time_elapsed":372583,"subject_id":"91173","group":"Group1","condition":"3_Rep","full_date":"2026-02-18T01:58:16.915Z","date":"2026-02-18","time":"01:58:16"},{"task":"memory_phase","broad_category":"I","image_png":"I_Gabbro_16.png","image_id":64,"category_name":"Gabbro","category":4,"distinct_rating":2.52,"distinct_type":"Bottom","rt":null,"stimulus":"Stimuli_Rocks480/I_Gabbro_16.png","response":null,"trial_type":"image-keyboard-response","trial_index":193,"plugin_version":"2.1.0","time_elapsed":375096,"subject_id":"91173","group":"Group1","condition":"3_Rep","full_date":"2026-02-18T01:58:16.915Z","date":"2026-02-18","time":"01:58:16"},{"rt":null,"stimulus":"<p style=\"font-size: 50px; margin: 0; text-align: center;\">+</p>","response":null,"trial_type":"html-keyboard-response","trial_index":194,"plugin_version":"2.1.0","time_elapsed":376108,"subject_id":"91173","group":"Group1","condition":"3_Rep","full_date":"2026-02-18T01:58:16.915Z","date":"2026-02-18","time":"01:58:16"},{"task":"memory_phase","broad_category":"M","image_png":"M_Gneiss_05.png","image_id":197,"category_name":"Gneiss","category":13,"distinct_rating":2.97,"distinct_type":"Bottom","rt":null,"stimulus":"Stimuli_Rocks480/M_Gneiss_05.png","response":null,"trial_type":"image-keyboard-response","trial_index":195,"plugin_version":"2.1.0","time_elapsed":378618,"subject_id":"91173","group":"Group1","condition":"3_Rep","full_date":"2026-02-18T01:58:16.915Z","date":"2026-02-18","time":"01:58:16"},{"rt":null,"stimulus":"<p style=\"font-size: 50px; margin: 0; text-align: center;\">+</p>","response":null,"trial_type":"html-keyboard-response","trial_index":196,"plugin_version":"2.1.0","time_elapsed":379623,"subject_id":"91173","group":"Group1","condition":"3_Rep","full_date":"2026-02-18T01:58:16.915Z","date":"2026-02-18","time":"01:58:16"},{"task":"memory_phase","broad_category":"M","image_png":"M_Slate_15.png","image_id":319,"category_name":"Slate","category":20,"distinct_rating":2.13,"distinct_type":"Bottom","rt":null,"stimulus":"Stimuli_Rocks480/M_Slate_15.png","response":null,"trial_type":"image-keyboard-response","trial_index":197,"plugin_version":"2.1.0","time_elapsed":382129,"subject_id":"91173","group":"Group1","condition":"3_Rep","full_date":"2026-02-18T01:58:16.915Z","date":"2026-02-18","time":"01:58:16"},{"rt":null,"stimulus":"<p style=\"font-size: 50px; margin: 0; text-align: center;\">+</p>","response":null,"trial_type":"html-keyboard-response","trial_index":198,"plugin_version":"2.1.0","time_elapsed":383140,"subject_id":"91173","group":"Group1","condition":"3_Rep","full_date":"2026-02-18T01:58:16.915Z","date":"2026-02-18","time":"01:58:16"},{"task":"memory_phase","broad_category":"S","image_png":"S_Conglomerate_05.png","image_id":373,"category_name":"Conglomerate","category":24,"distinct_rating":7.32,"distinct_type":"Top","rt":null,"stimulus":"Stimuli_Rocks480/S_Conglomerate_05.png","response":null,"trial_type":"image-keyboard-response","trial_index":199,"plugin_version":"2.1.0","time_elapsed":385654,"subject_id":"91173","group":"Group1","condition":"3_Rep","full_date":"2026-02-18T01:58:16.915Z","date":"2026-02-18","time":"01:58:16"},{"rt":null,"stimulus":"<p style=\"font-size: 50px; margin: 0; text-align: center;\">+</p>","response":null,"trial_type":"html-keyboard-response","trial_index":200,"plugin_version":"2.1.0","time_elapsed":386670,"subject_id":"91173","group":"Group1","condition":"3_Rep","full_date":"2026-02-18T01:58:16.915Z","date":"2026-02-18","time":"01:58:16"},{"task":"memory_phase","broad_category":"M","image_png":"M_Gneiss_13.png","image_id":205,"category_name":"Gneiss","category":13,"distinct_rating":3.26,"distinct_type":"Bottom","rt":null,"stimulus":"Stimuli_Rocks480/M_Gneiss_13.png","response":null,"trial_type":"image-keyboard-response","trial_index":201,"plugin_version":"2.1.0","time_elapsed":389185,"subject_id":"91173","group":"Group1","condition":"3_Rep","full_date":"2026-02-18T01:58:16.915Z","date":"2026-02-18","time":"01:58:16"},{"rt":null,"stimulus":"<p style=\"font-size: 50px; margin: 0; text-align: center;\">+</p>","response":null,"trial_type":"html-keyboard-response","trial_index":202,"plugin_version":"2.1.0","time_elapsed":390198,"subject_id":"91173","group":"Group1","condition":"3_Rep","full_date":"2026-02-18T01:58:16.915Z","date":"2026-02-18","time":"01:58:16"},{"task":"memory_phase","broad_category":"S","image_png":"S_Rock Gypsum_04.png","image_id":420,"category_name":"Rock Gypsum","category":27,"distinct_rating":7.61,"distinct_type":"Top","rt":null,"stimulus":"Stimuli_Rocks480/S_Rock Gypsum_04.png","response":null,"trial_type":"image-keyboard-response","trial_index":203,"plugin_version":"2.1.0","time_elapsed":392705,"subject_id":"91173","group":"Group1","condition":"3_Rep","full_date":"2026-02-18T01:58:16.915Z","date":"2026-02-18","time":"01:58:16"},{"rt":null,"stimulus":"<p style=\"font-size: 50px; margin: 0; text-align: center;\">+</p>","response":null,"trial_type":"html-keyboard-response","trial_index":204,"plugin_version":"2.1.0","time_elapsed":393722,"subject_id":"91173","group":"Group1","condition":"3_Rep","full_date":"2026-02-18T01:58:16.915Z","date":"2026-02-18","time":"01:58:16"},{"task":"memory_phase","broad_category":"S","image_png":"S_Shale_08.png","image_id":472,"category_name":"Shale","category":30,"distinct_rating":2.55,"distinct_type":"Bottom","rt":null,"stimulus":"Stimuli_Rocks480/S_Shale_08.png","response":null,"trial_type":"image-keyboard-response","trial_index":205,"plugin_version":"2.1.0","time_elapsed":396236,"subject_id":"91173","group":"Group1","condition":"3_Rep","full_date":"2026-02-18T01:58:16.915Z","date":"2026-02-18","time":"01:58:16"},{"rt":null,"stimulus":"<p style=\"font-size: 50px; margin: 0; text-align: center;\">+</p>","response":null,"trial_type":"html-keyboard-response","trial_index":206,"plugin_version":"2.1.0","time_elapsed":397240,"subject_id":"91173","group":"Group1","condition":"3_Rep","full_date":"2026-02-18T01:58:16.915Z","date":"2026-02-18","time":"01:58:16"},{"task":"memory_phase","broad_category":"I","image_png":"I_Andesite_08.png","image_id":8,"category_name":"Andesite","category":1,"distinct_rating":1.95,"distinct_type":"Bottom","rt":null,"stimulus":"Stimuli_Rocks480/I_Andesite_08.png","response":null,"trial_type":"image-keyboard-response","trial_index":207,"plugin_version":"2.1.0","time_elapsed":399750,"subject_id":"91173","group":"Group1","condition":"3_Rep","full_date":"2026-02-18T01:58:16.915Z","date":"2026-02-18","time":"01:58:16"},{"rt":4669,"stimulus":"<p style=\"max-width: 760px; margin: auto; font-size: 35px; line-height: 1.5;\">\n                You have completed 2 study phases. \n                Now, we'll show you all the images again 1 more time.\n                <br><br>Press SPACE to continue\n              </p>","response":" ","trial_type":"html-keyboard-response","trial_index":208,"plugin_version":"2.1.0","time_elapsed":404420,"subject_id":"91173","group":"Group1","condition":"3_Rep","full_date":"2026-02-18T01:58:16.915Z","date":"2026-02-18","time":"01:58:16"},{"rt":null,"stimulus":"<p style=\"font-size: 50px; margin: 0; text-align: center;\">+</p>","response":null,"trial_type":"html-keyboard-response","trial_index":209,"plugin_version":"2.1.0","time_elapsed":405425,"subject_id":"91173","group":"Group1","condition":"3_Rep","full_date":"2026-02-18T01:58:16.915Z","date":"2026-02-18","time":"01:58:16"},{"task":"memory_phase","broad_category":"S","image_png":"S_Rock Salt_01.png","image_id":433,"category_name":"Rock Salt","category":28,"distinct_rating":7.18,"distinct_type":"Top","rt":null,"stimulus":"Stimuli_Rocks480/S_Rock Salt_01.png","response":null,"trial_type":"image-keyboard-response","trial_index":210,"plugin_version":"2.1.0","time_elapsed":407937,"subject_id":"91173","group":"Group1","condition":"3_Rep","full_date":"2026-02-18T01:58:16.915Z","date":"2026-02-18","time":"01:58:16"},{"rt":null,"stimulus":"<p style=\"font-size: 50px; margin: 0; text-align: center;\">+</p>","response":null,"trial_type":"html-keyboard-response","trial_index":211,"plugin_version":"2.1.0","time_elapsed":408949,"subject_id":"91173","group":"Group1","condition":"3_Rep","full_date":"2026-02-18T01:58:16.915Z","date":"2026-02-18","time":"01:58:16"},{"task":"memory_phase","broad_category":"M","image_png":"M_Slate_15.png","image_id":319,"category_name":"Slate","category":20,"distinct_rating":2.13,"distinct_type":"Bottom","rt":null,"stimulus":"Stimuli_Rocks480/M_Slate_15.png","response":null,"trial_type":"image-keyboard-response","trial_index":212,"plugin_version":"2.1.0","time_elapsed":411454,"subject_id":"91173","group":"Group1","condition":"3_Rep","full_date":"2026-02-18T01:58:16.915Z","date":"2026-02-18","time":"01:58:16"},{"rt":null,"stimulus":"<p style=\"font-size: 50px; margin: 0; text-align: center;\">+</p>","response":null,"trial_type":"html-keyboard-response","trial_index":213,"plugin_version":"2.1.0","time_elapsed":412470,"subject_id":"91173","group":"Group1","condition":"3_Rep","full_date":"2026-02-18T01:58:16.915Z","date":"2026-02-18","time":"01:58:16"},{"task":"memory_phase","broad_category":"S","image_png":"S_Shale_01.png","image_id":465,"category_name":"Shale","category":30,"distinct_rating":2.7,"distinct_type":"Bottom","rt":null,"stimulus":"Stimuli_Rocks480/S_Shale_01.png","response":null,"trial_type":"image-keyboard-response","trial_index":214,"plugin_version":"2.1.0","time_elapsed":414987,"subject_id":"91173","group":"Group1","condition":"3_Rep","full_date":"2026-02-18T01:58:16.915Z","date":"2026-02-18","time":"01:58:16"},{"rt":null,"stimulus":"<p style=\"font-size: 50px; margin: 0; text-align: center;\">+</p>","response":null,"trial_type":"html-keyboard-response","trial_index":215,"plugin_version":"2.1.0","time_elapsed":416005,"subject_id":"91173","group":"Group1","condition":"3_Rep","full_date":"2026-02-18T01:58:16.915Z","date":"2026-02-18","time":"01:58:16"},{"task":"memory_phase","broad_category":"M","image_png":"M_Marble_06.png","image_id":230,"category_name":"Marble","category":15,"distinct_rating":3.4,"distinct_type":"Bottom","rt":null,"stimulus":"Stimuli_Rocks480/M_Marble_06.png","response":null,"trial_type":"image-keyboard-response","trial_index":216,"plugin_version":"2.1.0","time_elapsed":418523,"subject_id":"91173","group":"Group1","condition":"3_Rep","full_date":"2026-02-18T01:58:16.915Z","date":"2026-02-18","time":"01:58:16"},{"rt":null,"stimulus":"<p style=\"font-size: 50px; margin: 0; text-align: center;\">+</p>","response":null,"trial_type":"html-keyboard-response","trial_index":217,"plugin_version":"2.1.0","time_elapsed":419551,"subject_id":"91173","group":"Group1","condition":"3_Rep","full_date":"2026-02-18T01:58:16.915Z","date":"2026-02-18","time":"01:58:16"},{"task":"memory_phase","broad_category":"S","image_png":"S_Sandstone_16.png","image_id":464,"category_name":"Sandstone","category":29,"distinct_rating":1.93,"distinct_type":"Bottom","rt":null,"stimulus":"Stimuli_Rocks480/S_Sandstone_16.png","response":null,"trial_type":"image-keyboard-response","trial_index":218,"plugin_version":"2.1.0","time_elapsed":422056,"subject_id":"91173","group":"Group1","condition":"3_Rep","full_date":"2026-02-18T01:58:16.915Z","date":"2026-02-18","time":"01:58:16"},{"rt":null,"stimulus":"<p style=\"font-size: 50px; margin: 0; text-align: center;\">+</p>","response":null,"trial_type":"html-keyboard-response","trial_index":219,"plugin_version":"2.1.0","time_elapsed":423068,"subject_id":"91173","group":"Group1","condition":"3_Rep","full_date":"2026-02-18T01:58:16.915Z","date":"2026-02-18","time":"01:58:16"},{"task":"memory_phase","broad_category":"I","image_png":"I_Obsidian_05.png","image_id":85,"category_name":"Obsidian","category":6,"distinct_rating":7.32,"distinct_type":"Top","rt":null,"stimulus":"Stimuli_Rocks480/I_Obsidian_05.png","response":null,"trial_type":"image-keyboard-response","trial_index":220,"plugin_version":"2.1.0","time_elapsed":425589,"subject_id":"91173","group":"Group1","condition":"3_Rep","full_date":"2026-02-18T01:58:16.915Z","date":"2026-02-18","time":"01:58:16"},{"rt":null,"stimulus":"<p style=\"font-size: 50px; margin: 0; text-align: center;\">+</p>","response":null,"trial_type":"html-keyboard-response","trial_index":221,"plugin_version":"2.1.0","time_elapsed":426605,"subject_id":"91173","group":"Group1","condition":"3_Rep","full_date":"2026-02-18T01:58:16.915Z","date":"2026-02-18","time":"01:58:16"},{"task":"memory_phase","broad_category":"I","image_png":"I_Andesite_08.png","image_id":8,"category_name":"Andesite","category":1,"distinct_rating":1.95,"distinct_type":"Bottom","rt":null,"stimulus":"Stimuli_Rocks480/I_Andesite_08.png","response":null,"trial_type":"image-keyboard-response","trial_index":222,"plugin_version":"2.1.0","time_elapsed":429115,"subject_id":"91173","group":"Group1","condition":"3_Rep","full_date":"2026-02-18T01:58:16.915Z","date":"2026-02-18","time":"01:58:16"},{"rt":null,"stimulus":"<p style=\"font-size: 50px; margin: 0; text-align: center;\">+</p>","response":null,"trial_type":"html-keyboard-response","trial_index":223,"plugin_version":"2.1.0","time_elapsed":430117,"subject_id":"91173","group":"Group1","condition":"3_Rep","full_date":"2026-02-18T01:58:16.915Z","date":"2026-02-18","time":"01:58:16"},{"task":"memory_phase","broad_category":"M","image_png":"M_Slate_11.png","image_id":315,"category_name":"Slate","category":20,"distinct_rating":2.75,"distinct_type":"Bottom","rt":null,"stimulus":"Stimuli_Rocks480/M_Slate_11.png","response":null,"trial_type":"image-keyboard-response","trial_index":224,"plugin_version":"2.1.0","time_elapsed":432621,"subject_id":"91173","group":"Group1","condition":"3_Rep","full_date":"2026-02-18T01:58:16.915Z","date":"2026-02-18","time":"01:58:16"},{"rt":null,"stimulus":"<p style=\"font-size: 50px; margin: 0; text-align: center;\">+</p>","response":null,"trial_type":"html-keyboard-response","trial_index":225,"plugin_version":"2.1.0","time_elapsed":433636,"subject_id":"91173","group":"Group1","condition":"3_Rep","full_date":"2026-02-18T01:58:16.915Z","date":"2026-02-18","time":"01:58:16"},{"task":"memory_phase","broad_category":"S","image_png":"S_Rock Gypsum_04.png","image_id":420,"category_name":"Rock Gypsum","category":27,"distinct_rating":7.61,"distinct_type":"Top","rt":null,"stimulus":"Stimuli_Rocks480/S_Rock Gypsum_04.png","response":null,"trial_type":"image-keyboard-response","trial_index":226,"plugin_version":"2.1.0","time_elapsed":436156,"subject_id":"91173","group":"Group1","condition":"3_Rep","full_date":"2026-02-18T01:58:16.915Z","date":"2026-02-18","time":"01:58:16"},{"rt":null,"stimulus":"<p style=\"font-size: 50px; margin: 0; text-align: center;\">+</p>","response":null,"trial_type":"html-keyboard-response","trial_index":227,"plugin_version":"2.1.0","time_elapsed":437172,"subject_id":"91173","group":"Group1","condition":"3_Rep","full_date":"2026-02-18T01:58:16.915Z","date":"2026-02-18","time":"01:58:16"},{"task":"memory_phase","broad_category":"I","image_png":"I_Pumice_12.png","image_id":140,"category_name":"Pumice","category":9,"distinct_rating":2.97,"distinct_type":"Bottom","rt":null,"stimulus":"Stimuli_Rocks480/I_Pumice_12.png","response":null,"trial_type":"image-keyboard-response","trial_index":228,"plugin_version":"2.1.0","time_elapsed":439691,"subject_id":"91173","group":"Group1","condition":"3_Rep","full_date":"2026-02-18T01:58:16.915Z","date":"2026-02-18","time":"01:58:16"},{"rt":null,"stimulus":"<p style=\"font-size: 50px; margin: 0; text-align: center;\">+</p>","response":null,"trial_type":"html-keyboard-response","trial_index":229,"plugin_version":"2.1.0","time_elapsed":440701,"subject_id":"91173","group":"Group1","condition":"3_Rep","full_date":"2026-02-18T01:58:16.915Z","date":"2026-02-18","time":"01:58:16"},{"task":"memory_phase","broad_category":"M","image_png":"M_Quartzite_13.png","image_id":285,"category_name":"Quartzite","category":18,"distinct_rating":2.27,"distinct_type":"Bottom","rt":null,"stimulus":"Stimuli_Rocks480/M_Quartzite_13.png","response":null,"trial_type":"image-keyboard-response","trial_index":230,"plugin_version":"2.1.0","time_elapsed":443205,"subject_id":"91173","group":"Group1","condition":"3_Rep","full_date":"2026-02-18T01:58:16.915Z","date":"2026-02-18","time":"01:58:16"},{"rt":null,"stimulus":"<p style=\"font-size: 50px; margin: 0; text-align: center;\">+</p>","response":null,"trial_type":"html-keyboard-response","trial_index":231,"plugin_version":"2.1.0","time_elapsed":444217,"subject_id":"91173","group":"Group1","condition":"3_Rep","full_date":"2026-02-18T01:58:16.915Z","date":"2026-02-18","time":"01:58:16"},{"task":"memory_phase","broad_category":"I","image_png":"I_Pegmatite_10.png","image_id":106,"category_name":"Pegmatite","category":7,"distinct_rating":7.66,"distinct_type":"Top","rt":null,"stimulus":"Stimuli_Rocks480/I_Pegmatite_10.png","response":null,"trial_type":"image-keyboard-response","trial_index":232,"plugin_version":"2.1.0","time_elapsed":446736,"subject_id":"91173","group":"Group1","condition":"3_Rep","full_date":"2026-02-18T01:58:16.915Z","date":"2026-02-18","time":"01:58:16"},{"rt":null,"stimulus":"<p style=\"font-size: 50px; margin: 0; text-align: center;\">+</p>","response":null,"trial_type":"html-keyboard-response","trial_index":233,"plugin_version":"2.1.0","time_elapsed":447738,"subject_id":"91173","group":"Group1","condition":"3_Rep","full_date":"2026-02-18T01:58:16.915Z","date":"2026-02-18","time":"01:58:16"},{"task":"memory_phase","broad_category":"M","image_png":"M_Marble_04.png","image_id":228,"category_name":"Marble","category":15,"distinct_rating":3.15,"distinct_type":"Bottom","rt":null,"stimulus":"Stimuli_Rocks480/M_Marble_04.png","response":null,"trial_type":"image-keyboard-response","trial_index":234,"plugin_version":"2.1.0","time_elapsed":450243,"subject_id":"91173","group":"Group1","condition":"3_Rep","full_date":"2026-02-18T01:58:16.915Z","date":"2026-02-18","time":"01:58:16"},{"rt":null,"stimulus":"<p style=\"font-size: 50px; margin: 0; text-align: center;\">+</p>","response":null,"trial_type":"html-keyboard-response","trial_index":235,"plugin_version":"2.1.0","time_elapsed":451260,"subject_id":"91173","group":"Group1","condition":"3_Rep","full_date":"2026-02-18T01:58:16.915Z","date":"2026-02-18","time":"01:58:16"},{"task":"memory_phase","broad_category":"I","image_png":"I_Diorite_03.png","image_id":35,"category_name":"Diorite","category":3,"distinct_rating":3.14,"distinct_type":"Bottom","rt":null,"stimulus":"Stimuli_Rocks480/I_Dior