[{"width":1470,"height":797,"webaudio":true,"browser":"chrome","browser_version":"143.0.0","mobile":false,"os":"Mac OS","fullscreen":true,"vsync_rate":60.36,"webcam":true,"microphone":true,"trial_type":"browser-check","trial_index":0,"plugin_version":"2.1.0","time_elapsed":1007,"subject_id":"92031","group":"Group2","condition":"1_Rep","full_date":"2026-02-03T20:34:12.002Z","date":"2026-02-03","time":"20:34:12"},{"success":true,"timeout":false,"failed_images":[],"failed_audio":[],"failed_video":[],"trial_type":"preload","trial_index":1,"plugin_version":"2.1.0","time_elapsed":13920,"subject_id":"92031","group":"Group2","condition":"1_Rep","full_date":"2026-02-03T20:34:12.002Z","date":"2026-02-03","time":"20:34:12"},{"rt":60458,"url":"SONA_consent_memorability.html","trial_type":"external-html","trial_index":2,"plugin_version":"2.1.0","time_elapsed":74436,"subject_id":"92031","group":"Group2","condition":"1_Rep","full_date":"2026-02-03T20:34:12.002Z","date":"2026-02-03","time":"20:34:12"},{"success":true,"rt":2547,"trial_type":"fullscreen","trial_index":3,"plugin_version":"2.1.0","time_elapsed":77987,"subject_id":"92031","group":"Group2","condition":"1_Rep","full_date":"2026-02-03T20:34:12.002Z","date":"2026-02-03","time":"20:34:12"},{"rt":40030,"stimulus":"<div style=\"max-width: 760px; margin: auto; font-size: 20px; line-height: 1.5;\">\n      <h1 style=\"text-align:center; font-size: 30px;\">Instructions</h1>\n      <p>\n        Welcome to the study on <b>visual memory</b>. This experiment consists of <b>two phases</b>: \n        a <b>study phase</b> and a <b>test phase</b>.\n      </p>\n      <p>\n        In the study phase, you will see a series of rock images along with their category labels.\n        The images will appear one at a time.\n        <b>Your task</b> is to learn the categories to which the rock images belong \n        and to remember each image as accurately as possible.\n      </p> \n      <p>\n        Note that you will see each image only <b>once</b> during the study phase. \n          So, please pay close attention and try to remember each image carefully.\n      </p>\n      <p>\n        After the study phase, <b>your memory will be tested</b>. \n        Additional instructions for the test phase will be provided at that time.\n      </p>\n      <p>\n        If your computer has multiple <b>language settings</b> (e.g., English and another language),\n        please make sure it is set to English before starting.\n      </p>\n      <p>\n        You can track your progress using the <b>completion bar</b> at the top of the screen. \n        Please note that the bar will refresh when the test phase begins \n        to give you an accurate sense of your progress in both phases.\n      </p> \n      <p>\n        Press the button below when you are ready to begin.\n      </p>\n    </div>","response":0,"trial_type":"html-button-response","trial_index":4,"plugin_version":"2.1.0","time_elapsed":118020,"subject_id":"92031","group":"Group2","condition":"1_Rep","full_date":"2026-02-03T20:34:12.002Z","date":"2026-02-03","time":"20:34:12"},{"rt":null,"stimulus":"<p style=\"font-size: 50px; margin: 0; text-align: center;\">+</p>","response":null,"trial_type":"html-keyboard-response","trial_index":5,"plugin_version":"2.1.0","time_elapsed":119024,"subject_id":"92031","group":"Group2","condition":"1_Rep","full_date":"2026-02-03T20:34:12.002Z","date":"2026-02-03","time":"20:34:12"},{"task":"memory_phase","broad_category":"M","image_png":"M_Quartzite_12.png","image_id":284,"category_name":"Quartzite","category":18,"distinct_rating":1.92,"distinct_type":"Bottom","rt":null,"stimulus":"Stimuli_Rocks480/M_Quartzite_12.png","response":null,"trial_type":"image-keyboard-response","trial_index":6,"plugin_version":"2.1.0","time_elapsed":121531,"subject_id":"92031","group":"Group2","condition":"1_Rep","full_date":"2026-02-03T20:34:12.002Z","date":"2026-02-03","time":"20:34:12"},{"rt":null,"stimulus":"<p style=\"font-size: 50px; margin: 0; text-align: center;\">+</p>","response":null,"trial_type":"html-keyboard-response","trial_index":7,"plugin_version":"2.1.0","time_elapsed":122533,"subject_id":"92031","group":"Group2","condition":"1_Rep","full_date":"2026-02-03T20:34:12.002Z","date":"2026-02-03","time":"20:34:12"},{"task":"memory_phase","broad_category":"I","image_png":"I_Rhyolite_08.png","image_id":152,"category_name":"Rhyolite","category":10,"distinct_rating":1.38,"distinct_type":"Bottom","rt":null,"stimulus":"Stimuli_Rocks480/I_Rhyolite_08.png","response":null,"trial_type":"image-keyboard-response","trial_index":8,"plugin_version":"2.1.0","time_elapsed":125038,"subject_id":"92031","group":"Group2","condition":"1_Rep","full_date":"2026-02-03T20:34:12.002Z","date":"2026-02-03","time":"20:34:12"},{"rt":null,"stimulus":"<p style=\"font-size: 50px; margin: 0; text-align: center;\">+</p>","response":null,"trial_type":"html-keyboard-response","trial_index":9,"plugin_version":"2.1.0","time_elapsed":126041,"subject_id":"92031","group":"Group2","condition":"1_Rep","full_date":"2026-02-03T20:34:12.002Z","date":"2026-02-03","time":"20:34:12"},{"task":"memory_phase","broad_category":"I","image_png":"I_Basalt_08.png","image_id":24,"category_name":"Basalt","category":2,"distinct_rating":2.31,"distinct_type":"Bottom","rt":null,"stimulus":"Stimuli_Rocks480/I_Basalt_08.png","response":null,"trial_type":"image-keyboard-response","trial_index":10,"plugin_version":"2.1.0","time_elapsed":128544,"subject_id":"92031","group":"Group2","condition":"1_Rep","full_date":"2026-02-03T20:34:12.002Z","date":"2026-02-03","time":"20:34:12"},{"rt":null,"stimulus":"<p style=\"font-size: 50px; margin: 0; text-align: center;\">+</p>","response":null,"trial_type":"html-keyboard-response","trial_index":11,"plugin_version":"2.1.0","time_elapsed":129547,"subject_id":"92031","group":"Group2","condition":"1_Rep","full_date":"2026-02-03T20:34:12.002Z","date":"2026-02-03","time":"20:34:12"},{"task":"memory_phase","broad_category":"S","image_png":"S_Sandstone_11.png","image_id":459,"category_name":"Sandstone","category":29,"distinct_rating":1.82,"distinct_type":"Bottom","rt":null,"stimulus":"Stimuli_Rocks480/S_Sandstone_11.png","response":null,"trial_type":"image-keyboard-response","trial_index":12,"plugin_version":"2.1.0","time_elapsed":132051,"subject_id":"92031","group":"Group2","condition":"1_Rep","full_date":"2026-02-03T20:34:12.002Z","date":"2026-02-03","time":"20:34:12"},{"rt":null,"stimulus":"<p style=\"font-size: 50px; margin: 0; text-align: center;\">+</p>","response":null,"trial_type":"html-keyboard-response","trial_index":13,"plugin_version":"2.1.0","time_elapsed":133053,"subject_id":"92031","group":"Group2","condition":"1_Rep","full_date":"2026-02-03T20:34:12.002Z","date":"2026-02-03","time":"20:34:12"},{"task":"memory_phase","broad_category":"I","image_png":"I_Peridotite_13.png","image_id":125,"category_name":"Peridotite","category":8,"distinct_rating":7.28,"distinct_type":"Top","rt":null,"stimulus":"Stimuli_Rocks480/I_Peridotite_13.png","response":null,"trial_type":"image-keyboard-response","trial_index":14,"plugin_version":"2.1.0","time_elapsed":135557,"subject_id":"92031","group":"Group2","condition":"1_Rep","full_date":"2026-02-03T20:34:12.002Z","date":"2026-02-03","time":"20:34:12"},{"rt":null,"stimulus":"<p style=\"font-size: 50px; margin: 0; text-align: center;\">+</p>","response":null,"trial_type":"html-keyboard-response","trial_index":15,"plugin_version":"2.1.0","time_elapsed":136559,"subject_id":"92031","group":"Group2","condition":"1_Rep","full_date":"2026-02-03T20:34:12.002Z","date":"2026-02-03","time":"20:34:12"},{"task":"memory_phase","broad_category":"M","image_png":"M_Marble_14.png","image_id":238,"category_name":"Marble","category":15,"distinct_rating":3.31,"distinct_type":"Bottom","rt":null,"stimulus":"Stimuli_Rocks480/M_Marble_14.png","response":null,"trial_type":"image-keyboard-response","trial_index":16,"plugin_version":"2.1.0","time_elapsed":139063,"subject_id":"92031","group":"Group2","condition":"1_Rep","full_date":"2026-02-03T20:34:12.002Z","date":"2026-02-03","time":"20:34:12"},{"rt":null,"stimulus":"<p style=\"font-size: 50px; margin: 0; text-align: center;\">+</p>","response":null,"trial_type":"html-keyboard-response","trial_index":17,"plugin_version":"2.1.0","time_elapsed":140065,"subject_id":"92031","group":"Group2","condition":"1_Rep","full_date":"2026-02-03T20:34:12.002Z","date":"2026-02-03","time":"20:34:12"},{"task":"memory_phase","broad_category":"I","image_png":"I_Pegmatite_11.png","image_id":107,"category_name":"Pegmatite","category":7,"distinct_rating":7.11,"distinct_type":"Top","rt":null,"stimulus":"Stimuli_Rocks480/I_Pegmatite_11.png","response":null,"trial_type":"image-keyboard-response","trial_index":18,"plugin_version":"2.1.0","time_elapsed":142569,"subject_id":"92031","group":"Group2","condition":"1_Rep","full_date":"2026-02-03T20:34:12.002Z","date":"2026-02-03","time":"20:34:12"},{"rt":null,"stimulus":"<p style=\"font-size: 50px; margin: 0; text-align: center;\">+</p>","response":null,"trial_type":"html-keyboard-response","trial_index":19,"plugin_version":"2.1.0","time_elapsed":143572,"subject_id":"92031","group":"Group2","condition":"1_Rep","full_date":"2026-02-03T20:34:12.002Z","date":"2026-02-03","time":"20:34:12"},{"task":"memory_phase","broad_category":"I","image_png":"I_Pegmatite_03.png","image_id":99,"category_name":"Pegmatite","category":7,"distinct_rating":7.24,"distinct_type":"Top","rt":null,"stimulus":"Stimuli_Rocks480/I_Pegmatite_03.png","response":null,"trial_type":"image-keyboard-response","trial_index":20,"plugin_version":"2.1.0","time_elapsed":146075,"subject_id":"92031","group":"Group2","condition":"1_Rep","full_date":"2026-02-03T20:34:12.002Z","date":"2026-02-03","time":"20:34:12"},{"rt":null,"stimulus":"<p style=\"font-size: 50px; margin: 0; text-align: center;\">+</p>","response":null,"trial_type":"html-keyboard-response","trial_index":21,"plugin_version":"2.1.0","time_elapsed":147077,"subject_id":"92031","group":"Group2","condition":"1_Rep","full_date":"2026-02-03T20:34:12.002Z","date":"2026-02-03","time":"20:34:12"},{"task":"memory_phase","broad_category":"I","image_png":"I_Rhyolite_10.png","image_id":154,"category_name":"Rhyolite","category":10,"distinct_rating":2.88,"distinct_type":"Bottom","rt":null,"stimulus":"Stimuli_Rocks480/I_Rhyolite_10.png","response":null,"trial_type":"image-keyboard-response","trial_index":22,"plugin_version":"2.1.0","time_elapsed":149581,"subject_id":"92031","group":"Group2","condition":"1_Rep","full_date":"2026-02-03T20:34:12.002Z","date":"2026-02-03","time":"20:34:12"},{"rt":null,"stimulus":"<p style=\"font-size: 50px; margin: 0; text-align: center;\">+</p>","response":null,"trial_type":"html-keyboard-response","trial_index":23,"plugin_version":"2.1.0","time_elapsed":150583,"subject_id":"92031","group":"Group2","condition":"1_Rep","full_date":"2026-02-03T20:34:12.002Z","date":"2026-02-03","time":"20:34:12"},{"task":"memory_phase","broad_category":"S","image_png":"S_Dolomite_07.png","image_id":391,"category_name":"Dolomite","category":25,"distinct_rating":1.73,"distinct_type":"Bottom","rt":null,"stimulus":"Stimuli_Rocks480/S_Dolomite_07.png","response":null,"trial_type":"image-keyboard-response","trial_index":24,"plugin_version":"2.1.0","time_elapsed":153087,"subject_id":"92031","group":"Group2","condition":"1_Rep","full_date":"2026-02-03T20:34:12.002Z","date":"2026-02-03","time":"20:34:12"},{"rt":null,"stimulus":"<p style=\"font-size: 50px; margin: 0; text-align: center;\">+</p>","response":null,"trial_type":"html-keyboard-response","trial_index":25,"plugin_version":"2.1.0","time_elapsed":154090,"subject_id":"92031","group":"Group2","condition":"1_Rep","full_date":"2026-02-03T20:34:12.002Z","date":"2026-02-03","time":"20:34:12"},{"task":"memory_phase","broad_category":"I","image_png":"I_Pumice_13.png","image_id":141,"category_name":"Pumice","category":9,"distinct_rating":3.12,"distinct_type":"Bottom","rt":null,"stimulus":"Stimuli_Rocks480/I_Pumice_13.png","response":null,"trial_type":"image-keyboard-response","trial_index":26,"plugin_version":"2.1.0","time_elapsed":156593,"subject_id":"92031","group":"Group2","condition":"1_Rep","full_date":"2026-02-03T20:34:12.002Z","date":"2026-02-03","time":"20:34:12"},{"rt":null,"stimulus":"<p style=\"font-size: 50px; margin: 0; text-align: center;\">+</p>","response":null,"trial_type":"html-keyboard-response","trial_index":27,"plugin_version":"2.1.0","time_elapsed":157596,"subject_id":"92031","group":"Group2","condition":"1_Rep","full_date":"2026-02-03T20:34:12.002Z","date":"2026-02-03","time":"20:34:12"},{"task":"memory_phase","broad_category":"I","image_png":"I_Andesite_09.png","image_id":9,"category_name":"Andesite","category":1,"distinct_rating":2.49,"distinct_type":"Bottom","rt":null,"stimulus":"Stimuli_Rocks480/I_Andesite_09.png","response":null,"trial_type":"image-keyboard-response","trial_index":28,"plugin_version":"2.1.0","time_elapsed":160099,"subject_id":"92031","group":"Group2","condition":"1_Rep","full_date":"2026-02-03T20:34:12.002Z","date":"2026-02-03","time":"20:34:12"},{"rt":null,"stimulus":"<p style=\"font-size: 50px; margin: 0; text-align: center;\">+</p>","response":null,"trial_type":"html-keyboard-response","trial_index":29,"plugin_version":"2.1.0","time_elapsed":161101,"subject_id":"92031","group":"Group2","condition":"1_Rep","full_date":"2026-02-03T20:34:12.002Z","date":"2026-02-03","time":"20:34:12"},{"task":"memory_phase","broad_category":"M","image_png":"M_Marble_02.png","image_id":226,"category_name":"Marble","category":15,"distinct_rating":3.2,"distinct_type":"Bottom","rt":null,"stimulus":"Stimuli_Rocks480/M_Marble_02.png","response":null,"trial_type":"image-keyboard-response","trial_index":30,"plugin_version":"2.1.0","time_elapsed":163604,"subject_id":"92031","group":"Group2","condition":"1_Rep","full_date":"2026-02-03T20:34:12.002Z","date":"2026-02-03","time":"20:34:12"},{"rt":null,"stimulus":"<p style=\"font-size: 50px; margin: 0; text-align: center;\">+</p>","response":null,"trial_type":"html-keyboard-response","trial_index":31,"plugin_version":"2.1.0","time_elapsed":164607,"subject_id":"92031","group":"Group2","condition":"1_Rep","full_date":"2026-02-03T20:34:12.002Z","date":"2026-02-03","time":"20:34:12"},{"task":"memory_phase","broad_category":"S","image_png":"S_Sandstone_04.png","image_id":452,"category_name":"Sandstone","category":29,"distinct_rating":1.8,"distinct_type":"Bottom","rt":null,"stimulus":"Stimuli_Rocks480/S_Sandstone_04.png","response":null,"trial_type":"image-keyboard-response","trial_index":32,"plugin_version":"2.1.0","time_elapsed":167110,"subject_id":"92031","group":"Group2","condition":"1_Rep","full_date":"2026-02-03T20:34:12.002Z","date":"2026-02-03","time":"20:34:12"},{"rt":null,"stimulus":"<p style=\"font-size: 50px; margin: 0; text-align: center;\">+</p>","response":null,"trial_type":"html-keyboard-response","trial_index":33,"plugin_version":"2.1.0","time_elapsed":168112,"subject_id":"92031","group":"Group2","condition":"1_Rep","full_date":"2026-02-03T20:34:12.002Z","date":"2026-02-03","time":"20:34:12"},{"task":"memory_phase","broad_category":"S","image_png":"S_Shale_07.png","image_id":471,"category_name":"Shale","category":30,"distinct_rating":2.73,"distinct_type":"Bottom","rt":null,"stimulus":"Stimuli_Rocks480/S_Shale_07.png","response":null,"trial_type":"image-keyboard-response","trial_index":34,"plugin_version":"2.1.0","time_elapsed":170616,"subject_id":"92031","group":"Group2","condition":"1_Rep","full_date":"2026-02-03T20:34:12.002Z","date":"2026-02-03","time":"20:34:12"},{"rt":null,"stimulus":"<p style=\"font-size: 50px; margin: 0; text-align: center;\">+</p>","response":null,"trial_type":"html-keyboard-response","trial_index":35,"plugin_version":"2.1.0","time_elapsed":171619,"subject_id":"92031","group":"Group2","condition":"1_Rep","full_date":"2026-02-03T20:34:12.002Z","date":"2026-02-03","time":"20:34:12"},{"task":"memory_phase","broad_category":"M","image_png":"M_Gneiss_14.png","image_id":206,"category_name":"Gneiss","category":13,"distinct_rating":3.41,"distinct_type":"Bottom","rt":null,"stimulus":"Stimuli_Rocks480/M_Gneiss_14.png","response":null,"trial_type":"image-keyboard-response","trial_index":36,"plugin_version":"2.1.0","time_elapsed":174121,"subject_id":"92031","group":"Group2","condition":"1_Rep","full_date":"2026-02-03T20:34:12.002Z","date":"2026-02-03","time":"20:34:12"},{"rt":null,"stimulus":"<p style=\"font-size: 50px; margin: 0; text-align: center;\">+</p>","response":null,"trial_type":"html-keyboard-response","trial_index":37,"plugin_version":"2.1.0","time_elapsed":175124,"subject_id":"92031","group":"Group2","condition":"1_Rep","full_date":"2026-02-03T20:34:12.002Z","date":"2026-02-03","time":"20:34:12"},{"task":"memory_phase","broad_category":"S","image_png":"S_Chert_13.png","image_id":365,"category_name":"Chert","category":23,"distinct_rating":6.57,"distinct_type":"Top","rt":null,"stimulus":"Stimuli_Rocks480/S_Chert_13.png","response":null,"trial_type":"image-keyboard-response","trial_index":38,"plugin_version":"2.1.0","time_elapsed":177627,"subject_id":"92031","group":"Group2","condition":"1_Rep","full_date":"2026-02-03T20:34:12.002Z","date":"2026-02-03","time":"20:34:12"},{"rt":null,"stimulus":"<p style=\"font-size: 50px; margin: 0; text-align: center;\">+</p>","response":null,"trial_type":"html-keyboard-response","trial_index":39,"plugin_version":"2.1.0","time_elapsed":178630,"subject_id":"92031","group":"Group2","condition":"1_Rep","full_date":"2026-02-03T20:34:12.002Z","date":"2026-02-03","time":"20:34:12"},{"task":"memory_phase","broad_category":"S","image_png":"S_Rock Salt_15.png","image_id":447,"category_name":"Rock Salt","category":28,"distinct_rating":7.79,"distinct_type":"Top","rt":null,"stimulus":"Stimuli_Rocks480/S_Rock Salt_15.png","response":null,"trial_type":"image-keyboard-response","trial_index":40,"plugin_version":"2.1.0","time_elapsed":181133,"subject_id":"92031","group":"Group2","condition":"1_Rep","full_date":"2026-02-03T20:34:12.002Z","date":"2026-02-03","time":"20:34:12"},{"rt":null,"stimulus":"<p style=\"font-size: 50px; margin: 0; text-align: center;\">+</p>","response":null,"trial_type":"html-keyboard-response","trial_index":41,"plugin_version":"2.1.0","time_elapsed":182136,"subject_id":"92031","group":"Group2","condition":"1_Rep","full_date":"2026-02-03T20:34:12.002Z","date":"2026-02-03","time":"20:34:12"},{"task":"memory_phase","broad_category":"M","image_png":"M_Marble_03.png","image_id":227,"category_name":"Marble","category":15,"distinct_rating":2.67,"distinct_type":"Bottom","rt":null,"stimulus":"Stimuli_Rocks480/M_Marble_03.png","response":null,"trial_type":"image-keyboard-response","trial_index":42,"plugin_version":"2.1.0","time_elapsed":184640,"subject_id":"92031","group":"Group2","condition":"1_Rep","full_date":"2026-02-03T20:34:12.002Z","date":"2026-02-03","time":"20:34:12"},{"rt":null,"stimulus":"<p style=\"font-size: 50px; margin: 0; text-align: center;\">+</p>","response":null,"trial_type":"html-keyboard-response","trial_index":43,"plugin_version":"2.1.0","time_elapsed":185643,"subject_id":"92031","group":"Group2","condition":"1_Rep","full_date":"2026-02-03T20:34:12.002Z","date":"2026-02-03","time":"20:34:12"},{"task":"memory_phase","broad_category":"S","image_png":"S_Shale_02.png","image_id":466,"category_name":"Shale","category":30,"distinct_rating":2.9,"distinct_type":"Bottom","rt":null,"stimulus":"Stimuli_Rocks480/S_Shale_02.png","response":null,"trial_type":"image-keyboard-response","trial_index":44,"plugin_version":"2.1.0","time_elapsed":188146,"subject_id":"92031","group":"Group2","condition":"1_Rep","full_date":"2026-02-03T20:34:12.002Z","date":"2026-02-03","time":"20:34:12"},{"rt":null,"stimulus":"<p style=\"font-size: 50px; margin: 0; text-align: center;\">+</p>","response":null,"trial_type":"html-keyboard-response","trial_index":45,"plugin_version":"2.1.0","time_elapsed":189148,"subject_id":"92031","group":"Group2","condition":"1_Rep","full_date":"2026-02-03T20:34:12.002Z","date":"2026-02-03","time":"20:34:12"},{"task":"memory_phase","broad_category":"I","image_png":"I_Diorite_10.png","image_id":42,"category_name":"Diorite","category":3,"distinct_rating":2.84,"distinct_type":"Bottom","rt":null,"stimulus":"Stimuli_Rocks480/I_Diorite_10.png","response":null,"trial_type":"image-keyboard-response","trial_index":46,"plugin_version":"2.1.0","time_elapsed":191652,"subject_id":"92031","group":"Group2","condition":"1_Rep","full_date":"2026-02-03T20:34:12.002Z","date":"2026-02-03","time":"20:34:12"},{"rt":null,"stimulus":"<p style=\"font-size: 50px; margin: 0; text-align: center;\">+</p>","response":null,"trial_type":"html-keyboard-response","trial_index":47,"plugin_version":"2.1.0","time_elapsed":192654,"subject_id":"92031","group":"Group2","condition":"1_Rep","full_date":"2026-02-03T20:34:12.002Z","date":"2026-02-03","time":"20:34:12"},{"task":"memory_phase","broad_category":"I","image_png":"I_Rhyolite_05.png","image_id":149,"category_name":"Rhyolite","category":10,"distinct_rating":3.02,"distinct_type":"Bottom","rt":null,"stimulus":"Stimuli_Rocks480/I_Rhyolite_05.png","response":null,"trial_type":"image-keyboard-response","trial_index":48,"plugin_version":"2.1.0","time_elapsed":195158,"subject_id":"92031","group":"Group2","condition":"1_Rep","full_date":"2026-02-03T20:34:12.002Z","date":"2026-02-03","time":"20:34:12"},{"rt":null,"stimulus":"<p style=\"font-size: 50px; margin: 0; text-align: center;\">+</p>","response":null,"trial_type":"html-keyboard-response","trial_index":49,"plugin_version":"2.1.0","time_elapsed":196160,"subject_id":"92031","group":"Group2","condition":"1_Rep","full_date":"2026-02-03T20:34:12.002Z","date":"2026-02-03","time":"20:34:12"},{"task":"memory_phase","broad_category":"M","image_png":"M_Slate_04.png","image_id":308,"category_name":"Slate","category":20,"distinct_rating":2.2,"distinct_type":"Bottom","rt":null,"stimulus":"Stimuli_Rocks480/M_Slate_04.png","response":null,"trial_type":"image-keyboard-response","trial_index":50,"plugin_version":"2.1.0","time_elapsed":198663,"subject_id":"92031","group":"Group2","condition":"1_Rep","full_date":"2026-02-03T20:34:12.002Z","date":"2026-02-03","time":"20:34:12"},{"rt":null,"stimulus":"<p style=\"font-size: 50px; margin: 0; text-align: center;\">+</p>","response":null,"trial_type":"html-keyboard-response","trial_index":51,"plugin_version":"2.1.0","time_elapsed":199666,"subject_id":"92031","group":"Group2","condition":"1_Rep","full_date":"2026-02-03T20:34:12.002Z","date":"2026-02-03","time":"20:34:12"},{"task":"memory_phase","broad_category":"I","image_png":"I_Gabbro_14.png","image_id":62,"category_name":"Gabbro","category":4,"distinct_rating":2.95,"distinct_type":"Bottom","rt":null,"stimulus":"Stimuli_Rocks480/I_Gabbro_14.png","response":null,"trial_type":"image-keyboard-response","trial_index":52,"plugin_version":"2.1.0","time_elapsed":202170,"subject_id":"92031","group":"Group2","condition":"1_Rep","full_date":"2026-02-03T20:34:12.002Z","date":"2026-02-03","time":"20:34:12"},{"rt":null,"stimulus":"<p style=\"font-size: 50px; margin: 0; text-align: center;\">+</p>","response":null,"trial_type":"html-keyboard-response","trial_index":53,"plugin_version":"2.1.0","time_elapsed":203181,"subject_id":"92031","group":"Group2","condition":"1_Rep","full_date":"2026-02-03T20:34:12.002Z","date":"2026-02-03","time":"20:34:12"},{"task":"memory_phase","broad_category":"I","image_png":"I_Pumice_14.png","image_id":142,"category_name":"Pumice","category":9,"distinct_rating":3.22,"distinct_type":"Bottom","rt":null,"stimulus":"Stimuli_Rocks480/I_Pumice_14.png","response":null,"trial_type":"image-keyboard-response","trial_index":54,"plugin_version":"2.1.0","time_elapsed":205683,"subject_id":"92031","group":"Group2","condition":"1_Rep","full_date":"2026-02-03T20:34:12.002Z","date":"2026-02-03","time":"20:34:12"},{"rt":1809,"stimulus":"<p style=\"max-width: 760px; margin: auto; font-size: 35px; line-height: 1.5;\">\n                Press SPACE to continue study phase\n              </p>","response":" ","trial_type":"html-keyboard-response","trial_index":55,"plugin_version":"2.1.0","time_elapsed":207494,"subject_id":"92031","group":"Group2","condition":"1_Rep","full_date":"2026-02-03T20:34:12.002Z","date":"2026-02-03","time":"20:34:12"},{"rt":null,"stimulus":"<p style=\"font-size: 50px; margin: 0; text-align: center;\">+</p>","response":null,"trial_type":"html-keyboard-response","trial_index":56,"plugin_version":"2.1.0","time_elapsed":208496,"subject_id":"92031","group":"Group2","condition":"1_Rep","full_date":"2026-02-03T20:34:12.002Z","date":"2026-02-03","time":"20:34:12"},{"task":"memory_phase","broad_category":"I","image_png":"I_Gabbro_02.png","image_id":50,"category_name":"Gabbro","category":4,"distinct_rating":2.73,"distinct_type":"Bottom","rt":null,"stimulus":"Stimuli_Rocks480/I_Gabbro_02.png","response":null,"trial_type":"image-keyboard-response","trial_index":57,"plugin_version":"2.1.0","time_elapsed":211000,"subject_id":"92031","group":"Group2","condition":"1_Rep","full_date":"2026-02-03T20:34:12.002Z","date":"2026-02-03","time":"20:34:12"},{"rt":null,"stimulus":"<p style=\"font-size: 50px; margin: 0; text-align: center;\">+</p>","response":null,"trial_type":"html-keyboard-response","trial_index":58,"plugin_version":"2.1.0","time_elapsed":212002,"subject_id":"92031","group":"Group2","condition":"1_Rep","full_date":"2026-02-03T20:34:12.002Z","date":"2026-02-03","time":"20:34:12"},{"task":"memory_phase","broad_category":"S","image_png":"S_Dolomite_16.png","image_id":400,"category_name":"Dolomite","category":25,"distinct_rating":1.71,"distinct_type":"Bottom","rt":null,"stimulus":"Stimuli_Rocks480/S_Dolomite_16.png","response":null,"trial_type":"image-keyboard-response","trial_index":59,"plugin_version":"2.1.0","time_elapsed":214506,"subject_id":"92031","group":"Group2","condition":"1_Rep","full_date":"2026-02-03T20:34:12.002Z","date":"2026-02-03","time":"20:34:12"},{"rt":null,"stimulus":"<p style=\"font-size: 50px; margin: 0; text-align: center;\">+</p>","response":null,"trial_type":"html-keyboard-response","trial_index":60,"plugin_version":"2.1.0","time_elapsed":215507,"subject_id":"92031","group":"Group2","condition":"1_Rep","full_date":"2026-02-03T20:34:12.002Z","date":"2026-02-03","time":"20:34:12"},{"task":"memory_phase","broad_category":"M","image_png":"M_Phyllite_05.png","image_id":261,"category_name":"Phyllite","category":17,"distinct_rating":2.14,"distinct_type":"Bottom","rt":null,"stimulus":"Stimuli_Rocks480/M_Phyllite_05.png","response":null,"trial_type":"image-keyboard-response","trial_index":61,"plugin_version":"2.1.0","time_elapsed":218010,"subject_id":"92031","group":"Group2","condition":"1_Rep","full_date":"2026-02-03T20:34:12.002Z","date":"2026-02-03","time":"20:34:12"},{"rt":null,"stimulus":"<p style=\"font-size: 50px; margin: 0; text-align: center;\">+</p>","response":null,"trial_type":"html-keyboard-response","trial_index":62,"plugin_version":"2.1.0","time_elapsed":219012,"subject_id":"92031","group":"Group2","condition":"1_Rep","full_date":"2026-02-03T20:34:12.002Z","date":"2026-02-03","time":"20:34:12"},{"task":"memory_phase","broad_category":"M","image_png":"M_Gneiss_15.png","image_id":207,"category_name":"Gneiss","category":13,"distinct_rating":3.11,"distinct_type":"Bottom","rt":null,"stimulus":"Stimuli_Rocks480/M_Gneiss_15.png","response":null,"trial_type":"image-keyboard-response","trial_index":63,"plugin_version":"2.1.0","time_elapsed":221516,"subject_id":"92031","group":"Group2","condition":"1_Rep","full_date":"2026-02-03T20:34:12.002Z","date":"2026-02-03","time":"20:34:12"},{"rt":null,"stimulus":"<p style=\"font-size: 50px; margin: 0; text-align: center;\">+</p>","response":null,"trial_type":"html-keyboard-response","trial_index":64,"plugin_version":"2.1.0","time_elapsed":222519,"subject_id":"92031","group":"Group2","condition":"1_Rep","full_date":"2026-02-03T20:34:12.002Z","date":"2026-02-03","time":"20:34:12"},{"task":"memory_phase","broad_category":"I","image_png":"I_Andesite_03.png","image_id":3,"category_name":"Andesite","category":1,"distinct_rating":3.17,"distinct_type":"Bottom","rt":null,"stimulus":"Stimuli_Rocks480/I_Andesite_03.png","response":null,"trial_type":"image-keyboard-response","trial_index":65,"plugin_version":"2.1.0","time_elapsed":225023,"subject_id":"92031","group":"Group2","condition":"1_Rep","full_date":"2026-02-03T20:34:12.002Z","date":"2026-02-03","time":"20:34:12"},{"rt":null,"stimulus":"<p style=\"font-size: 50px; margin: 0; text-align: center;\">+</p>","response":null,"trial_type":"html-keyboard-response","trial_index":66,"plugin_version":"2.1.0","time_elapsed":226025,"subject_id":"92031","group":"Group2","condition":"1_Rep","full_date":"2026-02-03T20:34:12.002Z","date":"2026-02-03","time":"20:34:12"},{"task":"memory_phase","broad_category":"I","image_png":"I_Diorite_01.png","image_id":33,"category_name":"Diorite","category":3,"distinct_rating":2.97,"distinct_type":"Bottom","rt":null,"stimulus":"Stimuli_Rocks480/I_Diorite_01.png","response":null,"trial_type":"image-keyboard-response","trial_index":67,"plugin_version":"2.1.0","time_elapsed":228528,"subject_id":"92031","group":"Group2","condition":"1_Rep","full_date":"2026-02-03T20:34:12.002Z","date":"2026-02-03","time":"20:34:12"},{"rt":null,"stimulus":"<p style=\"font-size: 50px; margin: 0; text-align: center;\">+</p>","response":null,"trial_type":"html-keyboard-response","trial_index":68,"plugin_version":"2.1.0","time_elapsed":229530,"subject_id":"92031","group":"Group2","condition":"1_Rep","full_date":"2026-02-03T20:34:12.002Z","date":"2026-02-03","time":"20:34:12"},{"task":"memory_phase","broad_category":"S","image_png":"S_Shale_03.png","image_id":467,"category_name":"Shale","category":30,"distinct_rating":1.95,"distinct_type":"Bottom","rt":null,"stimulus":"Stimuli_Rocks480/S_Shale_03.png","response":null,"trial_type":"image-keyboard-response","trial_index":69,"plugin_version":"2.1.0","time_elapsed":232034,"subject_id":"92031","group":"Group2","condition":"1_Rep","full_date":"2026-02-03T20:34:12.002Z","date":"2026-02-03","time":"20:34:12"},{"rt":null,"stimulus":"<p style=\"font-size: 50px; margin: 0; text-align: center;\">+</p>","response":null,"trial_type":"html-keyboard-response","trial_index":70,"plugin_version":"2.1.0","time_elapsed":233036,"subject_id":"92031","group":"Group2","condition":"1_Rep","full_date":"2026-02-03T20:34:12.002Z","date":"2026-02-03","time":"20:34:12"},{"task":"memory_phase","broad_category":"I","image_png":"I_Basalt_13.png","image_id":29,"category_name":"Basalt","category":2,"distinct_rating":2.68,"distinct_type":"Bottom","rt":null,"stimulus":"Stimuli_Rocks480/I_Basalt_13.png","response":null,"trial_type":"image-keyboard-response","trial_index":71,"plugin_version":"2.1.0","time_elapsed":235539,"subject_id":"92031","group":"Group2","condition":"1_Rep","full_date":"2026-02-03T20:34:12.002Z","date":"2026-02-03","time":"20:34:12"},{"rt":null,"stimulus":"<p style=\"font-size: 50px; margin: 0; text-align: center;\">+</p>","response":null,"trial_type":"html-keyboard-response","trial_index":72,"plugin_version":"2.1.0","time_elapsed":236542,"subject_id":"92031","group":"Group2","condition":"1_Rep","full_date":"2026-02-03T20:34:12.002Z","date":"2026-02-03","time":"20:34:12"},{"task":"memory_phase","broad_category":"I","image_png":"I_Diorite_15.png","image_id":47,"category_name":"Diorite","category":3,"distinct_rating":3.05,"distinct_type":"Bottom","rt":null,"stimulus":"Stimuli_Rocks480/I_Diorite_15.png","response":null,"trial_type":"image-keyboard-response","trial_index":73,"plugin_version":"2.1.0","time_elapsed":239045,"subject_id":"92031","group":"Group2","condition":"1_Rep","full_date":"2026-02-03T20:34:12.002Z","date":"2026-02-03","time":"20:34:12"},{"rt":null,"stimulus":"<p style=\"font-size: 50px; margin: 0; text-align: center;\">+</p>","response":null,"trial_type":"html-keyboard-response","trial_index":74,"plugin_version":"2.1.0","time_elapsed":240048,"subject_id":"92031","group":"Group2","condition":"1_Rep","full_date":"2026-02-03T20:34:12.002Z","date":"2026-02-03","time":"20:34:12"},{"task":"memory_phase","broad_category":"I","image_png":"I_Gabbro_12.png","image_id":60,"category_name":"Gabbro","category":4,"distinct_rating":2.6,"distinct_type":"Bottom","rt":null,"stimulus":"Stimuli_Rocks480/I_Gabbro_12.png","response":null,"trial_type":"image-keyboard-response","trial_index":75,"plugin_version":"2.1.0","time_elapsed":242551,"subject_id":"92031","group":"Group2","condition":"1_Rep","full_date":"2026-02-03T20:34:12.002Z","date":"2026-02-03","time":"20:34:12"},{"rt":null,"stimulus":"<p style=\"font-size: 50px; margin: 0; text-align: center;\">+</p>","response":null,"trial_type":"html-keyboard-response","trial_index":76,"plugin_version":"2.1.0","time_elapsed":243555,"subject_id":"92031","group":"Group2","condition":"1_Rep","full_date":"2026-02-03T20:34:12.002Z","date":"2026-02-03","time":"20:34:12"},{"task":"memory_phase","broad_category":"I","image_png":"I_Pumice_01.png","image_id":129,"category_name":"Pumice","category":9,"distinct_rating":3.25,"distinct_type":"Bottom","rt":null,"stimulus":"Stimuli_Rocks480/I_Pumice_01.png","response":null,"trial_type":"image-keyboard-response","trial_index":77,"plugin_version":"2.1.0","time_elapsed":246058,"subject_id":"92031","group":"Group2","condition":"1_Rep","full_date":"2026-02-03T20:34:12.002Z","date":"2026-02-03","time":"20:34:12"},{"rt":null,"stimulus":"<p style=\"font-size: 50px; margin: 0; text-align: center;\">+</p>","response":null,"trial_type":"html-keyboard-response","trial_index":78,"plugin_version":"2.1.0","time_elapsed":247061,"subject_id":"92031","group":"Group2","condition":"1_Rep","full_date":"2026-02-03T20:34:12.002Z","date":"2026-02-03","time":"20:34:12"},{"task":"memory_phase","broad_category":"S","image_png":"S_Rock Salt_13.png","image_id":445,"category_name":"Rock Salt","category":28,"distinct_rating":7.58,"distinct_type":"Top","rt":null,"stimulus":"Stimuli_Rocks480/S_Rock Salt_13.png","response":null,"trial_type":"image-keyboard-response","trial_index":79,"plugin_version":"2.1.0","time_elapsed":249565,"subject_id":"92031","group":"Group2","condition":"1_Rep","full_date":"2026-02-03T20:34:12.002Z","date":"2026-02-03","time":"20:34:12"},{"rt":null,"stimulus":"<p style=\"font-size: 50px; margin: 0; text-align: center;\">+</p>","response":null,"trial_type":"html-keyboard-response","trial_index":80,"plugin_version":"2.1.0","time_elapsed":250567,"subject_id":"92031","group":"Group2","condition":"1_Rep","full_date":"2026-02-03T20:34:12.002Z","date":"2026-02-03","time":"20:34:12"},{"task":"memory_phase","broad_category":"M","image_png":"M_Phyllite_13.png","image_id":269,"category_name":"Phyllite","category":17,"distinct_rating":2.8,"distinct_type":"Bottom","rt":null,"stimulus":"Stimuli_Rocks480/M_Phyllite_13.png","response":null,"trial_type":"image-keyboard-response","trial_index":81,"plugin_version":"2.1.0","time_elapsed":253070,"subject_id":"92031","group":"Group2","condition":"1_Rep","full_date":"2026-02-03T20:34:12.002Z","date":"2026-02-03","time":"20:34:12"},{"rt":null,"stimulus":"<p style=\"font-size: 50px; margin: 0; text-align: center;\">+</p>","response":null,"trial_type":"html-keyboard-response","trial_index":82,"plugin_version":"2.1.0","time_elapsed":254072,"subject_id":"92031","group":"Group2","condition":"1_Rep","full_date":"2026-02-03T20:34:12.002Z","date":"2026-02-03","time":"20:34:12"},{"task":"memory_phase","broad_category":"S","image_png":"S_Dolomite_01.png","image_id":385,"category_name":"Dolomite","category":25,"distinct_rating":1.43,"distinct_type":"Bottom","rt":null,"stimulus":"Stimuli_Rocks480/S_Dolomite_01.png","response":null,"trial_type":"image-keyboard-response","trial_index":83,"plugin_version":"2.1.0","time_elapsed":256576,"subject_id":"92031","group":"Group2","condition":"1_Rep","full_date":"2026-02-03T20:34:12.002Z","date":"2026-02-03","time":"20:34:12"},{"rt":null,"stimulus":"<p style=\"font-size: 50px; margin: 0; text-align: center;\">+</p>","response":null,"trial_type":"html-keyboard-response","trial_index":84,"plugin_version":"2.1.0","time_elapsed":257579,"subject_id":"92031","group":"Group2","condition":"1_Rep","full_date":"2026-02-03T20:34:12.002Z","date":"2026-02-03","time":"20:34:12"},{"task":"memory_phase","broad_category":"S","image_png":"S_Sandstone_08.png","image_id":456,"category_name":"Sandstone","category":29,"distinct_rating":1.5,"distinct_type":"Bottom","rt":null,"stimulus":"Stimuli_Rocks480/S_Sandstone_08.png","response":null,"trial_type":"image-keyboard-response","trial_index":85,"plugin_version":"2.1.0","time_elapsed":260083,"subject_id":"92031","group":"Group2","condition":"1_Rep","full_date":"2026-02-03T20:34:12.002Z","date":"2026-02-03","time":"20:34:12"},{"rt":null,"stimulus":"<p style=\"font-size: 50px; margin: 0; text-align: center;\">+</p>","response":null,"trial_type":"html-keyboard-response","trial_index":86,"plugin_version":"2.1.0","time_elapsed":261085,"subject_id":"92031","group":"Group2","condition":"1_Rep","full_date":"2026-02-03T20:34:12.002Z","date":"2026-02-03","time":"20:34:12"},{"task":"memory_phase","broad_category":"M","image_png":"M_Phyllite_02.png","image_id":258,"category_name":"Phyllite","category":17,"distinct_rating":2.89,"distinct_type":"Bottom","rt":null,"stimulus":"Stimuli_Rocks480/M_Phyllite_02.png","response":null,"trial_type":"image-keyboard-response","trial_index":87,"plugin_version":"2.1.0","time_elapsed":263588,"subject_id":"92031","group":"Group2","condition":"1_Rep","full_date":"2026-02-03T20:34:12.002Z","date":"2026-02-03","time":"20:34:12"},{"rt":null,"stimulus":"<p style=\"font-size: 50px; margin: 0; text-align: center;\">+</p>","response":null,"trial_type":"html-keyboard-response","trial_index":88,"plugin_version":"2.1.0","time_elapsed":264591,"subject_id":"92031","group":"Group2","condition":"1_Rep","full_date":"2026-02-03T20:34:12.002Z","date":"2026-02-03","time":"20:34:12"},{"task":"memory_phase","broad_category":"I","image_png":"I_Andesite_04.png","image_id":4,"category_name":"Andesite","category":1,"distinct_rating":3.18,"distinct_type":"Bottom","rt":null,"stimulus":"Stimuli_Rocks480/I_Andesite_04.png","response":null,"trial_type":"image-keyboard-response","trial_index":89,"plugin_version":"2.1.0","time_elapsed":267094,"subject_id":"92031","group":"Group2","condition":"1_Rep","full_date":"2026-02-03T20:34:12.002Z","date":"2026-02-03","time":"20:34:12"},{"rt":null,"stimulus":"<p style=\"font-size: 50px; margin: 0; text-align: center;\">+</p>","response":null,"trial_type":"html-keyboard-response","trial_index":90,"plugin_version":"2.1.0","time_elapsed":268097,"subject_id":"92031","group":"Group2","condition":"1_Rep","full_date":"2026-02-03T20:34:12.002Z","date":"2026-02-03","time":"20:34:12"},{"task":"memory_phase","broad_category":"M","image_png":"M_Slate_10.png","image_id":314,"category_name":"Slate","category":20,"distinct_rating":1.94,"distinct_type":"Bottom","rt":null,"stimulus":"Stimuli_Rocks480/M_Slate_10.png","response":null,"trial_type":"image-keyboard-response","trial_index":91,"plugin_version":"2.1.0","time_elapsed":270601,"subject_id":"92031","group":"Group2","condition":"1_Rep","full_date":"2026-02-03T20:34:12.002Z","date":"2026-02-03","time":"20:34:12"},{"rt":null,"stimulus":"<p style=\"font-size: 50px; margin: 0; text-align: center;\">+</p>","response":null,"trial_type":"html-keyboard-response","trial_index":92,"plugin_version":"2.1.0","time_elapsed":271603,"subject_id":"92031","group":"Group2","condition":"1_Rep","full_date":"2026-02-03T20:34:12.002Z","date":"2026-02-03","time":"20:34:12"},{"task":"memory_phase","broad_category":"M","image_png":"M_Quartzite_15.png","image_id":287,"category_name":"Quartzite","category":18,"distinct_rating":2.19,"distinct_type":"Bottom","rt":null,"stimulus":"Stimuli_Rocks480/M_Quartzite_15.png","response":null,"trial_type":"image-keyboard-response","trial_index":93,"plugin_version":"2.1.0","time_elapsed":274106,"subject_id":"92031","group":"Group2","condition":"1_Rep","full_date":"2026-02-03T20:34:12.002Z","date":"2026-02-03","time":"20:34:12"},{"rt":null,"stimulus":"<p style=\"font-size: 50px; margin: 0; text-align: center;\">+</p>","response":null,"trial_type":"html-keyboard-response","trial_index":94,"plugin_version":"2.1.0","time_elapsed":275109,"subject_id":"92031","group":"Group2","condition":"1_Rep","full_date":"2026-02-03T20:34:12.002Z","date":"2026-02-03","time":"20:34:12"},{"task":"memory_phase","broad_category":"M","image_png":"M_Quartzite_07.png","image_id":279,"category_name":"Quartzite","category":18,"distinct_rating":1.97,"distinct_type":"Bottom","rt":null,"stimulus":"Stimuli_Rocks480/M_Quartzite_07.png","response":null,"trial_type":"image-keyboard-response","trial_index":95,"plugin_version":"2.1.0","time_elapsed":277612,"subject_id":"92031","group":"Group2","condition":"1_Rep","full_date":"2026-02-03T20:34:12.002Z","date":"2026-02-03","time":"20:34:12"},{"rt":null,"stimulus":"<p style=\"font-size: 50px; margin: 0; text-align: center;\">+</p>","response":null,"trial_type":"html-keyboard-response","trial_index":96,"plugin_version":"2.1.0","time_elapsed":278614,"subject_id":"92031","group":"Group2","condition":"1_Rep","full_date":"2026-02-03T20:34:12.002Z","date":"2026-02-03","time":"20:34:12"},{"task":"memory_phase","broad_category":"M","image_png":"M_Slate_14.png","image_id":318,"category_name":"Slate","category":20,"distinct_rating":2.58,"distinct_type":"Bottom","rt":null,"stimulus":"Stimuli_Rocks480/M_Slate_14.png","response":null,"trial_type":"image-keyboard-response","trial_index":97,"plugin_version":"2.1.0","time_elapsed":281118,"subject_id":"92031","group":"Group2","condition":"1_Rep","full_date":"2026-02-03T20:34:12.002Z","date":"2026-02-03","time":"20:34:12"},{"rt":null,"stimulus":"<p style=\"font-size: 50px; margin: 0; text-align: center;\">+</p>","response":null,"trial_type":"html-keyboard-response","trial_index":98,"plugin_version":"2.1.0","time_elapsed":282120,"subject_id":"92031","group":"Group2","condition":"1_Rep","full_date":"2026-02-03T20:34:12.002Z","date":"2026-02-03","time":"20:34:12"},{"task":"memory_phase","broad_category":"I","image_png":"I_Obsidian_06.png","image_id":86,"category_name":"Obsidian","category":6,"distinct_rating":8.01,"distinct_type":"Top","rt":null,"stimulus":"Stimuli_Rocks480/I_Obsidian_06.png","response":null,"trial_type":"image-keyboard-response","trial_index":99,"plugin_version":"2.1.0","time_elapsed":284624,"subject_id":"92031","group":"Group2","condition":"1_Rep","full_date":"2026-02-03T20:34:12.002Z","date":"2026-02-03","time":"20:34:12"},{"rt":null,"stimulus":"<p style=\"font-size: 50px; margin: 0; text-align: center;\">+</p>","response":null,"trial_type":"html-keyboard-response","trial_index":100,"plugin_version":"2.1.0","time_elapsed":285626,"subject_id":"92031","group":"Group2","condition":"1_Rep","full_date":"2026-02-03T20:34:12.002Z","date":"2026-02-03","time":"20:34:12"},{"task":"memory_phase","broad_category":"S","image_png":"S_Conglomerate_14.png","image_id":382,"category_name":"Conglomerate","category":24,"distinct_rating":6.86,"distinct_type":"Top","rt":null,"stimulus":"Stimuli_Rocks480/S_Conglomerate_14.png","response":null,"trial_type":"image-keyboard-response","trial_index":101,"plugin_version":"2.1.0","time_elapsed":288129,"subject_id":"92031","group":"Group2","condition":"1_Rep","full_date":"2026-02-03T20:34:12.002Z","date":"2026-02-03","time":"20:34:12"},{"rt":null,"stimulus":"<p style=\"font-size: 50px; margin: 0; text-align: center;\">+</p>","response":null,"trial_type":"html-keyboard-response","trial_index":102,"plugin_version":"2.1.0","time_elapsed":289131,"subject_id":"92031","group":"Group2","condition":"1_Rep","full_date":"2026-02-03T20:34:12.002Z","date":"2026-02-03","time":"20:34:12"},{"task":"memory_phase","broad_category":"M","image_png":"M_Gneiss_10.png","image_id":202,"category_name":"Gneiss","category":13,"distinct_rating":3.09,"distinct_type":"Bottom","rt":null,"stimulus":"Stimuli_Rocks480/M_Gneiss_10.png","response":null,"trial_type":"image-keyboard-response","trial_index":103,"plugin_version":"2.1.0","time_elapsed":291634,"subject_id":"92031","group":"Group2","condition":"1_Rep","full_date":"2026-02-03T20:34:12.002Z","date":"2026-02-03","time":"20:34:12"},{"rt":null,"stimulus":"<p style=\"font-size: 50px; margin: 0; text-align: center;\">+</p>","response":null,"trial_type":"html-keyboard-response","trial_index":104,"plugin_version":"2.1.0","time_elapsed":292637,"subject_id":"92031","group":"Group2","condition":"1_Rep","full_date":"2026-02-03T20:34:12.002Z","date":"2026-02-03","time":"20:34:12"},{"task":"memory_phase","broad_category":"I","image_png":"I_Basalt_10.png","image_id":26,"category_name":"Basalt","category":2,"distinct_rating":2.76,"distinct_type":"Bottom","rt":null,"stimulus":"Stimuli_Rocks480/I_Basalt_10.png","response":null,"trial_type":"image-keyboard-response","trial_index":105,"plugin_version":"2.1.0","time_elapsed":295140,"subject_id":"92031","group":"Group2","condition":"1_Rep","full_date":"2026-02-03T20:34:12.002Z","date":"2026-02-03","time":"20:34:12"},{"rt":29177,"stimulus":"<div style=\"max-width: 760px; margin: auto; font-size: 20px; line-height: 1.5;\">\n      <h1 style=\"text-align:center; font-size: 30px;\">Instructions for the Test Phase</h1>\n      <p>\n        The study phase is now complete.\n      </p>\n      <p>\n        In the test phase, you will again see a series of rock images. \n        Some will be ones you saw before - during the study phase, while others will be new.  \n        <b>Your task</b> is to decide whether you have seen each image before by pressing the corresponding key on your keyboard:<br><br>\n          <b>A</b> - NO (you did not see this image before)<br>\n          <b>L</b> - YES (you saw this image before)<br><br>\n        The test will proceed at your own pace. You will receive feedback after each response.  \n        Please try to respond <b>as accurately as possible</b>.\n      </p>\n      <p>\n        <b>Reminder:</b> If your computer has multiple language settings (e.g., English and another language),\n        please ensure it is set to English during the test phase.\n      </p>\n      <p>\n        You can track your progress using the <b>completion bar</b> at the top of the screen.  \n        Note that it has been refreshed to reflect your progress during this final phase.\n      </p>\n      <p>\n        Press the button below when you are ready to continue.\n      </p>\n    </div>","response":0,"trial_type":"html-button-response","trial_index":106,"plugin_version":"2.1.0","time_elapsed":324320,"subject_id":"92031","group":"Group2","condition":"1_Rep","full_date":"2026-02-03T20:34:12.002Z","date":"2026-02-03","time":"20:34:12"},{"correct_response":"l","task":"test_phase","broad_category":"M","image_png":"M_Quartzite_15.png","image_id":287,"category_name":"Quartzite","category":18,"distinct_rating":2.19,"distinct_type":"Bottom","item_type":"Target","rt":1737,"stimulus":"Stimuli_Rocks480/M_Quartzite_15.png","response":"a","trial_type":"image-keyboard-response","trial_index":107,"plugin_version":"2.1.0","time_elapsed":326060,"subject_id":"92031","group":"Group2","condition":"1_Rep","full_date":"2026-02-03T20:34:12.002Z","date":"2026-02-03","time":"20:34:12","cor_ans":false},{"trial_type":"html-keyboard-response","rt":null,"stimulus":"<p style=\"color: red; font-size: 50px; font-weight: bold;\">Incorrect</p>","response":null,"trial_index":108,"plugin_version":"2.1.0","time_elapsed":326561,"subject_id":"92031","group":"Group2","condition":"1_Rep","full_date":"2026-02-03T20:34:12.002Z","date":"2026-02-03","time":"20:34:12"},{"correct_response":"l","task":"test_phase","broad_category":"S","image_png":"S_Chert_13.png","image_id":365,"category_name":"Chert","category":23,"distinct_rating":6.57,"distinct_type":"Top","item_type":"Target","rt":1214,"stimulus":"Stimuli_Rocks480/S_Chert_13.png","response":"l","trial_type":"image-keyboard-response","trial_index":109,"plugin_version":"2.1.0","time_elapsed":327777,"subject_id":"92031","group":"Group2","condition":"1_Rep","full_date":"2026-02-03T20:34:12.002Z","date":"2026-02-03","time":"20:34:12","cor_ans":true},{"trial_type":"html-keyboard-response","rt":null,"stimulus":"<p style=\"color: green; font-size: 50px; font-weight: bold;\">Correct</p>","response":null,"trial_index":110,"plugin_version":"2.1.0","time_elapsed":328279,"subject_id":"92031","group":"Group2","condition":"1_Rep","full_date":"2026-02-03T20:34:12.002Z","date":"2026-02-03","time":"20:34:12"},{"correct_response":"l","task":"test_phase","broad_category":"S","image_png":"S_Sandstone_08.png","image_id":456,"category_name":"Sandstone","category":29,"distinct_rating":1.5,"distinct_type":"Bottom","item_type":"Target","rt":1960,"stimulus":"Stimuli_Rocks480/S_Sandstone_08.png","response":"a","trial_type":"image-keyboard-response","trial_index":111,"plugin_version":"2.1.0","time_elapsed":330241,"subject_id":"92031","group":"Group2","condition":"1_Rep","full_date":"2026-02-03T20:34:12.002Z","date":"2026-02-03","time":"20:34:12","cor_ans":false},{"trial_type":"html-keyboard-response","rt":null,"stimulus":"<p style=\"color: red; font-size: 50px; font-weight: bold;\">Incorrect</p>","response":null,"trial_index":112,"plugin_version":"2.1.0","time_elapsed":330743,"subject_id":"92031","group":"Group2","condition":"1_Rep","full_date":"2026-02-03T20:34:12.002Z","date":"2026-02-03","time":"20:34:12"},{"correct_response":"l","task":"test_phase","broad_category":"S","image_png":"S_Shale_02.png","image_id":466,"category_name":"Shale","category":30,"distinct_rating":2.9,"distinct_type":"Bottom","item_type":"Target","rt":1298,"stimulus":"Stimuli_Rocks480/S_Shale_02.png","response":"a","trial_type":"image-keyboard-response","trial_index":113,"plugin_version":"2.1.0","time_elapsed":332042,"subject_id":"92031","group":"Group2","condition":"1_Rep","full_date":"2026-02-03T20:34:12.002Z","date":"2026-02-03","time":"20:34:12","cor_ans":false},{"trial_type":"html-keyboard-response","rt":null,"stimulus":"<p style=\"color: red; font-size: 50px; font-weight: bold;\">Incorrect</p>","response":null,"trial_index":114,"plugin_version":"2.1.0","time_elapsed":332544,"subject_id":"92031","group":"Group2","condition":"1_Rep","full_date":"2026-02-03T20:34:12.002Z","date":"2026-02-03","time":"20:34:12"},{"correct_response":"a","task":"test_phase","broad_category":"S","image_png":"S_Dolomite_13.png","image_id":397,"category_name":"Dolomite","category":25,"distinct_rating":1.77,"distinct_type":"Bottom","item_type":"Foil","rt":1518,"stimulus":"Stimuli_Rocks480/S_Dolomite_13.png","response":"l","trial_type":"image-keyboard-response","trial_index":115,"plugin_version":"2.1.0","time_elapsed":334063,"subject_id":"92031","group":"Group2","condition":"1_Rep","full_date":"2026-02-03T20:34:12.002Z","date":"2026-02-03","time":"20:34:12","cor_ans":false},{"trial_type":"html-keyboard-response","rt":null,"stimulus":"<p style=\"color: red; font-size: 50px; font-weight: bold;\">Incorrect</p>","response":null,"trial_index":116,"plugin_version":"2.1.0","time_elapsed":334565,"subject_id":"92031","group":"Group2","condition":"1_Rep","full_date":"2026-02-03T20:34:12.002Z","date":"2026-02-03","time":"20:34:12"},{"correct_response":"a","task":"test_phase","broad_category":"S","image_png":"S_Sandstone_03.png","image_id":451,"category_name":"Sandstone","category":29,"distinct_rating":1.86,"distinct_type":"Bottom","item_type":"Foil","rt":957,"stimulus":"Stimuli_Rocks480/S_Sandstone_03.png","response":"l","trial_type":"image-keyboard-response","trial_index":117,"plugin_version":"2.1.0","time_elapsed":335524,"subject_id":"92031","group":"Group2","condition":"1_Rep","full_date":"2026-02-03T20:34:12.002Z","date":"2026-02-03","time":"20:34:12","cor_ans":false},{"trial_type":"html-keyboard-response","rt":null,"stimulus":"<p style=\"color: red; font-size: 50px; font-weight: bold;\">Incorrect</p>","response":null,"trial_index":118,"plugin_version":"2.1.0","time_elapsed":336026,"subject_id":"92031","group":"Group2","condition":"1_Rep","full_date":"2026-02-03T20:34:12.002Z","date":"2026-02-03","time":"20:34:12"},{"correct_response":"l","task":"test_phase","broad_category":"I","image_png":"I_Peridotite_13.png","image_id":125,"category_name":"Peridotite","category":8,"distinct_rating":7.28,"distinct_type":"Top","item_type":"Target","rt":1032,"stimulus":"Stimuli_Rocks480/I_Peridotite_13.png","response":"a","trial_type":"image-keyboard-response","trial_index":119,"plugin_version":"2.1.0","time_elapsed":337061,"subject_id":"92031","group":"Group2","condition":"1_Rep","full_date":"2026-02-03T20:34:12.002Z","date":"2026-02-03","time":"20:34:12","cor_ans":false},{"trial_type":"html-keyboard-response","rt":null,"stimulus":"<p style=\"color: red; font-size: 50px; font-weight: bold;\">Incorrect</p>","response":null,"trial_index":120,"plugin_version":"2.1.0","time_elapsed":337562,"subject_id":"92031","group":"Group2","condition":"1_Rep","full_date":"2026-02-03T20:34:12.002Z","date":"2026-02-03","time":"20:34:12"},{"correct_response":"l","task":"test_phase","broad_category":"I","image_png":"I_Gabbro_12.png","image_id":60,"category_name":"Gabbro","category":4,"distinct_rating":2.6,"distinct_type":"Bottom","item_type":"Target","rt":1046,"stimulus":"Stimuli_Rocks480/I_Gabbro_12.png","response":"l","trial_type":"image-keyboard-response","trial_index":121,"plugin_version":"2.1.0","time_elapsed":338610,"subject_id":"92031","group":"Group2","condition":"1_Rep","full_date":"2026-02-03T20:34:12.002Z","date":"2026-02-03","time":"20:34:12","cor_ans":true},{"trial_type":"html-keyboard-response","rt":null,"stimulus":"<p style=\"color: green; font-size: 50px; font-weight: bold;\">Correct</p>","response":null,"trial_index":122,"plugin_version":"2.1.0","time_elapsed":339111,"subject_id":"92031","group":"Group2","condition":"1_Rep","full_date":"2026-02-03T20:34:12.002Z","date":"2026-02-03","time":"20:34:12"},{"correct_response":"a","task":"test_phase","broad_category":"M","image_png":"M_Gneiss_13.png","image_id":205,"category_name":"Gneiss","category":13,"distinct_rating":3.26,"distinct_type":"Bottom","item_type":"Foil","rt":629,"stimulus":"Stimuli_Rocks480/M_Gneiss_13.png","response":"l","trial_type":"image-keyboard-response","trial_index":123,"plugin_version":"2.1.0","time_elapsed":339742,"subject_id":"92031","group":"Group2","condition":"1_Rep","full_date":"2026-02-03T20:34:12.002Z","date":"2026-02-03","time":"20:34:12","cor_ans":false},{"trial_type":"html-keyboard-response","rt":null,"stimulus":"<p style=\"color: red; font-size: 50px; font-weight: bold;\">Incorrect</p>","response":null,"trial_index":124,"plugin_version":"2.1.0","time_elapsed":340243,"subject_id":"92031","group":"Group2","condition":"1_Rep","full_date":"2026-02-03T20:34:12.002Z","date":"2026-02-03","time":"20:34:12"},{"correct_response":"a","task":"test_phase","broad_category":"M","image_png":"M_Quartzite_08.png","image_id":280,"category_name":"Quartzite","category":18,"distinct_rating":2.15,"distinct_type":"Bottom","item_type":"Foil","rt":753,"stimulus":"Stimuli_Rocks480/M_Quartzite_08.png","response":"a","trial_type":"image-keyboard-response","trial_index":125,"plugin_version":"2.1.0","time_elapsed":340998,"subject_id":"92031","group":"Group2","condition":"1_Rep","full_date":"2026-02-03T20:34:12.002Z","date":"2026-02-03","time":"20:34:12","cor_ans":true},{"trial_type":"html-keyboard-response","rt":null,"stimulus":"<p style=\"color: green; font-size: 50px; font-weight: bold;\">Correct</p>","response":null,"trial_index":126,"plugin_version":"2.1.0","time_elapsed":341499,"subject_id":"92031","group":"Group2","condition":"1_Rep","full_date":"2026-02-03T20:34:12.002Z","date":"2026-02-03","time":"20:34:12"},{"correct_response":"l","task":"test_phase","broad_category":"I","image_png":"I_Gabbro_14.png","image_id":62,"category_name":"Gabbro","category":4,"distinct_rating":2.95,"distinct_type":"Bottom","item_type":"Target","rt":824,"stimulus":"Stimuli_Rocks480/I_Gabbro_14.png","response":"a","trial_type":"image-keyboard-response","trial_index":127,"plugin_version":"2.1.0","time_elapsed":342324,"subject_id":"92031","group":"Group2","condition":"1_Rep","full_date":"2026-02-03T20:34:12.002Z","date":"2026-02-03","time":"20:34:12","cor_ans":false},{"trial_type":"html-keyboard-response","rt":null,"stimulus":"<p style=\"color: red; font-size: 50px; font-weight: bold;\">Incorrect</p>","response":null,"trial_index":128,"plugin_version":"2.1.0","time_elapsed":342826,"subject_id":"92031","group":"Group2","condition":"1_Rep","full_date":"2026-02-03T20:34:12.002Z","date":"2026-02-03","time":"20:34:12"},{"correct_response":"a","task":"test_phase","broad_category":"I","image_png":"I_Diorite_05.png","image_id":37,"category_name":"Diorite","category":3,"distinct_rating":3.08,"distinct_type":"Bottom","item_type":"Foil","rt":649,"stimulus":"Stimuli_Rocks480/I_Diorite_05.png","response":"a","trial_type":"image-keyboard-response","trial_index":129,"plugin_version":"2.1.0","time_elapsed":343477,"subject_id":"92031","group":"Group2","condition":"1_Rep","full_date":"2026-02-03T20:34:12.002Z","date":"2026-02-03","time":"20:34:12","cor_ans":true},{"trial_type":"html-keyboard-response","rt":null,"stimulus":"<p style=\"color: green; font-size: 50px; font-weight: bold;\">Correct</p>","response":null,"trial_index":130,"plugin_version":"2.1.0","time_elapsed":343979,"subject_id":"92031","group":"Group2","condition":"1_Rep","full_date":"2026-02-03T20:34:12.002Z","date":"2026-02-03","time":"20:34:12"},{"correct_response":"a","task":"test_phase","broad_category":"S","image_png":"S_Rock Salt_01.png","image_id":433,"category_name":"Rock Salt","category":28,"distinct_rating":7.18,"distinct_type":"Top","item_type":"Foil","rt":1005,"stimulus":"Stimuli_Rocks480/S_Rock Salt_01.png","response":"a","trial_type":"image-keyboard-response","trial_index":131,"plugin_version":"2.1.0","time_elapsed":344985,"subject_id":"92031","group":"Group2","condition":"1_Rep","full_date":"2026-02-03T20:34:12.002Z","date":"2026-02-03","time":"20:34:12","cor_ans":true},{"trial_type":"html-keyboard-response","rt":null,"stimulus":"<p style=\"color: green; font-size: 50px; font-weight: bold;\">Correct</p>","response":null,"trial_index":132,"plugin_version":"2.1.0","time_elapsed":345487,"subject_id":"92031","group":"Group2","condition":"1_Rep","full_date":"2026-02-03T20:34:12.002Z","date":"2026-02-03","time":"20:34:12"},{"correct_response":"l","task":"test_phase","broad_category":"S","image_png":"S_Rock Salt_13.png","image_id":445,"category_name":"Rock Salt","category":28,"distinct_rating":7.58,"distinct_type":"Top","item_type":"Target","rt":683,"stimulus":"Stimuli_Rocks480/S_Rock Salt_13.png","response":"l","trial_type":"image-keyboard-response","trial_index":133,"plugin_version":"2.1.0","time_elapsed":346172,"subject_id":"92031","group":"Group2","condition":"1_Rep","full_date":"2026-02-03T20:34:12.002Z","date":"2026-02-03","time":"20:34:12","cor_ans":true},{"trial_type":"html-keyboard-response","rt":null,"stimulus":"<p style=\"color: green; font-size: 50px; font-weight: bold;\">Correct</p>","response":null,"trial_index":134,"plugin_version":"2.1.0","time_elapsed":346674,"subject_id":"92031","group":"Group2","condition":"1_Rep","full_date":"2026-02-03T20:34:12.002Z","date":"2026-02-03","time":"20:34:12"},{"correct_response":"a","task":"test_phase","broad_category":"M","image_png":"M_Marble_06.png","image_id":230,"category_name":"Marble","category":15,"distinct_rating":3.4,"distinct_type":"Bottom","item_type":"Foil","rt":837,"stimulus":"Stimuli_Rocks480/M_Marble_06.png","response":"a","trial_type":"image-keyboard-response","trial_index":135,"plugin_version":"2.1.0","time_elapsed":347513,"subject_id":"92031","group":"Group2","condition":"1_Rep","full_date":"2026-02-03T20:34:12.002Z","date":"2026-02-03","time":"20:34:12","cor_ans":true},{"trial_type":"html-keyboard-response","rt":null,"stimulus":"<p style=\"color: green; font-size: 50px; font-weight: bold;\">Correct</p>","response":null,"trial_index":136,"plugin_version":"2.1.0","time_elapsed":348014,"subject_id":"92031","group":"Group2","condition":"1_Rep","full_date":"2026-02-03T20:34:12.002Z","date":"2026-02-03","time":"20:34:12"},{"correct_response":"l","task":"test_phase","broad_category":"I","image_png":"I_Pumice_13.png","image_id":141,"category_name":"Pumice","category":9,"distinct_rating":3.12,"distinct_type":"Bottom","item_type":"Target","rt":898,"stimulus":"Stimuli_Rocks480/I_Pumice_13.png","response":"l","trial_type":"image-keyboard-response","trial_index":137,"plugin_version":"2.1.0","time_elapsed":348914,"subject_id":"92031","group":"Group2","condition":"1_Rep","full_date":"2026-02-03T20:34:12.002Z","date":"2026-02-03","time":"20:34:12","cor_ans":true},{"trial_type":"html-keyboard-response","rt":null,"stimulus":"<p style=\"color: green; font-size: 50px; font-weight: bold;\">Correct</p>","response":null,"trial_index":138,"plugin_version":"2.1.0","time_elapsed":349416,"subject_id":"92031","group":"Group2","condition":"1_Rep","full_date":"2026-02-03T20:34:12.002Z","date":"2026-02-03","time":"20:34:12"},{"correct_response":"l","task":"test_phase","broad_category":"M","image_png":"M_Gneiss_15.png","image_id":207,"category_name":"Gneiss","category":13,"distinct_rating":3.11,"distinct_type":"Bottom","item_type":"Target","rt":1770,"stimulus":"Stimuli_Rocks480/M_Gneiss_15.png","response":"l","trial_type":"image-keyboard-response","trial_index":139,"plugin_version":"2.1.0","time_elapsed":351188,"subject_id":"92031","group":"Group2","condition":"1_Rep","full_date":"2026-02-03T20:34:12.002Z","date":"2026-02-03","time":"20:34:12","cor_ans":true},{"trial_type":"html-keyboard-response","rt":null,"stimulus":"<p style=\"color: green; font-size: 50px; font-weight: bold;\">Correct</p>","response":null,"trial_index":140,"plugin_version":"2.1.0","time_elapsed":351690,"subject_id":"92031","group":"Group2","condition":"1_Rep","full_date":"2026-02-03T20:34:12.002Z","date":"2026-02-03","time":"20:34:12"},{"correct_response":"l","task":"test_phase","broad_category":"S","image_png":"S_Conglomerate_14.png","image_id":382,"category_name":"Conglomerate","category":24,"distinct_rating":6.86,"distinct_type":"Top","item_type":"Target","rt":910,"stimulus":"Stimuli_Rocks480/S_Conglomerate_14.png","response":"l","trial_type":"image-keyboard-response","trial_index":141,"plugin_version":"2.1.0","time_elapsed":352602,"subject_id":"92031","group":"Group2","condition":"1_Rep","full_date":"2026-02-03T20:34:12.002Z","date":"2026-02-03","time":"20:34:12","cor_ans":true},{"trial_type":"html-keyboard-response","rt":null,"stimulus":"<p style=\"color: green; font-size: 50px; font-weight: bold;\">Correct</p>","response":null,"trial_index":142,"plugin_version":"2.1.0","time_elapsed":353103,"subject_id":"92031","group":"Group2","condition":"1_Rep","full_date":"2026-02-03T20:34:12.002Z","date":"2026-02-03","time":"20:34:12"},{"correct_response":"a","task":"test_phase","broad_category":"I","image_png":"I_Diorite_03.png","image_id":35,"category_name":"Diorite","category":3,"distinct_rating":3.14,"distinct_type":"Bottom","item_type":"Foil","rt":741,"stimulus":"Stimuli_Rocks480/I_Diorite_03.png","response":"l","trial_type":"image-keyboard-response","trial_index":143,"plugin_version":"2.1.0","time_elapsed":353846,"subject_id":"92031","group":"Group2","condition":"1_Rep","full_date":"2026-02-03T20:34:12.002Z","date":"2026-02-03","time":"20:34:12","cor_ans":false},{"trial_type":"html-keyboard-response","rt":null,"stimulus":"<p style=\"color: red; font-size: 50px; font-weight: bold;\">Incorrect</p>","response":null,"trial_index":144,"plugin_version":"2.1.0","time_elapsed":354348,"subject_id":"92031","group":"Group2","condition":"1_Rep","full_date":"2026-02-03T20:34:12.002Z","date":"2026-02-03","time":"20:34:12"},{"correct_response":"l","task":"test_phase","broad_category":"S","image_png":"S_Sandstone_04.png","image_id":452,"category_name":"Sandstone","category":29,"distinct_rating":1.8,"distinct_type":"Bottom","item_type":"Target","rt":683,"stimulus":"Stimuli_Rocks480/S_Sandstone_04.png","response":"l","trial_type":"image-keyboard-response","trial_index":145,"plugin_version":"2.1.0","time_elapsed":355032,"subject_id":"92031","group":"Group2","condition":"1_Rep","full_date":"2026-02-03T20:34:12.002Z","date":"2026-02-03","time":"20:34:12","cor_ans":true},{"trial_type":"html-keyboard-response","rt":null,"stimulus":"<p style=\"color: green; font-size: 50px; font-weight: bold;\">Correct</p>","response":null,"trial_index":146,"plugin_version":"2.1.0","time_elapsed":355533,"subject_id":"92031","group":"Group2","condition":"1_Rep","full_date":"2026-02-03T20:34:12.002Z","date":"2026-02-03","time":"20:34:12"},{"correct_response":"l","task":"test_phase","broad_category":"M","image_png":"M_Slate_14.png","image_id":318,"category_name":"Slate","category":20,"distinct_rating":2.58,"distinct_type":"Bottom","item_type":"Target","rt":600,"stimulus":"Stimuli_Rocks480/M_Slate_14.png","response":"l","trial_type":"image-keyboard-response","trial_index":147,"plugin_version":"2.1.0","time_elapsed":356135,"subject_id":"92031","group":"Group2","condition":"1_Rep","full_date":"2026-02-03T20:34:12.002Z","date":"2026-02-03","time":"20:34:12","cor_ans":true},{"trial_type":"html-keyboard-response","rt":null,"stimulus":"<p style=\"color: green; font-size: 50px; font-weight: bold;\">Correct</p>","response":null,"trial_index":148,"plugin_version":"2.1.0","time_elapsed":356637,"subject_id":"92031","group":"Group2","condition":"1_Rep","full_date":"2026-02-03T20:34:12.002Z","date":"2026-02-03","time":"20:34:12"},{"correct_response":"a","task":"test_phase","broad_category":"M","image_png":"M_Slate_15.png","image_id":319,"category_name":"Slate","category":20,"distinct_rating":2.13,"distinct_type":"Bottom","item_type":"Foil","rt":1039,"stimulus":"Stimuli_Rocks480/M_Slate_15.png","response":"l","trial_type":"image-keyboard-response","trial_index":149,"plugin_version":"2.1.0","time_elapsed":357678,"subject_id":"92031","group":"Group2","condition":"1_Rep","full_date":"2026-02-03T20:34:12.002Z","date":"2026-02-03","time":"20:34:12","cor_ans":false},{"trial_type":"html-keyboard-response","rt":null,"stimulus":"<p style=\"color: red; font-size: 50px; font-weight: bold;\">Incorrect</p>","response":null,"trial_index":150,"plugin_version":"2.1.0","time_elapsed":358180,"subject_id":"92031","group":"Group2","condition":"1_Rep","full_date":"2026-02-03T20:34:12.002Z","date":"2026-02-03","time":"20:34:12"},{"correct_response":"a","task":"test_phase","broad_category":"I","image_png":"I_Gabbro_11.png","image_id":59,"category_name":"Gabbro","category":4,"distinct_rating":1.99,"distinct_type":"Bottom","item_type":"Foil","rt":687,"stimulus":"Stimuli_Rocks480/I_Gabbro_11.png","response":"l","trial_type":"image-keyboard-response","trial_index":151,"plugin_version":"2.1.0","time_elapsed":358868,"subject_id":"92031","group":"Group2","condition":"1_Rep","full_date":"2026-02-03T20:34:12.002Z","date":"2026-02-03","time":"20:34:12","cor_ans":false},{"trial_type":"html-keyboard-response","rt":null,"stimulus":"<p style=\"color: red; font-size: 50px; font-weight: bold;\">Incorrect</p>","response":null,"trial_index":152,"plugin_version":"2.1.0","time_elapsed":359370,"subject_id":"92031","group":"Group2","condition":"1_Rep","full_date":"2026-02-03T20:34:12.002Z","date":"2026-02-03","time":"20:34:12"},{"correct_response":"l","task":"test_phase","broad_category":"M","image_png":"M_Phyllite_05.png","image_id":261,"category_name":"Phyllite","category":17,"distinct_rating":2.14,"distinct_type":"Bottom","item_type":"Target","rt":1196,"stimulus":"Stimuli_Rocks480/M_Phyllite_05.png","response":"a","trial_type":"image-keyboard-response","trial_index":153,"plugin_version":"2.1.0","time_elapsed":360568,"subject_id":"92031","group":"Group2","condition":"1_Rep","full_date":"2026-02-03T20:34:12.002Z","date":"2026-02-03","time":"20:34:12","cor_ans":false},{"trial_type":"html-keyboard-response","rt":null,"stimulus":"<p style=\"color: red; font-size: 50px; font-weight: bold;\">Incorrect</p>","response":null,"trial_index":154,"plugin_version":"2.1.0","time_elapsed":361069,"subject_id":"92031","group":"Group2","condition":"1_Rep","full_date":"2026-02-03T20:34:12.002Z","date":"2026-02-03","time":"20:34:12"},{"correct_response":"a","task":"test_phase","broad_category":"I","image_png":"I_Rhyolite_16.png","image_id":160,"category_name":"Rhyolite","category":10,"distinct_rating":2.19,"distinct_type":"Bottom","item_type":"Foil","rt":904,"stimulus":"Stimuli_Rocks480/I_Rhyolite_16.png","response":"l","trial_type":"image-keyboard-response","trial_index":155,"plugin_version":"2.1.0","time_elapsed":361975,"subject_id":"92031","group":"Group2","condition":"1_Rep","full_date":"2026-02-03T20:34:12.002Z","date":"2026-02-03","time":"20:34:12","cor_ans":false},{"trial_type":"html-keyboard-response","rt":null,"stimulus":"<p style=\"color: red; font-size: 50px; font-weight: bold;\">Incorrect</p>","response":null,"trial_index":156,"plugin_version":"2.1.0","time_elapsed":362476,"subject_id":"92031","group":"Group2","condition":"1_Rep","full_date":"2026-02-03T20:34:12.002Z","date":"2026-02-03","time":"20:34:12"},{"correct_response":"l","task":"test_phase","broad_category":"I","image_png":"I_Basalt_10.png","image_id":26,"category_name":"Basalt","category":2,"distinct_rating":2.76,"distinct_type":"Bottom","item_type":"Target","rt":850,"stimulus":"Stimuli_Rocks480/I_Basalt_10.png","response":"l","trial_type":"image-keyboard-response","trial_index":157,"plugin_version":"2.1.0","time_elapsed":363328,"subject_id":"92031","group":"Group2","condition":"1_Rep","full_date":"2026-02-03T20:34:12.002Z","date":"2026-02-03","time":"20:34:12","cor_ans":true},{"trial_type":"html-keyboard-response","rt":null,"stimulus":"<p style=\"color: green; font-size: 50px; font-weight: bold;\">Correct</p>","response":null,"trial_index":158,"plugin_version":"2.1.0","time_elapsed":363829,"subject_id":"92031","group":"Group2","condition":"1_Rep","full_date":"2026-02-03T20:34:12.002Z","date":"2026-02-03","time":"20:34:12"},{"correct_response":"l","task":"test_phase","broad_category":"I","image_png":"I_Andesite_09.png","image_id":9,"category_name":"Andesite","category":1,"distinct_rating":2.49,"distinct_type":"Bottom","item_type":"Target","rt":756,"stimulus":"Stimuli_Rocks480/I_Andesite_09.png","response":"a","trial_type":"image-keyboard-response","trial_index":159,"plugin_version":"2.1.0","time_elapsed":364587,"subject_id":"92031","group":"Group2","condition":"1_Rep","full_date":"2026-02-03T20:34:12.002Z","date":"2026-02-03","time":"20:34:12","cor_ans":false},{"trial_type":"html-keyboard-response","rt":null,"stimulus":"<p style=\"color: red; font-size: 50px; font-weight: bold;\">Incorrect</p>","response":null,"trial_index":160,"plugin_version":"2.1.0","time_elapsed":365088,"subject_id":"92031","group":"Group2","condition":"1_Rep","full_date":"2026-02-03T20:34:12.002Z","date":"2026-02-03","time":"20:34:12"},{"correct_response":"a","task":"test_phase","broad_category":"S","image_png":"S_Shale_01.png","image_id":465,"category_name":"Shale","category":30,"distinct_rating":2.7,"distinct_type":"Bottom","item_type":"Foil","rt":735,"stimulus":"Stimuli_Rocks480/S_Shale_01.png","response":"a","trial_type":"image-keyboard-response","trial_index":161,"plugin_version":"2.1.0","time_elapsed":365825,"subject_id":"92031","group":"Group2","condition":"1_Rep","full_date":"2026-02-03T20:34:12.002Z","date":"2026-02-03","time":"20:34:12","cor_ans":true},{"trial_type":"html-keyboard-response","rt":null,"stimulus":"<p style=\"color: green; font-size: 50px; font-weight: bold;\">Correct</p>","response":null,"trial_index":162,"plugin_version":"2.1.0","time_elapsed":366327,"subject_id":"92031","group":"Group2","condition":"1_Rep","full_date":"2026-02-03T20:34:12.002Z","date":"2026-02-03","time":"20:34:12"},{"correct_response":"l","task":"test_phase","broad_category":"I","image_png":"I_Rhyolite_10.png","image_id":154,"category_name":"Rhyolite","category":10,"distinct_rating":2.88,"distinct_type":"Bottom","item_type":"Target","rt":745,"stimulus":"Stimuli_Rocks480/I_Rhyolite_10.png","response":"l","trial_type":"image-keyboard-response","trial_index":163,"plugin_version":"2.1.0","time_elapsed":367074,"subject_id":"92031","group":"Group2","condition":"1_Rep","full_date":"2026-02-03T20:34:12.002Z","date":"2026-02-03","time":"20:34:12","cor_ans":true},{"trial_type":"html-keyboard-response","rt":null,"stimulus":"<p style=\"color: green; font-size: 50px; font-weight: bold;\">Correct</p>","response":null,"trial_index":164,"plugin_version":"2.1.0","time_elapsed":367575,"subject_id":"92031","group":"Group2","condition":"1_Rep","full_date":"2026-02-03T20:34:12.002Z","date":"2026-02-03","time":"20:34:12"},{"correct_response":"a","task":"test_phase","broad_category":"S","image_png":"S_Chert_10.png","image_id":362,"category_name":"Chert","category":23,"distinct_rating":7.17,"distinct_type":"Top","item_type":"Foil","rt":622,"stimulus":"Stimuli_Rocks480/S_Chert_10.png","response":"a","trial_type":"image-keyboard-response","trial_index":165,"plugin_version":"2.1.0","time_elapsed":368199,"subject_id":"92031","group":"Group2","condition":"1_Rep","full_date":"2026-02-03T20:34:12.002Z","date":"2026-02-03","time":"20:34:12","cor_ans":true},{"trial_type":"html-keyboard-response","rt":null,"stimulus":"<p style=\"color: green; font-size: 50px; font-weight: bold;\">Correct</p>","response":null,"trial_index":166,"plugin_version":"2.1.0","time_elapsed":368701,"subject_id":"92031","group":"Group2","condition":"1_Rep","full_date":"2026-02-03T20:34:12.002Z","date":"2026-02-03","time":"20:34:12"},{"correct_response":"l","task":"test_phase","broad_category":"I","image_png":"I_Pegmatite_11.png","image_id":107,"category_name":"Pegmatite","category":7,"distinct_rating":7.11,"distinct_type":"Top","item_type":"Target","rt":593,"stimulus":"Stimuli_Rocks480/I_Pegmatite_11.png","response":"l","trial_type":"image-keyboard-response","trial_index":167,"plugin_version":"2.1.0","time_elapsed":369297,"subject_id":"92031","group":"Group2","condition":"1_Rep","full_date":"2026-02-03T20:34:12.002Z","date":"2026-02-03","time":"20:34:12","cor_ans":true},{"trial_type":"html-keyboard-response","rt":null,"stimulus":"<p style=\"color: green; font-size: 50px; font-weight: bold;\">Correct</p>","response":null,"trial_index":168,"plugin_version":"2.1.0","time_elapsed":369799,"subject_id":"92031","group":"Group2","condition":"1_Rep","full_date":"2026-02-03T20:34:12.002Z","date":"2026-02-03","time":"20:34:12"},{"correct_response":"a","task":"test_phase","broad_category":"M","image_png":"M_Gneiss_05.png","image_id":197,"category_name":"Gneiss","category":13,"distinct_rating":2.97,"distinct_type":"Bottom","item_type":"Foil","rt":690,"stimulus":"Stimuli_Rocks480/M_Gneiss_05.png","response":"l","trial_type":"image-keyboard-response","trial_index":169,"plugin_version":"2.1.0","time_elapsed":370491,"subject_id":"92031","group":"Group2","condition":"1_Rep","full_date":"2026-02-03T20:34:12.002Z","date":"2026-02-03","time":"20:34:12","cor_ans":false},{"trial_type":"html-keyboard-response","rt":null,"stimulus":"<p style=\"color: red; font-size: 50px; font-weight: bold;\">Incorrect</p>","response":null,"trial_index":170,"plugin_version":"2.1.0","time_elapsed":370992,"subject_id":"92031","group":"Group2","condition":"1_Rep","full_date":"2026-02-03T20:34:12.002Z","date":"2026-02-03","time":"20:34:12"},{"correct_response":"a","task":"test_phase","broad_category":"M","image_png":"M_Quartzite_05.png","image_id":277,"category_name":"Quartzite","category":18,"distinct_rating":2.23,"distinct_type":"Bottom","item_type":"Foil","rt":764,"stimulus":"Stimuli_Rocks480/M_Quartzite_05.png","response":"a","trial_type":"image-keyboard-response","trial_index":171,"plugin_version":"2.1.0","time_elapsed":371758,"subject_id":"92031","group":"Group2","condition":"1_Rep","full_date":"2026-02-03T20:34:12.002Z","date":"2026-02-03","time":"20:34:12","cor_ans":true},{"trial_type":"html-keyboard-response","rt":null,"stimulus":"<p style=\"color: green; font-size: 50px; font-weight: bold;\">Correct</p>","response":null,"trial_index":172,"plugin_version":"2.1.0","time_elapsed":372259,"subject_id":"92031","group":"Group2","condition":"1_Rep","full_date":"2026-02-03T20:34:12.002Z","date":"2026-02-03","time":"20:34:12"},{"correct_response":"a","task":"test_phase","broad_category":"I","image_png":"I_Andesite_06.png","image_id":6,"category_name":"Andesite","category":1,"distinct_rating":3.17,"distinct_type":"Bottom","item_type":"Foil","rt":1067,"stimulus":"Stimuli_Rocks480/I_Andesite_06.png","response":"l","trial_type":"image-keyboard-response","trial_index":173,"plugin_version":"2.1.0","time_elapsed":373328,"subject_id":"92031","group":"Group2","condition":"1_Rep","full_date":"2026-02-03T20:34:12.002Z","date":"2026-02-03","time":"20:34:12","cor_ans":false},{"trial_type":"html-keyboard-response","rt":null,"stimulus":"<p style=\"color: red; font-size: 50px; font-weight: bold;\">Incorrect</p>","response":null,"trial_index":174,"plugin_version":"2.1.0","time_elapsed":373829,"subject_id":"92031","group":"Group2","condition":"1_Rep","full_date":"2026-02-03T20:34:12.002Z","date":"2026-02-03","time":"20:34:12"},{"correct_response":"l","task":"test_phase","broad_category":"M","image_png":"M_Slate_10.png","image_id":314,"category_name":"Slate","category":20,"distinct_rating":1.94,"distinct_type":"Bottom","item_type":"Target","rt":829,"stimulus":"Stimuli_Rocks480/M_Slate_10.png","response":"a","trial_type":"image-keyboard-response","trial_index":175,"plugin_version":"2.1.0","time_elapsed":374659,"subject_id":"92031","group":"Group2","condition":"1_Rep","full_date":"2026-02-03T20:34:12.002Z","date":"2026-02-03","time":"20:34:12","cor_ans":false},{"trial_type":"html-keyboard-response","rt":null,"stimulus":"<p style=\"color: red; font-size: 50px; font-weight: bold;\">Incorrect</p>","response":null,"trial_index":176,"plugin_version":"2.1.0","time_elapsed":375161,"subject_id":"92031","group":"Group2","condition":"1_Rep","full_date":"2026-02-03T20:34:12.002Z","date":"2026-02-03","time":"20:34:12"},{"correct_response":"l","task":"test_phase","broad_category":"S","image_png":"S_Dolomite_07.png","image_id":391,"category_name":"Dolomite","category":25,"distinct_rating":1.73,"distinct_type":"Bottom","item_type":"Target","rt":1022,"stimulus":"Stimuli_Rocks480/S_Dolomite_07.png","response":"l","trial_type":"image-keyboard-response","trial_index":177,"plugin_version":"2.1.0","time_elapsed":376185,"subject_id":"92031","group":"Group2","condition":"1_Rep","full_date":"2026-02-03T20:34:12.002Z","date":"2026-02-03","time":"20:34:12","cor_ans":true},{"trial_type":"html-keyboard-response","rt":null,"stimulus":"<p style=\"color: green; font-size: 50px; font-weight: bold;\">Correct</p>","response":null,"trial_index":178,"plugin_version":"2.1.0","time_elapsed":376686,"subject_id":"92031","group":"Group2","condition":"1_Rep","full_date":"2026-02-03T20:34:12.002Z","date":"2026-02-03","time":"20:34:12"},{"correct_response":"l","task":"test_phase","broad_category":"I","image_png":"I_Rhyolite_05.png","image_id":149,"category_name":"Rhyolite","category":10,"distinct_rating":3.02,"distinct_type":"Bottom","item_type":"Target","rt":708,"stimulus":"Stimuli_Rocks480/I_Rhyolite_05.png","response":"l","trial_type":"image-keyboard-response","trial_index":179,"plugin_version":"2.1.0","time_elapsed":377396,"subject_id":"92031","group":"Group2","condition":"1_Rep","full_date":"2026-02-03T20:34:12.002Z","date":"2026-02-03","time":"20:34:12","cor_ans":true},{"trial_type":"html-keyboard-response","rt":null,"stimulus":"<p style=\"color: green; font-size: 50px; font-weight: bold;\">Correct</p>","response":null,"trial_index":180,"plugin_version":"2.1.0","time_elapsed":377897,"subject_id":"92031","group":"Group2","condition":"1_Rep","full_date":"2026-02-03T20:34:12.002Z","date":"2026-02-03","time":"20:34:12"},{"correct_response":"a","task":"test_phase","broad_category":"I","image_png":"I_Andesite_10.png","image_id":10,"category_name":"Andesite","category":1,"distinct_rating":3.15,"distinct_type":"Bottom","item_type":"Foil","rt":1349,"stimulus":"Stimuli_Rocks480/I_Andesite_10.png","response":"l","trial_type":"image-keyboard-response","trial_index":181,"plugin_version":"2.1.0","time_elapsed":379248,"subject_id":"92031","group":"Group2","condition":"1_Rep","full_date":"2026-02-03T20:34:12.002Z","date":"2026-02-03","time":"20:34:12","cor_ans":false},{"trial_type":"html-keyboard-response","rt":null,"stimulus":"<p style=\"color: red; font-size: 50px; font-weight: bold;\">Incorrect</p>","response":null,"trial_index":182,"plugin_version":"2.1.0","time_elapsed":379750,"subject_id":"92031","group":"Group2","condition":"1_Rep","full_date":"2026-02-03T20:34:12.002Z","date":"2026-02-03","time":"20:34:12"},{"correct_response":"a","task":"test_phase","broad_category":"M","image_png":"M_Marble_16.png","image_id":240,"category_name":"Marble","category":15,"distinct_rating":2.57,"distinct_type":"Bottom","item_type":"Foil","rt":534,"stimulus":"Stimuli_Rocks480/M_Marble_16.png","response":"l","trial_type":"image-keyboard-response","trial_index":183,"plugin_version":"2.1.0","time_elapsed":380286,"subject_id":"92031","group":"Group2","condition":"1_Rep","full_date":"2026-02-03T20:34:12.002Z","date":"2026-02-03","time":"20:34:12","cor_ans":false},{"trial_type":"html-keyboard-response","rt":null,"stimulus":"<p style=\"color: red; font-size: 50px; font-weight: bold;\">Incorrect</p>","response":null,"trial_index":184,"plugin_version":"2.1.0","time_elapsed":380788,"subject_id":"92031","group":"Group2","condition":"1_Rep","full_date":"2026-02-03T20:34:12.002Z","date":"2026-02-03","time":"20:34:12"},{"correct_response":"a","task":"test_phase","broad_category":"M","image_png":"M_Gneiss_06.png","image_id":198,"category_name":"Gneiss","category":13,"distinct_rating":2.65,"distinct_type":"Bottom","item_type":"Foil","rt":863,"stimulus":"Stimuli_Rocks480/M_Gneiss_06.png","response":"l","trial_type":"image-keyboard-response","trial_index":185,"plugin_version":"2.1.0","time_elapsed":381653,"subject_id":"92031","group":"Group2","condition":"1_Rep","full_date":"2026-02-03T20:34:12.002Z","date":"2026-02-03","time":"20:34:12","cor_ans":false},{"trial_type":"html-keyboard-response","rt":null,"stimulus":"<p style=\"color: red; font-size: 50px; font-weight: bold;\">Incorrect</p>","response":null,"trial_index":186,"plugin_version":"2.1.0","time_elapsed":382154,"subject_id":"92031","group":"Group2","condition":"1_Rep","full_date":"2026-02-03T20:34:12.002Z","date":"2026-02-03","time":"20:34:12"},{"correct_response":"a","task":"test_phase","broad_category":"I","image_png":"I_Basalt_02.png","image_id":18,"category_name":"Basalt","category":2,"distinct_rating":1.84,"distinct_type":"Bottom","item_type":"Foil","rt":565,"stimulus":"Stimuli_Rocks480/I_Basalt_02.png","response":"l","trial_type":"image-keyboard-response","trial_index":187,"plugin_version":"2.1.0","time_elapsed":382720,"subject_id":"92031","group":"Group2","condition":"1_Rep","full_date":"2026-02-03T20:34:12.002Z","date":"2026-02-03","time":"20:34:12","cor_ans":false},{"trial_type":"html-keyboard-response","rt":null,"stimulus":"<p style=\"color: red; font-size: 50px; font-weight: bold;\">Incorrect</p>","response":null,"trial_index":188,"plugin_version":"2.1.0","time_elapsed":383221,"subject_id":"92031","group":"Group2","condition":"1_Rep","full_date":"2026-02-03T20:34:12.002Z","date":"2026-02-03","time":"20:34:12"},{"correct_response":"a","task":"test_phase","broad_category":"I","image_png":"I_Andesite_08.png","image_id":8,"category_name":"Andesite","category":1,"distinct_rating":1.95,"distinct_type":"Bottom","item_type":"Foil","rt":605,"stimulus":"Stimuli_Rocks480/I_Andesite_08.png","response":"l","trial_type":"image-keyboard-response","trial_index":189,"plugin_version":"2.1.0","time_elapsed":383828,"subject_id":"92031","group":"Group2","condition":"1_Rep","full_date":"2026-02-03T20:34:12.002Z","date":"2026-02-03","time":"20:34:12","cor_ans":false},{"trial_type":"html-keyboard-response","rt":null,"stimulus":"<p style=\"color: red; font-size: 50px; font-weight: bold;\">Incorrect</p>","response":null,"trial_index":190,"plugin_version":"2.1.0","time_elapsed":384329,"subject_id":"92031","group":"Group2","condition":"1_Rep","full_date":"2026-02-03T20:34:12.002Z","date":"2026-02-03","time":"20:34:12"},{"correct_response":"l","task":"test_phase","broad_category":"S","image_png":"S_Dolomite_16.png","image_id":400,"category_name":"Dolomite","category":25,"distinct_rating":1.71,"distinct_type":"Bottom","item_type":"Target","rt":870,"stimulus":"Stimuli_Rocks480/S_Dolomite_16.png","response":"a","trial_type":"image-keyboard-response","trial_index":191,"plugin_version":"2.1.0","time_elapsed":385201,"subject_id":"92031","group":"Group2","condition":"1_Rep","full_date":"2026-02-03T20:34:12.002Z","date":"2026-02-03","time":"20:34:12","cor_ans":false},{"trial_type":"html-keyboard-response","rt":null,"stimulus":"<p style=\"color: red; font-size: 50px; font-weight: bold;\">Incorrect</p>","response":null,"trial_index":192,"plugin_version":"2.1.0","time_elapsed":385702,"subject_id":"92031","group":"Group2","condition":"1_Rep","full_date":"2026-02-03T20:34:12.002Z","date":"2026-02-03","time":"20:34:12"},{"correct_response":"a","task":"test_phase","broad_category":"S","image_png":"S_Breccia_11.png","image_id":347,"category_name":"Breccia","category":22,"distinct_rating":6.7,"distinct_type":"Top","item_type":"Foil","rt":558,"stimulus":"Stimuli_Rocks480/S_Breccia_11.png","response":"l","trial_type":"image-keyboard-response","trial_index":193,"plugin_version":"2.1.0","time_elapsed":386261,"subject_id":"92031","group":"Group2","condition":"1_Rep","full_date":"2026-02-03T20:34:12.002Z","date":"2026-02-03","time":"20:34:12","cor_ans":false},{"trial_type":"html-keyboard-response","rt":null,"stimulus":"<p style=\"color: red; font-size: 50px; font-weight: bold;\">Incorrect</p>","response":null,"trial_index":194,"plugin_version":"2.1.0","time_elapsed":386763,"subject_id":"92031","group":"Group2","condition":"1_Rep","full_date":"2026-02-03T20:34:12.002Z","date":"2026-02-03","time":"20:34:12"},{"correct_response":"a","task":"test_phase","broad_category":"M","image_png":"M_Phyllite_07.png","image_id":263,"category_name":"Phyllite","category":17,"distinct_rating":2.59,"distinct_type":"Bottom","item_type":"Foil","rt":1361,"stimulus":"Stimuli_Rocks480/M_Phyllite_07.png","response":"l","trial_type":"image-keyboard-response","trial_index":195,"plugin_version":"2.1.0","time_elapsed":388125,"subject_id":"92031","group":"Group2","condition":"1_Rep","full_date":"2026-02-03T20:34:12.002Z","date":"2026-02-03","time":"20:34:12","cor_ans":false},{"trial_type":"html-keyboard-response","rt":null,"stimulus":"<p style=\"color: red; font-size: 50px; font-weight: bold;\">Incorrect</p>","response":null,"trial_index":196,"plugin_version":"2.1.0","time_elapsed":388627,"subject_id":"92031","group":"Group2","condition":"1_Rep","full_date":"2026-02-03T20:34:12.002Z","date":"2026-02-03","time":"20:34:12"},{"correct_response":"l","task":"test_phase","broad_category":"I","image_png":"I_Diorite_15.png","image_id":47,"category_name":"Diorite","category":3,"distinct_rating":3.05,"distinct_type":"Bottom","item_type":"Target","rt":887,"stimulus":"Stimuli_Rocks480/I_Diorite_15.png","response":"a","trial_type":"image-keyboard-response","trial_index":197,"plugin_version":"2.1.0","time_elapsed":389516,"subject_id":"92031","group":"Group2","condition":"1_Rep","full_date":"2026-02-03T20:34:12.002Z","date":"2026-02-03","time":"20:34:12","cor_ans":false},{"trial_type":"html-keyboard-response","rt":null,"stimulus":"<p style=\"color: red; font-size: 50px; font-weight: bold;\">Incorrect</p>","response":null,"trial_index":198,"plugin_version":"2.1.0","time_elapsed":390017,"subject_id":"92031","group":"Group2","condition":"1_Rep","full_date":"2026-02-03T20:34:12.002Z","date":"2026-02-03","time":"20:34:12"},{"correct_response":"a","task":"test_phase","broad_category":"S","image_png":"S_Sandstone_15.png","image_id":463,"category_name":"Sandstone","category":29,"distinct_rating":2,"distinct_type":"Bottom","item_type":"Foil","rt":774,"stimulus":"Stimuli_Rocks480/S_Sandstone_15.png","response":"a","trial_type":"image-keyboard-response","trial_index":199,"plugin_version":"2.1.0","time_elapsed":390793,"subject_id":"92031","group":"Group2","condition":"1_Rep","full_date":"2026-02-03T20:34:12.002Z","date":"2026-02-03","time":"20:34:12","cor_ans":true},{"trial_type":"html-keyboard-response","rt":null,"stimulus":"<p style=\"color: green; font-size: 50px; font-weight: bold;\">Correct</p>","response":null,"trial_index":200,"plugin_version":"2.1.0","time_elapsed":391294,"subject_id":"92031","group":"Group2","condition":"1_Rep","full_date":"2026-02-03T20:34:12.002Z","date":"2026-02-03","time":"20:34:12"},{"correct_response":"a","task":"test_phase","broad_category":"I","image_png":"I_Basalt_01.png","image_id":17,"category_name":"Basalt","category":2,"distinct_rating":1.92,"distinct_type":"Bottom","item_type":"Foil","rt":690,"stimulus":"Stimuli_Rocks480/I_Basalt_01.png","response":"l","trial_type":"image-keyboard-response","trial_index":201,"plugin_version":"2.1.0","time_elapsed":391986,"subject_id":"92031","group":"Group2","condition":"1_Rep","full_date":"2026-02-03T20:34:12.002Z","date":"2026-02-03","time":"20:34:12","cor_ans":false},{"trial_type":"html-keyboard-response","rt":null,"stimulus":"<p style=\"color: red; font-size: 50px; font-weight: bold;\">Incorrect</p>","response":null,"trial_index":202,"plugin_version":"2.1.0","time_elapsed":392488,"subject_id":"92031","group":"Group2","condition":"1_Rep","full_date":"2026-02-03T20:34:12.002Z","date":"2026-02-03","time":"20:34:12"},{"correct_response":"l","task":"test_phase","broad_category":"M","image_png":"M_Phyllite_13.png","image_id":269,"category_name":"Phyllite","category":17,"distinct_rating":2.8,"distinct_type":"Bottom","item_type":"Target","rt":1147,"stimulus":"Stimuli_Rocks480/M_Phyllite_13.png","response":"l","trial_type":"image-keyboard-response","trial_index":203,"plugin_version":"2.1.0","time_elapsed":393637,"subject_id":"92031","group":"Group2","condition":"1_Rep","full_date":"2026-02-03T20:34:12.002Z","date":"2026-02-03","time":"20:34:12","cor_ans":true},{"trial_type":"html-keyboard-response","rt":null,"stimulus":"<p style=\"color: green; font-size: 50px; font-weight: bold;\">Correct</p>","response":null,"trial_index":204,"plugin_version":"2.1.0","time_elapsed":394138,"subject_id":"92031","group":"Group2","condition":"1_Rep","full_date":"2026-02-03T20:34:12.002Z","date":"2026-02-03","time":"20:34:12"},{"correct_response":"a","task":"test_phase","broad_category":"I","image_png":"I_Diorite_04.png","image_id":36,"category_name":"Diorite","category":3,"distinct_rating":2.98,"distinct_type":"Bottom","item_type":"Foil","rt":541,"stimulus":"Stimuli_Rocks480/I_Diorite_04.png","response":"l","trial_type":"image-keyboard-response","trial_index":205,"plugin_version":"2.1.0","time_elapsed":394681,"subject_id":"92031","group":"Group2","condition":"1_Rep","full_date":"2026-02-03T20:34:12.002Z","date":"2026-02-03","time":"20:34:12","cor_ans":false},{"trial_type":"html-keyboard-response","rt":null,"stimulus":"<p style=\"color: red; font-size: 50px; font-weight: bold;\">Incorrect</p>","response":null,"trial_index":206,"plugin_version":"2.1.0","time_elapsed":395183,"subject_id":"92031","group":"Group2","condition":"1_Rep","full_date":"2026-02-03T20:34:12.002Z","date":"2026-02-03","time":"20:34:12"},{"correct_response":"a","task":"test_phase","broad_category":"I","image_png":"I_Pumice_08.png","image_id":136,"category_name":"Pumice","category":9,"distinct_rating":3.1,"distinct_type":"Bottom","item_type":"Foil","rt":639,"stimulus":"Stimuli_Rocks480/I_Pumice_08.png","response":"a","trial_type":"image-keyboard-response","trial_index":207,"plugin_version":"2.1.0","time_elapsed":395823,"subject_id":"92031","group":"Group2","condition":"1_Rep","full_date":"2026-02-03T20:34:12.002Z","date":"2026-02-03","time":"20:34:12","cor_ans":true},{"trial_type":"html-keyboard-response","rt":null,"stimulus":"<p style=\"color: green; font-size: 50px; font-weight: bold;\">Correct</p>","response":null,"trial_index":208,"plugin_version":"2.1.0","time_elapsed":396324,"subject_id":"92031","group":"Group2","condition":"1_Rep","full_date":"2026-02-03T20:34:12.002Z","date":"2026-02-03","time":"20:34:12"},{"correct_response":"l","task":"test_phase","broad_category":"M","image_png":"M_Quartzite_12.png","image_id":284,"category_name":"Quartzite","category":18,"distinct_rating":1.92,"distinct_type":"Bottom","item_type":"Target","rt":526,"stimulus":"Stimuli_Rocks480/M_Quartzite_12.png","response":"a","trial_type":"image-keyboard-response","trial_index":209,"plugin_version":"2.1.0","time_elapsed":396852,"subject_id":"92031","group":"Group2","condition":"1_Rep","full_date":"2026-02-03T20:34:12.002Z","date":"2026-02-03","time":"20:34:12","cor_ans":false},{"trial_type":"html-keyboard-response","rt":null,"stimulus":"<p style=\"color: red; font-size: 50px; font-weight: bold;\">Incorrect</p>","response":null,"trial_index":210,"plugin_version":"2.1.0","time_elapsed":397353,"subject_id":"92031","group":"Group2","condition":"1_Rep","full_date":"2026-02-03T20:34:12.002Z","date":"2026-02-03","time":"20:34:12"},{"correct_response":"a","task":"test_phase","broad_category":"S","image_png":"S_Shale_08.png","image_id":472,"category_name":"Shale","category":30,"distinct_rating":2.55,"distinct_type":"Bottom","item_type":"Foil","rt":616,"stimulus":"Stimuli_Rocks480/S_Shale_08.png","response":"a","trial_type":"image-keyboard-response","trial_index":211,"plugin_version":"2.1.0","time_elapsed":397971,"subject_id":"92031","group":"Group2","condition":"1_Rep","full_date":"2026-02-03T20:34:12.002Z","date":"2026-02-03","time":"20:34:12","cor_ans":true},{"trial_type":"html-keyboard-response","rt":null,"stimulus":"<p style=\"color: green; font-size: 50px; font-weight: bold;\">Correct</p>","response":null,"trial_index":212,"plugin_version":"2.1.0","time_elapsed":398473,"subject_id":"92031","group":"Group2","condition":"1_Rep","full_date":"2026-02-03T20:34:12.002Z","date":"2026-02-03","time":"20:34:12"},{"correct_response":"l","task":"test_phase","broad_category":"M","image_png":"M_Quartzite_07.png","image_id":279,"category_name":"Quartzite","category":18,"distinct_rating":1.97,"distinct_type":"Bottom","item_type":"Target","rt":703,"stimulus":"Stimuli_Rocks480/M_Quartzite_07.png","response":"l","trial_type":"image-keyboard-response","trial_index":213,"plugin_version":"2.1.0","time_elapsed":399178,"subject_id":"92031","group":"Group2","condition":"1_Rep","full_date":"2026-02-03T20:34:12.002Z","date":"2026-02-03","time":"20:34:12","cor_ans":true},{"trial_type":"html-keyboard-response","rt":null,"stimulus":"<p style=\"color: green; font-size: 50px; font-weight: bold;\">Correct</p>","response":null,"trial_index":214,"plugin_version":"2.1.0","time_elapsed":399680,"subject_id":"92031","group":"Group2","condition":"1_Rep","full_date":"2026-02-03T20:34:12.002Z","date":"2026-02-03","time":"20:34:12"},{"correct_response":"a","task":"test_phase","broad_category":"I","image_png":"I_Basalt_09.png","image_id":25,"category_name":"Basalt","category":2,"distinct_rating":1.89,"distinct_type":"Bottom","item_type":"Foil","rt":563,"stimulus":"Stimuli_Rocks480/I_Basalt_09.png","response":"l","trial_type":"image-keyboard-response","trial_index":215,"plugin_version":"2.1.0","time_elapsed":400244,"subject_id":"92031","group":"Group2","condition":"1_Rep","full_date":"2026-02-03T20:34:12.002Z","date":"2026-02-03","time":"20:34:12","cor_ans":false},{"trial_type":"html-keyboard-response","rt":null,"stimulus":"<p style=\"color: red; font-size: 50px; font-weight: bold;\">Incorrect</p>","response":null,"trial_index":216,"plugin_version":"2.1.0","time_elapsed":400746,"subject_id":"92031","group":"Group2","condition":"1_Rep","full_date":"2026-02-03T20:34:12.002Z","date":"2026-02-03","time":"20:34:12"},{"correct_response":"l","task":"test_phase","broad_category":"I","image_png":"I_Basalt_08.png","image_id":24,"category_name":"Basalt","category":2,"distinct_rating":2.31,"distinct_type":"Bottom","item_type":"Target","rt":565,"stimulus":"Stimuli_Rocks480/I_Basalt_08.png","response":"l","trial_type":"image-keyboard-response","trial_index":217,"plugin_version":"2.1.0","time_elapsed":401313,"subject_id":"92031","group":"Group2","condition":"1_Rep","full_date":"2026-02-03T20:34:12.002Z","date":"2026-02-03","time":"20:34:12","cor_ans":true},{"trial_type":"html-keyboard-response","rt":null,"stimulus":"<p style=\"color: green; font-size: 50px; font-weight: bold;\">Correct</p>","response":null,"trial_index":218,"plugin_version":"2.1.0","time_elapsed":401815,"subject_id":"92031","group":"Group2","condition":"1_Rep","full_date":"2026-02-03T20:34:12.002Z","date":"2026-02-03","time":"20:34:12"},{"correct_response":"a","task":"test_phase","broad_category":"I","image_png":"I_Gabbro_08.png","image_id":56,"category_name":"Gabbro","category":4,"distinct_rating":3.02,"distinct_type":"Bottom","item_type":"Foil","rt":693,"stimulus":"Stimuli_Rocks480/I_Gabbro_08.png","response":"l","trial_type":"image-keyboard-response","trial_index":219,"plugin_version":"2.1.0","time_elapsed":402509,"subject_id":"92031","group":"Group2","condition":"1_Rep","full_date":"2026-02-03T20:34:12.002Z","date":"2026-02-03","time":"20:34:12","cor_ans":false},{"trial_type":"html-keyboard-response","rt":null,"stimulus":"<p style=\"color: red; font-size: 50px; font-weight: bold;\">Incorrect</p>","response":null,"trial_index":220,"plugin_version":"2.1.0","time_elapsed":403010,"subject_id":"92031","group":"Group2","condition":"1_Rep","full_date":"2026-02-03T20:34:12.002Z","date":"2026-02-03","time":"20:34:12"},{"correct_response":"a","task":"test_phase","broad_category":"M","image_png":"M_Slate_11.png","image_id":315,"category_name":"Slate","category":20,"distinct_rating":2.75,"distinct_type":"Bottom","item_type":"Foil","rt":4145,"stimulus":"Stimuli_Rocks480/M_Slate_11.png","response":"l","trial_type":"image-keyboard-response","trial_index":221,"plugin_version":"2.1.0","time_elapsed":407157,"subject_id":"92031","group":"Group2","condition":"1_Rep","full_date":"2026-02-03T20:34:12.002Z","date":"2026-02-03","time":"20:34:12","cor_ans":false},{"trial_type":"html-keyboard-response","rt":null,"stimulus":"<p style=\"color: red; font-size: 50px; font-weight: bold;\">Incorrect</p>","response":null,"trial_index":222,"plugin_version":"2.1.0","time_elapsed":407658,"subject_id":"92031","group":"Group2","condition":"1_Rep","full_date":"2026-02-03T20:34:12.002Z","date":"2026-02-03","time":"20:34:12"},{"correct_response":"l","task":"test_phase","broad_category":"M","image_png":"M_Marble_14.png","image_id":238,"category_name":"Marble","category":15,"distinct_rating":3.31,"distinct_type":"Bottom","item_type":"Target","rt":628,"stimulus":"Stimuli_Rocks480/M_Marble_14.png","response":"l","trial_type":"image-keyboard-response","trial_index":223,"plugin_version":"2.1.0","time_elapsed":408288,"subject_id":"92031","group":"Group2","condition":"1_Rep","full_date":"2026-02-03T20:34:12.002Z","date":"2026-02-03","time":"20:34:12","cor_ans":true},{"trial_type":"html-keyboard-response","rt":null,"stimulus":"<p style=\"color: green; font-size: 50px; font-weight: bold;\">Correct</p>","response":null,"trial_index":224,"plugin_version":"2.1.0","time_elapsed":408789,"subject_id":"92031","group":"Group2","condition":"1_Rep","full_date":"2026-02-03T20:34:12.002Z","date":"2026-02-03","time":"20:34:12"},{"correct_response":"a","task":"test_phase","broad_category":