[{"width":1470,"height":831,"webaudio":true,"browser":"chrome","browser_version":"144.0.0","mobile":false,"os":"Mac OS","fullscreen":true,"vsync_rate":60.69,"webcam":true,"microphone":true,"trial_type":"browser-check","trial_index":0,"plugin_version":"2.1.0","time_elapsed":1001,"subject_id":"92197","group":"Group2","condition":"3_Rep","full_date":"2026-02-03T20:31:57.605Z","date":"2026-02-03","time":"20:31:57"},{"success":true,"timeout":false,"failed_images":[],"failed_audio":[],"failed_video":[],"trial_type":"preload","trial_index":1,"plugin_version":"2.1.0","time_elapsed":6810,"subject_id":"92197","group":"Group2","condition":"3_Rep","full_date":"2026-02-03T20:31:57.605Z","date":"2026-02-03","time":"20:31:57"},{"rt":5259,"url":"SONA_consent_memorability.html","trial_type":"external-html","trial_index":2,"plugin_version":"2.1.0","time_elapsed":12118,"subject_id":"92197","group":"Group2","condition":"3_Rep","full_date":"2026-02-03T20:31:57.605Z","date":"2026-02-03","time":"20:31:57"},{"success":true,"rt":1566,"trial_type":"fullscreen","trial_index":3,"plugin_version":"2.1.0","time_elapsed":14688,"subject_id":"92197","group":"Group2","condition":"3_Rep","full_date":"2026-02-03T20:31:57.605Z","date":"2026-02-03","time":"20:31:57"},{"rt":13627,"stimulus":"<div style=\"max-width: 760px; margin: auto; font-size: 20px; line-height: 1.5;\">\n      <h1 style=\"text-align:center; font-size: 30px;\">Instructions</h1>\n      <p>\n        Welcome to the study on <b>visual memory</b>. This experiment consists of <b>two phases</b>: \n        a <b>study phase</b> and a <b>test phase</b>.\n      </p>\n      <p>\n        In the study phase, you will see a series of rock images along with their category labels.\n        The images will appear one at a time.\n        <b>Your task</b> is to learn the categories to which the rock images belong \n        and to remember each image as accurately as possible.\n      </p> \n      <p>\n        Note that we will repeat the study phase <b>3 times</b>, \n             so you will have multiple opportunities to see and remember each image.\n      </p>\n      <p>\n        After the study phase, <b>your memory will be tested</b>. \n        Additional instructions for the test phase will be provided at that time.\n      </p>\n      <p>\n        If your computer has multiple <b>language settings</b> (e.g., English and another language),\n        please make sure it is set to English before starting.\n      </p>\n      <p>\n        You can track your progress using the <b>completion bar</b> at the top of the screen. \n        Please note that the bar will refresh when the test phase begins \n        to give you an accurate sense of your progress in both phases.\n      </p> \n      <p>\n        Press the button below when you are ready to begin.\n      </p>\n    </div>","response":0,"trial_type":"html-button-response","trial_index":4,"plugin_version":"2.1.0","time_elapsed":28318,"subject_id":"92197","group":"Group2","condition":"3_Rep","full_date":"2026-02-03T20:31:57.605Z","date":"2026-02-03","time":"20:31:57"},{"rt":null,"stimulus":"<p style=\"font-size: 50px; margin: 0; text-align: center;\">+</p>","response":null,"trial_type":"html-keyboard-response","trial_index":5,"plugin_version":"2.1.0","time_elapsed":29322,"subject_id":"92197","group":"Group2","condition":"3_Rep","full_date":"2026-02-03T20:31:57.605Z","date":"2026-02-03","time":"20:31:57"},{"task":"memory_phase","broad_category":"M","image_png":"M_Quartzite_07.png","image_id":279,"category_name":"Quartzite","category":18,"distinct_rating":1.97,"distinct_type":"Bottom","rt":null,"stimulus":"Stimuli_Rocks480/M_Quartzite_07.png","response":null,"trial_type":"image-keyboard-response","trial_index":6,"plugin_version":"2.1.0","time_elapsed":31829,"subject_id":"92197","group":"Group2","condition":"3_Rep","full_date":"2026-02-03T20:31:57.605Z","date":"2026-02-03","time":"20:31:57"},{"rt":null,"stimulus":"<p style=\"font-size: 50px; margin: 0; text-align: center;\">+</p>","response":null,"trial_type":"html-keyboard-response","trial_index":7,"plugin_version":"2.1.0","time_elapsed":32831,"subject_id":"92197","group":"Group2","condition":"3_Rep","full_date":"2026-02-03T20:31:57.605Z","date":"2026-02-03","time":"20:31:57"},{"task":"memory_phase","broad_category":"M","image_png":"M_Quartzite_15.png","image_id":287,"category_name":"Quartzite","category":18,"distinct_rating":2.19,"distinct_type":"Bottom","rt":null,"stimulus":"Stimuli_Rocks480/M_Quartzite_15.png","response":null,"trial_type":"image-keyboard-response","trial_index":8,"plugin_version":"2.1.0","time_elapsed":35335,"subject_id":"92197","group":"Group2","condition":"3_Rep","full_date":"2026-02-03T20:31:57.605Z","date":"2026-02-03","time":"20:31:57"},{"rt":null,"stimulus":"<p style=\"font-size: 50px; margin: 0; text-align: center;\">+</p>","response":null,"trial_type":"html-keyboard-response","trial_index":9,"plugin_version":"2.1.0","time_elapsed":36339,"subject_id":"92197","group":"Group2","condition":"3_Rep","full_date":"2026-02-03T20:31:57.605Z","date":"2026-02-03","time":"20:31:57"},{"task":"memory_phase","broad_category":"I","image_png":"I_Diorite_15.png","image_id":47,"category_name":"Diorite","category":3,"distinct_rating":3.05,"distinct_type":"Bottom","rt":null,"stimulus":"Stimuli_Rocks480/I_Diorite_15.png","response":null,"trial_type":"image-keyboard-response","trial_index":10,"plugin_version":"2.1.0","time_elapsed":38842,"subject_id":"92197","group":"Group2","condition":"3_Rep","full_date":"2026-02-03T20:31:57.605Z","date":"2026-02-03","time":"20:31:57"},{"rt":null,"stimulus":"<p style=\"font-size: 50px; margin: 0; text-align: center;\">+</p>","response":null,"trial_type":"html-keyboard-response","trial_index":11,"plugin_version":"2.1.0","time_elapsed":39845,"subject_id":"92197","group":"Group2","condition":"3_Rep","full_date":"2026-02-03T20:31:57.605Z","date":"2026-02-03","time":"20:31:57"},{"task":"memory_phase","broad_category":"I","image_png":"I_Pumice_13.png","image_id":141,"category_name":"Pumice","category":9,"distinct_rating":3.12,"distinct_type":"Bottom","rt":null,"stimulus":"Stimuli_Rocks480/I_Pumice_13.png","response":null,"trial_type":"image-keyboard-response","trial_index":12,"plugin_version":"2.1.0","time_elapsed":42349,"subject_id":"92197","group":"Group2","condition":"3_Rep","full_date":"2026-02-03T20:31:57.605Z","date":"2026-02-03","time":"20:31:57"},{"rt":null,"stimulus":"<p style=\"font-size: 50px; margin: 0; text-align: center;\">+</p>","response":null,"trial_type":"html-keyboard-response","trial_index":13,"plugin_version":"2.1.0","time_elapsed":43352,"subject_id":"92197","group":"Group2","condition":"3_Rep","full_date":"2026-02-03T20:31:57.605Z","date":"2026-02-03","time":"20:31:57"},{"task":"memory_phase","broad_category":"S","image_png":"S_Shale_03.png","image_id":467,"category_name":"Shale","category":30,"distinct_rating":1.95,"distinct_type":"Bottom","rt":null,"stimulus":"Stimuli_Rocks480/S_Shale_03.png","response":null,"trial_type":"image-keyboard-response","trial_index":14,"plugin_version":"2.1.0","time_elapsed":45855,"subject_id":"92197","group":"Group2","condition":"3_Rep","full_date":"2026-02-03T20:31:57.605Z","date":"2026-02-03","time":"20:31:57"},{"rt":null,"stimulus":"<p style=\"font-size: 50px; margin: 0; text-align: center;\">+</p>","response":null,"trial_type":"html-keyboard-response","trial_index":15,"plugin_version":"2.1.0","time_elapsed":46858,"subject_id":"92197","group":"Group2","condition":"3_Rep","full_date":"2026-02-03T20:31:57.605Z","date":"2026-02-03","time":"20:31:57"},{"task":"memory_phase","broad_category":"I","image_png":"I_Peridotite_13.png","image_id":125,"category_name":"Peridotite","category":8,"distinct_rating":7.28,"distinct_type":"Top","rt":null,"stimulus":"Stimuli_Rocks480/I_Peridotite_13.png","response":null,"trial_type":"image-keyboard-response","trial_index":16,"plugin_version":"2.1.0","time_elapsed":49362,"subject_id":"92197","group":"Group2","condition":"3_Rep","full_date":"2026-02-03T20:31:57.605Z","date":"2026-02-03","time":"20:31:57"},{"rt":null,"stimulus":"<p style=\"font-size: 50px; margin: 0; text-align: center;\">+</p>","response":null,"trial_type":"html-keyboard-response","trial_index":17,"plugin_version":"2.1.0","time_elapsed":50365,"subject_id":"92197","group":"Group2","condition":"3_Rep","full_date":"2026-02-03T20:31:57.605Z","date":"2026-02-03","time":"20:31:57"},{"task":"memory_phase","broad_category":"I","image_png":"I_Basalt_10.png","image_id":26,"category_name":"Basalt","category":2,"distinct_rating":2.76,"distinct_type":"Bottom","rt":null,"stimulus":"Stimuli_Rocks480/I_Basalt_10.png","response":null,"trial_type":"image-keyboard-response","trial_index":18,"plugin_version":"2.1.0","time_elapsed":52869,"subject_id":"92197","group":"Group2","condition":"3_Rep","full_date":"2026-02-03T20:31:57.605Z","date":"2026-02-03","time":"20:31:57"},{"rt":null,"stimulus":"<p style=\"font-size: 50px; margin: 0; text-align: center;\">+</p>","response":null,"trial_type":"html-keyboard-response","trial_index":19,"plugin_version":"2.1.0","time_elapsed":53871,"subject_id":"92197","group":"Group2","condition":"3_Rep","full_date":"2026-02-03T20:31:57.605Z","date":"2026-02-03","time":"20:31:57"},{"task":"memory_phase","broad_category":"I","image_png":"I_Gabbro_02.png","image_id":50,"category_name":"Gabbro","category":4,"distinct_rating":2.73,"distinct_type":"Bottom","rt":null,"stimulus":"Stimuli_Rocks480/I_Gabbro_02.png","response":null,"trial_type":"image-keyboard-response","trial_index":20,"plugin_version":"2.1.0","time_elapsed":56375,"subject_id":"92197","group":"Group2","condition":"3_Rep","full_date":"2026-02-03T20:31:57.605Z","date":"2026-02-03","time":"20:31:57"},{"rt":null,"stimulus":"<p style=\"font-size: 50px; margin: 0; text-align: center;\">+</p>","response":null,"trial_type":"html-keyboard-response","trial_index":21,"plugin_version":"2.1.0","time_elapsed":57377,"subject_id":"92197","group":"Group2","condition":"3_Rep","full_date":"2026-02-03T20:31:57.605Z","date":"2026-02-03","time":"20:31:57"},{"task":"memory_phase","broad_category":"I","image_png":"I_Obsidian_06.png","image_id":86,"category_name":"Obsidian","category":6,"distinct_rating":8.01,"distinct_type":"Top","rt":null,"stimulus":"Stimuli_Rocks480/I_Obsidian_06.png","response":null,"trial_type":"image-keyboard-response","trial_index":22,"plugin_version":"2.1.0","time_elapsed":59881,"subject_id":"92197","group":"Group2","condition":"3_Rep","full_date":"2026-02-03T20:31:57.605Z","date":"2026-02-03","time":"20:31:57"},{"rt":null,"stimulus":"<p style=\"font-size: 50px; margin: 0; text-align: center;\">+</p>","response":null,"trial_type":"html-keyboard-response","trial_index":23,"plugin_version":"2.1.0","time_elapsed":60884,"subject_id":"92197","group":"Group2","condition":"3_Rep","full_date":"2026-02-03T20:31:57.605Z","date":"2026-02-03","time":"20:31:57"},{"task":"memory_phase","broad_category":"S","image_png":"S_Chert_13.png","image_id":365,"category_name":"Chert","category":23,"distinct_rating":6.57,"distinct_type":"Top","rt":null,"stimulus":"Stimuli_Rocks480/S_Chert_13.png","response":null,"trial_type":"image-keyboard-response","trial_index":24,"plugin_version":"2.1.0","time_elapsed":63387,"subject_id":"92197","group":"Group2","condition":"3_Rep","full_date":"2026-02-03T20:31:57.605Z","date":"2026-02-03","time":"20:31:57"},{"rt":null,"stimulus":"<p style=\"font-size: 50px; margin: 0; text-align: center;\">+</p>","response":null,"trial_type":"html-keyboard-response","trial_index":25,"plugin_version":"2.1.0","time_elapsed":64389,"subject_id":"92197","group":"Group2","condition":"3_Rep","full_date":"2026-02-03T20:31:57.605Z","date":"2026-02-03","time":"20:31:57"},{"task":"memory_phase","broad_category":"S","image_png":"S_Dolomite_16.png","image_id":400,"category_name":"Dolomite","category":25,"distinct_rating":1.71,"distinct_type":"Bottom","rt":null,"stimulus":"Stimuli_Rocks480/S_Dolomite_16.png","response":null,"trial_type":"image-keyboard-response","trial_index":26,"plugin_version":"2.1.0","time_elapsed":66893,"subject_id":"92197","group":"Group2","condition":"3_Rep","full_date":"2026-02-03T20:31:57.605Z","date":"2026-02-03","time":"20:31:57"},{"rt":null,"stimulus":"<p style=\"font-size: 50px; margin: 0; text-align: center;\">+</p>","response":null,"trial_type":"html-keyboard-response","trial_index":27,"plugin_version":"2.1.0","time_elapsed":67896,"subject_id":"92197","group":"Group2","condition":"3_Rep","full_date":"2026-02-03T20:31:57.605Z","date":"2026-02-03","time":"20:31:57"},{"task":"memory_phase","broad_category":"I","image_png":"I_Andesite_03.png","image_id":3,"category_name":"Andesite","category":1,"distinct_rating":3.17,"distinct_type":"Bottom","rt":null,"stimulus":"Stimuli_Rocks480/I_Andesite_03.png","response":null,"trial_type":"image-keyboard-response","trial_index":28,"plugin_version":"2.1.0","time_elapsed":70400,"subject_id":"92197","group":"Group2","condition":"3_Rep","full_date":"2026-02-03T20:31:57.605Z","date":"2026-02-03","time":"20:31:57"},{"rt":null,"stimulus":"<p style=\"font-size: 50px; margin: 0; text-align: center;\">+</p>","response":null,"trial_type":"html-keyboard-response","trial_index":29,"plugin_version":"2.1.0","time_elapsed":71402,"subject_id":"92197","group":"Group2","condition":"3_Rep","full_date":"2026-02-03T20:31:57.605Z","date":"2026-02-03","time":"20:31:57"},{"task":"memory_phase","broad_category":"S","image_png":"S_Sandstone_08.png","image_id":456,"category_name":"Sandstone","category":29,"distinct_rating":1.5,"distinct_type":"Bottom","rt":null,"stimulus":"Stimuli_Rocks480/S_Sandstone_08.png","response":null,"trial_type":"image-keyboard-response","trial_index":30,"plugin_version":"2.1.0","time_elapsed":73906,"subject_id":"92197","group":"Group2","condition":"3_Rep","full_date":"2026-02-03T20:31:57.605Z","date":"2026-02-03","time":"20:31:57"},{"rt":null,"stimulus":"<p style=\"font-size: 50px; margin: 0; text-align: center;\">+</p>","response":null,"trial_type":"html-keyboard-response","trial_index":31,"plugin_version":"2.1.0","time_elapsed":74909,"subject_id":"92197","group":"Group2","condition":"3_Rep","full_date":"2026-02-03T20:31:57.605Z","date":"2026-02-03","time":"20:31:57"},{"task":"memory_phase","broad_category":"I","image_png":"I_Rhyolite_10.png","image_id":154,"category_name":"Rhyolite","category":10,"distinct_rating":2.88,"distinct_type":"Bottom","rt":null,"stimulus":"Stimuli_Rocks480/I_Rhyolite_10.png","response":null,"trial_type":"image-keyboard-response","trial_index":32,"plugin_version":"2.1.0","time_elapsed":77412,"subject_id":"92197","group":"Group2","condition":"3_Rep","full_date":"2026-02-03T20:31:57.605Z","date":"2026-02-03","time":"20:31:57"},{"rt":null,"stimulus":"<p style=\"font-size: 50px; margin: 0; text-align: center;\">+</p>","response":null,"trial_type":"html-keyboard-response","trial_index":33,"plugin_version":"2.1.0","time_elapsed":78414,"subject_id":"92197","group":"Group2","condition":"3_Rep","full_date":"2026-02-03T20:31:57.605Z","date":"2026-02-03","time":"20:31:57"},{"task":"memory_phase","broad_category":"I","image_png":"I_Andesite_04.png","image_id":4,"category_name":"Andesite","category":1,"distinct_rating":3.18,"distinct_type":"Bottom","rt":null,"stimulus":"Stimuli_Rocks480/I_Andesite_04.png","response":null,"trial_type":"image-keyboard-response","trial_index":34,"plugin_version":"2.1.0","time_elapsed":80918,"subject_id":"92197","group":"Group2","condition":"3_Rep","full_date":"2026-02-03T20:31:57.605Z","date":"2026-02-03","time":"20:31:57"},{"rt":null,"stimulus":"<p style=\"font-size: 50px; margin: 0; text-align: center;\">+</p>","response":null,"trial_type":"html-keyboard-response","trial_index":35,"plugin_version":"2.1.0","time_elapsed":81920,"subject_id":"92197","group":"Group2","condition":"3_Rep","full_date":"2026-02-03T20:31:57.605Z","date":"2026-02-03","time":"20:31:57"},{"task":"memory_phase","broad_category":"M","image_png":"M_Quartzite_12.png","image_id":284,"category_name":"Quartzite","category":18,"distinct_rating":1.92,"distinct_type":"Bottom","rt":null,"stimulus":"Stimuli_Rocks480/M_Quartzite_12.png","response":null,"trial_type":"image-keyboard-response","trial_index":36,"plugin_version":"2.1.0","time_elapsed":84423,"subject_id":"92197","group":"Group2","condition":"3_Rep","full_date":"2026-02-03T20:31:57.605Z","date":"2026-02-03","time":"20:31:57"},{"rt":null,"stimulus":"<p style=\"font-size: 50px; margin: 0; text-align: center;\">+</p>","response":null,"trial_type":"html-keyboard-response","trial_index":37,"plugin_version":"2.1.0","time_elapsed":85425,"subject_id":"92197","group":"Group2","condition":"3_Rep","full_date":"2026-02-03T20:31:57.605Z","date":"2026-02-03","time":"20:31:57"},{"task":"memory_phase","broad_category":"M","image_png":"M_Gneiss_14.png","image_id":206,"category_name":"Gneiss","category":13,"distinct_rating":3.41,"distinct_type":"Bottom","rt":null,"stimulus":"Stimuli_Rocks480/M_Gneiss_14.png","response":null,"trial_type":"image-keyboard-response","trial_index":38,"plugin_version":"2.1.0","time_elapsed":87929,"subject_id":"92197","group":"Group2","condition":"3_Rep","full_date":"2026-02-03T20:31:57.605Z","date":"2026-02-03","time":"20:31:57"},{"rt":null,"stimulus":"<p style=\"font-size: 50px; margin: 0; text-align: center;\">+</p>","response":null,"trial_type":"html-keyboard-response","trial_index":39,"plugin_version":"2.1.0","time_elapsed":88931,"subject_id":"92197","group":"Group2","condition":"3_Rep","full_date":"2026-02-03T20:31:57.605Z","date":"2026-02-03","time":"20:31:57"},{"task":"memory_phase","broad_category":"S","image_png":"S_Dolomite_01.png","image_id":385,"category_name":"Dolomite","category":25,"distinct_rating":1.43,"distinct_type":"Bottom","rt":null,"stimulus":"Stimuli_Rocks480/S_Dolomite_01.png","response":null,"trial_type":"image-keyboard-response","trial_index":40,"plugin_version":"2.1.0","time_elapsed":91435,"subject_id":"92197","group":"Group2","condition":"3_Rep","full_date":"2026-02-03T20:31:57.605Z","date":"2026-02-03","time":"20:31:57"},{"rt":null,"stimulus":"<p style=\"font-size: 50px; margin: 0; text-align: center;\">+</p>","response":null,"trial_type":"html-keyboard-response","trial_index":41,"plugin_version":"2.1.0","time_elapsed":92438,"subject_id":"92197","group":"Group2","condition":"3_Rep","full_date":"2026-02-03T20:31:57.605Z","date":"2026-02-03","time":"20:31:57"},{"task":"memory_phase","broad_category":"S","image_png":"S_Shale_02.png","image_id":466,"category_name":"Shale","category":30,"distinct_rating":2.9,"distinct_type":"Bottom","rt":null,"stimulus":"Stimuli_Rocks480/S_Shale_02.png","response":null,"trial_type":"image-keyboard-response","trial_index":42,"plugin_version":"2.1.0","time_elapsed":94940,"subject_id":"92197","group":"Group2","condition":"3_Rep","full_date":"2026-02-03T20:31:57.605Z","date":"2026-02-03","time":"20:31:57"},{"rt":null,"stimulus":"<p style=\"font-size: 50px; margin: 0; text-align: center;\">+</p>","response":null,"trial_type":"html-keyboard-response","trial_index":43,"plugin_version":"2.1.0","time_elapsed":95942,"subject_id":"92197","group":"Group2","condition":"3_Rep","full_date":"2026-02-03T20:31:57.605Z","date":"2026-02-03","time":"20:31:57"},{"task":"memory_phase","broad_category":"I","image_png":"I_Basalt_13.png","image_id":29,"category_name":"Basalt","category":2,"distinct_rating":2.68,"distinct_type":"Bottom","rt":null,"stimulus":"Stimuli_Rocks480/I_Basalt_13.png","response":null,"trial_type":"image-keyboard-response","trial_index":44,"plugin_version":"2.1.0","time_elapsed":98446,"subject_id":"92197","group":"Group2","condition":"3_Rep","full_date":"2026-02-03T20:31:57.605Z","date":"2026-02-03","time":"20:31:57"},{"rt":null,"stimulus":"<p style=\"font-size: 50px; margin: 0; text-align: center;\">+</p>","response":null,"trial_type":"html-keyboard-response","trial_index":45,"plugin_version":"2.1.0","time_elapsed":99448,"subject_id":"92197","group":"Group2","condition":"3_Rep","full_date":"2026-02-03T20:31:57.605Z","date":"2026-02-03","time":"20:31:57"},{"task":"memory_phase","broad_category":"I","image_png":"I_Basalt_08.png","image_id":24,"category_name":"Basalt","category":2,"distinct_rating":2.31,"distinct_type":"Bottom","rt":null,"stimulus":"Stimuli_Rocks480/I_Basalt_08.png","response":null,"trial_type":"image-keyboard-response","trial_index":46,"plugin_version":"2.1.0","time_elapsed":101952,"subject_id":"92197","group":"Group2","condition":"3_Rep","full_date":"2026-02-03T20:31:57.605Z","date":"2026-02-03","time":"20:31:57"},{"rt":null,"stimulus":"<p style=\"font-size: 50px; margin: 0; text-align: center;\">+</p>","response":null,"trial_type":"html-keyboard-response","trial_index":47,"plugin_version":"2.1.0","time_elapsed":102955,"subject_id":"92197","group":"Group2","condition":"3_Rep","full_date":"2026-02-03T20:31:57.605Z","date":"2026-02-03","time":"20:31:57"},{"task":"memory_phase","broad_category":"M","image_png":"M_Gneiss_15.png","image_id":207,"category_name":"Gneiss","category":13,"distinct_rating":3.11,"distinct_type":"Bottom","rt":null,"stimulus":"Stimuli_Rocks480/M_Gneiss_15.png","response":null,"trial_type":"image-keyboard-response","trial_index":48,"plugin_version":"2.1.0","time_elapsed":105458,"subject_id":"92197","group":"Group2","condition":"3_Rep","full_date":"2026-02-03T20:31:57.605Z","date":"2026-02-03","time":"20:31:57"},{"rt":null,"stimulus":"<p style=\"font-size: 50px; margin: 0; text-align: center;\">+</p>","response":null,"trial_type":"html-keyboard-response","trial_index":49,"plugin_version":"2.1.0","time_elapsed":106461,"subject_id":"92197","group":"Group2","condition":"3_Rep","full_date":"2026-02-03T20:31:57.605Z","date":"2026-02-03","time":"20:31:57"},{"task":"memory_phase","broad_category":"S","image_png":"S_Sandstone_11.png","image_id":459,"category_name":"Sandstone","category":29,"distinct_rating":1.82,"distinct_type":"Bottom","rt":null,"stimulus":"Stimuli_Rocks480/S_Sandstone_11.png","response":null,"trial_type":"image-keyboard-response","trial_index":50,"plugin_version":"2.1.0","time_elapsed":108964,"subject_id":"92197","group":"Group2","condition":"3_Rep","full_date":"2026-02-03T20:31:57.605Z","date":"2026-02-03","time":"20:31:57"},{"rt":null,"stimulus":"<p style=\"font-size: 50px; margin: 0; text-align: center;\">+</p>","response":null,"trial_type":"html-keyboard-response","trial_index":51,"plugin_version":"2.1.0","time_elapsed":109967,"subject_id":"92197","group":"Group2","condition":"3_Rep","full_date":"2026-02-03T20:31:57.605Z","date":"2026-02-03","time":"20:31:57"},{"task":"memory_phase","broad_category":"M","image_png":"M_Slate_04.png","image_id":308,"category_name":"Slate","category":20,"distinct_rating":2.2,"distinct_type":"Bottom","rt":null,"stimulus":"Stimuli_Rocks480/M_Slate_04.png","response":null,"trial_type":"image-keyboard-response","trial_index":52,"plugin_version":"2.1.0","time_elapsed":112470,"subject_id":"92197","group":"Group2","condition":"3_Rep","full_date":"2026-02-03T20:31:57.605Z","date":"2026-02-03","time":"20:31:57"},{"rt":null,"stimulus":"<p style=\"font-size: 50px; margin: 0; text-align: center;\">+</p>","response":null,"trial_type":"html-keyboard-response","trial_index":53,"plugin_version":"2.1.0","time_elapsed":113473,"subject_id":"92197","group":"Group2","condition":"3_Rep","full_date":"2026-02-03T20:31:57.605Z","date":"2026-02-03","time":"20:31:57"},{"task":"memory_phase","broad_category":"I","image_png":"I_Pumice_14.png","image_id":142,"category_name":"Pumice","category":9,"distinct_rating":3.22,"distinct_type":"Bottom","rt":null,"stimulus":"Stimuli_Rocks480/I_Pumice_14.png","response":null,"trial_type":"image-keyboard-response","trial_index":54,"plugin_version":"2.1.0","time_elapsed":115976,"subject_id":"92197","group":"Group2","condition":"3_Rep","full_date":"2026-02-03T20:31:57.605Z","date":"2026-02-03","time":"20:31:57"},{"rt":1225,"stimulus":"<p style=\"max-width: 760px; margin: auto; font-size: 35px; line-height: 1.5;\">\n                Press SPACE to continue study phase\n              </p>","response":" ","trial_type":"html-keyboard-response","trial_index":55,"plugin_version":"2.1.0","time_elapsed":117202,"subject_id":"92197","group":"Group2","condition":"3_Rep","full_date":"2026-02-03T20:31:57.605Z","date":"2026-02-03","time":"20:31:57"},{"rt":null,"stimulus":"<p style=\"font-size: 50px; margin: 0; text-align: center;\">+</p>","response":null,"trial_type":"html-keyboard-response","trial_index":56,"plugin_version":"2.1.0","time_elapsed":118206,"subject_id":"92197","group":"Group2","condition":"3_Rep","full_date":"2026-02-03T20:31:57.605Z","date":"2026-02-03","time":"20:31:57"},{"task":"memory_phase","broad_category":"M","image_png":"M_Slate_10.png","image_id":314,"category_name":"Slate","category":20,"distinct_rating":1.94,"distinct_type":"Bottom","rt":null,"stimulus":"Stimuli_Rocks480/M_Slate_10.png","response":null,"trial_type":"image-keyboard-response","trial_index":57,"plugin_version":"2.1.0","time_elapsed":120709,"subject_id":"92197","group":"Group2","condition":"3_Rep","full_date":"2026-02-03T20:31:57.605Z","date":"2026-02-03","time":"20:31:57"},{"rt":null,"stimulus":"<p style=\"font-size: 50px; margin: 0; text-align: center;\">+</p>","response":null,"trial_type":"html-keyboard-response","trial_index":58,"plugin_version":"2.1.0","time_elapsed":121712,"subject_id":"92197","group":"Group2","condition":"3_Rep","full_date":"2026-02-03T20:31:57.605Z","date":"2026-02-03","time":"20:31:57"},{"task":"memory_phase","broad_category":"I","image_png":"I_Rhyolite_05.png","image_id":149,"category_name":"Rhyolite","category":10,"distinct_rating":3.02,"distinct_type":"Bottom","rt":null,"stimulus":"Stimuli_Rocks480/I_Rhyolite_05.png","response":null,"trial_type":"image-keyboard-response","trial_index":59,"plugin_version":"2.1.0","time_elapsed":124215,"subject_id":"92197","group":"Group2","condition":"3_Rep","full_date":"2026-02-03T20:31:57.605Z","date":"2026-02-03","time":"20:31:57"},{"rt":null,"stimulus":"<p style=\"font-size: 50px; margin: 0; text-align: center;\">+</p>","response":null,"trial_type":"html-keyboard-response","trial_index":60,"plugin_version":"2.1.0","time_elapsed":125218,"subject_id":"92197","group":"Group2","condition":"3_Rep","full_date":"2026-02-03T20:31:57.605Z","date":"2026-02-03","time":"20:31:57"},{"task":"memory_phase","broad_category":"I","image_png":"I_Gabbro_14.png","image_id":62,"category_name":"Gabbro","category":4,"distinct_rating":2.95,"distinct_type":"Bottom","rt":null,"stimulus":"Stimuli_Rocks480/I_Gabbro_14.png","response":null,"trial_type":"image-keyboard-response","trial_index":61,"plugin_version":"2.1.0","time_elapsed":127722,"subject_id":"92197","group":"Group2","condition":"3_Rep","full_date":"2026-02-03T20:31:57.605Z","date":"2026-02-03","time":"20:31:57"},{"rt":null,"stimulus":"<p style=\"font-size: 50px; margin: 0; text-align: center;\">+</p>","response":null,"trial_type":"html-keyboard-response","trial_index":62,"plugin_version":"2.1.0","time_elapsed":128725,"subject_id":"92197","group":"Group2","condition":"3_Rep","full_date":"2026-02-03T20:31:57.605Z","date":"2026-02-03","time":"20:31:57"},{"task":"memory_phase","broad_category":"I","image_png":"I_Diorite_01.png","image_id":33,"category_name":"Diorite","category":3,"distinct_rating":2.97,"distinct_type":"Bottom","rt":null,"stimulus":"Stimuli_Rocks480/I_Diorite_01.png","response":null,"trial_type":"image-keyboard-response","trial_index":63,"plugin_version":"2.1.0","time_elapsed":131229,"subject_id":"92197","group":"Group2","condition":"3_Rep","full_date":"2026-02-03T20:31:57.605Z","date":"2026-02-03","time":"20:31:57"},{"rt":null,"stimulus":"<p style=\"font-size: 50px; margin: 0; text-align: center;\">+</p>","response":null,"trial_type":"html-keyboard-response","trial_index":64,"plugin_version":"2.1.0","time_elapsed":132232,"subject_id":"92197","group":"Group2","condition":"3_Rep","full_date":"2026-02-03T20:31:57.605Z","date":"2026-02-03","time":"20:31:57"},{"task":"memory_phase","broad_category":"M","image_png":"M_Gneiss_10.png","image_id":202,"category_name":"Gneiss","category":13,"distinct_rating":3.09,"distinct_type":"Bottom","rt":null,"stimulus":"Stimuli_Rocks480/M_Gneiss_10.png","response":null,"trial_type":"image-keyboard-response","trial_index":65,"plugin_version":"2.1.0","time_elapsed":134735,"subject_id":"92197","group":"Group2","condition":"3_Rep","full_date":"2026-02-03T20:31:57.605Z","date":"2026-02-03","time":"20:31:57"},{"rt":null,"stimulus":"<p style=\"font-size: 50px; margin: 0; text-align: center;\">+</p>","response":null,"trial_type":"html-keyboard-response","trial_index":66,"plugin_version":"2.1.0","time_elapsed":135738,"subject_id":"92197","group":"Group2","condition":"3_Rep","full_date":"2026-02-03T20:31:57.605Z","date":"2026-02-03","time":"20:31:57"},{"task":"memory_phase","broad_category":"I","image_png":"I_Pumice_01.png","image_id":129,"category_name":"Pumice","category":9,"distinct_rating":3.25,"distinct_type":"Bottom","rt":null,"stimulus":"Stimuli_Rocks480/I_Pumice_01.png","response":null,"trial_type":"image-keyboard-response","trial_index":67,"plugin_version":"2.1.0","time_elapsed":138241,"subject_id":"92197","group":"Group2","condition":"3_Rep","full_date":"2026-02-03T20:31:57.605Z","date":"2026-02-03","time":"20:31:57"},{"rt":null,"stimulus":"<p style=\"font-size: 50px; margin: 0; text-align: center;\">+</p>","response":null,"trial_type":"html-keyboard-response","trial_index":68,"plugin_version":"2.1.0","time_elapsed":139244,"subject_id":"92197","group":"Group2","condition":"3_Rep","full_date":"2026-02-03T20:31:57.605Z","date":"2026-02-03","time":"20:31:57"},{"task":"memory_phase","broad_category":"M","image_png":"M_Phyllite_13.png","image_id":269,"category_name":"Phyllite","category":17,"distinct_rating":2.8,"distinct_type":"Bottom","rt":null,"stimulus":"Stimuli_Rocks480/M_Phyllite_13.png","response":null,"trial_type":"image-keyboard-response","trial_index":69,"plugin_version":"2.1.0","time_elapsed":141748,"subject_id":"92197","group":"Group2","condition":"3_Rep","full_date":"2026-02-03T20:31:57.605Z","date":"2026-02-03","time":"20:31:57"},{"rt":null,"stimulus":"<p style=\"font-size: 50px; margin: 0; text-align: center;\">+</p>","response":null,"trial_type":"html-keyboard-response","trial_index":70,"plugin_version":"2.1.0","time_elapsed":142750,"subject_id":"92197","group":"Group2","condition":"3_Rep","full_date":"2026-02-03T20:31:57.605Z","date":"2026-02-03","time":"20:31:57"},{"task":"memory_phase","broad_category":"S","image_png":"S_Rock Salt_13.png","image_id":445,"category_name":"Rock Salt","category":28,"distinct_rating":7.58,"distinct_type":"Top","rt":null,"stimulus":"Stimuli_Rocks480/S_Rock Salt_13.png","response":null,"trial_type":"image-keyboard-response","trial_index":71,"plugin_version":"2.1.0","time_elapsed":145253,"subject_id":"92197","group":"Group2","condition":"3_Rep","full_date":"2026-02-03T20:31:57.605Z","date":"2026-02-03","time":"20:31:57"},{"rt":null,"stimulus":"<p style=\"font-size: 50px; margin: 0; text-align: center;\">+</p>","response":null,"trial_type":"html-keyboard-response","trial_index":72,"plugin_version":"2.1.0","time_elapsed":146256,"subject_id":"92197","group":"Group2","condition":"3_Rep","full_date":"2026-02-03T20:31:57.605Z","date":"2026-02-03","time":"20:31:57"},{"task":"memory_phase","broad_category":"I","image_png":"I_Pegmatite_03.png","image_id":99,"category_name":"Pegmatite","category":7,"distinct_rating":7.24,"distinct_type":"Top","rt":null,"stimulus":"Stimuli_Rocks480/I_Pegmatite_03.png","response":null,"trial_type":"image-keyboard-response","trial_index":73,"plugin_version":"2.1.0","time_elapsed":148759,"subject_id":"92197","group":"Group2","condition":"3_Rep","full_date":"2026-02-03T20:31:57.605Z","date":"2026-02-03","time":"20:31:57"},{"rt":null,"stimulus":"<p style=\"font-size: 50px; margin: 0; text-align: center;\">+</p>","response":null,"trial_type":"html-keyboard-response","trial_index":74,"plugin_version":"2.1.0","time_elapsed":149762,"subject_id":"92197","group":"Group2","condition":"3_Rep","full_date":"2026-02-03T20:31:57.605Z","date":"2026-02-03","time":"20:31:57"},{"task":"memory_phase","broad_category":"M","image_png":"M_Slate_14.png","image_id":318,"category_name":"Slate","category":20,"distinct_rating":2.58,"distinct_type":"Bottom","rt":null,"stimulus":"Stimuli_Rocks480/M_Slate_14.png","response":null,"trial_type":"image-keyboard-response","trial_index":75,"plugin_version":"2.1.0","time_elapsed":152266,"subject_id":"92197","group":"Group2","condition":"3_Rep","full_date":"2026-02-03T20:31:57.605Z","date":"2026-02-03","time":"20:31:57"},{"rt":null,"stimulus":"<p style=\"font-size: 50px; margin: 0; text-align: center;\">+</p>","response":null,"trial_type":"html-keyboard-response","trial_index":76,"plugin_version":"2.1.0","time_elapsed":153268,"subject_id":"92197","group":"Group2","condition":"3_Rep","full_date":"2026-02-03T20:31:57.605Z","date":"2026-02-03","time":"20:31:57"},{"task":"memory_phase","broad_category":"S","image_png":"S_Sandstone_04.png","image_id":452,"category_name":"Sandstone","category":29,"distinct_rating":1.8,"distinct_type":"Bottom","rt":null,"stimulus":"Stimuli_Rocks480/S_Sandstone_04.png","response":null,"trial_type":"image-keyboard-response","trial_index":77,"plugin_version":"2.1.0","time_elapsed":155772,"subject_id":"92197","group":"Group2","condition":"3_Rep","full_date":"2026-02-03T20:31:57.605Z","date":"2026-02-03","time":"20:31:57"},{"rt":null,"stimulus":"<p style=\"font-size: 50px; margin: 0; text-align: center;\">+</p>","response":null,"trial_type":"html-keyboard-response","trial_index":78,"plugin_version":"2.1.0","time_elapsed":156774,"subject_id":"92197","group":"Group2","condition":"3_Rep","full_date":"2026-02-03T20:31:57.605Z","date":"2026-02-03","time":"20:31:57"},{"task":"memory_phase","broad_category":"I","image_png":"I_Gabbro_12.png","image_id":60,"category_name":"Gabbro","category":4,"distinct_rating":2.6,"distinct_type":"Bottom","rt":null,"stimulus":"Stimuli_Rocks480/I_Gabbro_12.png","response":null,"trial_type":"image-keyboard-response","trial_index":79,"plugin_version":"2.1.0","time_elapsed":159278,"subject_id":"92197","group":"Group2","condition":"3_Rep","full_date":"2026-02-03T20:31:57.605Z","date":"2026-02-03","time":"20:31:57"},{"rt":null,"stimulus":"<p style=\"font-size: 50px; margin: 0; text-align: center;\">+</p>","response":null,"trial_type":"html-keyboard-response","trial_index":80,"plugin_version":"2.1.0","time_elapsed":160280,"subject_id":"92197","group":"Group2","condition":"3_Rep","full_date":"2026-02-03T20:31:57.605Z","date":"2026-02-03","time":"20:31:57"},{"task":"memory_phase","broad_category":"S","image_png":"S_Rock Salt_15.png","image_id":447,"category_name":"Rock Salt","category":28,"distinct_rating":7.79,"distinct_type":"Top","rt":null,"stimulus":"Stimuli_Rocks480/S_Rock Salt_15.png","response":null,"trial_type":"image-keyboard-response","trial_index":81,"plugin_version":"2.1.0","time_elapsed":162783,"subject_id":"92197","group":"Group2","condition":"3_Rep","full_date":"2026-02-03T20:31:57.605Z","date":"2026-02-03","time":"20:31:57"},{"rt":null,"stimulus":"<p style=\"font-size: 50px; margin: 0; text-align: center;\">+</p>","response":null,"trial_type":"html-keyboard-response","trial_index":82,"plugin_version":"2.1.0","time_elapsed":163786,"subject_id":"92197","group":"Group2","condition":"3_Rep","full_date":"2026-02-03T20:31:57.605Z","date":"2026-02-03","time":"20:31:57"},{"task":"memory_phase","broad_category":"M","image_png":"M_Phyllite_02.png","image_id":258,"category_name":"Phyllite","category":17,"distinct_rating":2.89,"distinct_type":"Bottom","rt":null,"stimulus":"Stimuli_Rocks480/M_Phyllite_02.png","response":null,"trial_type":"image-keyboard-response","trial_index":83,"plugin_version":"2.1.0","time_elapsed":166289,"subject_id":"92197","group":"Group2","condition":"3_Rep","full_date":"2026-02-03T20:31:57.605Z","date":"2026-02-03","time":"20:31:57"},{"rt":null,"stimulus":"<p style=\"font-size: 50px; margin: 0; text-align: center;\">+</p>","response":null,"trial_type":"html-keyboard-response","trial_index":84,"plugin_version":"2.1.0","time_elapsed":167292,"subject_id":"92197","group":"Group2","condition":"3_Rep","full_date":"2026-02-03T20:31:57.605Z","date":"2026-02-03","time":"20:31:57"},{"task":"memory_phase","broad_category":"I","image_png":"I_Andesite_09.png","image_id":9,"category_name":"Andesite","category":1,"distinct_rating":2.49,"distinct_type":"Bottom","rt":null,"stimulus":"Stimuli_Rocks480/I_Andesite_09.png","response":null,"trial_type":"image-keyboard-response","trial_index":85,"plugin_version":"2.1.0","time_elapsed":169796,"subject_id":"92197","group":"Group2","condition":"3_Rep","full_date":"2026-02-03T20:31:57.605Z","date":"2026-02-03","time":"20:31:57"},{"rt":null,"stimulus":"<p style=\"font-size: 50px; margin: 0; text-align: center;\">+</p>","response":null,"trial_type":"html-keyboard-response","trial_index":86,"plugin_version":"2.1.0","time_elapsed":170798,"subject_id":"92197","group":"Group2","condition":"3_Rep","full_date":"2026-02-03T20:31:57.605Z","date":"2026-02-03","time":"20:31:57"},{"task":"memory_phase","broad_category":"I","image_png":"I_Pegmatite_11.png","image_id":107,"category_name":"Pegmatite","category":7,"distinct_rating":7.11,"distinct_type":"Top","rt":null,"stimulus":"Stimuli_Rocks480/I_Pegmatite_11.png","response":null,"trial_type":"image-keyboard-response","trial_index":87,"plugin_version":"2.1.0","time_elapsed":173302,"subject_id":"92197","group":"Group2","condition":"3_Rep","full_date":"2026-02-03T20:31:57.605Z","date":"2026-02-03","time":"20:31:57"},{"rt":null,"stimulus":"<p style=\"font-size: 50px; margin: 0; text-align: center;\">+</p>","response":null,"trial_type":"html-keyboard-response","trial_index":88,"plugin_version":"2.1.0","time_elapsed":174305,"subject_id":"92197","group":"Group2","condition":"3_Rep","full_date":"2026-02-03T20:31:57.605Z","date":"2026-02-03","time":"20:31:57"},{"task":"memory_phase","broad_category":"I","image_png":"I_Rhyolite_08.png","image_id":152,"category_name":"Rhyolite","category":10,"distinct_rating":1.38,"distinct_type":"Bottom","rt":null,"stimulus":"Stimuli_Rocks480/I_Rhyolite_08.png","response":null,"trial_type":"image-keyboard-response","trial_index":89,"plugin_version":"2.1.0","time_elapsed":176808,"subject_id":"92197","group":"Group2","condition":"3_Rep","full_date":"2026-02-03T20:31:57.605Z","date":"2026-02-03","time":"20:31:57"},{"rt":null,"stimulus":"<p style=\"font-size: 50px; margin: 0; text-align: center;\">+</p>","response":null,"trial_type":"html-keyboard-response","trial_index":90,"plugin_version":"2.1.0","time_elapsed":177810,"subject_id":"92197","group":"Group2","condition":"3_Rep","full_date":"2026-02-03T20:31:57.605Z","date":"2026-02-03","time":"20:31:57"},{"task":"memory_phase","broad_category":"M","image_png":"M_Marble_14.png","image_id":238,"category_name":"Marble","category":15,"distinct_rating":3.31,"distinct_type":"Bottom","rt":null,"stimulus":"Stimuli_Rocks480/M_Marble_14.png","response":null,"trial_type":"image-keyboard-response","trial_index":91,"plugin_version":"2.1.0","time_elapsed":180312,"subject_id":"92197","group":"Group2","condition":"3_Rep","full_date":"2026-02-03T20:31:57.605Z","date":"2026-02-03","time":"20:31:57"},{"rt":null,"stimulus":"<p style=\"font-size: 50px; margin: 0; text-align: center;\">+</p>","response":null,"trial_type":"html-keyboard-response","trial_index":92,"plugin_version":"2.1.0","time_elapsed":181315,"subject_id":"92197","group":"Group2","condition":"3_Rep","full_date":"2026-02-03T20:31:57.605Z","date":"2026-02-03","time":"20:31:57"},{"task":"memory_phase","broad_category":"M","image_png":"M_Marble_02.png","image_id":226,"category_name":"Marble","category":15,"distinct_rating":3.2,"distinct_type":"Bottom","rt":null,"stimulus":"Stimuli_Rocks480/M_Marble_02.png","response":null,"trial_type":"image-keyboard-response","trial_index":93,"plugin_version":"2.1.0","time_elapsed":183819,"subject_id":"92197","group":"Group2","condition":"3_Rep","full_date":"2026-02-03T20:31:57.605Z","date":"2026-02-03","time":"20:31:57"},{"rt":null,"stimulus":"<p style=\"font-size: 50px; margin: 0; text-align: center;\">+</p>","response":null,"trial_type":"html-keyboard-response","trial_index":94,"plugin_version":"2.1.0","time_elapsed":184821,"subject_id":"92197","group":"Group2","condition":"3_Rep","full_date":"2026-02-03T20:31:57.605Z","date":"2026-02-03","time":"20:31:57"},{"task":"memory_phase","broad_category":"M","image_png":"M_Marble_03.png","image_id":227,"category_name":"Marble","category":15,"distinct_rating":2.67,"distinct_type":"Bottom","rt":null,"stimulus":"Stimuli_Rocks480/M_Marble_03.png","response":null,"trial_type":"image-keyboard-response","trial_index":95,"plugin_version":"2.1.0","time_elapsed":187325,"subject_id":"92197","group":"Group2","condition":"3_Rep","full_date":"2026-02-03T20:31:57.605Z","date":"2026-02-03","time":"20:31:57"},{"rt":null,"stimulus":"<p style=\"font-size: 50px; margin: 0; text-align: center;\">+</p>","response":null,"trial_type":"html-keyboard-response","trial_index":96,"plugin_version":"2.1.0","time_elapsed":188327,"subject_id":"92197","group":"Group2","condition":"3_Rep","full_date":"2026-02-03T20:31:57.605Z","date":"2026-02-03","time":"20:31:57"},{"task":"memory_phase","broad_category":"S","image_png":"S_Dolomite_07.png","image_id":391,"category_name":"Dolomite","category":25,"distinct_rating":1.73,"distinct_type":"Bottom","rt":null,"stimulus":"Stimuli_Rocks480/S_Dolomite_07.png","response":null,"trial_type":"image-keyboard-response","trial_index":97,"plugin_version":"2.1.0","time_elapsed":190831,"subject_id":"92197","group":"Group2","condition":"3_Rep","full_date":"2026-02-03T20:31:57.605Z","date":"2026-02-03","time":"20:31:57"},{"rt":null,"stimulus":"<p style=\"font-size: 50px; margin: 0; text-align: center;\">+</p>","response":null,"trial_type":"html-keyboard-response","trial_index":98,"plugin_version":"2.1.0","time_elapsed":191834,"subject_id":"92197","group":"Group2","condition":"3_Rep","full_date":"2026-02-03T20:31:57.605Z","date":"2026-02-03","time":"20:31:57"},{"task":"memory_phase","broad_category":"I","image_png":"I_Diorite_10.png","image_id":42,"category_name":"Diorite","category":3,"distinct_rating":2.84,"distinct_type":"Bottom","rt":null,"stimulus":"Stimuli_Rocks480/I_Diorite_10.png","response":null,"trial_type":"image-keyboard-response","trial_index":99,"plugin_version":"2.1.0","time_elapsed":194338,"subject_id":"92197","group":"Group2","condition":"3_Rep","full_date":"2026-02-03T20:31:57.605Z","date":"2026-02-03","time":"20:31:57"},{"rt":null,"stimulus":"<p style=\"font-size: 50px; margin: 0; text-align: center;\">+</p>","response":null,"trial_type":"html-keyboard-response","trial_index":100,"plugin_version":"2.1.0","time_elapsed":195340,"subject_id":"92197","group":"Group2","condition":"3_Rep","full_date":"2026-02-03T20:31:57.605Z","date":"2026-02-03","time":"20:31:57"},{"task":"memory_phase","broad_category":"S","image_png":"S_Shale_07.png","image_id":471,"category_name":"Shale","category":30,"distinct_rating":2.73,"distinct_type":"Bottom","rt":null,"stimulus":"Stimuli_Rocks480/S_Shale_07.png","response":null,"trial_type":"image-keyboard-response","trial_index":101,"plugin_version":"2.1.0","time_elapsed":197843,"subject_id":"92197","group":"Group2","condition":"3_Rep","full_date":"2026-02-03T20:31:57.605Z","date":"2026-02-03","time":"20:31:57"},{"rt":null,"stimulus":"<p style=\"font-size: 50px; margin: 0; text-align: center;\">+</p>","response":null,"trial_type":"html-keyboard-response","trial_index":102,"plugin_version":"2.1.0","time_elapsed":198846,"subject_id":"92197","group":"Group2","condition":"3_Rep","full_date":"2026-02-03T20:31:57.605Z","date":"2026-02-03","time":"20:31:57"},{"task":"memory_phase","broad_category":"S","image_png":"S_Conglomerate_14.png","image_id":382,"category_name":"Conglomerate","category":24,"distinct_rating":6.86,"distinct_type":"Top","rt":null,"stimulus":"Stimuli_Rocks480/S_Conglomerate_14.png","response":null,"trial_type":"image-keyboard-response","trial_index":103,"plugin_version":"2.1.0","time_elapsed":201349,"subject_id":"92197","group":"Group2","condition":"3_Rep","full_date":"2026-02-03T20:31:57.605Z","date":"2026-02-03","time":"20:31:57"},{"rt":null,"stimulus":"<p style=\"font-size: 50px; margin: 0; text-align: center;\">+</p>","response":null,"trial_type":"html-keyboard-response","trial_index":104,"plugin_version":"2.1.0","time_elapsed":202352,"subject_id":"92197","group":"Group2","condition":"3_Rep","full_date":"2026-02-03T20:31:57.605Z","date":"2026-02-03","time":"20:31:57"},{"task":"memory_phase","broad_category":"M","image_png":"M_Phyllite_05.png","image_id":261,"category_name":"Phyllite","category":17,"distinct_rating":2.14,"distinct_type":"Bottom","rt":null,"stimulus":"Stimuli_Rocks480/M_Phyllite_05.png","response":null,"trial_type":"image-keyboard-response","trial_index":105,"plugin_version":"2.1.0","time_elapsed":204856,"subject_id":"92197","group":"Group2","condition":"3_Rep","full_date":"2026-02-03T20:31:57.605Z","date":"2026-02-03","time":"20:31:57"},{"rt":3335,"stimulus":"<p style=\"max-width: 760px; margin: auto; font-size: 35px; line-height: 1.5;\">\n                You have completed 1 study phase. \n                Now, we'll show you all the images again 2 more times.\n                <br><br>Press SPACE to continue\n              </p>","response":" ","trial_type":"html-keyboard-response","trial_index":106,"plugin_version":"2.1.0","time_elapsed":208192,"subject_id":"92197","group":"Group2","condition":"3_Rep","full_date":"2026-02-03T20:31:57.605Z","date":"2026-02-03","time":"20:31:57"},{"rt":null,"stimulus":"<p style=\"font-size: 50px; margin: 0; text-align: center;\">+</p>","response":null,"trial_type":"html-keyboard-response","trial_index":107,"plugin_version":"2.1.0","time_elapsed":209194,"subject_id":"92197","group":"Group2","condition":"3_Rep","full_date":"2026-02-03T20:31:57.605Z","date":"2026-02-03","time":"20:31:57"},{"task":"memory_phase","broad_category":"S","image_png":"S_Chert_13.png","image_id":365,"category_name":"Chert","category":23,"distinct_rating":6.57,"distinct_type":"Top","rt":null,"stimulus":"Stimuli_Rocks480/S_Chert_13.png","response":null,"trial_type":"image-keyboard-response","trial_index":108,"plugin_version":"2.1.0","time_elapsed":211698,"subject_id":"92197","group":"Group2","condition":"3_Rep","full_date":"2026-02-03T20:31:57.605Z","date":"2026-02-03","time":"20:31:57"},{"rt":null,"stimulus":"<p style=\"font-size: 50px; margin: 0; text-align: center;\">+</p>","response":null,"trial_type":"html-keyboard-response","trial_index":109,"plugin_version":"2.1.0","time_elapsed":212700,"subject_id":"92197","group":"Group2","condition":"3_Rep","full_date":"2026-02-03T20:31:57.605Z","date":"2026-02-03","time":"20:31:57"},{"task":"memory_phase","broad_category":"M","image_png":"M_Marble_03.png","image_id":227,"category_name":"Marble","category":15,"distinct_rating":2.67,"distinct_type":"Bottom","rt":null,"stimulus":"Stimuli_Rocks480/M_Marble_03.png","response":null,"trial_type":"image-keyboard-response","trial_index":110,"plugin_version":"2.1.0","time_elapsed":215204,"subject_id":"92197","group":"Group2","condition":"3_Rep","full_date":"2026-02-03T20:31:57.605Z","date":"2026-02-03","time":"20:31:57"},{"rt":null,"stimulus":"<p style=\"font-size: 50px; margin: 0; text-align: center;\">+</p>","response":null,"trial_type":"html-keyboard-response","trial_index":111,"plugin_version":"2.1.0","time_elapsed":216207,"subject_id":"92197","group":"Group2","condition":"3_Rep","full_date":"2026-02-03T20:31:57.605Z","date":"2026-02-03","time":"20:31:57"},{"task":"memory_phase","broad_category":"M","image_png":"M_Gneiss_15.png","image_id":207,"category_name":"Gneiss","category":13,"distinct_rating":3.11,"distinct_type":"Bottom","rt":null,"stimulus":"Stimuli_Rocks480/M_Gneiss_15.png","response":null,"trial_type":"image-keyboard-response","trial_index":112,"plugin_version":"2.1.0","time_elapsed":218711,"subject_id":"92197","group":"Group2","condition":"3_Rep","full_date":"2026-02-03T20:31:57.605Z","date":"2026-02-03","time":"20:31:57"},{"rt":null,"stimulus":"<p style=\"font-size: 50px; margin: 0; text-align: center;\">+</p>","response":null,"trial_type":"html-keyboard-response","trial_index":113,"plugin_version":"2.1.0","time_elapsed":219713,"subject_id":"92197","group":"Group2","condition":"3_Rep","full_date":"2026-02-03T20:31:57.605Z","date":"2026-02-03","time":"20:31:57"},{"task":"memory_phase","broad_category":"M","image_png":"M_Marble_14.png","image_id":238,"category_name":"Marble","category":15,"distinct_rating":3.31,"distinct_type":"Bottom","rt":null,"stimulus":"Stimuli_Rocks480/M_Marble_14.png","response":null,"trial_type":"image-keyboard-response","trial_index":114,"plugin_version":"2.1.0","time_elapsed":222217,"subject_id":"92197","group":"Group2","condition":"3_Rep","full_date":"2026-02-03T20:31:57.605Z","date":"2026-02-03","time":"20:31:57"},{"rt":null,"stimulus":"<p style=\"font-size: 50px; margin: 0; text-align: center;\">+</p>","response":null,"trial_type":"html-keyboard-response","trial_index":115,"plugin_version":"2.1.0","time_elapsed":223219,"subject_id":"92197","group":"Group2","condition":"3_Rep","full_date":"2026-02-03T20:31:57.605Z","date":"2026-02-03","time":"20:31:57"},{"task":"memory_phase","broad_category":"I","image_png":"I_Basalt_10.png","image_id":26,"category_name":"Basalt","category":2,"distinct_rating":2.76,"distinct_type":"Bottom","rt":null,"stimulus":"Stimuli_Rocks480/I_Basalt_10.png","response":null,"trial_type":"image-keyboard-response","trial_index":116,"plugin_version":"2.1.0","time_elapsed":225723,"subject_id":"92197","group":"Group2","condition":"3_Rep","full_date":"2026-02-03T20:31:57.605Z","date":"2026-02-03","time":"20:31:57"},{"rt":null,"stimulus":"<p style=\"font-size: 50px; margin: 0; text-align: center;\">+</p>","response":null,"trial_type":"html-keyboard-response","trial_index":117,"plugin_version":"2.1.0","time_elapsed":226725,"subject_id":"92197","group":"Group2","condition":"3_Rep","full_date":"2026-02-03T20:31:57.605Z","date":"2026-02-03","time":"20:31:57"},{"task":"memory_phase","broad_category":"M","image_png":"M_Slate_04.png","image_id":308,"category_name":"Slate","category":20,"distinct_rating":2.2,"distinct_type":"Bottom","rt":null,"stimulus":"Stimuli_Rocks480/M_Slate_04.png","response":null,"trial_type":"image-keyboard-response","trial_index":118,"plugin_version":"2.1.0","time_elapsed":229228,"subject_id":"92197","group":"Group2","condition":"3_Rep","full_date":"2026-02-03T20:31:57.605Z","date":"2026-02-03","time":"20:31:57"},{"rt":null,"stimulus":"<p style=\"font-size: 50px; margin: 0; text-align: center;\">+</p>","response":null,"trial_type":"html-keyboard-response","trial_index":119,"plugin_version":"2.1.0","time_elapsed":230231,"subject_id":"92197","group":"Group2","condition":"3_Rep","full_date":"2026-02-03T20:31:57.605Z","date":"2026-02-03","time":"20:31:57"},{"task":"memory_phase","broad_category":"M","image_png":"M_Phyllite_02.png","image_id":258,"category_name":"Phyllite","category":17,"distinct_rating":2.89,"distinct_type":"Bottom","rt":null,"stimulus":"Stimuli_Rocks480/M_Phyllite_02.png","response":null,"trial_type":"image-keyboard-response","trial_index":120,"plugin_version":"2.1.0","time_elapsed":232734,"subject_id":"92197","group":"Group2","condition":"3_Rep","full_date":"2026-02-03T20:31:57.605Z","date":"2026-02-03","time":"20:31:57"},{"rt":null,"stimulus":"<p style=\"font-size: 50px; margin: 0; text-align: center;\">+</p>","response":null,"trial_type":"html-keyboard-response","trial_index":121,"plugin_version":"2.1.0","time_elapsed":233737,"subject_id":"92197","group":"Group2","condition":"3_Rep","full_date":"2026-02-03T20:31:57.605Z","date":"2026-02-03","time":"20:31:57"},{"task":"memory_phase","broad_category":"I","image_png":"I_Gabbro_12.png","image_id":60,"category_name":"Gabbro","category":4,"distinct_rating":2.6,"distinct_type":"Bottom","rt":null,"stimulus":"Stimuli_Rocks480/I_Gabbro_12.png","response":null,"trial_type":"image-keyboard-response","trial_index":122,"plugin_version":"2.1.0","time_elapsed":236240,"subject_id":"92197","group":"Group2","condition":"3_Rep","full_date":"2026-02-03T20:31:57.605Z","date":"2026-02-03","time":"20:31:57"},{"rt":null,"stimulus":"<p style=\"font-size: 50px; margin: 0; text-align: center;\">+</p>","response":null,"trial_type":"html-keyboard-response","trial_index":123,"plugin_version":"2.1.0","time_elapsed":237243,"subject_id":"92197","group":"Group2","condition":"3_Rep","full_date":"2026-02-03T20:31:57.605Z","date":"2026-02-03","time":"20:31:57"},{"task":"memory_phase","broad_category":"S","image_png":"S_Sandstone_11.png","image_id":459,"category_name":"Sandstone","category":29,"distinct_rating":1.82,"distinct_type":"Bottom","rt":null,"stimulus":"Stimuli_Rocks480/S_Sandstone_11.png","response":null,"trial_type":"image-keyboard-response","trial_index":124,"plugin_version":"2.1.0","time_elapsed":239747,"subject_id":"92197","group":"Group2","condition":"3_Rep","full_date":"2026-02-03T20:31:57.605Z","date":"2026-02-03","time":"20:31:57"},{"rt":null,"stimulus":"<p style=\"font-size: 50px; margin: 0; text-align: center;\">+</p>","response":null,"trial_type":"html-keyboard-response","trial_index":125,"plugin_version":"2.1.0","time_elapsed":240749,"subject_id":"92197","group":"Group2","condition":"3_Rep","full_date":"2026-02-03T20:31:57.605Z","date":"2026-02-03","time":"20:31:57"},{"task":"memory_phase","broad_category":"S","image_png":"S_Rock Salt_15.png","image_id":447,"category_name":"Rock Salt","category":28,"distinct_rating":7.79,"distinct_type":"Top","rt":null,"stimulus":"Stimuli_Rocks480/S_Rock Salt_15.png","response":null,"trial_type":"image-keyboard-response","trial_index":126,"plugin_version":"2.1.0","time_elapsed":243253,"subject_id":"92197","group":"Group2","condition":"3_Rep","full_date":"2026-02-03T20:31:57.605Z","date":"2026-02-03","time":"20:31:57"},{"rt":null,"stimulus":"<p style=\"font-size: 50px; margin: 0; text-align: center;\">+</p>","response":null,"trial_type":"html-keyboard-response","trial_index":127,"plugin_version":"2.1.0","time_elapsed":244255,"subject_id":"92197","group":"Group2","condition":"3_Rep","full_date":"2026-02-03T20:31:57.605Z","date":"2026-02-03","time":"20:31:57"},{"task":"memory_phase","broad_category":"M","image_png":"M_Phyllite_13.png","image_id":269,"category_name":"Phyllite","category":17,"distinct_rating":2.8,"distinct_type":"Bottom","rt":null,"stimulus":"Stimuli_Rocks480/M_Phyllite_13.png","response":null,"trial_type":"image-keyboard-response","trial_index":128,"plugin_version":"2.1.0","time_elapsed":246759,"subject_id":"92197","group":"Group2","condition":"3_Rep","full_date":"2026-02-03T20:31:57.605Z","date":"2026-02-03","time":"20:31:57"},{"rt":null,"stimulus":"<p style=\"font-size: 50px; margin: 0; text-align: center;\">+</p>","response":null,"trial_type":"html-keyboard-response","trial_index":129,"plugin_version":"2.1.0","time_elapsed":247761,"subject_id":"92197","group":"Group2","condition":"3_Rep","full_date":"2026-02-03T20:31:57.605Z","date":"2026-02-03","time":"20:31:57"},{"task":"memory_phase","broad_category":"I","image_png":"I_Andesite_04.png","image_id":4,"category_name":"Andesite","category":1,"distinct_rating":3.18,"distinct_type":"Bottom","rt":null,"stimulus":"Stimuli_Rocks480/I_Andesite_04.png","response":null,"trial_type":"image-keyboard-response","trial_index":130,"plugin_version":"2.1.0","time_elapsed":250265,"subject_id":"92197","group":"Group2","condition":"3_Rep","full_date":"2026-02-03T20:31:57.605Z","date":"2026-02-03","time":"20:31:57"},{"rt":null,"stimulus":"<p style=\"font-size: 50px; margin: 0; text-align: center;\">+</p>","response":null,"trial_type":"html-keyboard-response","trial_index":131,"plugin_version":"2.1.0","time_elapsed":251267,"subject_id":"92197","group":"Group2","condition":"3_Rep","full_date":"2026-02-03T20:31:57.605Z","date":"2026-02-03","time":"20:31:57"},{"task":"memory_phase","broad_category":"S","image_png":"S_Sandstone_08.png","image_id":456,"category_name":"Sandstone","category":29,"distinct_rating":1.5,"distinct_type":"Bottom","rt":null,"stimulus":"Stimuli_Rocks480/S_Sandstone_08.png","response":null,"trial_type":"image-keyboard-response","trial_index":132,"plugin_version":"2.1.0","time_elapsed":253771,"subject_id":"92197","group":"Group2","condition":"3_Rep","full_date":"2026-02-03T20:31:57.605Z","date":"2026-02-03","time":"20:31:57"},{"rt":null,"stimulus":"<p style=\"font-size: 50px; margin: 0; text-align: center;\">+</p>","response":null,"trial_type":"html-keyboard-response","trial_index":133,"plugin_version":"2.1.0","time_elapsed":254773,"subject_id":"92197","group":"Group2","condition":"3_Rep","full_date":"2026-02-03T20:31:57.605Z","date":"2026-02-03","time":"20:31:57"},{"task":"memory_phase","broad_category":"M","image_png":"M_Phyllite_05.png","image_id":261,"category_name":"Phyllite","category":17,"distinct_rating":2.14,"distinct_type":"Bottom","rt":null,"stimulus":"Stimuli_Rocks480/M_Phyllite_05.png","response":null,"trial_type":"image-keyboard-response","trial_index":134,"plugin_version":"2.1.0","time_elapsed":257277,"subject_id":"92197","group":"Group2","condition":"3_Rep","full_date":"2026-02-03T20:31:57.605Z","date":"2026-02-03","time":"20:31:57"},{"rt":null,"stimulus":"<p style=\"font-size: 50px; margin: 0; text-align: center;\">+</p>","response":null,"trial_type":"html-keyboard-response","trial_index":135,"plugin_version":"2.1.0","time_elapsed":258279,"subject_id":"92197","group":"Group2","condition":"3_Rep","full_date":"2026-02-03T20:31:57.605Z","date":"2026-02-03","time":"20:31:57"},{"task":"memory_phase","broad_category":"I","image_png":"I_Andesite_09.png","image_id":9,"category_name":"Andesite","category":1,"distinct_rating":2.49,"distinct_type":"Bottom","rt":null,"stimulus":"Stimuli_Rocks480/I_Andesite_09.png","response":null,"trial_type":"image-keyboard-response","trial_index":136,"plugin_version":"2.1.0","time_elapsed":260782,"subject_id":"92197","group":"Group2","condition":"3_Rep","full_date":"2026-02-03T20:31:57.605Z","date":"2026-02-03","time":"20:31:57"},{"rt":null,"stimulus":"<p style=\"font-size: 50px; margin: 0; text-align: center;\">+</p>","response":null,"trial_type":"html-keyboard-response","trial_index":137,"plugin_version":"2.1.0","time_elapsed":261785,"subject_id":"92197","group":"Group2","condition":"3_Rep","full_date":"2026-02-03T20:31:57.605Z","date":"2026-02-03","time":"20:31:57"},{"task":"memory_phase","broad_category":"I","image_png":"I_Rhyolite_10.png","image_id":154,"category_name":"Rhyolite","category":10,"distinct_rating":2.88,"distinct_type":"Bottom","rt":null,"stimulus":"Stimuli_Rocks480/I_Rhyolite_10.png","response":null,"trial_type":"image-keyboard-response","trial_index":138,"plugin_version":"2.1.0","time_elapsed":264289,"subject_id":"92197","group":"Group2","condition":"3_Rep","full_date":"2026-02-03T20:31:57.605Z","date":"2026-02-03","time":"20:31:57"},{"rt":null,"stimulus":"<p style=\"font-size: 50px; margin: 0; text-align: center;\">+</p>","response":null,"trial_type":"html-keyboard-response","trial_index":139,"plugin_version":"2.1.0","time_elapsed":265291,"subject_id":"92197","group":"Group2","condition":"3_Rep","full_date":"2026-02-03T20:31:57.605Z","date":"2026-02-03","time":"20:31:57"},{"task":"memory_phase","broad_category":"S","image_png":"S_Conglomerate_14.png","image_id":382,"category_name":"Conglomerate","category":24,"distinct_rating":6.86,"distinct_type":"Top","rt":null,"stimulus":"Stimuli_Rocks480/S_Conglomerate_14.png","response":null,"trial_type":"image-keyboard-response","trial_index":140,"plugin_version":"2.1.0","time_elapsed":267795,"subject_id":"92197","group":"Group2","condition":"3_Rep","full_date":"2026-02-03T20:31:57.605Z","date":"2026-02-03","time":"20:31:57"},{"rt":null,"stimulus":"<p style=\"font-size: 50px; margin: 0; text-align: center;\">+</p>","response":null,"trial_type":"html-keyboard-response","trial_index":141,"plugin_version":"2.1.0","time_elapsed":268797,"subject_id":"92197","group":"Group2","condition":"3_Rep","full_date":"2026-02-03T20:31:57.605Z","date":"2026-02-03","time":"20:31:57"},{"task":"memory_phase","broad_category":"I","image_png":"I_Pumice_13.png","image_id":141,"category_name":"Pumice","category":9,"distinct_rating":3.12,"distinct_type":"Bottom","rt":null,"stimulus":"Stimuli_Rocks480/I_Pumice_13.png","response":null,"trial_type":"image-keyboard-response","trial_index":142,"plugin_version":"2.1.0","time_elapsed":271301,"subject_id":"92197","group":"Group2","condition":"3_Rep","full_date":"2026-02-03T20:31:57.605Z","date":"2026-02-03","time":"20:31:57"},{"rt":null,"stimulus":"<p style=\"font-size: 50px; margin: 0; text-align: center;\">+</p>","response":null,"trial_type":"html-keyboard-response","trial_index":143,"plugin_version":"2.1.0","time_elapsed":272304,"subject_id":"92197","group":"Group2","condition":"3_Rep","full_date":"2026-02-03T20:31:57.605Z","date":"2026-02-03","time":"20:31:57"},{"task":"memory_phase","broad_category":"S","image_png":"S_Dolomite_07.png","image_id":391,"category_name":"Dolomite","category":25,"distinct_rating":1.73,"distinct_type":"Bottom","rt":null,"stimulus":"Stimuli_Rocks480/S_Dolomite_07.png","response":null,"trial_type":"image-keyboard-response","trial_index":144,"plugin_version":"2.1.0","time_elapsed":274808,"subject_id":"92197","group":"Group2","condition":"3_Rep","full_date":"2026-02-03T20:31:57.605Z","date":"2026-02-03","time":"20:31:57"},{"rt":null,"stimulus":"<p style=\"font-size: 50px; margin: 0; text-align: center;\">+</p>","response":null,"trial_type":"html-keyboard-response","trial_index":145,"plugin_version":"2.1.0","time_elapsed":275810,"subject_id":"92197","group":"Group2","condition":"3_Rep","full_date":"2026-02-03T20:31:57.605Z","date":"2026-02-03","time":"20:31:57"},{"task":"memory_phase","broad_category":"S","image_png":"S_Shale_03.png","image_id":467,"category_name":"Shale","category":30,"distinct_rating":1.95,"distinct_type":"Bottom","rt":null,"stimulus":"Stimuli_Rocks480/S_Shale_03.png","response":null,"trial_type":"image-keyboard-response","trial_index":146,"plugin_version":"2.1.0","time_elapsed":278314,"subject_id":"92197","group":"Group2","condition":"3_Rep","full_date":"2026-02-03T20:31:57.605Z","date":"2026-02-03","time":"20:31:57"},{"rt":null,"stimulus":"<p style=\"font-size: 50px; margin: 0; text-align: center;\">+</p>","response":null,"trial_type":"html-keyboard-response","trial_index":147,"plugin_version":"2.1.0","time_elapsed":279316,"subject_id":"92197","group":"Group2","condition":"3_Rep","full_date":"2026-02-03T20:31:57.605Z","date":"2026-02-03","time":"20:31:57"},{"task":"memory_phase","broad_category":"I","image_png":"I_Rhyolite_08.png","image_id":152,"category_name":"Rhyolite","category":10,"distinct_rating":1.38,"distinct_type":"Bottom","rt":null,"stimulus":"Stimuli_Rocks480/I_Rhyolite_08.png","response":null,"trial_type":"image-keyboard-response","trial_index":148,"plugin_version":"2.1.0","time_elapsed":281820,"subject_id":"92197","group":"Group2","condition":"3_Rep","full_date":"2026-02-03T20:31:57.605Z","date":"2026-02-03","time":"20:31:57"},{"rt":null,"stimulus":"<p style=\"font-size: 50px; margin: 0; text-align: center;\">+</p>","response":null,"trial_type":"html-keyboard-response","trial_index":149,"plugin_version":"2.1.0","time_elapsed":282822,"subject_id":"92197","group":"Group2","condition":"3_Rep","full_date":"2026-02-03T20:31:57.605Z","date":"2026-02-03","time":"20:31:57"},{"task":"memory_phase","broad_category":"I","image_png":"I_Pumice_14.png","image_id":142,"category_name":"Pumice","category":9,"distinct_rating":3.22,"distinct_type":"Bottom","rt":null,"stimulus":"Stimuli_Rocks480/I_Pumice_14.png","response":null,"trial_type":"image-keyboard-response","trial_index":150,"plugin_version":"2.1.0","time_elapsed":285325,"subject_id":"92197","group":"Group2","condition":"3_Rep","full_date":"2026-02-03T20:31:57.605Z","date":"2026-02-03","time":"20:31:57"},{"rt":null,"stimulus":"<p style=\"font-size: 50px; margin: 0; text-align: center;\">+</p>","response":null,"trial_type":"html-keyboard-response","trial_index":151,"plugin_version":"2.1.0","time_elapsed":286328,"subject_id":"92197","group":"Group2","condition":"3_Rep","full_date":"2026-02-03T20:31:57.605Z","date":"2026-02-03","time":"20:31:57"},{"task":"memory_phase","broad_category":"M","image_png":"M_Gneiss_14.png","image_id":206,"category_name":"Gneiss","category":13,"distinct_rating":3.41,"distinct_type":"Bottom","rt":null,"stimulus":"Stimuli_Rocks480/M_Gneiss_14.png","response":null,"trial_type":"image-keyboard-response","trial_index":152,"plugin_version":"2.1.0","time_elapsed":288832,"subject_id":"92197","group":"Group2","condition":"3_Rep","full_date":"2026-02-03T20:31:57.605Z","date":"2026-02-03","time":"20:31:57"},{"rt":null,"stimulus":"<p style=\"font-size: 50px; margin: 0; text-align: center;\">+</p>","response":null,"trial_type":"html-keyboard-response","trial_index":153,"plugin_version":"2.1.0","time_elapsed":289835,"subject_id":"92197","group":"Group2","condition":"3_Rep","full_date":"2026-02-03T20:31:57.605Z","date":"2026-02-03","time":"20:31:57"},{"task":"memory_phase","broad_category":"S","image_png":"S_Dolomite_01.png","image_id":385,"category_name":"Dolomite","category":25,"distinct_rating":1.43,"distinct_type":"Bottom","rt":null,"stimulus":"Stimuli_Rocks480/S_Dolomite_01.png","response":null,"trial_type":"image-keyboard-response","trial_index":154,"plugin_version":"2.1.0","time_elapsed":292338,"subject_id":"92197","group":"Group2","condition":"3_Rep","full_date":"2026-02-03T20:31:57.605Z","date":"2026-02-03","time":"20:31:57"},{"rt":null,"stimulus":"<p style=\"font-size: 50px; margin: 0; text-align: center;\">+</p>","response":null,"trial_type":"html-keyboard-response","trial_index":155,"plugin_version":"2.1.0","time_elapsed":293339,"subject_id":"92197","group":"Group2","condition":"3_Rep","full_date":"2026-02-03T20:31:57.605Z","date":"2026-02-03","time":"20:31:57"},{"task":"memory_phase","broad_category":"I","image_png":"I_Diorite_15.png","image_id":47,"category_name":"Diorite","category":3,"distinct_rating":3.05,"distinct_type":"Bottom","rt":null,"stimulus":"Stimuli_Rocks480/I_Diorite_15.png","response":null,"trial_type":"image-keyboard-response","trial_index":156,"plugin_version":"2.1.0","time_elapsed":295843,"subject_id":"92197","group":"Group2","condition":"3_Rep","full_date":"2026-02-03T20:31:57.605Z","date":"2026-02-03","time":"20:31:57"},{"rt":6816,"stimulus":"<p style=\"max-width: 760px; margin: auto; font-size: 35px; line-height: 1.5;\">\n                Press SPACE to continue study phase\n              </p>","response":" ","trial_type":"html-keyboard-response","trial_index":157,"plugin_version":"2.1.0","time_elapsed":302660,"subject_id":"92197","group":"Group2","condition":"3_Rep","full_date":"2026-02-03T20:31:57.605Z","date":"2026-02-03","time":"20:31:57"},{"rt":null,"stimulus":"<p style=\"font-size: 50px; margin: 0; text-align: center;\">+</p>","response":null,"trial_type":"html-keyboard-response","trial_index":158,"plugin_version":"2.1.0","time_elapsed":303663,"subject_id":"92197","group":"Group2","condition":"3_Rep","full_date":"2026-02-03T20:31:57.605Z","date":"2026-02-03","time":"20:31:57"},{"task":"memory_phase","broad_category":"I","image_png":"I_Obsidian_06.png","image_id":86,"category_name":"Obsidian","category":6,"distinct_rating":8.01,"distinct_type":"Top","rt":null,"stimulus":"Stimuli_Rocks480/I_Obsidian_06.png","response":null,"trial_type":"image-keyboard-response","trial_index":159,"plugin_version":"2.1.0","time_elapsed":306167,"subject_id":"92197","group":"Group2","condition":"3_Rep","full_date":"2026-02-03T20:31:57.605Z","date":"2026-02-03","time":"20:31:57"},{"rt":null,"stimulus":"<p style=\"font-size: 50px; margin: 0; text-align: center;\">+</p>","response":null,"trial_type":"html-keyboard-response","trial_index":160,"plugin_version":"2.1.0","time_elapsed":307169,"subject_id":"92197","group":"Group2","condition":"3_Rep","full_date":"2026-02-03T20:31:57.605Z","date":"2026-02-03","time":"20:31:57"},{"task":"memory_phase","broad_category":"I","image_png":"I_Andesite_03.png","image_id":3,"category_name":"Andesite","category":1,"distinct_rating":3.17,"distinct_type":"Bottom","rt":null,"stimulus":"Stimuli_Rocks480/I_Andesite_03.png","response":null,"trial_type":"image-keyboard-response","trial_index":161,"plugin_version":"2.1.0","time_elapsed":309673,"subject_id":"92197","group":"Group2","condition":"3_Rep","full_date":"2026-02-03T20:31:57.605Z","date":"2026-02-03","time":"20:31:57"},{"rt":null,"stimulus":"<p style=\"font-size: 50px; margin: 0; text-align: center;\">+</p>","response":null,"trial_type":"html-keyboard-response","trial_index":162,"plugin_version":"2.1.0","time_elapsed":310675,"subject_id":"92197","group":"Group2","condition":"3_Rep","full_date":"2026-02-03T20:31:57.605Z","date":"2026-02-03","time":"20:31:57"},{"task":"memory_phase","broad_category":"S","image_png":"S_Rock Salt_13.png","image_id":445,"category_name":"Rock Salt","category":28,"distinct_rating":7.58,"distinct_type":"Top","rt":null,"stimulus":"Stimuli_Rocks480/S_Rock Salt_13.png","response":null,"trial_type":"image-keyboard-response","trial_index":163,"plugin_version":"2.1.0","time_elapsed":313179,"subject_id":"92197","group":"Group2","condition":"3_Rep","full_date":"2026-02-03T20:31:57.605Z","date":"2026-02-03","time":"20:31:57"},{"rt":null,"stimulus":"<p style=\"font-size: 50px; margin: 0; text-align: center;\">+</p>","response":null,"trial_type":"html-keyboard-response","trial_index":164,"plugin_version":"2.1.0","time_elapsed":314181,"subject_id":"92197","group":"Group2","condition":"3_Rep","full_date":"2026-02-03T20:31:57.605Z","date":"2026-02-03","time":"20:31:57"},{"task":"memory_phase","broad_category":"I","image_png":"I_Gabbro_14.png","image_id":62,"category_name":"Gabbro","category":4,"distinct_rating":2.95,"distinct_type":"Bottom","rt":null,"stimulus":"Stimuli_Rocks480/I_Gabbro_14.png","response":null,"trial_type":"image-keyboard-response","trial_index":165,"plugin_version":"2.1.0","time_elapsed":316685,"subject_id":"92197","group":"Group2","condition":"3_Rep","full_date":"2026-02-03T20:31:57.605Z","date":"2026-02-03","time":"20:31:57"},{"rt":null,"stimulus":"<p style=\"font-size: 50px; margin: 0; text-align: center;\">+</p>","response":null,"trial_type":"html-keyboard-response","trial_index":166,"plugin_version":"2.1.0","time_elapsed":317687,"subject_id":"92197","group":"Group2","condition":"3_Rep","full_date":"2026-02-03T20:31:57.605Z","date":"2026-02-03","time":"20:31:57"},{"task":"memory_phase","broad_category":"M","image_png":"M_Quartzite_07.png","image_id":279,"category_name":"Quartzite","category":18,"distinct_rating":1.97,"distinct_type":"Bottom","rt":null,"stimulus":"Stimuli_Rocks480/M_Quartzite_07.png","response":null,"trial_type":"image-keyboard-response","trial_index":167,"plugin_version":"2.1.0","time_elapsed":320190,"subject_id":"92197","group":"Group2","condition":"3_Rep","full_date":"2026-02-03T20:31:57.605Z","date":"2026-02-03","time":"20:31:57"},{"rt":null,"stimulus":"<p style=\"font-size: 50px; margin: 0; text-align: center;\">+</p>","response":null,"trial_type":"html-keyboard-response","trial_index":168,"plugin_version":"2.1.0","time_elapsed":321193,"subject_id":"92197","group":"Group2","condition":"3_Rep","full_date":"2026-02-03T20:31:57.605Z","date":"2026-02-03","time":"20:31:57"},{"task":"memory_phase","broad_category":"I","image_png":"I_Diorite_10.png","image_id":42,"category_name":"Diorite","category":3,"distinct_rating":2.84,"distinct_type":"Bottom","rt":null,"stimulus":"Stimuli_Rocks480/I_Diorite_10.png","response":null,"trial_type":"image-keyboard-response","trial_index":169,"plugin_version":"2.1.0","time_elapsed":323697,"subject_id":"92197","group":"Group2","condition":"3_Rep","full_date":"2026-02-03T20:31:57.605Z","date":"2026-02-03","time":"20:31:57"},{"rt":null,"stimulus":"<p style=\"font-size: 50px; margin: 0; text-align: center;\">+</p>","response":null,"trial_type":"html-keyboard-response","trial_index":170,"plugin_version":"2.1.0","time_elapsed":324699,"subject_id":"92197","group":"Group2","condition":"3_Rep","full_date":"2026-02-03T20:31:57.605Z","date":"2026-02-03","time":"20:31:57"},{"task":"memory_phase","broad_category":"I","image_png":"I_Basalt_08.png","image_id":24,"category_name":"Basalt","category":2,"distinct_rating":2.31,"distinct_type":"Bottom","rt":null,"stimulus":"Stimuli_Rocks480/I_Basalt_08.png","response":null,"trial_type":"image-keyboard-response","trial_index":171,"plugin_version":"2.1.0","time_elapsed":327202,"subject_id":"92197","group":"Group2","condition":"3_Rep","full_date":"2026-02-03T20:31:57.605Z","date":"2026-02-03","time":"20:31:57"},{"rt":null,"stimulus":"<p style=\"font-size: 50px; margin: 0; text-align: center;\">+</p>","response":null,"trial_type":"html-keyboard-response","trial_index":172,"plugin_version":"2.1.0","time_elapsed":328205,"subject_id":"92197","group":"Group2","condition":"3_Rep","full_date":"2026-02-03T20:31:57.605Z","date":"2026-02-03","time":"20:31:57"},{"task":"memory_phase","broad_category":"I","image_png":"I_Pegmatite_03.png","image_id":99,"category_name":"Pegmatite","category":7,"distinct_rating":7.24,"distinct_type":"Top","rt":null,"stimulus":"Stimuli_Rocks480/I_Pegmatite_03.png","response":null,"trial_type":"image-keyboard-response","trial_index":173,"plugin_version":"2.1.0","time_elapsed":330708,"subject_id":"92197","group":"Group2","condition":"3_Rep","full_date":"2026-02-03T20:31:57.605Z","date":"2026-02-03","time":"20:31:57"},{"rt":null,"stimulus":"<p style=\"font-size: 50px; margin: 0; text-align: center;\">+</p>","response":null,"trial_type":"html-keyboard-response","trial_index":174,"plugin_version":"2.1.0","time_elapsed":331711,"subject_id":"92197","group":"Group2","condition":"3_Rep","full_date":"2026-02-03T20:31:57.605Z","date":"2026-02-03","time":"20:31:57"},{"task":"memory_phase","broad_category":"I","image_png":"I_Rhyolite_05.png","image_id":149,"category_name":"Rhyolite","category":10,"distinct_rating":3.02,"distinct_type":"Bottom","rt":null,"stimulus":"Stimuli_Rocks480/I_Rhyolite_05.png","response":null,"trial_type":"image-keyboard-response","trial_index":175,"plugin_version":"2.1.0","time_elapsed":334214,"subject_id":"92197","group":"Group2","condition":"3_Rep","full_date":"2026-02-03T20:31:57.605Z","date":"2026-02-03","time":"20:31:57"},{"rt":null,"stimulus":"<p style=\"font-size: 50px; margin: 0; text-align: center;\">+</p>","response":null,"trial_type":"html-keyboard-response","trial_index":176,"plugin_version":"2.1.0","time_elapsed":335216,"subject_id":"92197","group":"Group2","condition":"3_Rep","full_date":"2026-02-03T20:31:57.605Z","date":"2026-02-03","time":"20:31:57"},{"task":"memory_phase","broad_category":"I","image_png":"I_Pegmatite_11.png","image_id":107,"category_name":"Pegmatite","category":7,"distinct_rating":7.11,"distinct_type":"Top","rt":null,"stimulus":"Stimuli_Rocks480/I_Pegmatite_11.png","response":null,"trial_type":"image-keyboard-response","trial_index":177,"plugin_version":"2.1.0","time_elapsed":337720,"subject_id":"92197","group":"Group2","condition":"3_Rep","full_date":"2026-02-03T20:31:57.605Z","date":"2026-02-03","time":"20:31:57"},{"rt":null,"stimulus":"<p style=\"font-size: 50px; margin: 0; text-align: center;\">+</p>","response":null,"trial_type":"html-keyboard-response","trial_index":178,"plugin_version":"2.1.0","time_elapsed":338722,"subject_id":"92197","group":"Group2","condition":"3_Rep","full_date":"2026-02-03T20:31:57.605Z","date":"2026-02-03","time":"20:31:57"},{"task":"memory_phase","broad_category":"I","image_png":"I_Pumice_01.png","image_id":129,"category_name":"Pumice","category":9,"distinct_rating":3.25,"distinct_type":"Bottom","rt":null,"stimulus":"Stimuli_Rocks480/I_Pumice_01.png","response":null,"trial_type":"image-keyboard-response","trial_index":179,"plugin_version":"2.1.0","time_elapsed":341226,"subject_id":"92197","group":"Group2","condition":"3_Rep","full_date":"2026-02-03T20:31:57.605Z","date":"2026-02-03","time":"20:31:57"},{"rt":null,"stimulus":"<p style=\"font-size: 50px; margin: 0; text-align: center;\">+</p>","response":null,"trial_type":"html-keyboard-response","trial_index":180,"plugin_version":"2.1.0","time_elapsed":342229,"subject_id":"92197","group":"Group2","condition":"3_Rep","full_date":"2026-02-03T20:31:57.605Z","date":"2026-02-03","time":"20:31:57"},{"task":"memory_phase","broad_category":"I","image_png":"I_Peridotite_13.png","image_id":125,"category_name":"Peridotite","category":8,"distinct_rating":7.28,"distinct_type":"Top","rt":null,"stimulus":"Stimuli_Rocks480/I_Peridotite_13.png","response":null,"trial_type":"image-keyboard-response","trial_index":181,"plugin_version":"2.1.0","time_elapsed":344732,"subject_id":"92197","group":"Group2","condition":"3_Rep","full_date":"2026-02-03T20:31:57.605Z","date":"2026-02-03","time":"20:31:57"},{"rt":null,"stimulus":"<p style=\"font-size: 50px; margin: 0; text-align: center;\">+</p>","response":null,"trial_type":"html-keyboard-response","trial_index":182,"plugin_version":"2.1.0","time_elapsed":345734,"subject_id":"92197","group":"Group2","condition":"3_Rep","full_date":"2026-02-03T20:31:57.605Z","date":"2026-02-03","time":"20:31:57"},{"task":"memory_phase","broad_category":"M","image_png":"M_Slate_14.png","image_id":318,"category_name":"Slate","category":20,"distinct_rating":2.58,"distinct_type":"Bottom","rt":null,"stimulus":"Stimuli_Rocks480/M_Slate_14.png","response":null,"trial_type":"image-keyboard-response","trial_index":183,"plugin_version":"2.1.0","time_elapsed":348237,"subject_id":"92197","group":"Group2","condition":"3_Rep","full_date":"2026-02-03T20:31:57.605Z","date":"2026-02-03","time":"20:31:57"},{"rt":null,"stimulus":"<p style=\"font-size: 50px; margin: 0; text-align: center;\">+</p>","response":null,"trial_type":"html-keyboard-response","trial_index":184,"plugin_version":"2.1.0","time_elapsed":349240,"subject_id":"92197","group":"Group2","condition":"3_Rep","full_date":"2026-02-03T20:31:57.605Z","date":"2026-02-03","time":"20:31:57"},{"task":"memory_phase","broad_category":"S","image_png":"S_Shale_02.png","image_id":466,"category_name":"Shale","category":30,"distinct_rating":2.9,"distinct_type":"Bottom","rt":null,"stimulus":"Stimuli_Rocks480/S_Shale_02.png","response":null,"trial_type":"image-keyboard-response","trial_index":185,"plugin_version":"2.1.0","time_elapsed":351744,"subject_id":"92197","group":"Group2","condition":"3_Rep","full_date":"2026-02-03T20:31:57.605Z","date":"2026-02-03","time":"20:31:57"},{"rt":null,"stimulus":"<p style=\"font-size: 50px; margin: 0; text-align: center;\">+</p>","response":null,"trial_type":"html-keyboard-response","trial_index":186,"plugin_version":"2.1.0","time_elapsed":352747,"subject_id":"92197","group":"Group2","condition":"3_Rep","full_date":"2026-02-03T20:31:57.605Z","date":"2026-02-03","time":"20:31:57"},{"task":"memory_phase","broad_category":"M","image_png":"M_Quartzite_15.png","image_id":287,"category_name":"Quartzite","category":18,"distinct_rating":2.19,"distinct_type":"Bottom","rt":null,"stimulus":"Stimuli_Rocks480/M_Quartzite_15.png","response":null,"trial_type":"image-keyboard-response","trial_index":187,"plugin_version":"2.1.0","time_elapsed":355251,"subject_id":"92197","group":"Group2","condition":"3_Rep","full_date":"2026-02-03T20:31:57.605Z","date":"2026-02-03","time":"20:31:57"},{"rt":null,"stimulus":"<p style=\"font-size: 50px; margin: 0; text-align: center;\">+</p>","response":null,"trial_type":"html-keyboard-response","trial_index":188,"plugin_version":"2.1.0","time_elapsed":356254,"subject_id":"92197","group":"Group2","condition":"3_Rep","full_date":"2026-02-03T20:31:57.605Z","date":"2026-02-03","time":"20:31:57"},{"task":"memory_phase","broad_category":"M","image_png":"M_Marble_02.png","image_id":226,"category_name":"Marble","category":15,"distinct_rating":3.2,"distinct_type":"Bottom","rt":null,"stimulus":"Stimuli_Rocks480/M_Marble_02.png","response":null,"trial_type":"image-keyboard-response","trial_index":189,"plugin_version":"2.1.0","time_elapsed":358757,"subject_id":"92197","group":"Group2","condition":"3_Rep","full_date":"2026-02-03T20:31:57.605Z","date":"2026-02-03","time":"20:31:57"},{"rt":null,"stimulus":"<p style=\"font-size: 50px; margin: 0; text-align: center;\">+</p>","response":null,"trial_type":"html-keyboard-response","trial_index":190,"plugin_version":"2.1.0","time_elapsed":359759,"subject_id":"92197","group":"Group2","condition":"3_Rep","full_date":"2026-02-03T20:31:57.605Z","date":"2026-02-03","time":"20:31:57"},{"task":"memory_phase","broad_category":"M","image_png":"M_Quartzite_12.png","image_id":284,"category_name":"Quartzite","category":18,"distinct_rating":1.92,"distinct_type":"Bottom","rt":null,"stimulus":"Stimuli_Rocks480/M_Quartzite_12.png","response":null,"trial_type":"image-keyboard-response","trial_index":191,"plugin_version":"2.1.0","time_elapsed":362263,"subject_id":"92197","group":"Group2","condition":"3_Rep","full_date":"2026-02-03T20:31:57.605Z","date":"2026-02-03","time":"20:31:57"},{"rt":null,"stimulus":"<p style=\"font-size: 50px; margin: 0; text-align: center;\">+</p>","response":null,"trial_type":"html-keyboard-response","trial_index":192,"plugin_version":"2.1.0","time_elapsed":363265,"subject_id":"92197","group":"Group2","condition":"3_Rep","full_date":"2026-02-03T20:31:57.605Z","date":"2026-02-03","time":"20:31:57"},{"task":"memory_phase","broad_category":"S","image_png":"S_Dolomite_16.png","image_id":400,"category_name":"Dolomite","category":25,"distinct_rating":1.71,"distinct_type":"Bottom","rt":null,"stimulus":"Stimuli_Rocks480/S_Dolomite_16.png","response":null,"trial_type":"image-keyboard-response","trial_index":193,"plugin_version":"2.1.0","time_elapsed":365769,"subject_id":"92197","group":"Group2","condition":"3_Rep","full_date":"2026-02-03T20:31:57.605Z","date":"2026-02-03","time":"20:31:57"},{"rt":null,"stimulus":"<p style=\"font-size: 50px; margin: 0; text-align: center;\">+</p>","response":null,"trial_type":"html-keyboard-response","trial_index":194,"plugin_version":"2.1.0","time_elapsed":366772,"subject_id":"92197","group":"Group2","condition":"3_Rep","full_date":"2026-02-03T20:31:57.605Z","date":"2026-02-03","time":"20:31:57"},{"task":"memory_phase","broad_category":"S","image_png":"S_Sandstone_04.png","image_id":452,"category_name":"Sandstone","category":29,"distinct_rating":1.8,"distinct_type":"Bottom","rt":null,"stimulus":"Stimuli_Rocks480/S_Sandstone_04.png","response":null,"trial_type":"image-keyboard-response","trial_index":195,"plugin_version":"2.1.0","time_elapsed":369275,"subject_id":"92197","group":"Group2","condition":"3_Rep","full_date":"2026-02-03T20:31:57.605Z","date":"2026-02-03","time":"20:31:57"},{"rt":null,"stimulus":"<p style=\"font-size: 50px; margin: 0; text-align: center;\">+</p>","response":null,"trial_type":"html-keyboard-response","trial_index":196,"plugin_version":"2.1.0","time_elapsed":370277,"subject_id":"92197","group":"Group2","condition":"3_Rep","full_date":"2026-02-03T20:31:57.605Z","date":"2026-02-03","time":"20:31:57"},{"task":"memory_phase","broad_category":"I","image_png":"I_Basalt_13.png","image_id":29,"category_name":"Basalt","category":2,"distinct_rating":2.68,"distinct_type":"Bottom","rt":null,"stimulus":"Stimuli_Rocks480/I_Basalt_13.png","response":null,"trial_type":"image-keyboard-response","trial_index":197,"plugin_version":"2.1.0","time_elapsed":372781,"subject_id":"92197","group":"Group2","condition":"3_Rep","full_date":"2026-02-03T20:31:57.605Z","date":"2026-02-03","time":"20:31:57"},{"rt":null,"stimulus":"<p style=\"font-size: 50px; margin: 0; text-align: center;\">+</p>","response":null,"trial_type":"html-keyboard-response","trial_index":198,"plugin_version":"2.1.0","time_elapsed":373783,"subject_id":"92197","group":"Group2","condition":"3_Rep","full_date":"2026-02-03T20:31:57.605Z","date":"2026-02-03","time":"20:31:57"},{"task":"memory_phase","broad_category":"I","image_png":"I_Diorite_01.png","image_id":33,"category_name":"Diorite","category":3,"distinct_rating":2.97,"distinct_type":"Bottom","rt":null,"stimulus":"Stimuli_Rocks480/I_Diorite_01.png","response":null,"trial_type":"image-keyboard-response","trial_index":199,"plugin_version":"2.1.0","time_elapsed":376287,"subject_id":"92197","group":"Group2","condition":"3_Rep","full_date":"2026-02-03T20:31:57.605Z","date":"2026-02-03","time":"20:31:57"},{"rt":null,"stimulus":"<p style=\"font-size: 50px; margin: 0; text-align: center;\">+</p>","response":null,"trial_type":"html-keyboard-response","trial_index":200,"plugin_version":"2.1.0","time_elapsed":377290,"subject_id":"92197","group":"Group2","condition":"3_Rep","full_date":"2026-02-03T20:31:57.605Z","date":"2026-02-03","time":"20:31:57"},{"task":"memory_phase","broad_category":"M","image_png":"M_Slate_10.png","image_id":314,"category_name":"Slate","category":20,"distinct_rating":1.94,"distinct_type":"Bottom","rt":null,"stimulus":"Stimuli_Rocks480/M_Slate_10.png","response":null,"trial_type":"image-keyboard-response","trial_index":201,"plugin_version":"2.1.0","time_elapsed":379794,"subject_id":"92197","group":"Group2","condition":"3_Rep","full_date":"2026-02-03T20:31:57.605Z","date":"2026-02-03","time":"20:31:57"},{"rt":null,"stimulus":"<p style=\"font-size: 50px; margin: 0; text-align: center;\">+</p>","response":null,"trial_type":"html-keyboard-response","trial_index":202,"plugin_version":"2.1.0","time_elapsed":380796,"subject_id":"92197","group":"Group2","condition":"3_Rep","full_date":"2026-02-03T20:31:57.605Z","date":"2026-02-03","time":"20:31:57"},{"task":"memory_phase","broad_category":"I","image_png":"I_Gabbro_02.png","image_id":50,"category_name":"Gabbro","category":4,"distinct_rating":2.73,"distinct_type":"Bottom","rt":null,"stimulus":"Stimuli_Rocks480/I_Gabbro_02.png","response":null,"trial_type":"image-keyboard-response","trial_index":203,"plugin_version":"2.1.0","time_elapsed":383299,"subject_id":"92197","group":"Group2","condition":"3_Rep","full_date":"2026-02-03T20:31:57.605Z","date":"2026-02-03","time":"20:31:57"},{"rt":null,"stimulus":"<p style=\"font-size: 50px; margin: 0; text-align: center;\">+</p>","response":null,"trial_type":"html-keyboard-response","trial_index":204,"plugin_version":"2.1.0","time_elapsed":384302,"subject_id":"92197","group":"Group2","condition":"3_Rep","full_date":"2026-02-03T20:31:57.605Z","date":"2026-02-03","time":"20:31:57"},{"task":"memory_phase","broad_category":"M","image_png":"M_Gneiss_10.png","image_id":202,"category_name":"Gneiss","category":13,"distinct_rating":3.09,"distinct_type":"Bottom","rt":null,"stimulus":"Stimuli_Rocks480/M_Gneiss_10.png","response":null,"trial_type":"image-keyboard-response","trial_index":205,"plugin_version":"2.1.0","time_elapsed":386805,"subject_id":"92197","group":"Group2","condition":"3_Rep","full_date":"2026-02-03T20:31:57.605Z","date":"2026-02-03","time":"20:31:57"},{"rt":null,"stimulus":"<p style=\"font-size: 50px; margin: 0; text-align: center;\">+</p>","response":null,"trial_type":"html-keyboard-response","trial_index":206,"plugin_version":"2.1.0","time_elapsed":387807,"subject_id":"92197","group":"Group2","condition":"3_Rep","full_date":"2026-02-03T20:31:57.605Z","date":"2026-02-03","time":"20:31:57"},{"task":"memory_phase","broad_category":"S","image_png":"S_Shale_07.png","image_id":471,"category_name":"Shale","category":30,"distinct_rating":2.73,"distinct_type":"Bottom","rt":null,"stimulus":"Stimuli_Rocks480/S_Shale_07.png","response":null,"trial_type":"image-keyboard-response","trial_index":207,"plugin_version":"2.1.0","time_elapsed":390309,"subject_id":"92197","group":"Group2","condition":"3_Rep","full_date":"2026-02-03T20:31:57.605Z","date":"2026-02-03","time":"20:31:57"},{"rt":9295,"stimulus":"<p style=\"max-width: 760px; margin: auto; font-size: 35px; line-height: 1.5;\">\n                You have completed 2 study phases. \n                Now, we'll show you all the images again 1 more time.\n                <br><br>Press SPACE to continue\n              </p>","response":" ","trial_type":"html-keyboard-response","trial_index":208,"plugin_version":"2.1.0","time_elapsed":399606,"subject_id":"92197","group":"Group2","condition":"3_Rep","full_date":"2026-02-03T20:31:57.605Z","date":"2026-02-03","time":"20:31:57"},{"rt":null,"stimulus":"<p style=\"font-size: 50px; margin: 0; text-align: center;\">+</p>","response":null,"trial_type":"html-keyboard-response","trial_index":209,"plugin_version":"2.1.0","time_elapsed":400609,"subject_id":"92197","group":"Group2","condition":"3_Rep","full_date":"2026-02-03T20:31:57.605Z","date":"2026-02-03","time":"20:31:57"},{"task":"memory_phase","broad_category":"I","image_png":"I_Basalt_10.png","image_id":26,"category_name":"Basalt","category":2,"distinct_rating":2.76,"distinct_type":"Bottom","rt":null,"stimulus":"Stimuli_Rocks480/I_Basalt_10.png","response":null,"trial_type":"image-keyboard-response","trial_index":210,"plugin_version":"2.1.0","time_elapsed":403112,"subject_id":"92197","group":"Group2","condition":"3_Rep","full_date":"2026-02-03T20:31:57.605Z","date":"2026-02-03","time":"20:31:57"},{"rt":null,"stimulus":"<p style=\"font-size: 50px; margin: 0; text-align: center;\">+</p>","response":null,"trial_type":"html-keyboard-response","trial_index":211,"plugin_version":"2.1.0","time_elapsed":404115,"subject_id":"92197","group":"Group2","condition":"3_Rep","full_date":"2026-02-03T20:31:57.605Z","date":"2026-02-03","time":"20:31:57"},{"task":"memory_phase","broad_category":"M","image_png":"M_Marble_14.png","image_id":238,"category_name":"Marble","category":15,"distinct_rating":3.31,"distinct_type":"Bottom","rt":null,"stimulus":"Stimuli_Rocks480/M_Marble_14.png","response":null,"trial_type":"image-keyboard-response","trial_index":212,"plugin_version":"2.1.0","time_elapsed":406618,"subject_id":"92197","group":"Group2","condition":"3_Rep","full_date":"2026-02-03T20:31:57.605Z","date":"2026-02-03","time":"20:31:57"},{"rt":null,"stimulus":"<p style=\"font-size: 50px; margin: 0; text-align: center;\">+</p>","response":null,"trial_type":"html-keyboard-response","trial_index":213,"plugin_version":"2.1.0","time_elapsed":407621,"subject_id":"92197","group":"Group2","condition":"3_Rep","full_date":"2026-02-03T20:31:57.605Z","date":"2026-02-03","time":"20:31:57"},{"task":"memory_phase","broad_category":"M","image_png":"M_Slate_04.png","image_id":308,"category_name":"Slate","category":20,"distinct_rating":2.2,"distinct_type":"Bottom","rt":null,"stimulus":"Stimuli_Rocks480/M_Slate_04.png","response":null,"trial_type":"image-keyboard-response","trial_index":214,"plugin_version":"2.1.0","time_elapsed":410124,"subject_id":"92197","group":"Group2","condition":"3_Rep","full_date":"2026-02-03T20:31:57.605Z","date":"2026-02-03","time":"20:31:57"},{"rt":null,"stimulus":"<p style=\"font-size: 50px; margin: 0; text-align: center;\">+</p>","response":null,"trial_type":"html-keyboard-response","trial_index":215,"plugin_version":"2.1.0","time_elapsed":411127,"subject_id":"92197","group":"Group2","condition":"3_Rep","full_date":"2026-02-03T20:31:57.605Z","date":"2026-02-03","time":"20:31:57"},{"task":"memory_phase","broad_category":"I","image_png":"I_Rhyolite_10.png","image_id":154,"category_name":"Rhyolite","category":10,"distinct_rating":2.88,"distinct_type":"Bottom","rt":null,"stimulus":"Stimuli_Rocks480/I_Rhyolite_10.png","response":null,"trial_type":"image-keyboard-response","trial_index":216,"plugin_version":"2.1.0","time_elapsed":413631,"subject_id":"92197","group":"Group2","condition":"3_Rep","full_date":"2026-02-03T20:31:57.605Z","date":"2026-02-03","time":"20:31:57"},{"rt":null,"stimulus":"<p style=\"font-size: 50px; margin: 0; text-align: center;\">+</p>","response":null,"trial_type":"html-keyboard-response","trial_index":217,"plugin_version":"2.1.0","time_elapsed":414633,"subject_id":"92197","group":"Group2","condition":"3_Rep","full_date":"2026-02-03T20:31:57.605Z","date":"2026-02-03","time":"20:31:57"},{"task":"memory_phase","broad_category":"S","image_png":"S_Sandstone_04.png","image_id":452,"category_name":"Sandstone","category":29,"distinct_rating":1.8,"distinct_type":"Bottom","rt":null,"stimulus":"Stimuli_Rocks480/S_Sandstone_04.png","response":null,"trial_type":"image-keyboard-response","trial_index":218,"plugin_version":"2.1.0","time_elapsed":417136,"subject_id":"92197","group":"Group2","condition":"3_Rep","full_date":"2026-02-03T20:31:57.605Z","date":"2026-02-03","time":"20:31:57"},{"rt":null,"stimulus":"<p style=\"font-size: 50px; margin: 0; text-align: center;\">+</p>","response":null,"trial_type":"html-keyboard-response","trial_index":219,"plugin_version":"2.1.0","time_elapsed":418138,"subject_id":"92197","group":"Group2","condition":"3_Rep","full_date":"2026-02-03T20:31:57.605Z","date":"2026-02-03","time":"20:31:57"},{"task":"memory_phase","broad_category":"I","image_png":"I_Diorite_01.png","image_id":33,"category_name":"Diorite","category":3,"distinct_rating":2.97,"distinct_type":"Bottom","rt":null,"stimulus":"Stimuli_Rocks480/I_Diorite_01.png","response":null,"trial_type":"image-keyboard-response","trial_index":220,"plugin_version":"2.1.0","time_elapsed":420642,"subject_id":"92197","group":"Group2","condition":"3_Rep","full_date":"2026-02-03T20:31:57.605Z","date":"2026-02-03","time":"20:31:57"},{"rt":null,"stimulus":"<p style=\"font-size: 50px; margin: 0; text-align: center;\">+</p>","response":null,"trial_type":"html-keyboard-response","trial_index":221,"plugin_version":"2.1.0","time_elapsed":421645,"subject_id":"92197","group":"Group2","condition":"3_Rep","full_date":"2026-02-03T20:31:57.605Z","date":"2026-02-03","time":"20:31:57"},{"task":"memory_phase","broad_category":"S","image_png":"S_Sandstone_11.png","image_id":459,"category_name":"Sandstone","category":29,"distinct_rating":1.82,"distinct_type":"Bottom","rt":null,"stimulus":"Stimuli_Rocks480/S_Sandstone_11.png","response":null,"trial_type":"image-keyboard-response","trial_index":222,"plugin_version":"2.1.0","time_elapsed":424149,"subject_id":"92197","group":"Group2","condition":"3_Rep","full_date":"2026-02-03T20:31:57.605Z","date":"2026-02-03","time":"20:31:57"},{"rt":null,"stimulus":"<p style=\"font-size: 50px; margin: 0; text-align: center;\">+</p>","response":null,"trial_type":"html-keyboard-response","trial_index":223,"plugin_version":"2.1.0","time_elapsed":425151,"subject_id":"92197","group":"Group2","condition":"3_Rep","full_date":"2026-02-03T20:31:57.605Z","date":"2026-02-03","time":"20:31:57"},{"task":"memory_phase","broad_category":"M","image_png":"M_Quartzite_15.png","image_id":287,"category_name":"Quartzite","category":18,"distinct_rating":2.19,"distinct_type":"Bottom","rt":null,"stimulus":"Stimuli_Rocks480/M_Quartzite_15.png","response":null,"trial_type":"image-keyboard-response","trial_index":224,"plugin_version":"2.1.0","time_elapsed":427655,"subject_id":"92197","group":"Group2","condition":"3_Rep","full_date":"2026-02-03T20:31:57.605Z","date":"2026-02-03","time":"20:31:57"},{"rt":null,"stimulus":"<p style=\"font-size: 50px; margin: 0; text-align: center;\">+</p>","response":null,"trial_type":"html-keyboard-response","trial_index":225,"plugin_version":"2.1.0","time_elapsed":428656,"subject_id":"92197","group":"Group2","condition":"3_Rep","full_date":"2026-02-03T20:31:57.605Z","date":"2026-02-03","time":"20:31:57"},{"task":"memory_phase","broad_category":"S","image_png":"S_Dolomite_16.png","image_id":400,"category_name":"Dolomite","category":25,"distinct_rating":1.71,"distinct_type":"Bottom","rt":null,"stimulus":"Stimuli_Rocks480/S_Dolomite_16.png","response":null,"trial_type":"image-keyboard-response","trial_index":226,"plugin_version":"2.1.0","time_elapsed":431160,"subject_id":"92197","group":"Group2","condition":"3_Rep","full_date":"2026-02-03T20:31:57.605Z","date":"2026-02-03","time":"20:31:57"},{"rt":null,"stimulus":"<p style=\"font-size: 50px; margin: 0; text-align: center;\">+</p>","response":null,"trial_type":"html-keyboard-response","trial_index":227,"plugin_version":"2.1.0","time_elapsed":432162,"subject_id":"92197","group":"Group2","condition":"3_Rep","full_date":"2026-02-03T20:31:57.605Z","date":"2026-02-03","time":"20:31:57"},{"task":"memory_phase","broad_category":"S","image_png":"S_Shale_03.png","image_id":467,"category_name":"Shale","category":30,"distinct_rating":1.95,"distinct_type":"Bottom","rt":null,"stimulus":"Stimuli_Rocks480/S_Shale_03.png","response":null,"trial_type":"image-keyboard-response","trial_index":228,"plugin_version":"2.1.0","time_elapsed":434666,"subject_id":"92197","group":"Group2","condition":"3_Rep","full_date":"2026-02-03T20:31:57.605Z","date":"2026-02-03","time":"20:31:57"},{"rt":null,"stimulus":"<p style=\"font-size: 50px; margin: 0; text-align: center;\">+</p>","response":null,"trial_type":"html-keyboard-response","trial_index":229,"plugin_version":"2.1.0","time_elapsed":435668,"subject_id":"92197","group":"Group2","condition":"3_Rep","full_date":"2026-02-03T20:31:57.605Z","date":"2026-02-03","time":"20:31:57"},{"task":"memory_phase","broad_category":"M","image_png":"M_Phyllite_02.png","image_id":258,"category_name":"Phyllite","category":17,"distinct_rating":2.89,"distinct_type":"Bottom","rt":null,"stimulus":"Stimuli_Rocks480/M_Phyllite_02.png","response":null,"trial_type":"image-keyboard-response","trial_index":230,"plugin_version":"2.1.0","time_elapsed":438171,"subject_id":"92197","group":"Group2","condition":"3_Rep","full_date":"2026-02-03T20:31:57.605Z","date":"2026-02-03","time":"20:31:57"},{"rt":null,"stimulus":"<p style=\"font-size: 50px; margin: 0; text-align: center;\">+</p>","response":null,"trial_type":"html-keyboard-response","trial_index":231,"plugin_version":"2.1.0","time_elapsed":439172,"subject_id":"92197","group":"Group2","condition":"3_Rep","full_date":"2026-02-03T20:31:57.605Z","date":"2026-02-03","time":"20:31:57"},{"task":"memory_phase","broad_category":"M","image_png":"M_Quartzite_12.png","image_id":284,"category_name":"Quartzite","category":18,"distinct_rating":1.92,"distinct_type":"Bottom","rt":null,"stimulus":"Stimuli_Rocks480/M_Quartzite_12.png","response":null,"trial_type":"image-keyboard-response","trial_index":232,"plugin_version":"2.1.0","time_elapsed":441676,"subject_id":"92197","group":"Group2","condition":"3_Rep","full_date":"2026-02-03T20:31:57.605Z","date":"2026-02-03","time":"20:31:57"},{"rt":null,"stimulus":"<p style=\"font-size: 50px; margin: 0; text-align: center;\">+</p>","response":null,"trial_type":"html-keyboard-response","trial_index":233,"plugin_version":"2.1.0","time_elapsed":442678,"subject_id":"92197","group":"Group2","condition":"3_Rep","full_date":"2026-02-03T20:31:57.605Z","date":"2026-02-03","time":"20:31:57"},{"task":"memory_phase","broad_category":"I","image_png":"I_Gabbro_02.png","image_id":50,"category_name":"Gabbro","category":4,"distinct_rating":2.73,"distinct_type":"Bottom","rt":null,"stimulus":"Stimuli_Rocks480/I_Gabbro_02.png","response":null,"trial_type":"image-keyboard-response","trial_index":234,"plugin_version":"2.1.0","time_elapsed":445182,"subject_id":"92197","group":"Group2","condition":"3_Rep","full_date":"2026-02-03T20:31:57.605Z","date":"2026-02-03","time":"20:31:57"},{"rt":null,"stimulus":"<p style=\"font-size: 50px; margin: 0; text-align: center;\">+</p>","response":null,"trial_type":"html-keyboard-response","trial_index":235,"plugin_version":"2.1.0","time_elapsed":446185,"subject_id":"92197","group":"Group2","condition":"3_Rep","full_date":"2026-02-03T20:31:57.605Z","date":"2026-02-03","time":"20:31:57"},{"task":"memory_phase","broad_category":"I","image_png":"I_Pegmatite_03.png","image_id":99,"category_name":"Pegmatite","category":7,"distinct_rating":7.24,"distinct_type":"Top","rt":null,"stimulus":"Stimuli_Rocks480/I_Pegm