[{"width":1536,"height":730,"webaudio":true,"browser":"chrome","browser_version":"144.0.0","mobile":false,"os":"Windows 10","fullscreen":true,"vsync_rate":60.64,"webcam":true,"microphone":true,"trial_type":"browser-check","trial_index":0,"plugin_version":"2.1.0","time_elapsed":1002,"subject_id":"90862","group":"Group2","condition":"1_Rep","full_date":"2026-02-04T21:22:54.901Z","date":"2026-02-04","time":"21:22:54"},{"success":true,"timeout":false,"failed_images":[],"failed_audio":[],"failed_video":[],"trial_type":"preload","trial_index":1,"plugin_version":"2.1.0","time_elapsed":3254,"subject_id":"90862","group":"Group2","condition":"1_Rep","full_date":"2026-02-04T21:22:54.901Z","date":"2026-02-04","time":"21:22:54"},{"rt":93336,"url":"SONA_consent_memorability.html","trial_type":"external-html","trial_index":2,"plugin_version":"2.1.0","time_elapsed":96753,"subject_id":"90862","group":"Group2","condition":"1_Rep","full_date":"2026-02-04T21:22:54.901Z","date":"2026-02-04","time":"21:22:54"},{"success":true,"rt":7834,"trial_type":"fullscreen","trial_index":3,"plugin_version":"2.1.0","time_elapsed":105612,"subject_id":"90862","group":"Group2","condition":"1_Rep","full_date":"2026-02-04T21:22:54.901Z","date":"2026-02-04","time":"21:22:54"},{"rt":50797,"stimulus":"<div style=\"max-width: 760px; margin: auto; font-size: 20px; line-height: 1.5;\">\n      <h1 style=\"text-align:center; font-size: 30px;\">Instructions</h1>\n      <p>\n        Welcome to the study on <b>visual memory</b>. This experiment consists of <b>two phases</b>: \n        a <b>study phase</b> and a <b>test phase</b>.\n      </p>\n      <p>\n        In the study phase, you will see a series of rock images along with their category labels.\n        The images will appear one at a time.\n        <b>Your task</b> is to learn the categories to which the rock images belong \n        and to remember each image as accurately as possible.\n      </p> \n      <p>\n        Note that you will see each image only <b>once</b> during the study phase. \n          So, please pay close attention and try to remember each image carefully.\n      </p>\n      <p>\n        After the study phase, <b>your memory will be tested</b>. \n        Additional instructions for the test phase will be provided at that time.\n      </p>\n      <p>\n        If your computer has multiple <b>language settings</b> (e.g., English and another language),\n        please make sure it is set to English before starting.\n      </p>\n      <p>\n        You can track your progress using the <b>completion bar</b> at the top of the screen. \n        Please note that the bar will refresh when the test phase begins \n        to give you an accurate sense of your progress in both phases.\n      </p> \n      <p>\n        Press the button below when you are ready to begin.\n      </p>\n    </div>","response":0,"trial_type":"html-button-response","trial_index":4,"plugin_version":"2.1.0","time_elapsed":156441,"subject_id":"90862","group":"Group2","condition":"1_Rep","full_date":"2026-02-04T21:22:54.901Z","date":"2026-02-04","time":"21:22:54"},{"rt":null,"stimulus":"<p style=\"font-size: 50px; margin: 0; text-align: center;\">+</p>","response":null,"trial_type":"html-keyboard-response","trial_index":5,"plugin_version":"2.1.0","time_elapsed":157476,"subject_id":"90862","group":"Group2","condition":"1_Rep","full_date":"2026-02-04T21:22:54.901Z","date":"2026-02-04","time":"21:22:54"},{"task":"memory_phase","broad_category":"I","image_png":"I_Andesite_03.png","image_id":3,"category_name":"Andesite","category":1,"distinct_rating":3.17,"distinct_type":"Bottom","rt":null,"stimulus":"Stimuli_Rocks480/I_Andesite_03.png","response":null,"trial_type":"image-keyboard-response","trial_index":6,"plugin_version":"2.1.0","time_elapsed":159986,"subject_id":"90862","group":"Group2","condition":"1_Rep","full_date":"2026-02-04T21:22:54.901Z","date":"2026-02-04","time":"21:22:54"},{"rt":null,"stimulus":"<p style=\"font-size: 50px; margin: 0; text-align: center;\">+</p>","response":null,"trial_type":"html-keyboard-response","trial_index":7,"plugin_version":"2.1.0","time_elapsed":161002,"subject_id":"90862","group":"Group2","condition":"1_Rep","full_date":"2026-02-04T21:22:54.901Z","date":"2026-02-04","time":"21:22:54"},{"task":"memory_phase","broad_category":"M","image_png":"M_Phyllite_02.png","image_id":258,"category_name":"Phyllite","category":17,"distinct_rating":2.89,"distinct_type":"Bottom","rt":null,"stimulus":"Stimuli_Rocks480/M_Phyllite_02.png","response":null,"trial_type":"image-keyboard-response","trial_index":8,"plugin_version":"2.1.0","time_elapsed":163547,"subject_id":"90862","group":"Group2","condition":"1_Rep","full_date":"2026-02-04T21:22:54.901Z","date":"2026-02-04","time":"21:22:54"},{"rt":null,"stimulus":"<p style=\"font-size: 50px; margin: 0; text-align: center;\">+</p>","response":null,"trial_type":"html-keyboard-response","trial_index":9,"plugin_version":"2.1.0","time_elapsed":164577,"subject_id":"90862","group":"Group2","condition":"1_Rep","full_date":"2026-02-04T21:22:54.901Z","date":"2026-02-04","time":"21:22:54"},{"task":"memory_phase","broad_category":"M","image_png":"M_Gneiss_14.png","image_id":206,"category_name":"Gneiss","category":13,"distinct_rating":3.41,"distinct_type":"Bottom","rt":null,"stimulus":"Stimuli_Rocks480/M_Gneiss_14.png","response":null,"trial_type":"image-keyboard-response","trial_index":10,"plugin_version":"2.1.0","time_elapsed":167116,"subject_id":"90862","group":"Group2","condition":"1_Rep","full_date":"2026-02-04T21:22:54.901Z","date":"2026-02-04","time":"21:22:54"},{"rt":null,"stimulus":"<p style=\"font-size: 50px; margin: 0; text-align: center;\">+</p>","response":null,"trial_type":"html-keyboard-response","trial_index":11,"plugin_version":"2.1.0","time_elapsed":168159,"subject_id":"90862","group":"Group2","condition":"1_Rep","full_date":"2026-02-04T21:22:54.901Z","date":"2026-02-04","time":"21:22:54"},{"task":"memory_phase","broad_category":"I","image_png":"I_Basalt_13.png","image_id":29,"category_name":"Basalt","category":2,"distinct_rating":2.68,"distinct_type":"Bottom","rt":null,"stimulus":"Stimuli_Rocks480/I_Basalt_13.png","response":null,"trial_type":"image-keyboard-response","trial_index":12,"plugin_version":"2.1.0","time_elapsed":170689,"subject_id":"90862","group":"Group2","condition":"1_Rep","full_date":"2026-02-04T21:22:54.901Z","date":"2026-02-04","time":"21:22:54"},{"rt":null,"stimulus":"<p style=\"font-size: 50px; margin: 0; text-align: center;\">+</p>","response":null,"trial_type":"html-keyboard-response","trial_index":13,"plugin_version":"2.1.0","time_elapsed":171706,"subject_id":"90862","group":"Group2","condition":"1_Rep","full_date":"2026-02-04T21:22:54.901Z","date":"2026-02-04","time":"21:22:54"},{"task":"memory_phase","broad_category":"S","image_png":"S_Sandstone_08.png","image_id":456,"category_name":"Sandstone","category":29,"distinct_rating":1.5,"distinct_type":"Bottom","rt":null,"stimulus":"Stimuli_Rocks480/S_Sandstone_08.png","response":null,"trial_type":"image-keyboard-response","trial_index":14,"plugin_version":"2.1.0","time_elapsed":174216,"subject_id":"90862","group":"Group2","condition":"1_Rep","full_date":"2026-02-04T21:22:54.901Z","date":"2026-02-04","time":"21:22:54"},{"rt":null,"stimulus":"<p style=\"font-size: 50px; margin: 0; text-align: center;\">+</p>","response":null,"trial_type":"html-keyboard-response","trial_index":15,"plugin_version":"2.1.0","time_elapsed":175254,"subject_id":"90862","group":"Group2","condition":"1_Rep","full_date":"2026-02-04T21:22:54.901Z","date":"2026-02-04","time":"21:22:54"},{"task":"memory_phase","broad_category":"S","image_png":"S_Rock Salt_15.png","image_id":447,"category_name":"Rock Salt","category":28,"distinct_rating":7.79,"distinct_type":"Top","rt":null,"stimulus":"Stimuli_Rocks480/S_Rock Salt_15.png","response":null,"trial_type":"image-keyboard-response","trial_index":16,"plugin_version":"2.1.0","time_elapsed":177783,"subject_id":"90862","group":"Group2","condition":"1_Rep","full_date":"2026-02-04T21:22:54.901Z","date":"2026-02-04","time":"21:22:54"},{"rt":null,"stimulus":"<p style=\"font-size: 50px; margin: 0; text-align: center;\">+</p>","response":null,"trial_type":"html-keyboard-response","trial_index":17,"plugin_version":"2.1.0","time_elapsed":178825,"subject_id":"90862","group":"Group2","condition":"1_Rep","full_date":"2026-02-04T21:22:54.901Z","date":"2026-02-04","time":"21:22:54"},{"task":"memory_phase","broad_category":"I","image_png":"I_Pumice_14.png","image_id":142,"category_name":"Pumice","category":9,"distinct_rating":3.22,"distinct_type":"Bottom","rt":null,"stimulus":"Stimuli_Rocks480/I_Pumice_14.png","response":null,"trial_type":"image-keyboard-response","trial_index":18,"plugin_version":"2.1.0","time_elapsed":181358,"subject_id":"90862","group":"Group2","condition":"1_Rep","full_date":"2026-02-04T21:22:54.901Z","date":"2026-02-04","time":"21:22:54"},{"rt":null,"stimulus":"<p style=\"font-size: 50px; margin: 0; text-align: center;\">+</p>","response":null,"trial_type":"html-keyboard-response","trial_index":19,"plugin_version":"2.1.0","time_elapsed":182384,"subject_id":"90862","group":"Group2","condition":"1_Rep","full_date":"2026-02-04T21:22:54.901Z","date":"2026-02-04","time":"21:22:54"},{"task":"memory_phase","broad_category":"I","image_png":"I_Peridotite_13.png","image_id":125,"category_name":"Peridotite","category":8,"distinct_rating":7.28,"distinct_type":"Top","rt":null,"stimulus":"Stimuli_Rocks480/I_Peridotite_13.png","response":null,"trial_type":"image-keyboard-response","trial_index":20,"plugin_version":"2.1.0","time_elapsed":184921,"subject_id":"90862","group":"Group2","condition":"1_Rep","full_date":"2026-02-04T21:22:54.901Z","date":"2026-02-04","time":"21:22:54"},{"rt":null,"stimulus":"<p style=\"font-size: 50px; margin: 0; text-align: center;\">+</p>","response":null,"trial_type":"html-keyboard-response","trial_index":21,"plugin_version":"2.1.0","time_elapsed":185954,"subject_id":"90862","group":"Group2","condition":"1_Rep","full_date":"2026-02-04T21:22:54.901Z","date":"2026-02-04","time":"21:22:54"},{"task":"memory_phase","broad_category":"I","image_png":"I_Basalt_08.png","image_id":24,"category_name":"Basalt","category":2,"distinct_rating":2.31,"distinct_type":"Bottom","rt":null,"stimulus":"Stimuli_Rocks480/I_Basalt_08.png","response":null,"trial_type":"image-keyboard-response","trial_index":22,"plugin_version":"2.1.0","time_elapsed":188491,"subject_id":"90862","group":"Group2","condition":"1_Rep","full_date":"2026-02-04T21:22:54.901Z","date":"2026-02-04","time":"21:22:54"},{"rt":null,"stimulus":"<p style=\"font-size: 50px; margin: 0; text-align: center;\">+</p>","response":null,"trial_type":"html-keyboard-response","trial_index":23,"plugin_version":"2.1.0","time_elapsed":189525,"subject_id":"90862","group":"Group2","condition":"1_Rep","full_date":"2026-02-04T21:22:54.901Z","date":"2026-02-04","time":"21:22:54"},{"task":"memory_phase","broad_category":"S","image_png":"S_Rock Salt_13.png","image_id":445,"category_name":"Rock Salt","category":28,"distinct_rating":7.58,"distinct_type":"Top","rt":null,"stimulus":"Stimuli_Rocks480/S_Rock Salt_13.png","response":null,"trial_type":"image-keyboard-response","trial_index":24,"plugin_version":"2.1.0","time_elapsed":192061,"subject_id":"90862","group":"Group2","condition":"1_Rep","full_date":"2026-02-04T21:22:54.901Z","date":"2026-02-04","time":"21:22:54"},{"rt":null,"stimulus":"<p style=\"font-size: 50px; margin: 0; text-align: center;\">+</p>","response":null,"trial_type":"html-keyboard-response","trial_index":25,"plugin_version":"2.1.0","time_elapsed":193094,"subject_id":"90862","group":"Group2","condition":"1_Rep","full_date":"2026-02-04T21:22:54.901Z","date":"2026-02-04","time":"21:22:54"},{"task":"memory_phase","broad_category":"I","image_png":"I_Diorite_15.png","image_id":47,"category_name":"Diorite","category":3,"distinct_rating":3.05,"distinct_type":"Bottom","rt":null,"stimulus":"Stimuli_Rocks480/I_Diorite_15.png","response":null,"trial_type":"image-keyboard-response","trial_index":26,"plugin_version":"2.1.0","time_elapsed":195630,"subject_id":"90862","group":"Group2","condition":"1_Rep","full_date":"2026-02-04T21:22:54.901Z","date":"2026-02-04","time":"21:22:54"},{"rt":null,"stimulus":"<p style=\"font-size: 50px; margin: 0; text-align: center;\">+</p>","response":null,"trial_type":"html-keyboard-response","trial_index":27,"plugin_version":"2.1.0","time_elapsed":196672,"subject_id":"90862","group":"Group2","condition":"1_Rep","full_date":"2026-02-04T21:22:54.901Z","date":"2026-02-04","time":"21:22:54"},{"task":"memory_phase","broad_category":"M","image_png":"M_Quartzite_12.png","image_id":284,"category_name":"Quartzite","category":18,"distinct_rating":1.92,"distinct_type":"Bottom","rt":null,"stimulus":"Stimuli_Rocks480/M_Quartzite_12.png","response":null,"trial_type":"image-keyboard-response","trial_index":28,"plugin_version":"2.1.0","time_elapsed":199203,"subject_id":"90862","group":"Group2","condition":"1_Rep","full_date":"2026-02-04T21:22:54.901Z","date":"2026-02-04","time":"21:22:54"},{"rt":null,"stimulus":"<p style=\"font-size: 50px; margin: 0; text-align: center;\">+</p>","response":null,"trial_type":"html-keyboard-response","trial_index":29,"plugin_version":"2.1.0","time_elapsed":200242,"subject_id":"90862","group":"Group2","condition":"1_Rep","full_date":"2026-02-04T21:22:54.901Z","date":"2026-02-04","time":"21:22:54"},{"task":"memory_phase","broad_category":"I","image_png":"I_Obsidian_06.png","image_id":86,"category_name":"Obsidian","category":6,"distinct_rating":8.01,"distinct_type":"Top","rt":null,"stimulus":"Stimuli_Rocks480/I_Obsidian_06.png","response":null,"trial_type":"image-keyboard-response","trial_index":30,"plugin_version":"2.1.0","time_elapsed":202781,"subject_id":"90862","group":"Group2","condition":"1_Rep","full_date":"2026-02-04T21:22:54.901Z","date":"2026-02-04","time":"21:22:54"},{"rt":null,"stimulus":"<p style=\"font-size: 50px; margin: 0; text-align: center;\">+</p>","response":null,"trial_type":"html-keyboard-response","trial_index":31,"plugin_version":"2.1.0","time_elapsed":203822,"subject_id":"90862","group":"Group2","condition":"1_Rep","full_date":"2026-02-04T21:22:54.901Z","date":"2026-02-04","time":"21:22:54"},{"task":"memory_phase","broad_category":"M","image_png":"M_Marble_02.png","image_id":226,"category_name":"Marble","category":15,"distinct_rating":3.2,"distinct_type":"Bottom","rt":null,"stimulus":"Stimuli_Rocks480/M_Marble_02.png","response":null,"trial_type":"image-keyboard-response","trial_index":32,"plugin_version":"2.1.0","time_elapsed":206356,"subject_id":"90862","group":"Group2","condition":"1_Rep","full_date":"2026-02-04T21:22:54.901Z","date":"2026-02-04","time":"21:22:54"},{"rt":null,"stimulus":"<p style=\"font-size: 50px; margin: 0; text-align: center;\">+</p>","response":null,"trial_type":"html-keyboard-response","trial_index":33,"plugin_version":"2.1.0","time_elapsed":207396,"subject_id":"90862","group":"Group2","condition":"1_Rep","full_date":"2026-02-04T21:22:54.901Z","date":"2026-02-04","time":"21:22:54"},{"task":"memory_phase","broad_category":"I","image_png":"I_Rhyolite_10.png","image_id":154,"category_name":"Rhyolite","category":10,"distinct_rating":2.88,"distinct_type":"Bottom","rt":null,"stimulus":"Stimuli_Rocks480/I_Rhyolite_10.png","response":null,"trial_type":"image-keyboard-response","trial_index":34,"plugin_version":"2.1.0","time_elapsed":209930,"subject_id":"90862","group":"Group2","condition":"1_Rep","full_date":"2026-02-04T21:22:54.901Z","date":"2026-02-04","time":"21:22:54"},{"rt":null,"stimulus":"<p style=\"font-size: 50px; margin: 0; text-align: center;\">+</p>","response":null,"trial_type":"html-keyboard-response","trial_index":35,"plugin_version":"2.1.0","time_elapsed":210938,"subject_id":"90862","group":"Group2","condition":"1_Rep","full_date":"2026-02-04T21:22:54.901Z","date":"2026-02-04","time":"21:22:54"},{"task":"memory_phase","broad_category":"I","image_png":"I_Andesite_04.png","image_id":4,"category_name":"Andesite","category":1,"distinct_rating":3.18,"distinct_type":"Bottom","rt":null,"stimulus":"Stimuli_Rocks480/I_Andesite_04.png","response":null,"trial_type":"image-keyboard-response","trial_index":36,"plugin_version":"2.1.0","time_elapsed":213507,"subject_id":"90862","group":"Group2","condition":"1_Rep","full_date":"2026-02-04T21:22:54.901Z","date":"2026-02-04","time":"21:22:54"},{"rt":null,"stimulus":"<p style=\"font-size: 50px; margin: 0; text-align: center;\">+</p>","response":null,"trial_type":"html-keyboard-response","trial_index":37,"plugin_version":"2.1.0","time_elapsed":214548,"subject_id":"90862","group":"Group2","condition":"1_Rep","full_date":"2026-02-04T21:22:54.901Z","date":"2026-02-04","time":"21:22:54"},{"task":"memory_phase","broad_category":"M","image_png":"M_Quartzite_07.png","image_id":279,"category_name":"Quartzite","category":18,"distinct_rating":1.97,"distinct_type":"Bottom","rt":null,"stimulus":"Stimuli_Rocks480/M_Quartzite_07.png","response":null,"trial_type":"image-keyboard-response","trial_index":38,"plugin_version":"2.1.0","time_elapsed":217082,"subject_id":"90862","group":"Group2","condition":"1_Rep","full_date":"2026-02-04T21:22:54.901Z","date":"2026-02-04","time":"21:22:54"},{"rt":null,"stimulus":"<p style=\"font-size: 50px; margin: 0; text-align: center;\">+</p>","response":null,"trial_type":"html-keyboard-response","trial_index":39,"plugin_version":"2.1.0","time_elapsed":218099,"subject_id":"90862","group":"Group2","condition":"1_Rep","full_date":"2026-02-04T21:22:54.901Z","date":"2026-02-04","time":"21:22:54"},{"task":"memory_phase","broad_category":"I","image_png":"I_Pumice_01.png","image_id":129,"category_name":"Pumice","category":9,"distinct_rating":3.25,"distinct_type":"Bottom","rt":null,"stimulus":"Stimuli_Rocks480/I_Pumice_01.png","response":null,"trial_type":"image-keyboard-response","trial_index":40,"plugin_version":"2.1.0","time_elapsed":220640,"subject_id":"90862","group":"Group2","condition":"1_Rep","full_date":"2026-02-04T21:22:54.901Z","date":"2026-02-04","time":"21:22:54"},{"rt":null,"stimulus":"<p style=\"font-size: 50px; margin: 0; text-align: center;\">+</p>","response":null,"trial_type":"html-keyboard-response","trial_index":41,"plugin_version":"2.1.0","time_elapsed":221669,"subject_id":"90862","group":"Group2","condition":"1_Rep","full_date":"2026-02-04T21:22:54.901Z","date":"2026-02-04","time":"21:22:54"},{"task":"memory_phase","broad_category":"M","image_png":"M_Gneiss_15.png","image_id":207,"category_name":"Gneiss","category":13,"distinct_rating":3.11,"distinct_type":"Bottom","rt":null,"stimulus":"Stimuli_Rocks480/M_Gneiss_15.png","response":null,"trial_type":"image-keyboard-response","trial_index":42,"plugin_version":"2.1.0","time_elapsed":224206,"subject_id":"90862","group":"Group2","condition":"1_Rep","full_date":"2026-02-04T21:22:54.901Z","date":"2026-02-04","time":"21:22:54"},{"rt":null,"stimulus":"<p style=\"font-size: 50px; margin: 0; text-align: center;\">+</p>","response":null,"trial_type":"html-keyboard-response","trial_index":43,"plugin_version":"2.1.0","time_elapsed":225242,"subject_id":"90862","group":"Group2","condition":"1_Rep","full_date":"2026-02-04T21:22:54.901Z","date":"2026-02-04","time":"21:22:54"},{"task":"memory_phase","broad_category":"M","image_png":"M_Phyllite_05.png","image_id":261,"category_name":"Phyllite","category":17,"distinct_rating":2.14,"distinct_type":"Bottom","rt":null,"stimulus":"Stimuli_Rocks480/M_Phyllite_05.png","response":null,"trial_type":"image-keyboard-response","trial_index":44,"plugin_version":"2.1.0","time_elapsed":227779,"subject_id":"90862","group":"Group2","condition":"1_Rep","full_date":"2026-02-04T21:22:54.901Z","date":"2026-02-04","time":"21:22:54"},{"rt":null,"stimulus":"<p style=\"font-size: 50px; margin: 0; text-align: center;\">+</p>","response":null,"trial_type":"html-keyboard-response","trial_index":45,"plugin_version":"2.1.0","time_elapsed":228800,"subject_id":"90862","group":"Group2","condition":"1_Rep","full_date":"2026-02-04T21:22:54.901Z","date":"2026-02-04","time":"21:22:54"},{"task":"memory_phase","broad_category":"S","image_png":"S_Shale_02.png","image_id":466,"category_name":"Shale","category":30,"distinct_rating":2.9,"distinct_type":"Bottom","rt":null,"stimulus":"Stimuli_Rocks480/S_Shale_02.png","response":null,"trial_type":"image-keyboard-response","trial_index":46,"plugin_version":"2.1.0","time_elapsed":231333,"subject_id":"90862","group":"Group2","condition":"1_Rep","full_date":"2026-02-04T21:22:54.901Z","date":"2026-02-04","time":"21:22:54"},{"rt":null,"stimulus":"<p style=\"font-size: 50px; margin: 0; text-align: center;\">+</p>","response":null,"trial_type":"html-keyboard-response","trial_index":47,"plugin_version":"2.1.0","time_elapsed":232361,"subject_id":"90862","group":"Group2","condition":"1_Rep","full_date":"2026-02-04T21:22:54.901Z","date":"2026-02-04","time":"21:22:54"},{"task":"memory_phase","broad_category":"S","image_png":"S_Shale_03.png","image_id":467,"category_name":"Shale","category":30,"distinct_rating":1.95,"distinct_type":"Bottom","rt":null,"stimulus":"Stimuli_Rocks480/S_Shale_03.png","response":null,"trial_type":"image-keyboard-response","trial_index":48,"plugin_version":"2.1.0","time_elapsed":234892,"subject_id":"90862","group":"Group2","condition":"1_Rep","full_date":"2026-02-04T21:22:54.901Z","date":"2026-02-04","time":"21:22:54"},{"rt":null,"stimulus":"<p style=\"font-size: 50px; margin: 0; text-align: center;\">+</p>","response":null,"trial_type":"html-keyboard-response","trial_index":49,"plugin_version":"2.1.0","time_elapsed":235911,"subject_id":"90862","group":"Group2","condition":"1_Rep","full_date":"2026-02-04T21:22:54.901Z","date":"2026-02-04","time":"21:22:54"},{"task":"memory_phase","broad_category":"M","image_png":"M_Phyllite_13.png","image_id":269,"category_name":"Phyllite","category":17,"distinct_rating":2.8,"distinct_type":"Bottom","rt":null,"stimulus":"Stimuli_Rocks480/M_Phyllite_13.png","response":null,"trial_type":"image-keyboard-response","trial_index":50,"plugin_version":"2.1.0","time_elapsed":238445,"subject_id":"90862","group":"Group2","condition":"1_Rep","full_date":"2026-02-04T21:22:54.901Z","date":"2026-02-04","time":"21:22:54"},{"rt":null,"stimulus":"<p style=\"font-size: 50px; margin: 0; text-align: center;\">+</p>","response":null,"trial_type":"html-keyboard-response","trial_index":51,"plugin_version":"2.1.0","time_elapsed":239480,"subject_id":"90862","group":"Group2","condition":"1_Rep","full_date":"2026-02-04T21:22:54.901Z","date":"2026-02-04","time":"21:22:54"},{"task":"memory_phase","broad_category":"I","image_png":"I_Andesite_09.png","image_id":9,"category_name":"Andesite","category":1,"distinct_rating":2.49,"distinct_type":"Bottom","rt":null,"stimulus":"Stimuli_Rocks480/I_Andesite_09.png","response":null,"trial_type":"image-keyboard-response","trial_index":52,"plugin_version":"2.1.0","time_elapsed":242008,"subject_id":"90862","group":"Group2","condition":"1_Rep","full_date":"2026-02-04T21:22:54.901Z","date":"2026-02-04","time":"21:22:54"},{"rt":null,"stimulus":"<p style=\"font-size: 50px; margin: 0; text-align: center;\">+</p>","response":null,"trial_type":"html-keyboard-response","trial_index":53,"plugin_version":"2.1.0","time_elapsed":243049,"subject_id":"90862","group":"Group2","condition":"1_Rep","full_date":"2026-02-04T21:22:54.901Z","date":"2026-02-04","time":"21:22:54"},{"task":"memory_phase","broad_category":"I","image_png":"I_Gabbro_12.png","image_id":60,"category_name":"Gabbro","category":4,"distinct_rating":2.6,"distinct_type":"Bottom","rt":null,"stimulus":"Stimuli_Rocks480/I_Gabbro_12.png","response":null,"trial_type":"image-keyboard-response","trial_index":54,"plugin_version":"2.1.0","time_elapsed":245556,"subject_id":"90862","group":"Group2","condition":"1_Rep","full_date":"2026-02-04T21:22:54.901Z","date":"2026-02-04","time":"21:22:54"},{"rt":1949,"stimulus":"<p style=\"max-width: 760px; margin: auto; font-size: 35px; line-height: 1.5;\">\n                Press SPACE to continue study phase\n              </p>","response":" ","trial_type":"html-keyboard-response","trial_index":55,"plugin_version":"2.1.0","time_elapsed":247506,"subject_id":"90862","group":"Group2","condition":"1_Rep","full_date":"2026-02-04T21:22:54.901Z","date":"2026-02-04","time":"21:22:54"},{"rt":null,"stimulus":"<p style=\"font-size: 50px; margin: 0; text-align: center;\">+</p>","response":null,"trial_type":"html-keyboard-response","trial_index":56,"plugin_version":"2.1.0","time_elapsed":248542,"subject_id":"90862","group":"Group2","condition":"1_Rep","full_date":"2026-02-04T21:22:54.901Z","date":"2026-02-04","time":"21:22:54"},{"task":"memory_phase","broad_category":"S","image_png":"S_Dolomite_16.png","image_id":400,"category_name":"Dolomite","category":25,"distinct_rating":1.71,"distinct_type":"Bottom","rt":null,"stimulus":"Stimuli_Rocks480/S_Dolomite_16.png","response":null,"trial_type":"image-keyboard-response","trial_index":57,"plugin_version":"2.1.0","time_elapsed":251073,"subject_id":"90862","group":"Group2","condition":"1_Rep","full_date":"2026-02-04T21:22:54.901Z","date":"2026-02-04","time":"21:22:54"},{"rt":null,"stimulus":"<p style=\"font-size: 50px; margin: 0; text-align: center;\">+</p>","response":null,"trial_type":"html-keyboard-response","trial_index":58,"plugin_version":"2.1.0","time_elapsed":252109,"subject_id":"90862","group":"Group2","condition":"1_Rep","full_date":"2026-02-04T21:22:54.901Z","date":"2026-02-04","time":"21:22:54"},{"task":"memory_phase","broad_category":"S","image_png":"S_Conglomerate_14.png","image_id":382,"category_name":"Conglomerate","category":24,"distinct_rating":6.86,"distinct_type":"Top","rt":null,"stimulus":"Stimuli_Rocks480/S_Conglomerate_14.png","response":null,"trial_type":"image-keyboard-response","trial_index":59,"plugin_version":"2.1.0","time_elapsed":254629,"subject_id":"90862","group":"Group2","condition":"1_Rep","full_date":"2026-02-04T21:22:54.901Z","date":"2026-02-04","time":"21:22:54"},{"rt":null,"stimulus":"<p style=\"font-size: 50px; margin: 0; text-align: center;\">+</p>","response":null,"trial_type":"html-keyboard-response","trial_index":60,"plugin_version":"2.1.0","time_elapsed":255663,"subject_id":"90862","group":"Group2","condition":"1_Rep","full_date":"2026-02-04T21:22:54.901Z","date":"2026-02-04","time":"21:22:54"},{"task":"memory_phase","broad_category":"I","image_png":"I_Basalt_10.png","image_id":26,"category_name":"Basalt","category":2,"distinct_rating":2.76,"distinct_type":"Bottom","rt":null,"stimulus":"Stimuli_Rocks480/I_Basalt_10.png","response":null,"trial_type":"image-keyboard-response","trial_index":61,"plugin_version":"2.1.0","time_elapsed":258202,"subject_id":"90862","group":"Group2","condition":"1_Rep","full_date":"2026-02-04T21:22:54.901Z","date":"2026-02-04","time":"21:22:54"},{"rt":null,"stimulus":"<p style=\"font-size: 50px; margin: 0; text-align: center;\">+</p>","response":null,"trial_type":"html-keyboard-response","trial_index":62,"plugin_version":"2.1.0","time_elapsed":259243,"subject_id":"90862","group":"Group2","condition":"1_Rep","full_date":"2026-02-04T21:22:54.901Z","date":"2026-02-04","time":"21:22:54"},{"task":"memory_phase","broad_category":"S","image_png":"S_Shale_07.png","image_id":471,"category_name":"Shale","category":30,"distinct_rating":2.73,"distinct_type":"Bottom","rt":null,"stimulus":"Stimuli_Rocks480/S_Shale_07.png","response":null,"trial_type":"image-keyboard-response","trial_index":63,"plugin_version":"2.1.0","time_elapsed":261775,"subject_id":"90862","group":"Group2","condition":"1_Rep","full_date":"2026-02-04T21:22:54.901Z","date":"2026-02-04","time":"21:22:54"},{"rt":null,"stimulus":"<p style=\"font-size: 50px; margin: 0; text-align: center;\">+</p>","response":null,"trial_type":"html-keyboard-response","trial_index":64,"plugin_version":"2.1.0","time_elapsed":262806,"subject_id":"90862","group":"Group2","condition":"1_Rep","full_date":"2026-02-04T21:22:54.901Z","date":"2026-02-04","time":"21:22:54"},{"task":"memory_phase","broad_category":"M","image_png":"M_Slate_14.png","image_id":318,"category_name":"Slate","category":20,"distinct_rating":2.58,"distinct_type":"Bottom","rt":null,"stimulus":"Stimuli_Rocks480/M_Slate_14.png","response":null,"trial_type":"image-keyboard-response","trial_index":65,"plugin_version":"2.1.0","time_elapsed":265326,"subject_id":"90862","group":"Group2","condition":"1_Rep","full_date":"2026-02-04T21:22:54.901Z","date":"2026-02-04","time":"21:22:54"},{"rt":null,"stimulus":"<p style=\"font-size: 50px; margin: 0; text-align: center;\">+</p>","response":null,"trial_type":"html-keyboard-response","trial_index":66,"plugin_version":"2.1.0","time_elapsed":266371,"subject_id":"90862","group":"Group2","condition":"1_Rep","full_date":"2026-02-04T21:22:54.901Z","date":"2026-02-04","time":"21:22:54"},{"task":"memory_phase","broad_category":"S","image_png":"S_Chert_13.png","image_id":365,"category_name":"Chert","category":23,"distinct_rating":6.57,"distinct_type":"Top","rt":null,"stimulus":"Stimuli_Rocks480/S_Chert_13.png","response":null,"trial_type":"image-keyboard-response","trial_index":67,"plugin_version":"2.1.0","time_elapsed":268900,"subject_id":"90862","group":"Group2","condition":"1_Rep","full_date":"2026-02-04T21:22:54.901Z","date":"2026-02-04","time":"21:22:54"},{"rt":null,"stimulus":"<p style=\"font-size: 50px; margin: 0; text-align: center;\">+</p>","response":null,"trial_type":"html-keyboard-response","trial_index":68,"plugin_version":"2.1.0","time_elapsed":269920,"subject_id":"90862","group":"Group2","condition":"1_Rep","full_date":"2026-02-04T21:22:54.901Z","date":"2026-02-04","time":"21:22:54"},{"task":"memory_phase","broad_category":"S","image_png":"S_Dolomite_01.png","image_id":385,"category_name":"Dolomite","category":25,"distinct_rating":1.43,"distinct_type":"Bottom","rt":null,"stimulus":"Stimuli_Rocks480/S_Dolomite_01.png","response":null,"trial_type":"image-keyboard-response","trial_index":69,"plugin_version":"2.1.0","time_elapsed":272453,"subject_id":"90862","group":"Group2","condition":"1_Rep","full_date":"2026-02-04T21:22:54.901Z","date":"2026-02-04","time":"21:22:54"},{"rt":null,"stimulus":"<p style=\"font-size: 50px; margin: 0; text-align: center;\">+</p>","response":null,"trial_type":"html-keyboard-response","trial_index":70,"plugin_version":"2.1.0","time_elapsed":273489,"subject_id":"90862","group":"Group2","condition":"1_Rep","full_date":"2026-02-04T21:22:54.901Z","date":"2026-02-04","time":"21:22:54"},{"task":"memory_phase","broad_category":"I","image_png":"I_Pegmatite_11.png","image_id":107,"category_name":"Pegmatite","category":7,"distinct_rating":7.11,"distinct_type":"Top","rt":null,"stimulus":"Stimuli_Rocks480/I_Pegmatite_11.png","response":null,"trial_type":"image-keyboard-response","trial_index":71,"plugin_version":"2.1.0","time_elapsed":276012,"subject_id":"90862","group":"Group2","condition":"1_Rep","full_date":"2026-02-04T21:22:54.901Z","date":"2026-02-04","time":"21:22:54"},{"rt":null,"stimulus":"<p style=\"font-size: 50px; margin: 0; text-align: center;\">+</p>","response":null,"trial_type":"html-keyboard-response","trial_index":72,"plugin_version":"2.1.0","time_elapsed":277045,"subject_id":"90862","group":"Group2","condition":"1_Rep","full_date":"2026-02-04T21:22:54.901Z","date":"2026-02-04","time":"21:22:54"},{"task":"memory_phase","broad_category":"M","image_png":"M_Quartzite_15.png","image_id":287,"category_name":"Quartzite","category":18,"distinct_rating":2.19,"distinct_type":"Bottom","rt":null,"stimulus":"Stimuli_Rocks480/M_Quartzite_15.png","response":null,"trial_type":"image-keyboard-response","trial_index":73,"plugin_version":"2.1.0","time_elapsed":279579,"subject_id":"90862","group":"Group2","condition":"1_Rep","full_date":"2026-02-04T21:22:54.901Z","date":"2026-02-04","time":"21:22:54"},{"rt":null,"stimulus":"<p style=\"font-size: 50px; margin: 0; text-align: center;\">+</p>","response":null,"trial_type":"html-keyboard-response","trial_index":74,"plugin_version":"2.1.0","time_elapsed":280595,"subject_id":"90862","group":"Group2","condition":"1_Rep","full_date":"2026-02-04T21:22:54.901Z","date":"2026-02-04","time":"21:22:54"},{"task":"memory_phase","broad_category":"M","image_png":"M_Marble_03.png","image_id":227,"category_name":"Marble","category":15,"distinct_rating":2.67,"distinct_type":"Bottom","rt":null,"stimulus":"Stimuli_Rocks480/M_Marble_03.png","response":null,"trial_type":"image-keyboard-response","trial_index":75,"plugin_version":"2.1.0","time_elapsed":283153,"subject_id":"90862","group":"Group2","condition":"1_Rep","full_date":"2026-02-04T21:22:54.901Z","date":"2026-02-04","time":"21:22:54"},{"rt":null,"stimulus":"<p style=\"font-size: 50px; margin: 0; text-align: center;\">+</p>","response":null,"trial_type":"html-keyboard-response","trial_index":76,"plugin_version":"2.1.0","time_elapsed":284185,"subject_id":"90862","group":"Group2","condition":"1_Rep","full_date":"2026-02-04T21:22:54.901Z","date":"2026-02-04","time":"21:22:54"},{"task":"memory_phase","broad_category":"M","image_png":"M_Slate_10.png","image_id":314,"category_name":"Slate","category":20,"distinct_rating":1.94,"distinct_type":"Bottom","rt":null,"stimulus":"Stimuli_Rocks480/M_Slate_10.png","response":null,"trial_type":"image-keyboard-response","trial_index":77,"plugin_version":"2.1.0","time_elapsed":286718,"subject_id":"90862","group":"Group2","condition":"1_Rep","full_date":"2026-02-04T21:22:54.901Z","date":"2026-02-04","time":"21:22:54"},{"rt":null,"stimulus":"<p style=\"font-size: 50px; margin: 0; text-align: center;\">+</p>","response":null,"trial_type":"html-keyboard-response","trial_index":78,"plugin_version":"2.1.0","time_elapsed":287753,"subject_id":"90862","group":"Group2","condition":"1_Rep","full_date":"2026-02-04T21:22:54.901Z","date":"2026-02-04","time":"21:22:54"},{"task":"memory_phase","broad_category":"M","image_png":"M_Slate_04.png","image_id":308,"category_name":"Slate","category":20,"distinct_rating":2.2,"distinct_type":"Bottom","rt":null,"stimulus":"Stimuli_Rocks480/M_Slate_04.png","response":null,"trial_type":"image-keyboard-response","trial_index":79,"plugin_version":"2.1.0","time_elapsed":290284,"subject_id":"90862","group":"Group2","condition":"1_Rep","full_date":"2026-02-04T21:22:54.901Z","date":"2026-02-04","time":"21:22:54"},{"rt":null,"stimulus":"<p style=\"font-size: 50px; margin: 0; text-align: center;\">+</p>","response":null,"trial_type":"html-keyboard-response","trial_index":80,"plugin_version":"2.1.0","time_elapsed":291321,"subject_id":"90862","group":"Group2","condition":"1_Rep","full_date":"2026-02-04T21:22:54.901Z","date":"2026-02-04","time":"21:22:54"},{"task":"memory_phase","broad_category":"I","image_png":"I_Pumice_13.png","image_id":141,"category_name":"Pumice","category":9,"distinct_rating":3.12,"distinct_type":"Bottom","rt":null,"stimulus":"Stimuli_Rocks480/I_Pumice_13.png","response":null,"trial_type":"image-keyboard-response","trial_index":81,"plugin_version":"2.1.0","time_elapsed":293851,"subject_id":"90862","group":"Group2","condition":"1_Rep","full_date":"2026-02-04T21:22:54.901Z","date":"2026-02-04","time":"21:22:54"},{"rt":null,"stimulus":"<p style=\"font-size: 50px; margin: 0; text-align: center;\">+</p>","response":null,"trial_type":"html-keyboard-response","trial_index":82,"plugin_version":"2.1.0","time_elapsed":294881,"subject_id":"90862","group":"Group2","condition":"1_Rep","full_date":"2026-02-04T21:22:54.901Z","date":"2026-02-04","time":"21:22:54"},{"task":"memory_phase","broad_category":"S","image_png":"S_Sandstone_11.png","image_id":459,"category_name":"Sandstone","category":29,"distinct_rating":1.82,"distinct_type":"Bottom","rt":null,"stimulus":"Stimuli_Rocks480/S_Sandstone_11.png","response":null,"trial_type":"image-keyboard-response","trial_index":83,"plugin_version":"2.1.0","time_elapsed":297413,"subject_id":"90862","group":"Group2","condition":"1_Rep","full_date":"2026-02-04T21:22:54.901Z","date":"2026-02-04","time":"21:22:54"},{"rt":null,"stimulus":"<p style=\"font-size: 50px; margin: 0; text-align: center;\">+</p>","response":null,"trial_type":"html-keyboard-response","trial_index":84,"plugin_version":"2.1.0","time_elapsed":298420,"subject_id":"90862","group":"Group2","condition":"1_Rep","full_date":"2026-02-04T21:22:54.901Z","date":"2026-02-04","time":"21:22:54"},{"task":"memory_phase","broad_category":"I","image_png":"I_Gabbro_02.png","image_id":50,"category_name":"Gabbro","category":4,"distinct_rating":2.73,"distinct_type":"Bottom","rt":null,"stimulus":"Stimuli_Rocks480/I_Gabbro_02.png","response":null,"trial_type":"image-keyboard-response","trial_index":85,"plugin_version":"2.1.0","time_elapsed":300961,"subject_id":"90862","group":"Group2","condition":"1_Rep","full_date":"2026-02-04T21:22:54.901Z","date":"2026-02-04","time":"21:22:54"},{"rt":null,"stimulus":"<p style=\"font-size: 50px; margin: 0; text-align: center;\">+</p>","response":null,"trial_type":"html-keyboard-response","trial_index":86,"plugin_version":"2.1.0","time_elapsed":301979,"subject_id":"90862","group":"Group2","condition":"1_Rep","full_date":"2026-02-04T21:22:54.901Z","date":"2026-02-04","time":"21:22:54"},{"task":"memory_phase","broad_category":"I","image_png":"I_Rhyolite_05.png","image_id":149,"category_name":"Rhyolite","category":10,"distinct_rating":3.02,"distinct_type":"Bottom","rt":null,"stimulus":"Stimuli_Rocks480/I_Rhyolite_05.png","response":null,"trial_type":"image-keyboard-response","trial_index":87,"plugin_version":"2.1.0","time_elapsed":304520,"subject_id":"90862","group":"Group2","condition":"1_Rep","full_date":"2026-02-04T21:22:54.901Z","date":"2026-02-04","time":"21:22:54"},{"rt":null,"stimulus":"<p style=\"font-size: 50px; margin: 0; text-align: center;\">+</p>","response":null,"trial_type":"html-keyboard-response","trial_index":88,"plugin_version":"2.1.0","time_elapsed":305537,"subject_id":"90862","group":"Group2","condition":"1_Rep","full_date":"2026-02-04T21:22:54.901Z","date":"2026-02-04","time":"21:22:54"},{"task":"memory_phase","broad_category":"I","image_png":"I_Pegmatite_03.png","image_id":99,"category_name":"Pegmatite","category":7,"distinct_rating":7.24,"distinct_type":"Top","rt":null,"stimulus":"Stimuli_Rocks480/I_Pegmatite_03.png","response":null,"trial_type":"image-keyboard-response","trial_index":89,"plugin_version":"2.1.0","time_elapsed":308070,"subject_id":"90862","group":"Group2","condition":"1_Rep","full_date":"2026-02-04T21:22:54.901Z","date":"2026-02-04","time":"21:22:54"},{"rt":null,"stimulus":"<p style=\"font-size: 50px; margin: 0; text-align: center;\">+</p>","response":null,"trial_type":"html-keyboard-response","trial_index":90,"plugin_version":"2.1.0","time_elapsed":309108,"subject_id":"90862","group":"Group2","condition":"1_Rep","full_date":"2026-02-04T21:22:54.901Z","date":"2026-02-04","time":"21:22:54"},{"task":"memory_phase","broad_category":"I","image_png":"I_Diorite_10.png","image_id":42,"category_name":"Diorite","category":3,"distinct_rating":2.84,"distinct_type":"Bottom","rt":null,"stimulus":"Stimuli_Rocks480/I_Diorite_10.png","response":null,"trial_type":"image-keyboard-response","trial_index":91,"plugin_version":"2.1.0","time_elapsed":311619,"subject_id":"90862","group":"Group2","condition":"1_Rep","full_date":"2026-02-04T21:22:54.901Z","date":"2026-02-04","time":"21:22:54"},{"rt":null,"stimulus":"<p style=\"font-size: 50px; margin: 0; text-align: center;\">+</p>","response":null,"trial_type":"html-keyboard-response","trial_index":92,"plugin_version":"2.1.0","time_elapsed":312655,"subject_id":"90862","group":"Group2","condition":"1_Rep","full_date":"2026-02-04T21:22:54.901Z","date":"2026-02-04","time":"21:22:54"},{"task":"memory_phase","broad_category":"I","image_png":"I_Gabbro_14.png","image_id":62,"category_name":"Gabbro","category":4,"distinct_rating":2.95,"distinct_type":"Bottom","rt":null,"stimulus":"Stimuli_Rocks480/I_Gabbro_14.png","response":null,"trial_type":"image-keyboard-response","trial_index":93,"plugin_version":"2.1.0","time_elapsed":315159,"subject_id":"90862","group":"Group2","condition":"1_Rep","full_date":"2026-02-04T21:22:54.901Z","date":"2026-02-04","time":"21:22:54"},{"rt":null,"stimulus":"<p style=\"font-size: 50px; margin: 0; text-align: center;\">+</p>","response":null,"trial_type":"html-keyboard-response","trial_index":94,"plugin_version":"2.1.0","time_elapsed":316168,"subject_id":"90862","group":"Group2","condition":"1_Rep","full_date":"2026-02-04T21:22:54.901Z","date":"2026-02-04","time":"21:22:54"},{"task":"memory_phase","broad_category":"I","image_png":"I_Diorite_01.png","image_id":33,"category_name":"Diorite","category":3,"distinct_rating":2.97,"distinct_type":"Bottom","rt":null,"stimulus":"Stimuli_Rocks480/I_Diorite_01.png","response":null,"trial_type":"image-keyboard-response","trial_index":95,"plugin_version":"2.1.0","time_elapsed":318677,"subject_id":"90862","group":"Group2","condition":"1_Rep","full_date":"2026-02-04T21:22:54.901Z","date":"2026-02-04","time":"21:22:54"},{"rt":null,"stimulus":"<p style=\"font-size: 50px; margin: 0; text-align: center;\">+</p>","response":null,"trial_type":"html-keyboard-response","trial_index":96,"plugin_version":"2.1.0","time_elapsed":319689,"subject_id":"90862","group":"Group2","condition":"1_Rep","full_date":"2026-02-04T21:22:54.901Z","date":"2026-02-04","time":"21:22:54"},{"task":"memory_phase","broad_category":"M","image_png":"M_Gneiss_10.png","image_id":202,"category_name":"Gneiss","category":13,"distinct_rating":3.09,"distinct_type":"Bottom","rt":null,"stimulus":"Stimuli_Rocks480/M_Gneiss_10.png","response":null,"trial_type":"image-keyboard-response","trial_index":97,"plugin_version":"2.1.0","time_elapsed":322225,"subject_id":"90862","group":"Group2","condition":"1_Rep","full_date":"2026-02-04T21:22:54.901Z","date":"2026-02-04","time":"21:22:54"},{"rt":null,"stimulus":"<p style=\"font-size: 50px; margin: 0; text-align: center;\">+</p>","response":null,"trial_type":"html-keyboard-response","trial_index":98,"plugin_version":"2.1.0","time_elapsed":323266,"subject_id":"90862","group":"Group2","condition":"1_Rep","full_date":"2026-02-04T21:22:54.901Z","date":"2026-02-04","time":"21:22:54"},{"task":"memory_phase","broad_category":"S","image_png":"S_Sandstone_04.png","image_id":452,"category_name":"Sandstone","category":29,"distinct_rating":1.8,"distinct_type":"Bottom","rt":null,"stimulus":"Stimuli_Rocks480/S_Sandstone_04.png","response":null,"trial_type":"image-keyboard-response","trial_index":99,"plugin_version":"2.1.0","time_elapsed":325797,"subject_id":"90862","group":"Group2","condition":"1_Rep","full_date":"2026-02-04T21:22:54.901Z","date":"2026-02-04","time":"21:22:54"},{"rt":null,"stimulus":"<p style=\"font-size: 50px; margin: 0; text-align: center;\">+</p>","response":null,"trial_type":"html-keyboard-response","trial_index":100,"plugin_version":"2.1.0","time_elapsed":326832,"subject_id":"90862","group":"Group2","condition":"1_Rep","full_date":"2026-02-04T21:22:54.901Z","date":"2026-02-04","time":"21:22:54"},{"task":"memory_phase","broad_category":"M","image_png":"M_Marble_14.png","image_id":238,"category_name":"Marble","category":15,"distinct_rating":3.31,"distinct_type":"Bottom","rt":null,"stimulus":"Stimuli_Rocks480/M_Marble_14.png","response":null,"trial_type":"image-keyboard-response","trial_index":101,"plugin_version":"2.1.0","time_elapsed":329367,"subject_id":"90862","group":"Group2","condition":"1_Rep","full_date":"2026-02-04T21:22:54.901Z","date":"2026-02-04","time":"21:22:54"},{"rt":null,"stimulus":"<p style=\"font-size: 50px; margin: 0; text-align: center;\">+</p>","response":null,"trial_type":"html-keyboard-response","trial_index":102,"plugin_version":"2.1.0","time_elapsed":330399,"subject_id":"90862","group":"Group2","condition":"1_Rep","full_date":"2026-02-04T21:22:54.901Z","date":"2026-02-04","time":"21:22:54"},{"task":"memory_phase","broad_category":"I","image_png":"I_Rhyolite_08.png","image_id":152,"category_name":"Rhyolite","category":10,"distinct_rating":1.38,"distinct_type":"Bottom","rt":null,"stimulus":"Stimuli_Rocks480/I_Rhyolite_08.png","response":null,"trial_type":"image-keyboard-response","trial_index":103,"plugin_version":"2.1.0","time_elapsed":332936,"subject_id":"90862","group":"Group2","condition":"1_Rep","full_date":"2026-02-04T21:22:54.901Z","date":"2026-02-04","time":"21:22:54"},{"rt":null,"stimulus":"<p style=\"font-size: 50px; margin: 0; text-align: center;\">+</p>","response":null,"trial_type":"html-keyboard-response","trial_index":104,"plugin_version":"2.1.0","time_elapsed":333952,"subject_id":"90862","group":"Group2","condition":"1_Rep","full_date":"2026-02-04T21:22:54.901Z","date":"2026-02-04","time":"21:22:54"},{"task":"memory_phase","broad_category":"S","image_png":"S_Dolomite_07.png","image_id":391,"category_name":"Dolomite","category":25,"distinct_rating":1.73,"distinct_type":"Bottom","rt":null,"stimulus":"Stimuli_Rocks480/S_Dolomite_07.png","response":null,"trial_type":"image-keyboard-response","trial_index":105,"plugin_version":"2.1.0","time_elapsed":336479,"subject_id":"90862","group":"Group2","condition":"1_Rep","full_date":"2026-02-04T21:22:54.901Z","date":"2026-02-04","time":"21:22:54"},{"rt":37905,"stimulus":"<div style=\"max-width: 760px; margin: auto; font-size: 20px; line-height: 1.5;\">\n      <h1 style=\"text-align:center; font-size: 30px;\">Instructions for the Test Phase</h1>\n      <p>\n        The study phase is now complete.\n      </p>\n      <p>\n        In the test phase, you will again see a series of rock images. \n        Some will be ones you saw before - during the study phase, while others will be new.  \n        <b>Your task</b> is to decide whether you have seen each image before by pressing the corresponding key on your keyboard:<br><br>\n          <b>A</b> - NO (you did not see this image before)<br>\n          <b>L</b> - YES (you saw this image before)<br><br>\n        The test will proceed at your own pace. You will receive feedback after each response.  \n        Please try to respond <b>as accurately as possible</b>.\n      </p>\n      <p>\n        <b>Reminder:</b> If your computer has multiple language settings (e.g., English and another language),\n        please ensure it is set to English during the test phase.\n      </p>\n      <p>\n        You can track your progress using the <b>completion bar</b> at the top of the screen.  \n        Note that it has been refreshed to reflect your progress during this final phase.\n      </p>\n      <p>\n        Press the button below when you are ready to continue.\n      </p>\n    </div>","response":0,"trial_type":"html-button-response","trial_index":106,"plugin_version":"2.1.0","time_elapsed":374387,"subject_id":"90862","group":"Group2","condition":"1_Rep","full_date":"2026-02-04T21:22:54.901Z","date":"2026-02-04","time":"21:22:54"},{"correct_response":"a","task":"test_phase","broad_category":"I","image_png":"I_Andesite_06.png","image_id":6,"category_name":"Andesite","category":1,"distinct_rating":3.17,"distinct_type":"Bottom","item_type":"Foil","rt":3965,"stimulus":"Stimuli_Rocks480/I_Andesite_06.png","response":"l","trial_type":"image-keyboard-response","trial_index":107,"plugin_version":"2.1.0","time_elapsed":378357,"subject_id":"90862","group":"Group2","condition":"1_Rep","full_date":"2026-02-04T21:22:54.901Z","date":"2026-02-04","time":"21:22:54","cor_ans":false},{"trial_type":"html-keyboard-response","rt":null,"stimulus":"<p style=\"color: red; font-size: 50px; font-weight: bold;\">Incorrect</p>","response":null,"trial_index":108,"plugin_version":"2.1.0","time_elapsed":378890,"subject_id":"90862","group":"Group2","condition":"1_Rep","full_date":"2026-02-04T21:22:54.901Z","date":"2026-02-04","time":"21:22:54"},{"correct_response":"a","task":"test_phase","broad_category":"I","image_png":"I_Diorite_04.png","image_id":36,"category_name":"Diorite","category":3,"distinct_rating":2.98,"distinct_type":"Bottom","item_type":"Foil","rt":2030,"stimulus":"Stimuli_Rocks480/I_Diorite_04.png","response":"a","trial_type":"image-keyboard-response","trial_index":109,"plugin_version":"2.1.0","time_elapsed":380922,"subject_id":"90862","group":"Group2","condition":"1_Rep","full_date":"2026-02-04T21:22:54.901Z","date":"2026-02-04","time":"21:22:54","cor_ans":true},{"trial_type":"html-keyboard-response","rt":null,"stimulus":"<p style=\"color: green; font-size: 50px; font-weight: bold;\">Correct</p>","response":null,"trial_index":110,"plugin_version":"2.1.0","time_elapsed":381455,"subject_id":"90862","group":"Group2","condition":"1_Rep","full_date":"2026-02-04T21:22:54.901Z","date":"2026-02-04","time":"21:22:54"},{"correct_response":"a","task":"test_phase","broad_category":"S","image_png":"S_Chert_10.png","image_id":362,"category_name":"Chert","category":23,"distinct_rating":7.17,"distinct_type":"Top","item_type":"Foil","rt":3607,"stimulus":"Stimuli_Rocks480/S_Chert_10.png","response":"a","trial_type":"image-keyboard-response","trial_index":111,"plugin_version":"2.1.0","time_elapsed":385064,"subject_id":"90862","group":"Group2","condition":"1_Rep","full_date":"2026-02-04T21:22:54.901Z","date":"2026-02-04","time":"21:22:54","cor_ans":true},{"trial_type":"html-keyboard-response","rt":null,"stimulus":"<p style=\"color: green; font-size: 50px; font-weight: bold;\">Correct</p>","response":null,"trial_index":112,"plugin_version":"2.1.0","time_elapsed":385599,"subject_id":"90862","group":"Group2","condition":"1_Rep","full_date":"2026-02-04T21:22:54.901Z","date":"2026-02-04","time":"21:22:54"},{"correct_response":"l","task":"test_phase","broad_category":"M","image_png":"M_Marble_02.png","image_id":226,"category_name":"Marble","category":15,"distinct_rating":3.2,"distinct_type":"Bottom","item_type":"Target","rt":1740,"stimulus":"Stimuli_Rocks480/M_Marble_02.png","response":"l","trial_type":"image-keyboard-response","trial_index":113,"plugin_version":"2.1.0","time_elapsed":387341,"subject_id":"90862","group":"Group2","condition":"1_Rep","full_date":"2026-02-04T21:22:54.901Z","date":"2026-02-04","time":"21:22:54","cor_ans":true},{"trial_type":"html-keyboard-response","rt":null,"stimulus":"<p style=\"color: green; font-size: 50px; font-weight: bold;\">Correct</p>","response":null,"trial_index":114,"plugin_version":"2.1.0","time_elapsed":387870,"subject_id":"90862","group":"Group2","condition":"1_Rep","full_date":"2026-02-04T21:22:54.901Z","date":"2026-02-04","time":"21:22:54"},{"correct_response":"a","task":"test_phase","broad_category":"I","image_png":"I_Andesite_08.png","image_id":8,"category_name":"Andesite","category":1,"distinct_rating":1.95,"distinct_type":"Bottom","item_type":"Foil","rt":950,"stimulus":"Stimuli_Rocks480/I_Andesite_08.png","response":"l","trial_type":"image-keyboard-response","trial_index":115,"plugin_version":"2.1.0","time_elapsed":388821,"subject_id":"90862","group":"Group2","condition":"1_Rep","full_date":"2026-02-04T21:22:54.901Z","date":"2026-02-04","time":"21:22:54","cor_ans":false},{"trial_type":"html-keyboard-response","rt":null,"stimulus":"<p style=\"color: red; font-size: 50px; font-weight: bold;\">Incorrect</p>","response":null,"trial_index":116,"plugin_version":"2.1.0","time_elapsed":389355,"subject_id":"90862","group":"Group2","condition":"1_Rep","full_date":"2026-02-04T21:22:54.901Z","date":"2026-02-04","time":"21:22:54"},{"correct_response":"a","task":"test_phase","broad_category":"I","image_png":"I_Andesite_10.png","image_id":10,"category_name":"Andesite","category":1,"distinct_rating":3.15,"distinct_type":"Bottom","item_type":"Foil","rt":1530,"stimulus":"Stimuli_Rocks480/I_Andesite_10.png","response":"l","trial_type":"image-keyboard-response","trial_index":117,"plugin_version":"2.1.0","time_elapsed":390887,"subject_id":"90862","group":"Group2","condition":"1_Rep","full_date":"2026-02-04T21:22:54.901Z","date":"2026-02-04","time":"21:22:54","cor_ans":false},{"trial_type":"html-keyboard-response","rt":null,"stimulus":"<p style=\"color: red; font-size: 50px; font-weight: bold;\">Incorrect</p>","response":null,"trial_index":118,"plugin_version":"2.1.0","time_elapsed":391422,"subject_id":"90862","group":"Group2","condition":"1_Rep","full_date":"2026-02-04T21:22:54.901Z","date":"2026-02-04","time":"21:22:54"},{"correct_response":"a","task":"test_phase","broad_category":"I","image_png":"I_Diorite_03.png","image_id":35,"category_name":"Diorite","category":3,"distinct_rating":3.14,"distinct_type":"Bottom","item_type":"Foil","rt":2413,"stimulus":"Stimuli_Rocks480/I_Diorite_03.png","response":"l","trial_type":"image-keyboard-response","trial_index":119,"plugin_version":"2.1.0","time_elapsed":393837,"subject_id":"90862","group":"Group2","condition":"1_Rep","full_date":"2026-02-04T21:22:54.901Z","date":"2026-02-04","time":"21:22:54","cor_ans":false},{"trial_type":"html-keyboard-response","rt":null,"stimulus":"<p style=\"color: red; font-size: 50px; font-weight: bold;\">Incorrect</p>","response":null,"trial_index":120,"plugin_version":"2.1.0","time_elapsed":394371,"subject_id":"90862","group":"Group2","condition":"1_Rep","full_date":"2026-02-04T21:22:54.901Z","date":"2026-02-04","time":"21:22:54"},{"correct_response":"a","task":"test_phase","broad_category":"S","image_png":"S_Conglomerate_05.png","image_id":373,"category_name":"Conglomerate","category":24,"distinct_rating":7.32,"distinct_type":"Top","item_type":"Foil","rt":1558,"stimulus":"Stimuli_Rocks480/S_Conglomerate_05.png","response":"a","trial_type":"image-keyboard-response","trial_index":121,"plugin_version":"2.1.0","time_elapsed":395930,"subject_id":"90862","group":"Group2","condition":"1_Rep","full_date":"2026-02-04T21:22:54.901Z","date":"2026-02-04","time":"21:22:54","cor_ans":true},{"trial_type":"html-keyboard-response","rt":null,"stimulus":"<p style=\"color: green; font-size: 50px; font-weight: bold;\">Correct</p>","response":null,"trial_index":122,"plugin_version":"2.1.0","time_elapsed":396457,"subject_id":"90862","group":"Group2","condition":"1_Rep","full_date":"2026-02-04T21:22:54.901Z","date":"2026-02-04","time":"21:22:54"},{"correct_response":"a","task":"test_phase","broad_category":"M","image_png":"M_Gneiss_13.png","image_id":205,"category_name":"Gneiss","category":13,"distinct_rating":3.26,"distinct_type":"Bottom","item_type":"Foil","rt":2609,"stimulus":"Stimuli_Rocks480/M_Gneiss_13.png","response":"a","trial_type":"image-keyboard-response","trial_index":123,"plugin_version":"2.1.0","time_elapsed":399067,"subject_id":"90862","group":"Group2","condition":"1_Rep","full_date":"2026-02-04T21:22:54.901Z","date":"2026-02-04","time":"21:22:54","cor_ans":true},{"trial_type":"html-keyboard-response","rt":null,"stimulus":"<p style=\"color: green; font-size: 50px; font-weight: bold;\">Correct</p>","response":null,"trial_index":124,"plugin_version":"2.1.0","time_elapsed":399594,"subject_id":"90862","group":"Group2","condition":"1_Rep","full_date":"2026-02-04T21:22:54.901Z","date":"2026-02-04","time":"21:22:54"},{"correct_response":"l","task":"test_phase","broad_category":"I","image_png":"I_Gabbro_02.png","image_id":50,"category_name":"Gabbro","category":4,"distinct_rating":2.73,"distinct_type":"Bottom","item_type":"Target","rt":4626,"stimulus":"Stimuli_Rocks480/I_Gabbro_02.png","response":"l","trial_type":"image-keyboard-response","trial_index":125,"plugin_version":"2.1.0","time_elapsed":404221,"subject_id":"90862","group":"Group2","condition":"1_Rep","full_date":"2026-02-04T21:22:54.901Z","date":"2026-02-04","time":"21:22:54","cor_ans":true},{"trial_type":"html-keyboard-response","rt":null,"stimulus":"<p style=\"color: green; font-size: 50px; font-weight: bold;\">Correct</p>","response":null,"trial_index":126,"plugin_version":"2.1.0","time_elapsed":404755,"subject_id":"90862","group":"Group2","condition":"1_Rep","full_date":"2026-02-04T21:22:54.901Z","date":"2026-02-04","time":"21:22:54"},{"correct_response":"a","task":"test_phase","broad_category":"S","image_png":"S_Dolomite_14.png","image_id":398,"category_name":"Dolomite","category":25,"distinct_rating":1.43,"distinct_type":"Bottom","item_type":"Foil","rt":2720,"stimulus":"Stimuli_Rocks480/S_Dolomite_14.png","response":"l","trial_type":"image-keyboard-response","trial_index":127,"plugin_version":"2.1.0","time_elapsed":407477,"subject_id":"90862","group":"Group2","condition":"1_Rep","full_date":"2026-02-04T21:22:54.901Z","date":"2026-02-04","time":"21:22:54","cor_ans":false},{"trial_type":"html-keyboard-response","rt":null,"stimulus":"<p style=\"color: red; font-size: 50px; font-weight: bold;\">Incorrect</p>","response":null,"trial_index":128,"plugin_version":"2.1.0","time_elapsed":408017,"subject_id":"90862","group":"Group2","condition":"1_Rep","full_date":"2026-02-04T21:22:54.901Z","date":"2026-02-04","time":"21:22:54"},{"correct_response":"l","task":"test_phase","broad_category":"S","image_png":"S_Dolomite_16.png","image_id":400,"category_name":"Dolomite","category":25,"distinct_rating":1.71,"distinct_type":"Bottom","item_type":"Target","rt":2280,"stimulus":"Stimuli_Rocks480/S_Dolomite_16.png","response":"a","trial_type":"image-keyboard-response","trial_index":129,"plugin_version":"2.1.0","time_elapsed":410298,"subject_id":"90862","group":"Group2","condition":"1_Rep","full_date":"2026-02-04T21:22:54.901Z","date":"2026-02-04","time":"21:22:54","cor_ans":false},{"trial_type":"html-keyboard-response","rt":null,"stimulus":"<p style=\"color: red; font-size: 50px; font-weight: bold;\">Incorrect</p>","response":null,"trial_index":130,"plugin_version":"2.1.0","time_elapsed":410830,"subject_id":"90862","group":"Group2","condition":"1_Rep","full_date":"2026-02-04T21:22:54.901Z","date":"2026-02-04","time":"21:22:54"},{"correct_response":"l","task":"test_phase","broad_category":"M","image_png":"M_Gneiss_15.png","image_id":207,"category_name":"Gneiss","category":13,"distinct_rating":3.11,"distinct_type":"Bottom","item_type":"Target","rt":1201,"stimulus":"Stimuli_Rocks480/M_Gneiss_15.png","response":"l","trial_type":"image-keyboard-response","trial_index":131,"plugin_version":"2.1.0","time_elapsed":412033,"subject_id":"90862","group":"Group2","condition":"1_Rep","full_date":"2026-02-04T21:22:54.901Z","date":"2026-02-04","time":"21:22:54","cor_ans":true},{"trial_type":"html-keyboard-response","rt":null,"stimulus":"<p style=\"color: green; font-size: 50px; font-weight: bold;\">Correct</p>","response":null,"trial_index":132,"plugin_version":"2.1.0","time_elapsed":412562,"subject_id":"90862","group":"Group2","condition":"1_Rep","full_date":"2026-02-04T21:22:54.901Z","date":"2026-02-04","time":"21:22:54"},{"correct_response":"l","task":"test_phase","broad_category":"S","image_png":"S_Shale_07.png","image_id":471,"category_name":"Shale","category":30,"distinct_rating":2.73,"distinct_type":"Bottom","item_type":"Target","rt":2082,"stimulus":"Stimuli_Rocks480/S_Shale_07.png","response":"l","trial_type":"image-keyboard-response","trial_index":133,"plugin_version":"2.1.0","time_elapsed":414645,"subject_id":"90862","group":"Group2","condition":"1_Rep","full_date":"2026-02-04T21:22:54.901Z","date":"2026-02-04","time":"21:22:54","cor_ans":true},{"trial_type":"html-keyboard-response","rt":null,"stimulus":"<p style=\"color: green; font-size: 50px; font-weight: bold;\">Correct</p>","response":null,"trial_index":134,"plugin_version":"2.1.0","time_elapsed":415188,"subject_id":"90862","group":"Group2","condition":"1_Rep","full_date":"2026-02-04T21:22:54.901Z","date":"2026-02-04","time":"21:22:54"},{"correct_response":"l","task":"test_phase","broad_category":"S","image_png":"S_Rock Salt_13.png","image_id":445,"category_name":"Rock Salt","category":28,"distinct_rating":7.58,"distinct_type":"Top","item_type":"Target","rt":801,"stimulus":"Stimuli_Rocks480/S_Rock Salt_13.png","response":"l","trial_type":"image-keyboard-response","trial_index":135,"plugin_version":"2.1.0","time_elapsed":415991,"subject_id":"90862","group":"Group2","condition":"1_Rep","full_date":"2026-02-04T21:22:54.901Z","date":"2026-02-04","time":"21:22:54","cor_ans":true},{"trial_type":"html-keyboard-response","rt":null,"stimulus":"<p style=\"color: green; font-size: 50px; font-weight: bold;\">Correct</p>","response":null,"trial_index":136,"plugin_version":"2.1.0","time_elapsed":416525,"subject_id":"90862","group":"Group2","condition":"1_Rep","full_date":"2026-02-04T21:22:54.901Z","date":"2026-02-04","time":"21:22:54"},{"correct_response":"l","task":"test_phase","broad_category":"I","image_png":"I_Rhyolite_10.png","image_id":154,"category_name":"Rhyolite","category":10,"distinct_rating":2.88,"distinct_type":"Bottom","item_type":"Target","rt":853,"stimulus":"Stimuli_Rocks480/I_Rhyolite_10.png","response":"l","trial_type":"image-keyboard-response","trial_index":137,"plugin_version":"2.1.0","time_elapsed":417380,"subject_id":"90862","group":"Group2","condition":"1_Rep","full_date":"2026-02-04T21:22:54.901Z","date":"2026-02-04","time":"21:22:54","cor_ans":true},{"trial_type":"html-keyboard-response","rt":null,"stimulus":"<p style=\"color: green; font-size: 50px; font-weight: bold;\">Correct</p>","response":null,"trial_index":138,"plugin_version":"2.1.0","time_elapsed":417917,"subject_id":"90862","group":"Group2","condition":"1_Rep","full_date":"2026-02-04T21:22:54.901Z","date":"2026-02-04","time":"21:22:54"},{"correct_response":"l","task":"test_phase","broad_category":"M","image_png":"M_Quartzite_15.png","image_id":287,"category_name":"Quartzite","category":18,"distinct_rating":2.19,"distinct_type":"Bottom","item_type":"Target","rt":867,"stimulus":"Stimuli_Rocks480/M_Quartzite_15.png","response":"l","trial_type":"image-keyboard-response","trial_index":139,"plugin_version":"2.1.0","time_elapsed":418786,"subject_id":"90862","group":"Group2","condition":"1_Rep","full_date":"2026-02-04T21:22:54.901Z","date":"2026-02-04","time":"21:22:54","cor_ans":true},{"trial_type":"html-keyboard-response","rt":null,"stimulus":"<p style=\"color: green; font-size: 50px; font-weight: bold;\">Correct</p>","response":null,"trial_index":140,"plugin_version":"2.1.0","time_elapsed":419328,"subject_id":"90862","group":"Group2","condition":"1_Rep","full_date":"2026-02-04T21:22:54.901Z","date":"2026-02-04","time":"21:22:54"},{"correct_response":"a","task":"test_phase","broad_category":"S","image_png":"S_Rock Gypsum_04.png","image_id":420,"category_name":"Rock Gypsum","category":27,"distinct_rating":7.61,"distinct_type":"Top","item_type":"Foil","rt":1494,"stimulus":"Stimuli_Rocks480/S_Rock Gypsum_04.png","response":"a","trial_type":"image-keyboard-response","trial_index":141,"plugin_version":"2.1.0","time_elapsed":420824,"subject_id":"90862","group":"Group2","condition":"1_Rep","full_date":"2026-02-04T21:22:54.901Z","date":"2026-02-04","time":"21:22:54","cor_ans":true},{"trial_type":"html-keyboard-response","rt":null,"stimulus":"<p style=\"color: green; font-size: 50px; font-weight: bold;\">Correct</p>","response":null,"trial_index":142,"plugin_version":"2.1.0","time_elapsed":421351,"subject_id":"90862","group":"Group2","condition":"1_Rep","full_date":"2026-02-04T21:22:54.901Z","date":"2026-02-04","time":"21:22:54"},{"correct_response":"l","task":"test_phase","broad_category":"I","image_png":"I_Peridotite_13.png","image_id":125,"category_name":"Peridotite","category":8,"distinct_rating":7.28,"distinct_type":"Top","item_type":"Target","rt":1523,"stimulus":"Stimuli_Rocks480/I_Peridotite_13.png","response":"a","trial_type":"image-keyboard-response","trial_index":143,"plugin_version":"2.1.0","time_elapsed":422879,"subject_id":"90862","group":"Group2","condition":"1_Rep","full_date":"2026-02-04T21:22:54.901Z","date":"2026-02-04","time":"21:22:54","cor_ans":false},{"trial_type":"html-keyboard-response","rt":null,"stimulus":"<p style=\"color: red; font-size: 50px; font-weight: bold;\">Incorrect</p>","response":null,"trial_index":144,"plugin_version":"2.1.0","time_elapsed":423408,"subject_id":"90862","group":"Group2","condition":"1_Rep","full_date":"2026-02-04T21:22:54.901Z","date":"2026-02-04","time":"21:22:54"},{"correct_response":"l","task":"test_phase","broad_category":"S","image_png":"S_Dolomite_01.png","image_id":385,"category_name":"Dolomite","category":25,"distinct_rating":1.43,"distinct_type":"Bottom","item_type":"Target","rt":4580,"stimulus":"Stimuli_Rocks480/S_Dolomite_01.png","response":"l","trial_type":"image-keyboard-response","trial_index":145,"plugin_version":"2.1.0","time_elapsed":427989,"subject_id":"90862","group":"Group2","condition":"1_Rep","full_date":"2026-02-04T21:22:54.901Z","date":"2026-02-04","time":"21:22:54","cor_ans":true},{"trial_type":"html-keyboard-response","rt":null,"stimulus":"<p style=\"color: green; font-size: 50px; font-weight: bold;\">Correct</p>","response":null,"trial_index":146,"plugin_version":"2.1.0","time_elapsed":428514,"subject_id":"90862","group":"Group2","condition":"1_Rep","full_date":"2026-02-04T21:22:54.901Z","date":"2026-02-04","time":"21:22:54"},{"correct_response":"a","task":"test_phase","broad_category":"M","image_png":"M_Phyllite_10.png","image_id":266,"category_name":"Phyllite","category":17,"distinct_rating":2.6,"distinct_type":"Bottom","item_type":"Foil","rt":3732,"stimulus":"Stimuli_Rocks480/M_Phyllite_10.png","response":"a","trial_type":"image-keyboard-response","trial_index":147,"plugin_version":"2.1.0","time_elapsed":432247,"subject_id":"90862","group":"Group2","condition":"1_Rep","full_date":"2026-02-04T21:22:54.901Z","date":"2026-02-04","time":"21:22:54","cor_ans":true},{"trial_type":"html-keyboard-response","rt":null,"stimulus":"<p style=\"color: green; font-size: 50px; font-weight: bold;\">Correct</p>","response":null,"trial_index":148,"plugin_version":"2.1.0","time_elapsed":432778,"subject_id":"90862","group":"Group2","condition":"1_Rep","full_date":"2026-02-04T21:22:54.901Z","date":"2026-02-04","time":"21:22:54"},{"correct_response":"a","task":"test_phase","broad_category":"M","image_png":"M_Gneiss_05.png","image_id":197,"category_name":"Gneiss","category":13,"distinct_rating":2.97,"distinct_type":"Bottom","item_type":"Foil","rt":973,"stimulus":"Stimuli_Rocks480/M_Gneiss_05.png","response":"l","trial_type":"image-keyboard-response","trial_index":149,"plugin_version":"2.1.0","time_elapsed":433752,"subject_id":"90862","group":"Group2","condition":"1_Rep","full_date":"2026-02-04T21:22:54.901Z","date":"2026-02-04","time":"21:22:54","cor_ans":false},{"trial_type":"html-keyboard-response","rt":null,"stimulus":"<p style=\"color: red; font-size: 50px; font-weight: bold;\">Incorrect</p>","response":null,"trial_index":150,"plugin_version":"2.1.0","time_elapsed":434285,"subject_id":"90862","group":"Group2","condition":"1_Rep","full_date":"2026-02-04T21:22:54.901Z","date":"2026-02-04","time":"21:22:54"},{"correct_response":"a","task":"test_phase","broad_category":"I","image_png":"I_Pegmatite_16.png","image_id":112,"category_name":"Pegmatite","category":7,"distinct_rating":7.03,"distinct_type":"Top","item_type":"Foil","rt":2712,"stimulus":"Stimuli_Rocks480/I_Pegmatite_16.png","response":"a","trial_type":"image-keyboard-response","trial_index":151,"plugin_version":"2.1.0","time_elapsed":436999,"subject_id":"90862","group":"Group2","condition":"1_Rep","full_date":"2026-02-04T21:22:54.901Z","date":"2026-02-04","time":"21:22:54","cor_ans":true},{"trial_type":"html-keyboard-response","rt":null,"stimulus":"<p style=\"color: green; font-size: 50px; font-weight: bold;\">Correct</p>","response":null,"trial_index":152,"plugin_version":"2.1.0","time_elapsed":437524,"subject_id":"90862","group":"Group2","condition":"1_Rep","full_date":"2026-02-04T21:22:54.901Z","date":"2026-02-04","time":"21:22:54"},{"correct_response":"l","task":"test_phase","broad_category":"S","image_png":"S_Sandstone_11.png","image_id":459,"category_name":"Sandstone","category":29,"distinct_rating":1.82,"distinct_type":"Bottom","item_type":"Target","rt":5691,"stimulus":"Stimuli_Rocks480/S_Sandstone_11.png","response":"l","trial_type":"image-keyboard-response","trial_index":153,"plugin_version":"2.1.0","time_elapsed":443216,"subject_id":"90862","group":"Group2","condition":"1_Rep","full_date":"2026-02-04T21:22:54.901Z","date":"2026-02-04","time":"21:22:54","cor_ans":true},{"trial_type":"html-keyboard-response","rt":null,"stimulus":"<p style=\"color: green; font-size: 50px; font-weight: bold;\">Correct</p>","response":null,"trial_index":154,"plugin_version":"2.1.0","time_elapsed":443740,"subject_id":"90862","group":"Group2","condition":"1_Rep","full_date":"2026-02-04T21:22:54.901Z","date":"2026-02-04","time":"21:22:54"},{"correct_response":"a","task":"test_phase","broad_category":"I","image_png":"I_Basalt_01.png","image_id":17,"category_name":"Basalt","category":2,"distinct_rating":1.92,"distinct_type":"Bottom","item_type":"Foil","rt":2381,"stimulus":"Stimuli_Rocks480/I_Basalt_01.png","response":"l","trial_type":"image-keyboard-response","trial_index":155,"plugin_version":"2.1.0","time_elapsed":446123,"subject_id":"90862","group":"Group2","condition":"1_Rep","full_date":"2026-02-04T21:22:54.901Z","date":"2026-02-04","time":"21:22:54","cor_ans":false},{"trial_type":"html-keyboard-response","rt":null,"stimulus":"<p style=\"color: red; font-size: 50px; font-weight: bold;\">Incorrect</p>","response":null,"trial_index":156,"plugin_version":"2.1.0","time_elapsed":446660,"subject_id":"90862","group":"Group2","condition":"1_Rep","full_date":"2026-02-04T21:22:54.901Z","date":"2026-02-04","time":"21:22:54"},{"correct_response":"l","task":"test_phase","broad_category":"I","image_png":"I_Diorite_10.png","image_id":42,"category_name":"Diorite","category":3,"distinct_rating":2.84,"distinct_type":"Bottom","item_type":"Target","rt":1157,"stimulus":"Stimuli_Rocks480/I_Diorite_10.png","response":"a","trial_type":"image-keyboard-response","trial_index":157,"plugin_version":"2.1.0","time_elapsed":447819,"subject_id":"90862","group":"Group2","condition":"1_Rep","full_date":"2026-02-04T21:22:54.901Z","date":"2026-02-04","time":"21:22:54","cor_ans":false},{"trial_type":"html-keyboard-response","rt":null,"stimulus":"<p style=\"color: red; font-size: 50px; font-weight: bold;\">Incorrect</p>","response":null,"trial_index":158,"plugin_version":"2.1.0","time_elapsed":448330,"subject_id":"90862","group":"Group2","condition":"1_Rep","full_date":"2026-02-04T21:22:54.901Z","date":"2026-02-04","time":"21:22:54"},{"correct_response":"a","task":"test_phase","broad_category":"M","image_png":"M_Quartzite_08.png","image_id":280,"category_name":"Quartzite","category":18,"distinct_rating":2.15,"distinct_type":"Bottom","item_type":"Foil","rt":3437,"stimulus":"Stimuli_Rocks480/M_Quartzite_08.png","response":"l","trial_type":"image-keyboard-response","trial_index":159,"plugin_version":"2.1.0","time_elapsed":451768,"subject_id":"90862","group":"Group2","condition":"1_Rep","full_date":"2026-02-04T21:22:54.901Z","date":"2026-02-04","time":"21:22:54","cor_ans":false},{"trial_type":"html-keyboard-response","rt":null,"stimulus":"<p style=\"color: red; font-size: 50px; font-weight: bold;\">Incorrect</p>","response":null,"trial_index":160,"plugin_version":"2.1.0","time_elapsed":452296,"subject_id":"90862","group":"Group2","condition":"1_Rep","full_date":"2026-02-04T21:22:54.901Z","date":"2026-02-04","time":"21:22:54"},{"correct_response":"a","task":"test_phase","broad_category":"S","image_png":"S_Rock Salt_01.png","image_id":433,"category_name":"Rock Salt","category":28,"distinct_rating":7.18,"distinct_type":"Top","item_type":"Foil","rt":1281,"stimulus":"Stimuli_Rocks480/S_Rock Salt_01.png","response":"a","trial_type":"image-keyboard-response","trial_index":161,"plugin_version":"2.1.0","time_elapsed":453578,"subject_id":"90862","group":"Group2","condition":"1_Rep","full_date":"2026-02-04T21:22:54.901Z","date":"2026-02-04","time":"21:22:54","cor_ans":true},{"trial_type":"html-keyboard-response","rt":null,"stimulus":"<p style=\"color: green; font-size: 50px; font-weight: bold;\">Correct</p>","response":null,"trial_index":162,"plugin_version":"2.1.0","time_elapsed":454113,"subject_id":"90862","group":"Group2","condition":"1_Rep","full_date":"2026-02-04T21:22:54.901Z","date":"2026-02-04","time":"21:22:54"},{"correct_response":"l","task":"test_phase","broad_category":"M","image_png":"M_Slate_04.png","image_id":308,"category_name":"Slate","category":20,"distinct_rating":2.2,"distinct_type":"Bottom","item_type":"Target","rt":2178,"stimulus":"Stimuli_Rocks480/M_Slate_04.png","response":"a","trial_type":"image-keyboard-response","trial_index":163,"plugin_version":"2.1.0","time_elapsed":456292,"subject_id":"90862","group":"Group2","condition":"1_Rep","full_date":"2026-02-04T21:22:54.901Z","date":"2026-02-04","time":"21:22:54","cor_ans":false},{"trial_type":"html-keyboard-response","rt":null,"stimulus":"<p style=\"color: red; font-size: 50px; font-weight: bold;\">Incorrect</p>","response":null,"trial_index":164,"plugin_version":"2.1.0","time_elapsed":456826,"subject_id":"90862","group":"Group2","condition":"1_Rep","full_date":"2026-02-04T21:22:54.901Z","date":"2026-02-04","time":"21:22:54"},{"correct_response":"a","task":"test_phase","broad_category":"I","image_png":"I_Pumice_08.png","image_id":136,"category_name":"Pumice","category":9,"distinct_rating":3.1,"distinct_type":"Bottom","item_type":"Foil","rt":1203,"stimulus":"Stimuli_Rocks480/I_Pumice_08.png","response":"a","trial_type":"image-keyboard-response","trial_index":165,"plugin_version":"2.1.0","time_elapsed":458031,"subject_id":"90862","group":"Group2","condition":"1_Rep","full_date":"2026-02-04T21:22:54.901Z","date":"2026-02-04","time":"21:22:54","cor_ans":true},{"trial_type":"html-keyboard-response","rt":null,"stimulus":"<p style=\"color: green; font-size: 50px; font-weight: bold;\">Correct</p>","response":null,"trial_index":166,"plugin_version":"2.1.0","time_elapsed":458565,"subject_id":"90862","group":"Group2","condition":"1_Rep","full_date":"2026-02-04T21:22:54.901Z","date":"2026-02-04","time":"21:22:54"},{"correct_response":"l","task":"test_phase","broad_category":"I","image_png":"I_Pegmatite_03.png","image_id":99,"category_name":"Pegmatite","category":7,"distinct_rating":7.24,"distinct_type":"Top","item_type":"Target","rt":1034,"stimulus":"Stimuli_Rocks480/I_Pegmatite_03.png","response":"a","trial_type":"image-keyboard-response","trial_index":167,"plugin_version":"2.1.0","time_elapsed":459601,"subject_id":"90862","group":"Group2","condition":"1_Rep","full_date":"2026-02-04T21:22:54.901Z","date":"2026-02-04","time":"21:22:54","cor_ans":false},{"trial_type":"html-keyboard-response","rt":null,"stimulus":"<p style=\"color: red; font-size: 50px; font-weight: bold;\">Incorrect</p>","response":null,"trial_index":168,"plugin_version":"2.1.0","time_elapsed":460130,"subject_id":"90862","group":"Group2","condition":"1_Rep","full_date":"2026-02-04T21:22:54.901Z","date":"2026-02-04","time":"21:22:54"},{"correct_response":"a","task":"test_phase","broad_category":"S","image_png":"S_Sandstone_15.png","image_id":463,"category_name":"Sandstone","category":29,"distinct_rating":2,"distinct_type":"Bottom","item_type":"Foil","rt":1758,"stimulus":"Stimuli_Rocks480/S_Sandstone_15.png","response":"a","trial_type":"image-keyboard-response","trial_index":169,"plugin_version":"2.1.0","time_elapsed":461889,"subject_id":"90862","group":"Group2","condition":"1_Rep","full_date":"2026-02-04T21:22:54.901Z","date":"2026-02-04","time":"21:22:54","cor_ans":true},{"trial_type":"html-keyboard-response","rt":null,"stimulus":"<p style=\"color: green; font-size: 50px; font-weight: bold;\">Correct</p>","response":null,"trial_index":170,"plugin_version":"2.1.0","time_elapsed":462428,"subject_id":"90862","group":"Group2","condition":"1_Rep","full_date":"2026-02-04T21:22:54.901Z","date":"2026-02-04","time":"21:22:54"},{"correct_response":"l","task":"test_phase","broad_category":"S","image_png":"S_Rock Salt_15.png","image_id":447,"category_name":"Rock Salt","category":28,"distinct_rating":7.79,"distinct_type":"Top","item_type":"Target","rt":1099,"stimulus":"Stimuli_Rocks480/S_Rock Salt_15.png","response":"l","trial_type":"image-keyboard-response","trial_index":171,"plugin_version":"2.1.0","time_elapsed":463529,"subject_id":"90862","group":"Group2","condition":"1_Rep","full_date":"2026-02-04T21:22:54.901Z","date":"2026-02-04","time":"21:22:54","cor_ans":true},{"trial_type":"html-keyboard-response","rt":null,"stimulus":"<p style=\"color: green; font-size: 50px; font-weight: bold;\">Correct</p>","response":null,"trial_index":172,"plugin_version":"2.1.0","time_elapsed":464035,"subject_id":"90862","group":"Group2","condition":"1_Rep","full_date":"2026-02-04T21:22:54.901Z","date":"2026-02-04","time":"21:22:54"},{"correct_response":"l","task":"test_phase","broad_category":"I","image_png":"I_Gabbro_14.png","image_id":62,"category_name":"Gabbro","category":4,"distinct_rating":2.95,"distinct_type":"Bottom","item_type":"Target","rt":7336,"stimulus":"Stimuli_Rocks480/I_Gabbro_14.png","response":"a","trial_type":"image-keyboard-response","trial_index":173,"plugin_version":"2.1.0","time_elapsed":471373,"subject_id":"90862","group":"Group2","condition":"1_Rep","full_date":"2026-02-04T21:22:54.901Z","date":"2026-02-04","time":"21:22:54","cor_ans":false},{"trial_type":"html-keyboard-response","rt":null,"stimulus":"<p style=\"color: red; font-size: 50px; font-weight: bold;\">Incorrect</p>","response":null,"trial_index":174,"plugin_version":"2.1.0","time_elapsed":471875,"subject_id":"90862","group":"Group2","condition":"1_Rep","full_date":"2026-02-04T21:22:54.901Z","date":"2026-02-04","time":"21:22:54"},{"correct_response":"l","task":"test_phase","broad_category":"M","image_png":"M_Quartzite_12.png","image_id":284,"category_name":"Quartzite","category":18,"distinct_rating":1.92,"distinct_type":"Bottom","item_type":"Target","rt":2255,"stimulus":"Stimuli_Rocks480/M_Quartzite_12.png","response":"a","trial_type":"image-keyboard-response","trial_index":175,"plugin_version":"2.1.0","time_elapsed":474132,"subject_id":"90862","group":"Group2","condition":"1_Rep","full_date":"2026-02-04T21:22:54.901Z","date":"2026-02-04","time":"21:22:54","cor_ans":false},{"trial_type":"html-keyboard-response","rt":null,"stimulus":"<p style=\"color: red; font-size: 50px; font-weight: bold;\">Incorrect</p>","response":null,"trial_index":176,"plugin_version":"2.1.0","time_elapsed":474672,"subject_id":"90862","group":"Group2","condition":"1_Rep","full_date":"2026-02-04T21:22:54.901Z","date":"2026-02-04","time":"21:22:54"},{"correct_response":"a","task":"test_phase","broad_category":"I","image_png":"I_Gabbro_11.png","image_id":59,"category_name":"Gabbro","category":4,"distinct_rating":1.99,"distinct_type":"Bottom","item_type":"Foil","rt":1813,"stimulus":"Stimuli_Rocks480/I_Gabbro_11.png","response":"a","trial_type":"image-keyboard-response","trial_index":177,"plugin_version":"2.1.0","time_elapsed":476486,"subject_id":"90862","group":"Group2","condition":"1_Rep","full_date":"2026-02-04T21:22:54.901Z","date":"2026-02-04","time":"21:22:54","cor_ans":true},{"trial_type":"html-keyboard-response","rt":null,"stimulus":"<p style=\"color: green; font-size: 50px; font-weight: bold;\">Correct</p>","response":null,"trial_index":178,"plugin_version":"2.1.0","time_elapsed":477012,"subject_id":"90862","group":"Group2","condition":"1_Rep","full_date":"2026-02-04T21:22:54.901Z","date":"2026-02-04","time":"21:22:54"},{"correct_response":"a","task":"test_phase","broad_category":"S","image_png":"S_Dolomite_13.png","image_id":397,"category_name":"Dolomite","category":25,"distinct_rating":1.77,"distinct_type":"Bottom","item_type":"Foil","rt":950,"stimulus":"Stimuli_Rocks480/S_Dolomite_13.png","response":"l","trial_type":"image-keyboard-response","trial_index":179,"plugin_version":"2.1.0","time_elapsed":477964,"subject_id":"90862","group":"Group2","condition":"1_Rep","full_date":"2026-02-04T21:22:54.901Z","date":"2026-02-04","time":"21:22:54","cor_ans":false},{"trial_type":"html-keyboard-response","rt":null,"stimulus":"<p style=\"color: red; font-size: 50px; font-weight: bold;\">Incorrect</p>","response":null,"trial_index":180,"plugin_version":"2.1.0","time_elapsed":478499,"subject_id":"90862","group":"Group2","condition":"1_Rep","full_date":"2026-02-04T21:22:54.901Z","date":"2026-02-04","time":"21:22:54"},{"correct_response":"a","task":"test_phase","broad_category":"M","image_png":"M_Gneiss_06.png","image_id":198,"category_name":"Gneiss","category":13,"distinct_rating":2.65,"distinct_type":"Bottom","item_type":"Foil","rt":2230,"stimulus":"Stimuli_Rocks480/M_Gneiss_06.png","response":"a","trial_type":"image-keyboard-response","trial_index":181,"plugin_version":"2.1.0","time_elapsed":480731,"subject_id":"90862","group":"Group2","condition":"1_Rep","full_date":"2026-02-04T21:22:54.901Z","date":"2026-02-04","time":"21:22:54","cor_ans":true},{"trial_type":"html-keyboard-response","rt":null,"stimulus":"<p style=\"color: green; font-size: 50px; font-weight: bold;\">Correct</p>","response":null,"trial_index":182,"plugin_version":"2.1.0","time_elapsed":481262,"subject_id":"90862","group":"Group2","condition":"1_Rep","full_date":"2026-02-04T21:22:54.901Z","date":"2026-02-04","time":"21:22:54"},{"correct_response":"l","task":"test_phase","broad_category":"I","image_png":"I_Pegmatite_11.png","image_id":107,"category_name":"Pegmatite","category":7,"distinct_rating":7.11,"distinct_type":"Top","item_type":"Target","rt":885,"stimulus":"Stimuli_Rocks480/I_Pegmatite_11.png","response":"a","trial_type":"image-keyboard-response","trial_index":183,"plugin_version":"2.1.0","time_elapsed":482148,"subject_id":"90862","group":"Group2","condition":"1_Rep","full_date":"2026-02-04T21:22:54.901Z","date":"2026-02-04","time":"21:22:54","cor_ans":false},{"trial_type":"html-keyboard-response","rt":null,"stimulus":"<p style=\"color: red; font-size: 50px; font-weight: bold;\">Incorrect</p>","response":null,"trial_index":184,"plugin_version":"2.1.0","time_elapsed":482678,"subject_id":"90862","group":"Group2","condition":"1_Rep","full_date":"2026-02-04T21:22:54.901Z","date":"2026-02-04","time":"21:22:54"},{"correct_response":"l","task":"test_phase","broad_category":"I","image_png":"I_Basalt_08.png","image_id":24,"category_name":"Basalt","category":2,"distinct_rating":2.31,"distinct_type":"Bottom","item_type":"Target","rt":2017,"stimulus":"Stimuli_Rocks480/I_Basalt_08.png","response":"a","trial_type":"image-keyboard-response","trial_index":185,"plugin_version":"2.1.0","time_elapsed":484696,"subject_id":"90862","group":"Group2","condition":"1_Rep","full_date":"2026-02-04T21:22:54.901Z","date":"2026-02-04","time":"21:22:54","cor_ans":false},{"trial_type":"html-keyboard-response","rt":null,"stimulus":"<p style=\"color: red; font-size: 50px; font-weight: bold;\">Incorrect</p>","response":null,"trial_index":186,"plugin_version":"2.1.0","time_elapsed":485225,"subject_id":"90862","group":"Group2","condition":"1_Rep","full_date":"2026-02-04T21:22:54.901Z","date":"2026-02-04","time":"21:22:54"},{"correct_response":"l","task":"test_phase","broad_category":"I","image_png":"I_Rhyolite_08.png","image_id":152,"category_name":"Rhyolite","category":10,"distinct_rating":1.38,"distinct_type":"Bottom","item_type":"Target","rt":2924,"stimulus":"Stimuli_Rocks480/I_Rhyolite_08.png","response":"a","trial_type":"image-keyboard-response","trial_index":187,"plugin_version":"2.1.0","time_elapsed":488150,"subject_id":"90862","group":"Group2","condition":"1_Rep","full_date":"2026-02-04T21:22:54.901Z","date":"2026-02-04","time":"21:22:54","cor_ans":false},{"trial_type":"html-keyboard-response","rt":null,"stimulus":"<p style=\"color: red; font-size: 50px; font-weight: bold;\">Incorrect</p>","response":null,"trial_index":188,"plugin_version":"2.1.0","time_elapsed":488687,"subject_id":"90862","group":"Group2","condition":"1_Rep","full_date":"2026-02-04T21:22:54.901Z","date":"2026-02-04","time":"21:22:54"},{"correct_response":"l","task":"test_phase","broad_category":"M","image_png":"M_Slate_14.png","image_id":318,"category_name":"Slate","category":20,"distinct_rating":2.58,"distinct_type":"Bottom","item_type":"Target","rt":4634,"stimulus":"Stimuli_Rocks480/M_Slate_14.png","response":"l","trial_type":"image-keyboard-response","trial_index":189,"plugin_version":"2.1.0","time_elapsed":493322,"subject_id":"90862","group":"Group2","condition":"1_Rep","full_date":"2026-02-04T21:22:54.901Z","date":"2026-02-04","time":"21:22:54","cor_ans":true},{"trial_type":"html-keyboard-response","rt":null,"stimulus":"<p style=\"color: green; font-size: 50px; font-weight: bold;\">Correct</p>","response":null,"trial_index":190,"plugin_version":"2.1.0","time_elapsed":493853,"subject_id":"90862","group":"Group2","condition":"1_Rep","full_date":"2026-02-04T21:22:54.901Z","date":"2026-02-04","time":"21:22:54"},{"correct_response":"a","task":"test_phase","broad_category":"S","image_png":"S_Shale_01.png","image_id":465,"category_name":"Shale","category":30,"distinct_rating":2.7,"distinct_type":"Bottom","item_type":"Foil","rt":997,"stimulus":"Stimuli_Rocks480/S_Shale_01.png","response":"a","trial_type":"image-keyboard-response","trial_index":191,"plugin_version":"2.1.0","time_elapsed":494852,"subject_id":"90862","group":"Group2","condition":"1_Rep","full_date":"2026-02-04T21:22:54.901Z","date":"2026-02-04","time":"21:22:54","cor_ans":true},{"trial_type":"html-keyboard-response","rt":null,"stimulus":"<p style=\"color: green; font-size: 50px; font-weight: bold;\">Correct</p>","response":null,"trial_index":192,"plugin_version":"2.1.0","time_elapsed":495381,"subject_id":"90862","group":"Group2","condition":"1_Rep","full_date":"2026-02-04T21:22:54.901Z","date":"2026-02-04","time":"21:22:54"},{"correct_response":"a","task":"test_phase","broad_category":"I","image_png":"I_Gabbro_08.png","image_id":56,"category_name":"Gabbro","category":4,"distinct_rating":3.02,"distinct_type":"Bottom","item_type":"Foil","rt":1404,"stimulus":"Stimuli_Rocks480/I_Gabbro_08.png","response":"l","trial_type":"image-keyboard-response","trial_index":193,"plugin_version":"2.1.0","time_elapsed":496786,"subject_id":"90862","group":"Group2","condition":"1_Rep","full_date":"2026-02-04T21:22:54.901Z","date":"2026-02-04","time":"21:22:54","cor_ans":false},{"trial_type":"html-keyboard-response","rt":null,"stimulus":"<p style=\"color: red; font-size: 50px; font-weight: bold;\">Incorrect</p>","response":null,"trial_index":194,"plugin_version":"2.1.0","time_elapsed":497304,"subject_id":"90862","group":"Group2","condition":"1_Rep","full_date":"2026-02-04T21:22:54.901Z","date":"2026-02-04","time":"21:22:54"},{"correct_response":"l","task":"test_phase","broad_category":"S","image_png":"S_Shale_02.png","image_id":466,"category_name":"Shale","category":30,"distinct_rating":2.9,"distinct_type":"Bottom","item_type":"Target","rt":1919,"stimulus":"Stimuli_Rocks480/S_Shale_02.png","response":"a","trial_type":"image-keyboard-response","trial_index":195,"plugin_version":"2.1.0","time_elapsed":499225,"subject_id":"90862","group":"Group2","condition":"1_Rep","full_date":"2026-02-04T21:22:54.901Z","date":"2026-02-04","time":"21:22:54","cor_ans":false},{"trial_type":"html-keyboard-response","rt":null,"stimulus":"<p style=\"color: red; font-size: 50px; font-weight: bold;\">Incorrect</p>","response":null,"trial_index":196,"plugin_version":"2.1.0","time_elapsed":499737,"subject_id":"90862","group":"Group2","condition":"1_Rep","full_date":"2026-02-04T21:22:54.901Z","date":"2026-02-04","time":"21:22:54"},{"correct_response":"l","task":"test_phase","broad_category":"M","image_png":"M_Quartzite_07.png","image_id":279,"category_name":"Quartzite","category":18,"distinct_rating":1.97,"distinct_type":"Bottom","item_type":"Target","rt":3571,"stimulus":"Stimuli_Rocks480/M_Quartzite_07.png","response":"a","trial_type":"image-keyboard-response","trial_index":197,"plugin_version":"2.1.0","time_elapsed":503310,"subject_id":"90862","group":"Group2","condition":"1_Rep","full_date":"2026-02-04T21:22:54.901Z","date":"2026-02-04","time":"21:22:54","cor_ans":false},{"trial_type":"html-keyboard-response","rt":null,"stimulus":"<p style=\"color: red; font-size: 50px; font-weight: bold;\">Incorrect</p>","response":null,"trial_index":198,"plugin_version":"2.1.0","time_elapsed":503845,"subject_id":"90862","group":"Group2","condition":"1_Rep","full_date":"2026-02-04T21:22:54.901Z","date":"2026-02-04","time":"21:22:54"},{"correct_response":"l","task":"test_phase","broad_category":"I","image_png":"I_Diorite_15.png","image_id":47,"category_name":"Diorite","category":3,"distinct_rating":3.05,"distinct_type":"Bottom","item_type":"Target","rt":1801,"stimulus":"Stimuli_Rocks480/I_Diorite_15.png","response":"l","trial_type":"image-keyboard-response","trial_index":199,"plugin_version":"2.1.0","time_elapsed":505647,"subject_id":"90862","group":"Group2","condition":"1_Rep","full_date":"2026-02-04T21:22:54.901Z","date":"2026-02-04","time":"21:22:54","cor_ans":true},{"trial_type":"html-keyboard-response","rt":null,"stimulus":"<p style=\"color: green; font-size: 50px; font-weight: bold;\">Correct</p>","response":null,"trial_index":200,"plugin_version":"2.1.0","time_elapsed":506182,"subject_id":"90862","group":"Group2","condition":"1_Rep","full_date":"2026-02-04T21:22:54.901Z","date":"2026-02-04","time":"21:22:54"},{"correct_response":"l","task":"test_phase","broad_category":"M","image_png":"M_Gneiss_10.png","image_id":202,"category_name":"Gneiss","category":13,"distinct_rating":3.09,"distinct_type":"Bottom","item_type":"Target","rt":983,"stimulus":"Stimuli_Rocks480/M_Gneiss_10.png","response":"a","trial_type":"image-keyboard-response","trial_index":201,"plugin_version":"2.1.0","time_elapsed":507166,"subject_id":"90862","group":"Group2","condition":"1_Rep","full_date":"2026-02-04T21:22:54.901Z","date":"2026-02-04","time":"21:22:54","cor_ans":false},{"trial_type":"html-keyboard-response","rt":null,"stimulus":"<p style=\"color: red; font-size: 50px; font-weight: bold;\">Incorrect</p>","response":null,"trial_index":202,"plugin_version":"2.1.0","time_elapsed":507700,"subject_id":"90862","group":"Group2","condition":"1_Rep","full_date":"2026-02-04T21:22:54.901Z","date":"2026-02-04","time":"21:22:54"},{"correct_response":"l","task":"test_phase","broad_category":"M","image_png":"M_Slate_10.png","image_id":314,"category_name":"Slate","category":20,"distinct_rating":1.94,"distinct_type":"Bottom","item_type":"Target","rt":1444,"stimulus":"Stimuli_Rocks480/M_Slate_10.png","response":"l","trial_type":"image-keyboard-response","trial_index":203,"plugin_version":"2.1.0","time_elapsed":509147,"subject_id":"90862","group":"Group2","condition":"1_Rep","full_date":"2026-02-04T21:22:54.901Z","date":"2026-02-04","time":"21:22:54","cor_ans":true},{"trial_type":"html-keyboard-response","rt":null,"stimulus":"<p style=\"color: green; font-size: 50px; font-weight: bold;\">Correct</p>","response":null,"trial_index":204,"plugin_version":"2.1.0","time_elapsed":509677,"subject_id":"90862","group":"Group2","condition":"1_Rep","full_date":"2026-02-04T21:22:54.901Z","date":"2026-02-04","time":"21:22:54"},{"correct_response":"a","task":"test_phase","broad_category":"I","image_png":"I_Pumice_11.png","image_id":139,"category_name":"Pumice","category":9,"distinct_rating":1.74,"distinct_type":"Bottom","item_type":"Foil","rt":4240,"stimulus":"Stimuli_Rocks480/I_Pumice_11.png","response":"a","trial_type":"image-keyboard-response","trial_index":205,"plugin_version":"2.1.0","time_elapsed":513920,"subject_id":"90862","group":"Group2","condition":"1_Rep","full_date":"2026-02-04T21:22:54.901Z","date":"2026-02-04","time":"21:22:54","cor_ans":true},{"trial_type":"html-keyboard-response","rt":null,"stimulus":"<p style=\"color: green; font-size: 50px; font-weight: bold;\">Correct</p>","response":null,"trial_index":206,"plugin_version":"2.1.0","time_elapsed":514454,"subject_id":"90862","group":"Group2","condition":"1_Rep","full_date":"2026-02-04T21:22:54.901Z","date":"2026-02-04","time":"21:22:54"},{"correct_response":"a","task":"test_phase","broad_category":"M","image_png":"M_Quartzite_05.png","image_id":277,"category_name":"Quartzite","category":18,"distinct_rating":2.23,"distinct_type":"Bottom","item_type":"Foil","rt":2499,"stimulus":"Stimuli_Rocks480/M_Quartzite_05.png","response":"l","trial_type":"image-keyboard-response","trial_index":207,"plugin_version":"2.1.0","time_elapsed":516954,"subject_id":"90862","group":"Group2","condition":"1_Rep","full_date":"2026-02-04T21:22:54.901Z","date":"2026-02-04","time":"21:22:54","cor_ans":false},{"trial_type":"html-keyboard-response","rt":null,"stimulus":"<p style=\"color: red; font-size: 50px; font-weight: bold;\">Incorrect</p>","response":null,"trial_index":208,"plugin_version":"2.1.0","time_elapsed":517484,"subject_id":"90862","group":"Group2","condition":"1_Rep","full_date":"2026-02-04T21:22:54.901Z","date":"2026-02-04","time":"21:22:54"},{"correct_response":"l","task":"test_phase","broad_category":"M","image_png":"M_Gneiss_14.png","image_id":206,"category_name":"Gneiss","category":13,"distinct_rating":3.41,"distinct_type":"Bottom","item_type":"Target","rt":2005,"stimulus":"Stimuli_Rocks480/M_Gneiss_14.png","response":"a","trial_type":"image-keyboard-response","trial_index":209,"plugin_version":"2.1.0","time_elapsed":519490,"subject_id":"90862","group":"Group2","condition":"1_Rep","full_date":"2026-02-04T21:22:54.901Z","date":"2026-02-04","time":"21:22:54","cor_ans":false},{"trial_type":"html-keyboard-response","rt":null,"stimulus":"<p style=\"color: red; font-size: 50px; font-weight: bold;\">Incorrect</p>","response":null,"trial_index":210,"plugin_version":"2.1.0","time_elapsed":520024,"subject_id":"90862","group":"Group2","condition":"1_Rep","full_date":"2026-02-04T21:22:54.901Z","date":"2026-02-04","time":"21:22:54"},{"correct_response":"a","task":"test_phase","broad_category":"I","image_png":"I_Rhyolite_11.png","image_id":155,"category_name":"Rhyolite","category":10,"distinct_rating":1.73,"distinct_type":"Bottom","item_type":"Foil","rt":2515,"stimulus":"Stimuli_Rocks480/I_Rhyolite_11.png","response":"l","trial_type":"image-keyboard-response","trial_index":211,"plugin_version":"2.1.0","time_elapsed":522541,"subject_id":"90862","group":"Group2","condition":"1_Rep","full_date":"2026-02-04T21:22:54.901Z","date":"2026-02-04","time":"21:22:54","cor_ans":false},{"trial_type":"html-keyboard-response","rt":null,"stimulus":"<p style=\"color: red; font-size: 50px; font-weight: bold;\">Incorrect</p>","response":null,"trial_index":212,"plugin_version":"2.1.0","time_elapsed":523075,"subject_id":"90862","group":"Group2","condition":"1_Rep","full_date":"2026-02-04T21:22:54.901Z","date":"2026-02-04","time":"21:22:54"},{"correct_response":"a","task":"test_phase","broad_category":"M","image_png":"M_Slate_03.png","image_id":307,"category_name":"Slate","category":20,"distinct_rating":1.87,"distinct_type":"Bottom","item_type":"Foil","rt":798,"stimulus":"Stimuli_Rocks480/M_Slate_03.png","response":"a","trial_type":"image-keyboard-response","trial_index":213,"plugin_version":"2.1.0","time_elapsed":523874,"subject_id":"90862","group":"Group2","condition":"1_Rep","full_date":"2026-02-04T21:22:54.901Z","date":"2026-02-04","time":"21:22:54","cor_ans":true},{"trial_type":"html-keyboard-response","rt":null,"stimulus":"<p style=\"color: green; font-size: 50px; font-weight: bold;\">Correct</p>","response":null,"trial_index":214,"plugin_version":"2.1.0","time_elapsed":524410,"subject_id":"90862","group":"Group2","condition":"1_Rep","full_date":"2026-02-04T21:22:54.901Z","date":"2026-02-04","time":"21:22:54"},{"correct_response":"a","task":"test_phase","broad_category":"S","image_png":"S_Sandstone_16.png","image_id":464,"category_name":"Sandstone","category":29,"distinct_rating":1.93,"distinct_type":"Bottom","item_type":"Foil","rt":2306,"stimulus":"Stimuli_Rocks480/S_Sandstone_16.png","response":"a","trial_type":"image-keyboard-response","trial_index":215,"plugin_version":"2.1.0","time_elapsed":526716,"subject_id":"90862","group":"Group2","condition":"1_Rep","full_date":"2026-02-04T21:22:54.901Z","date":"2026-02-04","time":"21:22:54","cor_ans":true},{"trial_type":"html-keyboard-response","rt":null,"stimulus":"<p style=\"color: green; font-size: 50px; font-weight: bold;\">Correct</p>","response":null,"trial_index":216,"plugin_version":"2.1.0","time_elapsed":527250,"subject_id":"90862","group":"Group2","condition":"1_Rep","full_date":"2026-02-04T21:22:54.901Z","date":"2026-02-04","time":"21:22:54"},{"correct_response":"l","task":"test_phase","broad_category":"I","image_png":"I_Diorite_01.png","image_id":33,"category_name":"Diorite","category":3,"distinct_rating":2.97,"distinct_type":"Bottom","item_type":"Target","rt":913,"stimulus":"Stimuli_Rocks480/I_Diorite_01.png","response":"l","trial_type":"image-keyboard-response","trial_index":217,"plugin_version":"2.1.0","time_elapsed":528164,"subject_id":"90862","group":"Group2","condition":"1_Rep","full_date":"2026-02-04T21:22:54.901Z","date":"2026-02-04","time":"21:22:54","cor_ans":true},{"trial_type":"html-keyboard-response","rt":null,"stimulus":"<p style=\"color: green; font-size: 50px; font-weight: bold;\">Correct</p>","response":null,"trial_index":218,"plugin_version":"2.1.0","time_elapsed":528698,"subject_id":"90862","group":"Group2","condition":"1_Rep","full_date":"2026-02-04T21:22:54.901Z","date":"2026-02-04","time":"21:22:54"},{"correct_response":"l","task":"test_phase","broad_category":"I","image_png":"I_Rhyolite_05.png","image_id":149,"category_name":"Rhyolite","category":10,"distinct_rating":3.02,"distinct_type":"Bottom","item_type":"Target","rt":612,"stimulus":"Stimuli_Rocks480/I_Rhyolite_05.png","response":"l","trial_type":"image-keyboard-response","trial_index":219,"plugin_version":"2.1.0","time_elapsed":529312,"subject_id":"90862","group":"Group2","condition":"1_Rep","full_date":"2026-02-04T21:22:54.901Z","date":"2026-02-04","time":"21:22:54","cor_ans":true},{"trial_type":"html-keyboard-response","rt":null,"stimulus":"<p style=\"color: green; font-size: 50px; font-weight: bold;\">Correct</p>","response":null,"trial_index":220,"plugin_version":"2.1.0","time_elapsed":529846,"subject_id":"90862","group":"Group2","condition":"1_Rep","full_date":"2026-02-04T21:22:54.901Z","date":"2026-02-04","time":"21:22:54"},{"correct_response":"l","task":"test_phase","broad_category":"I","image_png":"I_Basalt_10.png","image_id":26,"category_name":"Basalt","category":2,"distinct_rating":2.76,"distinct_type":"Bottom","item_type":"Target","rt":816,"stimulus":"Stimuli_Rocks480/I_Basalt_10.png","response":"a","trial_type":"image-keyboard-response","trial_index":221,"plugin_version":"2.1.0","time_elapsed":530663,"subject_id":"90862","group":"Group2","condition":"1_Rep","full_date":"2026-02-04T21:22:54.901Z","date":"2026-02-04","time":"21:22:54","cor_ans":false},{"trial_type":"html-keyboard-response","rt":null,"stimulus":"<p style=\"color: red; font-size: 50px; font-weight: bold;\">Incorrect</p>","response":null,"trial_index":222,"plugin_version":"2.1.0","time_elapsed":531187,"subject_id":"90862","group":"Group2","condition":"1_Rep","full_date":"2026-02-04T21:22:54.901Z","date":"2026-02-04","time":"21:22:54"},{"correct_response":"l","task":"test_phase","broad_category":"M","image_png":"M_Phyllite_02.png","image_id":258,"category_name":"Phyllite","category":17,"distinct_rating":2.89,"distinct_type":"Bottom","item_type":"Target","rt":784,"stimulus":"Stimuli_Rocks480/M_Phyllite_02.png","response":"a","trial_type":"image-keyboard-response","trial_index":223,"plugin_version":"2.1.0","time_elapsed":531972,"subject_id":"90862","group":"Group2","condition":"1_Rep","full_date":"2026-02-04T21:22:54.901Z","date":"2026-02-04","time":"21:22:54","cor_ans":false},{"trial_type":"html-keyboard-response","rt":null,"stimulus":"<p style=\"color: red; font-size: 50px; font-weight: bold;\">Incorrect</p>","response":null,"trial_index":224,"plugin_version":"2.1.0","time_elapsed":532504,"subject_id":"90862","group":"Group2","condition":"1_Rep","full_date":"2026-02-04T21:22:54.901Z","date":"2026-02-04","time":"21: