[{"width":1470,"height":839,"webaudio":true,"browser":"safari","browser_version":"17.3.0","mobile":false,"os":"Mac OS","fullscreen":true,"vsync_rate":30.15,"webcam":true,"microphone":true,"trial_type":"browser-check","trial_index":0,"plugin_version":"2.1.0","time_elapsed":1999,"subject_id":"91934","group":"Group1","condition":"1_Rep","full_date":"2026-02-24T04:13:18.211Z","date":"2026-02-24","time":"04:13:18"},{"success":true,"timeout":false,"failed_images":[],"failed_audio":[],"failed_video":[],"trial_type":"preload","trial_index":1,"plugin_version":"2.1.0","time_elapsed":3050,"subject_id":"91934","group":"Group1","condition":"1_Rep","full_date":"2026-02-24T04:13:18.211Z","date":"2026-02-24","time":"04:13:18"},{"rt":46354,"url":"SONA_consent_memorability.html","trial_type":"external-html","trial_index":2,"plugin_version":"2.1.0","time_elapsed":49466,"subject_id":"91934","group":"Group1","condition":"1_Rep","full_date":"2026-02-24T04:13:18.211Z","date":"2026-02-24","time":"04:13:18"},{"success":true,"rt":2645,"trial_type":"fullscreen","trial_index":3,"plugin_version":"2.1.0","time_elapsed":53117,"subject_id":"91934","group":"Group1","condition":"1_Rep","full_date":"2026-02-24T04:13:18.211Z","date":"2026-02-24","time":"04:13:18"},{"rt":21746,"stimulus":"<div style=\"max-width: 760px; margin: auto; font-size: 20px; line-height: 1.5;\">\n      <h1 style=\"text-align:center; font-size: 30px;\">Instructions</h1>\n      <p>\n        Welcome to the study on <b>visual memory</b>. This experiment consists of <b>two phases</b>: \n        a <b>study phase</b> and a <b>test phase</b>.\n      </p>\n      <p>\n        In the study phase, you will see a series of rock images along with their category labels.\n        The images will appear one at a time.\n        <b>Your task</b> is to learn the categories to which the rock images belong \n        and to remember each image as accurately as possible.\n      </p> \n      <p>\n        Note that you will see each image only <b>once</b> during the study phase. \n          So, please pay close attention and try to remember each image carefully.\n      </p>\n      <p>\n        After the study phase, <b>your memory will be tested</b>. \n        Additional instructions for the test phase will be provided at that time.\n      </p>\n      <p>\n        If your computer has multiple <b>language settings</b> (e.g., English and another language),\n        please make sure it is set to English before starting.\n      </p>\n      <p>\n        You can track your progress using the <b>completion bar</b> at the top of the screen. \n        Please note that the bar will refresh when the test phase begins \n        to give you an accurate sense of your progress in both phases.\n      </p> \n      <p>\n        Press the button below when you are ready to begin.\n      </p>\n    </div>","response":0,"trial_type":"html-button-response","trial_index":4,"plugin_version":"2.1.0","time_elapsed":74866,"subject_id":"91934","group":"Group1","condition":"1_Rep","full_date":"2026-02-24T04:13:18.211Z","date":"2026-02-24","time":"04:13:18"},{"rt":null,"stimulus":"<p style=\"font-size: 50px; margin: 0; text-align: center;\">+</p>","response":null,"trial_type":"html-keyboard-response","trial_index":5,"plugin_version":"2.1.0","time_elapsed":75872,"subject_id":"91934","group":"Group1","condition":"1_Rep","full_date":"2026-02-24T04:13:18.211Z","date":"2026-02-24","time":"04:13:18"},{"task":"memory_phase","broad_category":"S","image_png":"S_Breccia_11.png","image_id":347,"category_name":"Breccia","category":22,"distinct_rating":6.7,"distinct_type":"Top","rt":null,"stimulus":"Stimuli_Rocks480/S_Breccia_11.png","response":null,"trial_type":"image-keyboard-response","trial_index":6,"plugin_version":"2.1.0","time_elapsed":78401,"subject_id":"91934","group":"Group1","condition":"1_Rep","full_date":"2026-02-24T04:13:18.211Z","date":"2026-02-24","time":"04:13:18"},{"rt":null,"stimulus":"<p style=\"font-size: 50px; margin: 0; text-align: center;\">+</p>","response":null,"trial_type":"html-keyboard-response","trial_index":7,"plugin_version":"2.1.0","time_elapsed":79404,"subject_id":"91934","group":"Group1","condition":"1_Rep","full_date":"2026-02-24T04:13:18.211Z","date":"2026-02-24","time":"04:13:18"},{"task":"memory_phase","broad_category":"I","image_png":"I_Gabbro_16.png","image_id":64,"category_name":"Gabbro","category":4,"distinct_rating":2.52,"distinct_type":"Bottom","rt":null,"stimulus":"Stimuli_Rocks480/I_Gabbro_16.png","response":null,"trial_type":"image-keyboard-response","trial_index":8,"plugin_version":"2.1.0","time_elapsed":81922,"subject_id":"91934","group":"Group1","condition":"1_Rep","full_date":"2026-02-24T04:13:18.211Z","date":"2026-02-24","time":"04:13:18"},{"rt":null,"stimulus":"<p style=\"font-size: 50px; margin: 0; text-align: center;\">+</p>","response":null,"trial_type":"html-keyboard-response","trial_index":9,"plugin_version":"2.1.0","time_elapsed":82925,"subject_id":"91934","group":"Group1","condition":"1_Rep","full_date":"2026-02-24T04:13:18.211Z","date":"2026-02-24","time":"04:13:18"},{"task":"memory_phase","broad_category":"M","image_png":"M_Quartzite_08.png","image_id":280,"category_name":"Quartzite","category":18,"distinct_rating":2.15,"distinct_type":"Bottom","rt":null,"stimulus":"Stimuli_Rocks480/M_Quartzite_08.png","response":null,"trial_type":"image-keyboard-response","trial_index":10,"plugin_version":"2.1.0","time_elapsed":85442,"subject_id":"91934","group":"Group1","condition":"1_Rep","full_date":"2026-02-24T04:13:18.211Z","date":"2026-02-24","time":"04:13:18"},{"rt":null,"stimulus":"<p style=\"font-size: 50px; margin: 0; text-align: center;\">+</p>","response":null,"trial_type":"html-keyboard-response","trial_index":11,"plugin_version":"2.1.0","time_elapsed":86444,"subject_id":"91934","group":"Group1","condition":"1_Rep","full_date":"2026-02-24T04:13:18.211Z","date":"2026-02-24","time":"04:13:18"},{"task":"memory_phase","broad_category":"M","image_png":"M_Gneiss_05.png","image_id":197,"category_name":"Gneiss","category":13,"distinct_rating":2.97,"distinct_type":"Bottom","rt":null,"stimulus":"Stimuli_Rocks480/M_Gneiss_05.png","response":null,"trial_type":"image-keyboard-response","trial_index":12,"plugin_version":"2.1.0","time_elapsed":88969,"subject_id":"91934","group":"Group1","condition":"1_Rep","full_date":"2026-02-24T04:13:18.211Z","date":"2026-02-24","time":"04:13:18"},{"rt":null,"stimulus":"<p style=\"font-size: 50px; margin: 0; text-align: center;\">+</p>","response":null,"trial_type":"html-keyboard-response","trial_index":13,"plugin_version":"2.1.0","time_elapsed":89972,"subject_id":"91934","group":"Group1","condition":"1_Rep","full_date":"2026-02-24T04:13:18.211Z","date":"2026-02-24","time":"04:13:18"},{"task":"memory_phase","broad_category":"M","image_png":"M_Slate_11.png","image_id":315,"category_name":"Slate","category":20,"distinct_rating":2.75,"distinct_type":"Bottom","rt":null,"stimulus":"Stimuli_Rocks480/M_Slate_11.png","response":null,"trial_type":"image-keyboard-response","trial_index":14,"plugin_version":"2.1.0","time_elapsed":92488,"subject_id":"91934","group":"Group1","condition":"1_Rep","full_date":"2026-02-24T04:13:18.211Z","date":"2026-02-24","time":"04:13:18"},{"rt":null,"stimulus":"<p style=\"font-size: 50px; margin: 0; text-align: center;\">+</p>","response":null,"trial_type":"html-keyboard-response","trial_index":15,"plugin_version":"2.1.0","time_elapsed":93491,"subject_id":"91934","group":"Group1","condition":"1_Rep","full_date":"2026-02-24T04:13:18.211Z","date":"2026-02-24","time":"04:13:18"},{"task":"memory_phase","broad_category":"I","image_png":"I_Pumice_08.png","image_id":136,"category_name":"Pumice","category":9,"distinct_rating":3.1,"distinct_type":"Bottom","rt":null,"stimulus":"Stimuli_Rocks480/I_Pumice_08.png","response":null,"trial_type":"image-keyboard-response","trial_index":16,"plugin_version":"2.1.0","time_elapsed":96009,"subject_id":"91934","group":"Group1","condition":"1_Rep","full_date":"2026-02-24T04:13:18.211Z","date":"2026-02-24","time":"04:13:18"},{"rt":null,"stimulus":"<p style=\"font-size: 50px; margin: 0; text-align: center;\">+</p>","response":null,"trial_type":"html-keyboard-response","trial_index":17,"plugin_version":"2.1.0","time_elapsed":97012,"subject_id":"91934","group":"Group1","condition":"1_Rep","full_date":"2026-02-24T04:13:18.211Z","date":"2026-02-24","time":"04:13:18"},{"task":"memory_phase","broad_category":"M","image_png":"M_Phyllite_07.png","image_id":263,"category_name":"Phyllite","category":17,"distinct_rating":2.59,"distinct_type":"Bottom","rt":null,"stimulus":"Stimuli_Rocks480/M_Phyllite_07.png","response":null,"trial_type":"image-keyboard-response","trial_index":18,"plugin_version":"2.1.0","time_elapsed":99526,"subject_id":"91934","group":"Group1","condition":"1_Rep","full_date":"2026-02-24T04:13:18.211Z","date":"2026-02-24","time":"04:13:18"},{"rt":null,"stimulus":"<p style=\"font-size: 50px; margin: 0; text-align: center;\">+</p>","response":null,"trial_type":"html-keyboard-response","trial_index":19,"plugin_version":"2.1.0","time_elapsed":100529,"subject_id":"91934","group":"Group1","condition":"1_Rep","full_date":"2026-02-24T04:13:18.211Z","date":"2026-02-24","time":"04:13:18"},{"task":"memory_phase","broad_category":"I","image_png":"I_Rhyolite_16.png","image_id":160,"category_name":"Rhyolite","category":10,"distinct_rating":2.19,"distinct_type":"Bottom","rt":null,"stimulus":"Stimuli_Rocks480/I_Rhyolite_16.png","response":null,"trial_type":"image-keyboard-response","trial_index":20,"plugin_version":"2.1.0","time_elapsed":103044,"subject_id":"91934","group":"Group1","condition":"1_Rep","full_date":"2026-02-24T04:13:18.211Z","date":"2026-02-24","time":"04:13:18"},{"rt":null,"stimulus":"<p style=\"font-size: 50px; margin: 0; text-align: center;\">+</p>","response":null,"trial_type":"html-keyboard-response","trial_index":21,"plugin_version":"2.1.0","time_elapsed":104047,"subject_id":"91934","group":"Group1","condition":"1_Rep","full_date":"2026-02-24T04:13:18.211Z","date":"2026-02-24","time":"04:13:18"},{"task":"memory_phase","broad_category":"I","image_png":"I_Pegmatite_16.png","image_id":112,"category_name":"Pegmatite","category":7,"distinct_rating":7.03,"distinct_type":"Top","rt":null,"stimulus":"Stimuli_Rocks480/I_Pegmatite_16.png","response":null,"trial_type":"image-keyboard-response","trial_index":22,"plugin_version":"2.1.0","time_elapsed":106564,"subject_id":"91934","group":"Group1","condition":"1_Rep","full_date":"2026-02-24T04:13:18.211Z","date":"2026-02-24","time":"04:13:18"},{"rt":null,"stimulus":"<p style=\"font-size: 50px; margin: 0; text-align: center;\">+</p>","response":null,"trial_type":"html-keyboard-response","trial_index":23,"plugin_version":"2.1.0","time_elapsed":107566,"subject_id":"91934","group":"Group1","condition":"1_Rep","full_date":"2026-02-24T04:13:18.211Z","date":"2026-02-24","time":"04:13:18"},{"task":"memory_phase","broad_category":"M","image_png":"M_Quartzite_13.png","image_id":285,"category_name":"Quartzite","category":18,"distinct_rating":2.27,"distinct_type":"Bottom","rt":null,"stimulus":"Stimuli_Rocks480/M_Quartzite_13.png","response":null,"trial_type":"image-keyboard-response","trial_index":24,"plugin_version":"2.1.0","time_elapsed":110083,"subject_id":"91934","group":"Group1","condition":"1_Rep","full_date":"2026-02-24T04:13:18.211Z","date":"2026-02-24","time":"04:13:18"},{"rt":null,"stimulus":"<p style=\"font-size: 50px; margin: 0; text-align: center;\">+</p>","response":null,"trial_type":"html-keyboard-response","trial_index":25,"plugin_version":"2.1.0","time_elapsed":111086,"subject_id":"91934","group":"Group1","condition":"1_Rep","full_date":"2026-02-24T04:13:18.211Z","date":"2026-02-24","time":"04:13:18"},{"task":"memory_phase","broad_category":"I","image_png":"I_Gabbro_11.png","image_id":59,"category_name":"Gabbro","category":4,"distinct_rating":1.99,"distinct_type":"Bottom","rt":null,"stimulus":"Stimuli_Rocks480/I_Gabbro_11.png","response":null,"trial_type":"image-keyboard-response","trial_index":26,"plugin_version":"2.1.0","time_elapsed":113600,"subject_id":"91934","group":"Group1","condition":"1_Rep","full_date":"2026-02-24T04:13:18.211Z","date":"2026-02-24","time":"04:13:18"},{"rt":null,"stimulus":"<p style=\"font-size: 50px; margin: 0; text-align: center;\">+</p>","response":null,"trial_type":"html-keyboard-response","trial_index":27,"plugin_version":"2.1.0","time_elapsed":114602,"subject_id":"91934","group":"Group1","condition":"1_Rep","full_date":"2026-02-24T04:13:18.211Z","date":"2026-02-24","time":"04:13:18"},{"task":"memory_phase","broad_category":"I","image_png":"I_Pegmatite_10.png","image_id":106,"category_name":"Pegmatite","category":7,"distinct_rating":7.66,"distinct_type":"Top","rt":null,"stimulus":"Stimuli_Rocks480/I_Pegmatite_10.png","response":null,"trial_type":"image-keyboard-response","trial_index":28,"plugin_version":"2.1.0","time_elapsed":117116,"subject_id":"91934","group":"Group1","condition":"1_Rep","full_date":"2026-02-24T04:13:18.211Z","date":"2026-02-24","time":"04:13:18"},{"rt":null,"stimulus":"<p style=\"font-size: 50px; margin: 0; text-align: center;\">+</p>","response":null,"trial_type":"html-keyboard-response","trial_index":29,"plugin_version":"2.1.0","time_elapsed":118120,"subject_id":"91934","group":"Group1","condition":"1_Rep","full_date":"2026-02-24T04:13:18.211Z","date":"2026-02-24","time":"04:13:18"},{"task":"memory_phase","broad_category":"M","image_png":"M_Phyllite_03.png","image_id":259,"category_name":"Phyllite","category":17,"distinct_rating":2.5,"distinct_type":"Bottom","rt":null,"stimulus":"Stimuli_Rocks480/M_Phyllite_03.png","response":null,"trial_type":"image-keyboard-response","trial_index":30,"plugin_version":"2.1.0","time_elapsed":120639,"subject_id":"91934","group":"Group1","condition":"1_Rep","full_date":"2026-02-24T04:13:18.211Z","date":"2026-02-24","time":"04:13:18"},{"rt":null,"stimulus":"<p style=\"font-size: 50px; margin: 0; text-align: center;\">+</p>","response":null,"trial_type":"html-keyboard-response","trial_index":31,"plugin_version":"2.1.0","time_elapsed":121642,"subject_id":"91934","group":"Group1","condition":"1_Rep","full_date":"2026-02-24T04:13:18.211Z","date":"2026-02-24","time":"04:13:18"},{"task":"memory_phase","broad_category":"M","image_png":"M_Marble_16.png","image_id":240,"category_name":"Marble","category":15,"distinct_rating":2.57,"distinct_type":"Bottom","rt":null,"stimulus":"Stimuli_Rocks480/M_Marble_16.png","response":null,"trial_type":"image-keyboard-response","trial_index":32,"plugin_version":"2.1.0","time_elapsed":124159,"subject_id":"91934","group":"Group1","condition":"1_Rep","full_date":"2026-02-24T04:13:18.211Z","date":"2026-02-24","time":"04:13:18"},{"rt":null,"stimulus":"<p style=\"font-size: 50px; margin: 0; text-align: center;\">+</p>","response":null,"trial_type":"html-keyboard-response","trial_index":33,"plugin_version":"2.1.0","time_elapsed":125163,"subject_id":"91934","group":"Group1","condition":"1_Rep","full_date":"2026-02-24T04:13:18.211Z","date":"2026-02-24","time":"04:13:18"},{"task":"memory_phase","broad_category":"I","image_png":"I_Basalt_09.png","image_id":25,"category_name":"Basalt","category":2,"distinct_rating":1.89,"distinct_type":"Bottom","rt":null,"stimulus":"Stimuli_Rocks480/I_Basalt_09.png","response":null,"trial_type":"image-keyboard-response","trial_index":34,"plugin_version":"2.1.0","time_elapsed":127676,"subject_id":"91934","group":"Group1","condition":"1_Rep","full_date":"2026-02-24T04:13:18.211Z","date":"2026-02-24","time":"04:13:18"},{"rt":null,"stimulus":"<p style=\"font-size: 50px; margin: 0; text-align: center;\">+</p>","response":null,"trial_type":"html-keyboard-response","trial_index":35,"plugin_version":"2.1.0","time_elapsed":128679,"subject_id":"91934","group":"Group1","condition":"1_Rep","full_date":"2026-02-24T04:13:18.211Z","date":"2026-02-24","time":"04:13:18"},{"task":"memory_phase","broad_category":"S","image_png":"S_Dolomite_12.png","image_id":396,"category_name":"Dolomite","category":25,"distinct_rating":1.85,"distinct_type":"Bottom","rt":null,"stimulus":"Stimuli_Rocks480/S_Dolomite_12.png","response":null,"trial_type":"image-keyboard-response","trial_index":36,"plugin_version":"2.1.0","time_elapsed":131198,"subject_id":"91934","group":"Group1","condition":"1_Rep","full_date":"2026-02-24T04:13:18.211Z","date":"2026-02-24","time":"04:13:18"},{"rt":null,"stimulus":"<p style=\"font-size: 50px; margin: 0; text-align: center;\">+</p>","response":null,"trial_type":"html-keyboard-response","trial_index":37,"plugin_version":"2.1.0","time_elapsed":132201,"subject_id":"91934","group":"Group1","condition":"1_Rep","full_date":"2026-02-24T04:13:18.211Z","date":"2026-02-24","time":"04:13:18"},{"task":"memory_phase","broad_category":"S","image_png":"S_Conglomerate_05.png","image_id":373,"category_name":"Conglomerate","category":24,"distinct_rating":7.32,"distinct_type":"Top","rt":null,"stimulus":"Stimuli_Rocks480/S_Conglomerate_05.png","response":null,"trial_type":"image-keyboard-response","trial_index":38,"plugin_version":"2.1.0","time_elapsed":134720,"subject_id":"91934","group":"Group1","condition":"1_Rep","full_date":"2026-02-24T04:13:18.211Z","date":"2026-02-24","time":"04:13:18"},{"rt":null,"stimulus":"<p style=\"font-size: 50px; margin: 0; text-align: center;\">+</p>","response":null,"trial_type":"html-keyboard-response","trial_index":39,"plugin_version":"2.1.0","time_elapsed":135723,"subject_id":"91934","group":"Group1","condition":"1_Rep","full_date":"2026-02-24T04:13:18.211Z","date":"2026-02-24","time":"04:13:18"},{"task":"memory_phase","broad_category":"S","image_png":"S_Sandstone_15.png","image_id":463,"category_name":"Sandstone","category":29,"distinct_rating":2,"distinct_type":"Bottom","rt":null,"stimulus":"Stimuli_Rocks480/S_Sandstone_15.png","response":null,"trial_type":"image-keyboard-response","trial_index":40,"plugin_version":"2.1.0","time_elapsed":138243,"subject_id":"91934","group":"Group1","condition":"1_Rep","full_date":"2026-02-24T04:13:18.211Z","date":"2026-02-24","time":"04:13:18"},{"rt":null,"stimulus":"<p style=\"font-size: 50px; margin: 0; text-align: center;\">+</p>","response":null,"trial_type":"html-keyboard-response","trial_index":41,"plugin_version":"2.1.0","time_elapsed":139246,"subject_id":"91934","group":"Group1","condition":"1_Rep","full_date":"2026-02-24T04:13:18.211Z","date":"2026-02-24","time":"04:13:18"},{"task":"memory_phase","broad_category":"S","image_png":"S_Shale_12.png","image_id":476,"category_name":"Shale","category":30,"distinct_rating":2.48,"distinct_type":"Bottom","rt":null,"stimulus":"Stimuli_Rocks480/S_Shale_12.png","response":null,"trial_type":"image-keyboard-response","trial_index":42,"plugin_version":"2.1.0","time_elapsed":141766,"subject_id":"91934","group":"Group1","condition":"1_Rep","full_date":"2026-02-24T04:13:18.211Z","date":"2026-02-24","time":"04:13:18"},{"rt":null,"stimulus":"<p style=\"font-size: 50px; margin: 0; text-align: center;\">+</p>","response":null,"trial_type":"html-keyboard-response","trial_index":43,"plugin_version":"2.1.0","time_elapsed":142769,"subject_id":"91934","group":"Group1","condition":"1_Rep","full_date":"2026-02-24T04:13:18.211Z","date":"2026-02-24","time":"04:13:18"},{"task":"memory_phase","broad_category":"I","image_png":"I_Pumice_12.png","image_id":140,"category_name":"Pumice","category":9,"distinct_rating":2.97,"distinct_type":"Bottom","rt":null,"stimulus":"Stimuli_Rocks480/I_Pumice_12.png","response":null,"trial_type":"image-keyboard-response","trial_index":44,"plugin_version":"2.1.0","time_elapsed":145282,"subject_id":"91934","group":"Group1","condition":"1_Rep","full_date":"2026-02-24T04:13:18.211Z","date":"2026-02-24","time":"04:13:18"},{"rt":null,"stimulus":"<p style=\"font-size: 50px; margin: 0; text-align: center;\">+</p>","response":null,"trial_type":"html-keyboard-response","trial_index":45,"plugin_version":"2.1.0","time_elapsed":146285,"subject_id":"91934","group":"Group1","condition":"1_Rep","full_date":"2026-02-24T04:13:18.211Z","date":"2026-02-24","time":"04:13:18"},{"task":"memory_phase","broad_category":"M","image_png":"M_Quartzite_05.png","image_id":277,"category_name":"Quartzite","category":18,"distinct_rating":2.23,"distinct_type":"Bottom","rt":null,"stimulus":"Stimuli_Rocks480/M_Quartzite_05.png","response":null,"trial_type":"image-keyboard-response","trial_index":46,"plugin_version":"2.1.0","time_elapsed":148804,"subject_id":"91934","group":"Group1","condition":"1_Rep","full_date":"2026-02-24T04:13:18.211Z","date":"2026-02-24","time":"04:13:18"},{"rt":null,"stimulus":"<p style=\"font-size: 50px; margin: 0; text-align: center;\">+</p>","response":null,"trial_type":"html-keyboard-response","trial_index":47,"plugin_version":"2.1.0","time_elapsed":149807,"subject_id":"91934","group":"Group1","condition":"1_Rep","full_date":"2026-02-24T04:13:18.211Z","date":"2026-02-24","time":"04:13:18"},{"task":"memory_phase","broad_category":"S","image_png":"S_Sandstone_03.png","image_id":451,"category_name":"Sandstone","category":29,"distinct_rating":1.86,"distinct_type":"Bottom","rt":null,"stimulus":"Stimuli_Rocks480/S_Sandstone_03.png","response":null,"trial_type":"image-keyboard-response","trial_index":48,"plugin_version":"2.1.0","time_elapsed":152325,"subject_id":"91934","group":"Group1","condition":"1_Rep","full_date":"2026-02-24T04:13:18.211Z","date":"2026-02-24","time":"04:13:18"},{"rt":null,"stimulus":"<p style=\"font-size: 50px; margin: 0; text-align: center;\">+</p>","response":null,"trial_type":"html-keyboard-response","trial_index":49,"plugin_version":"2.1.0","time_elapsed":153328,"subject_id":"91934","group":"Group1","condition":"1_Rep","full_date":"2026-02-24T04:13:18.211Z","date":"2026-02-24","time":"04:13:18"},{"task":"memory_phase","broad_category":"S","image_png":"S_Chert_10.png","image_id":362,"category_name":"Chert","category":23,"distinct_rating":7.17,"distinct_type":"Top","rt":null,"stimulus":"Stimuli_Rocks480/S_Chert_10.png","response":null,"trial_type":"image-keyboard-response","trial_index":50,"plugin_version":"2.1.0","time_elapsed":155844,"subject_id":"91934","group":"Group1","condition":"1_Rep","full_date":"2026-02-24T04:13:18.211Z","date":"2026-02-24","time":"04:13:18"},{"rt":null,"stimulus":"<p style=\"font-size: 50px; margin: 0; text-align: center;\">+</p>","response":null,"trial_type":"html-keyboard-response","trial_index":51,"plugin_version":"2.1.0","time_elapsed":156846,"subject_id":"91934","group":"Group1","condition":"1_Rep","full_date":"2026-02-24T04:13:18.211Z","date":"2026-02-24","time":"04:13:18"},{"task":"memory_phase","broad_category":"I","image_png":"I_Basalt_02.png","image_id":18,"category_name":"Basalt","category":2,"distinct_rating":1.84,"distinct_type":"Bottom","rt":null,"stimulus":"Stimuli_Rocks480/I_Basalt_02.png","response":null,"trial_type":"image-keyboard-response","trial_index":52,"plugin_version":"2.1.0","time_elapsed":159366,"subject_id":"91934","group":"Group1","condition":"1_Rep","full_date":"2026-02-24T04:13:18.211Z","date":"2026-02-24","time":"04:13:18"},{"rt":null,"stimulus":"<p style=\"font-size: 50px; margin: 0; text-align: center;\">+</p>","response":null,"trial_type":"html-keyboard-response","trial_index":53,"plugin_version":"2.1.0","time_elapsed":160370,"subject_id":"91934","group":"Group1","condition":"1_Rep","full_date":"2026-02-24T04:13:18.211Z","date":"2026-02-24","time":"04:13:18"},{"task":"memory_phase","broad_category":"I","image_png":"I_Basalt_01.png","image_id":17,"category_name":"Basalt","category":2,"distinct_rating":1.92,"distinct_type":"Bottom","rt":null,"stimulus":"Stimuli_Rocks480/I_Basalt_01.png","response":null,"trial_type":"image-keyboard-response","trial_index":54,"plugin_version":"2.1.0","time_elapsed":162889,"subject_id":"91934","group":"Group1","condition":"1_Rep","full_date":"2026-02-24T04:13:18.211Z","date":"2026-02-24","time":"04:13:18"},{"rt":3361,"stimulus":"<p style=\"max-width: 760px; margin: auto; font-size: 35px; line-height: 1.5;\">\n                Press SPACE to continue study phase\n              </p>","response":" ","trial_type":"html-keyboard-response","trial_index":55,"plugin_version":"2.1.0","time_elapsed":166253,"subject_id":"91934","group":"Group1","condition":"1_Rep","full_date":"2026-02-24T04:13:18.211Z","date":"2026-02-24","time":"04:13:18"},{"rt":null,"stimulus":"<p style=\"font-size: 50px; margin: 0; text-align: center;\">+</p>","response":null,"trial_type":"html-keyboard-response","trial_index":56,"plugin_version":"2.1.0","time_elapsed":167257,"subject_id":"91934","group":"Group1","condition":"1_Rep","full_date":"2026-02-24T04:13:18.211Z","date":"2026-02-24","time":"04:13:18"},{"task":"memory_phase","broad_category":"M","image_png":"M_Slate_15.png","image_id":319,"category_name":"Slate","category":20,"distinct_rating":2.13,"distinct_type":"Bottom","rt":null,"stimulus":"Stimuli_Rocks480/M_Slate_15.png","response":null,"trial_type":"image-keyboard-response","trial_index":57,"plugin_version":"2.1.0","time_elapsed":169771,"subject_id":"91934","group":"Group1","condition":"1_Rep","full_date":"2026-02-24T04:13:18.211Z","date":"2026-02-24","time":"04:13:18"},{"rt":null,"stimulus":"<p style=\"font-size: 50px; margin: 0; text-align: center;\">+</p>","response":null,"trial_type":"html-keyboard-response","trial_index":58,"plugin_version":"2.1.0","time_elapsed":170774,"subject_id":"91934","group":"Group1","condition":"1_Rep","full_date":"2026-02-24T04:13:18.211Z","date":"2026-02-24","time":"04:13:18"},{"task":"memory_phase","broad_category":"I","image_png":"I_Rhyolite_14.png","image_id":158,"category_name":"Rhyolite","category":10,"distinct_rating":2.59,"distinct_type":"Bottom","rt":null,"stimulus":"Stimuli_Rocks480/I_Rhyolite_14.png","response":null,"trial_type":"image-keyboard-response","trial_index":59,"plugin_version":"2.1.0","time_elapsed":173289,"subject_id":"91934","group":"Group1","condition":"1_Rep","full_date":"2026-02-24T04:13:18.211Z","date":"2026-02-24","time":"04:13:18"},{"rt":null,"stimulus":"<p style=\"font-size: 50px; margin: 0; text-align: center;\">+</p>","response":null,"trial_type":"html-keyboard-response","trial_index":60,"plugin_version":"2.1.0","time_elapsed":174292,"subject_id":"91934","group":"Group1","condition":"1_Rep","full_date":"2026-02-24T04:13:18.211Z","date":"2026-02-24","time":"04:13:18"},{"task":"memory_phase","broad_category":"I","image_png":"I_Gabbro_08.png","image_id":56,"category_name":"Gabbro","category":4,"distinct_rating":3.02,"distinct_type":"Bottom","rt":null,"stimulus":"Stimuli_Rocks480/I_Gabbro_08.png","response":null,"trial_type":"image-keyboard-response","trial_index":61,"plugin_version":"2.1.0","time_elapsed":176807,"subject_id":"91934","group":"Group1","condition":"1_Rep","full_date":"2026-02-24T04:13:18.211Z","date":"2026-02-24","time":"04:13:18"},{"rt":null,"stimulus":"<p style=\"font-size: 50px; margin: 0; text-align: center;\">+</p>","response":null,"trial_type":"html-keyboard-response","trial_index":62,"plugin_version":"2.1.0","time_elapsed":177809,"subject_id":"91934","group":"Group1","condition":"1_Rep","full_date":"2026-02-24T04:13:18.211Z","date":"2026-02-24","time":"04:13:18"},{"task":"memory_phase","broad_category":"M","image_png":"M_Slate_03.png","image_id":307,"category_name":"Slate","category":20,"distinct_rating":1.87,"distinct_type":"Bottom","rt":null,"stimulus":"Stimuli_Rocks480/M_Slate_03.png","response":null,"trial_type":"image-keyboard-response","trial_index":63,"plugin_version":"2.1.0","time_elapsed":180328,"subject_id":"91934","group":"Group1","condition":"1_Rep","full_date":"2026-02-24T04:13:18.211Z","date":"2026-02-24","time":"04:13:18"},{"rt":null,"stimulus":"<p style=\"font-size: 50px; margin: 0; text-align: center;\">+</p>","response":null,"trial_type":"html-keyboard-response","trial_index":64,"plugin_version":"2.1.0","time_elapsed":181332,"subject_id":"91934","group":"Group1","condition":"1_Rep","full_date":"2026-02-24T04:13:18.211Z","date":"2026-02-24","time":"04:13:18"},{"task":"memory_phase","broad_category":"M","image_png":"M_Gneiss_13.png","image_id":205,"category_name":"Gneiss","category":13,"distinct_rating":3.26,"distinct_type":"Bottom","rt":null,"stimulus":"Stimuli_Rocks480/M_Gneiss_13.png","response":null,"trial_type":"image-keyboard-response","trial_index":65,"plugin_version":"2.1.0","time_elapsed":183846,"subject_id":"91934","group":"Group1","condition":"1_Rep","full_date":"2026-02-24T04:13:18.211Z","date":"2026-02-24","time":"04:13:18"},{"rt":null,"stimulus":"<p style=\"font-size: 50px; margin: 0; text-align: center;\">+</p>","response":null,"trial_type":"html-keyboard-response","trial_index":66,"plugin_version":"2.1.0","time_elapsed":184849,"subject_id":"91934","group":"Group1","condition":"1_Rep","full_date":"2026-02-24T04:13:18.211Z","date":"2026-02-24","time":"04:13:18"},{"task":"memory_phase","broad_category":"I","image_png":"I_Rhyolite_11.png","image_id":155,"category_name":"Rhyolite","category":10,"distinct_rating":1.73,"distinct_type":"Bottom","rt":null,"stimulus":"Stimuli_Rocks480/I_Rhyolite_11.png","response":null,"trial_type":"image-keyboard-response","trial_index":67,"plugin_version":"2.1.0","time_elapsed":187363,"subject_id":"91934","group":"Group1","condition":"1_Rep","full_date":"2026-02-24T04:13:18.211Z","date":"2026-02-24","time":"04:13:18"},{"rt":null,"stimulus":"<p style=\"font-size: 50px; margin: 0; text-align: center;\">+</p>","response":null,"trial_type":"html-keyboard-response","trial_index":68,"plugin_version":"2.1.0","time_elapsed":188366,"subject_id":"91934","group":"Group1","condition":"1_Rep","full_date":"2026-02-24T04:13:18.211Z","date":"2026-02-24","time":"04:13:18"},{"task":"memory_phase","broad_category":"S","image_png":"S_Dolomite_13.png","image_id":397,"category_name":"Dolomite","category":25,"distinct_rating":1.77,"distinct_type":"Bottom","rt":null,"stimulus":"Stimuli_Rocks480/S_Dolomite_13.png","response":null,"trial_type":"image-keyboard-response","trial_index":69,"plugin_version":"2.1.0","time_elapsed":190883,"subject_id":"91934","group":"Group1","condition":"1_Rep","full_date":"2026-02-24T04:13:18.211Z","date":"2026-02-24","time":"04:13:18"},{"rt":null,"stimulus":"<p style=\"font-size: 50px; margin: 0; text-align: center;\">+</p>","response":null,"trial_type":"html-keyboard-response","trial_index":70,"plugin_version":"2.1.0","time_elapsed":191886,"subject_id":"91934","group":"Group1","condition":"1_Rep","full_date":"2026-02-24T04:13:18.211Z","date":"2026-02-24","time":"04:13:18"},{"task":"memory_phase","broad_category":"I","image_png":"I_Andesite_06.png","image_id":6,"category_name":"Andesite","category":1,"distinct_rating":3.17,"distinct_type":"Bottom","rt":null,"stimulus":"Stimuli_Rocks480/I_Andesite_06.png","response":null,"trial_type":"image-keyboard-response","trial_index":71,"plugin_version":"2.1.0","time_elapsed":194406,"subject_id":"91934","group":"Group1","condition":"1_Rep","full_date":"2026-02-24T04:13:18.211Z","date":"2026-02-24","time":"04:13:18"},{"rt":null,"stimulus":"<p style=\"font-size: 50px; margin: 0; text-align: center;\">+</p>","response":null,"trial_type":"html-keyboard-response","trial_index":72,"plugin_version":"2.1.0","time_elapsed":195408,"subject_id":"91934","group":"Group1","condition":"1_Rep","full_date":"2026-02-24T04:13:18.211Z","date":"2026-02-24","time":"04:13:18"},{"task":"memory_phase","broad_category":"I","image_png":"I_Andesite_10.png","image_id":10,"category_name":"Andesite","category":1,"distinct_rating":3.15,"distinct_type":"Bottom","rt":null,"stimulus":"Stimuli_Rocks480/I_Andesite_10.png","response":null,"trial_type":"image-keyboard-response","trial_index":73,"plugin_version":"2.1.0","time_elapsed":197922,"subject_id":"91934","group":"Group1","condition":"1_Rep","full_date":"2026-02-24T04:13:18.211Z","date":"2026-02-24","time":"04:13:18"},{"rt":null,"stimulus":"<p style=\"font-size: 50px; margin: 0; text-align: center;\">+</p>","response":null,"trial_type":"html-keyboard-response","trial_index":74,"plugin_version":"2.1.0","time_elapsed":198925,"subject_id":"91934","group":"Group1","condition":"1_Rep","full_date":"2026-02-24T04:13:18.211Z","date":"2026-02-24","time":"04:13:18"},{"task":"memory_phase","broad_category":"S","image_png":"S_Rock Salt_01.png","image_id":433,"category_name":"Rock Salt","category":28,"distinct_rating":7.18,"distinct_type":"Top","rt":null,"stimulus":"Stimuli_Rocks480/S_Rock Salt_01.png","response":null,"trial_type":"image-keyboard-response","trial_index":75,"plugin_version":"2.1.0","time_elapsed":201445,"subject_id":"91934","group":"Group1","condition":"1_Rep","full_date":"2026-02-24T04:13:18.211Z","date":"2026-02-24","time":"04:13:18"},{"rt":null,"stimulus":"<p style=\"font-size: 50px; margin: 0; text-align: center;\">+</p>","response":null,"trial_type":"html-keyboard-response","trial_index":76,"plugin_version":"2.1.0","time_elapsed":202449,"subject_id":"91934","group":"Group1","condition":"1_Rep","full_date":"2026-02-24T04:13:18.211Z","date":"2026-02-24","time":"04:13:18"},{"task":"memory_phase","broad_category":"M","image_png":"M_Gneiss_06.png","image_id":198,"category_name":"Gneiss","category":13,"distinct_rating":2.65,"distinct_type":"Bottom","rt":null,"stimulus":"Stimuli_Rocks480/M_Gneiss_06.png","response":null,"trial_type":"image-keyboard-response","trial_index":77,"plugin_version":"2.1.0","time_elapsed":204970,"subject_id":"91934","group":"Group1","condition":"1_Rep","full_date":"2026-02-24T04:13:18.211Z","date":"2026-02-24","time":"04:13:18"},{"rt":null,"stimulus":"<p style=\"font-size: 50px; margin: 0; text-align: center;\">+</p>","response":null,"trial_type":"html-keyboard-response","trial_index":78,"plugin_version":"2.1.0","time_elapsed":205972,"subject_id":"91934","group":"Group1","condition":"1_Rep","full_date":"2026-02-24T04:13:18.211Z","date":"2026-02-24","time":"04:13:18"},{"task":"memory_phase","broad_category":"I","image_png":"I_Obsidian_05.png","image_id":85,"category_name":"Obsidian","category":6,"distinct_rating":7.32,"distinct_type":"Top","rt":null,"stimulus":"Stimuli_Rocks480/I_Obsidian_05.png","response":null,"trial_type":"image-keyboard-response","trial_index":79,"plugin_version":"2.1.0","time_elapsed":208491,"subject_id":"91934","group":"Group1","condition":"1_Rep","full_date":"2026-02-24T04:13:18.211Z","date":"2026-02-24","time":"04:13:18"},{"rt":null,"stimulus":"<p style=\"font-size: 50px; margin: 0; text-align: center;\">+</p>","response":null,"trial_type":"html-keyboard-response","trial_index":80,"plugin_version":"2.1.0","time_elapsed":209494,"subject_id":"91934","group":"Group1","condition":"1_Rep","full_date":"2026-02-24T04:13:18.211Z","date":"2026-02-24","time":"04:13:18"},{"task":"memory_phase","broad_category":"M","image_png":"M_Marble_06.png","image_id":230,"category_name":"Marble","category":15,"distinct_rating":3.4,"distinct_type":"Bottom","rt":null,"stimulus":"Stimuli_Rocks480/M_Marble_06.png","response":null,"trial_type":"image-keyboard-response","trial_index":81,"plugin_version":"2.1.0","time_elapsed":212012,"subject_id":"91934","group":"Group1","condition":"1_Rep","full_date":"2026-02-24T04:13:18.211Z","date":"2026-02-24","time":"04:13:18"},{"rt":null,"stimulus":"<p style=\"font-size: 50px; margin: 0; text-align: center;\">+</p>","response":null,"trial_type":"html-keyboard-response","trial_index":82,"plugin_version":"2.1.0","time_elapsed":213015,"subject_id":"91934","group":"Group1","condition":"1_Rep","full_date":"2026-02-24T04:13:18.211Z","date":"2026-02-24","time":"04:13:18"},{"task":"memory_phase","broad_category":"S","image_png":"S_Dolomite_14.png","image_id":398,"category_name":"Dolomite","category":25,"distinct_rating":1.43,"distinct_type":"Bottom","rt":null,"stimulus":"Stimuli_Rocks480/S_Dolomite_14.png","response":null,"trial_type":"image-keyboard-response","trial_index":83,"plugin_version":"2.1.0","time_elapsed":215530,"subject_id":"91934","group":"Group1","condition":"1_Rep","full_date":"2026-02-24T04:13:18.211Z","date":"2026-02-24","time":"04:13:18"},{"rt":null,"stimulus":"<p style=\"font-size: 50px; margin: 0; text-align: center;\">+</p>","response":null,"trial_type":"html-keyboard-response","trial_index":84,"plugin_version":"2.1.0","time_elapsed":216533,"subject_id":"91934","group":"Group1","condition":"1_Rep","full_date":"2026-02-24T04:13:18.211Z","date":"2026-02-24","time":"04:13:18"},{"task":"memory_phase","broad_category":"I","image_png":"I_Andesite_08.png","image_id":8,"category_name":"Andesite","category":1,"distinct_rating":1.95,"distinct_type":"Bottom","rt":null,"stimulus":"Stimuli_Rocks480/I_Andesite_08.png","response":null,"trial_type":"image-keyboard-response","trial_index":85,"plugin_version":"2.1.0","time_elapsed":219053,"subject_id":"91934","group":"Group1","condition":"1_Rep","full_date":"2026-02-24T04:13:18.211Z","date":"2026-02-24","time":"04:13:18"},{"rt":null,"stimulus":"<p style=\"font-size: 50px; margin: 0; text-align: center;\">+</p>","response":null,"trial_type":"html-keyboard-response","trial_index":86,"plugin_version":"2.1.0","time_elapsed":220056,"subject_id":"91934","group":"Group1","condition":"1_Rep","full_date":"2026-02-24T04:13:18.211Z","date":"2026-02-24","time":"04:13:18"},{"task":"memory_phase","broad_category":"S","image_png":"S_Shale_08.png","image_id":472,"category_name":"Shale","category":30,"distinct_rating":2.55,"distinct_type":"Bottom","rt":null,"stimulus":"Stimuli_Rocks480/S_Shale_08.png","response":null,"trial_type":"image-keyboard-response","trial_index":87,"plugin_version":"2.1.0","time_elapsed":222573,"subject_id":"91934","group":"Group1","condition":"1_Rep","full_date":"2026-02-24T04:13:18.211Z","date":"2026-02-24","time":"04:13:18"},{"rt":null,"stimulus":"<p style=\"font-size: 50px; margin: 0; text-align: center;\">+</p>","response":null,"trial_type":"html-keyboard-response","trial_index":88,"plugin_version":"2.1.0","time_elapsed":223576,"subject_id":"91934","group":"Group1","condition":"1_Rep","full_date":"2026-02-24T04:13:18.211Z","date":"2026-02-24","time":"04:13:18"},{"task":"memory_phase","broad_category":"S","image_png":"S_Rock Gypsum_04.png","image_id":420,"category_name":"Rock Gypsum","category":27,"distinct_rating":7.61,"distinct_type":"Top","rt":null,"stimulus":"Stimuli_Rocks480/S_Rock Gypsum_04.png","response":null,"trial_type":"image-keyboard-response","trial_index":89,"plugin_version":"2.1.0","time_elapsed":226093,"subject_id":"91934","group":"Group1","condition":"1_Rep","full_date":"2026-02-24T04:13:18.211Z","date":"2026-02-24","time":"04:13:18"},{"rt":null,"stimulus":"<p style=\"font-size: 50px; margin: 0; text-align: center;\">+</p>","response":null,"trial_type":"html-keyboard-response","trial_index":90,"plugin_version":"2.1.0","time_elapsed":227097,"subject_id":"91934","group":"Group1","condition":"1_Rep","full_date":"2026-02-24T04:13:18.211Z","date":"2026-02-24","time":"04:13:18"},{"task":"memory_phase","broad_category":"I","image_png":"I_Diorite_03.png","image_id":35,"category_name":"Diorite","category":3,"distinct_rating":3.14,"distinct_type":"Bottom","rt":null,"stimulus":"Stimuli_Rocks480/I_Diorite_03.png","response":null,"trial_type":"image-keyboard-response","trial_index":91,"plugin_version":"2.1.0","time_elapsed":229617,"subject_id":"91934","group":"Group1","condition":"1_Rep","full_date":"2026-02-24T04:13:18.211Z","date":"2026-02-24","time":"04:13:18"},{"rt":null,"stimulus":"<p style=\"font-size: 50px; margin: 0; text-align: center;\">+</p>","response":null,"trial_type":"html-keyboard-response","trial_index":92,"plugin_version":"2.1.0","time_elapsed":230620,"subject_id":"91934","group":"Group1","condition":"1_Rep","full_date":"2026-02-24T04:13:18.211Z","date":"2026-02-24","time":"04:13:18"},{"task":"memory_phase","broad_category":"I","image_png":"I_Diorite_05.png","image_id":37,"category_name":"Diorite","category":3,"distinct_rating":3.08,"distinct_type":"Bottom","rt":null,"stimulus":"Stimuli_Rocks480/I_Diorite_05.png","response":null,"trial_type":"image-keyboard-response","trial_index":93,"plugin_version":"2.1.0","time_elapsed":233138,"subject_id":"91934","group":"Group1","condition":"1_Rep","full_date":"2026-02-24T04:13:18.211Z","date":"2026-02-24","time":"04:13:18"},{"rt":null,"stimulus":"<p style=\"font-size: 50px; margin: 0; text-align: center;\">+</p>","response":null,"trial_type":"html-keyboard-response","trial_index":94,"plugin_version":"2.1.0","time_elapsed":234140,"subject_id":"91934","group":"Group1","condition":"1_Rep","full_date":"2026-02-24T04:13:18.211Z","date":"2026-02-24","time":"04:13:18"},{"task":"memory_phase","broad_category":"M","image_png":"M_Marble_04.png","image_id":228,"category_name":"Marble","category":15,"distinct_rating":3.15,"distinct_type":"Bottom","rt":null,"stimulus":"Stimuli_Rocks480/M_Marble_04.png","response":null,"trial_type":"image-keyboard-response","trial_index":95,"plugin_version":"2.1.0","time_elapsed":236658,"subject_id":"91934","group":"Group1","condition":"1_Rep","full_date":"2026-02-24T04:13:18.211Z","date":"2026-02-24","time":"04:13:18"},{"rt":null,"stimulus":"<p style=\"font-size: 50px; margin: 0; text-align: center;\">+</p>","response":null,"trial_type":"html-keyboard-response","trial_index":96,"plugin_version":"2.1.0","time_elapsed":237661,"subject_id":"91934","group":"Group1","condition":"1_Rep","full_date":"2026-02-24T04:13:18.211Z","date":"2026-02-24","time":"04:13:18"},{"task":"memory_phase","broad_category":"I","image_png":"I_Diorite_04.png","image_id":36,"category_name":"Diorite","category":3,"distinct_rating":2.98,"distinct_type":"Bottom","rt":null,"stimulus":"Stimuli_Rocks480/I_Diorite_04.png","response":null,"trial_type":"image-keyboard-response","trial_index":97,"plugin_version":"2.1.0","time_elapsed":240181,"subject_id":"91934","group":"Group1","condition":"1_Rep","full_date":"2026-02-24T04:13:18.211Z","date":"2026-02-24","time":"04:13:18"},{"rt":null,"stimulus":"<p style=\"font-size: 50px; margin: 0; text-align: center;\">+</p>","response":null,"trial_type":"html-keyboard-response","trial_index":98,"plugin_version":"2.1.0","time_elapsed":241184,"subject_id":"91934","group":"Group1","condition":"1_Rep","full_date":"2026-02-24T04:13:18.211Z","date":"2026-02-24","time":"04:13:18"},{"task":"memory_phase","broad_category":"I","image_png":"I_Pumice_11.png","image_id":139,"category_name":"Pumice","category":9,"distinct_rating":1.74,"distinct_type":"Bottom","rt":null,"stimulus":"Stimuli_Rocks480/I_Pumice_11.png","response":null,"trial_type":"image-keyboard-response","trial_index":99,"plugin_version":"2.1.0","time_elapsed":243694,"subject_id":"91934","group":"Group1","condition":"1_Rep","full_date":"2026-02-24T04:13:18.211Z","date":"2026-02-24","time":"04:13:18"},{"rt":null,"stimulus":"<p style=\"font-size: 50px; margin: 0; text-align: center;\">+</p>","response":null,"trial_type":"html-keyboard-response","trial_index":100,"plugin_version":"2.1.0","time_elapsed":244697,"subject_id":"91934","group":"Group1","condition":"1_Rep","full_date":"2026-02-24T04:13:18.211Z","date":"2026-02-24","time":"04:13:18"},{"task":"memory_phase","broad_category":"M","image_png":"M_Phyllite_10.png","image_id":266,"category_name":"Phyllite","category":17,"distinct_rating":2.6,"distinct_type":"Bottom","rt":null,"stimulus":"Stimuli_Rocks480/M_Phyllite_10.png","response":null,"trial_type":"image-keyboard-response","trial_index":101,"plugin_version":"2.1.0","time_elapsed":247213,"subject_id":"91934","group":"Group1","condition":"1_Rep","full_date":"2026-02-24T04:13:18.211Z","date":"2026-02-24","time":"04:13:18"},{"rt":null,"stimulus":"<p style=\"font-size: 50px; margin: 0; text-align: center;\">+</p>","response":null,"trial_type":"html-keyboard-response","trial_index":102,"plugin_version":"2.1.0","time_elapsed":248216,"subject_id":"91934","group":"Group1","condition":"1_Rep","full_date":"2026-02-24T04:13:18.211Z","date":"2026-02-24","time":"04:13:18"},{"task":"memory_phase","broad_category":"S","image_png":"S_Sandstone_16.png","image_id":464,"category_name":"Sandstone","category":29,"distinct_rating":1.93,"distinct_type":"Bottom","rt":null,"stimulus":"Stimuli_Rocks480/S_Sandstone_16.png","response":null,"trial_type":"image-keyboard-response","trial_index":103,"plugin_version":"2.1.0","time_elapsed":250728,"subject_id":"91934","group":"Group1","condition":"1_Rep","full_date":"2026-02-24T04:13:18.211Z","date":"2026-02-24","time":"04:13:18"},{"rt":null,"stimulus":"<p style=\"font-size: 50px; margin: 0; text-align: center;\">+</p>","response":null,"trial_type":"html-keyboard-response","trial_index":104,"plugin_version":"2.1.0","time_elapsed":251731,"subject_id":"91934","group":"Group1","condition":"1_Rep","full_date":"2026-02-24T04:13:18.211Z","date":"2026-02-24","time":"04:13:18"},{"task":"memory_phase","broad_category":"S","image_png":"S_Shale_01.png","image_id":465,"category_name":"Shale","category":30,"distinct_rating":2.7,"distinct_type":"Bottom","rt":null,"stimulus":"Stimuli_Rocks480/S_Shale_01.png","response":null,"trial_type":"image-keyboard-response","trial_index":105,"plugin_version":"2.1.0","time_elapsed":254246,"subject_id":"91934","group":"Group1","condition":"1_Rep","full_date":"2026-02-24T04:13:18.211Z","date":"2026-02-24","time":"04:13:18"},{"rt":23799,"stimulus":"<div style=\"max-width: 760px; margin: auto; font-size: 20px; line-height: 1.5;\">\n      <h1 style=\"text-align:center; font-size: 30px;\">Instructions for the Test Phase</h1>\n      <p>\n        The study phase is now complete.\n      </p>\n      <p>\n        In the test phase, you will again see a series of rock images. \n        Some will be ones you saw before - during the study phase, while others will be new.  \n        <b>Your task</b> is to decide whether you have seen each image before by pressing the corresponding key on your keyboard:<br><br>\n          <b>A</b> - NO (you did not see this image before)<br>\n          <b>L</b> - YES (you saw this image before)<br><br>\n        The test will proceed at your own pace. You will receive feedback after each response.  \n        Please try to respond <b>as accurately as possible</b>.\n      </p>\n      <p>\n        <b>Reminder:</b> If your computer has multiple language settings (e.g., English and another language),\n        please ensure it is set to English during the test phase.\n      </p>\n      <p>\n        You can track your progress using the <b>completion bar</b> at the top of the screen.  \n        Note that it has been refreshed to reflect your progress during this final phase.\n      </p>\n      <p>\n        Press the button below when you are ready to continue.\n      </p>\n    </div>","response":0,"trial_type":"html-button-response","trial_index":106,"plugin_version":"2.1.0","time_elapsed":278048,"subject_id":"91934","group":"Group1","condition":"1_Rep","full_date":"2026-02-24T04:13:18.211Z","date":"2026-02-24","time":"04:13:18"},{"correct_response":"l","task":"test_phase","broad_category":"I","image_png":"I_Andesite_08.png","image_id":8,"category_name":"Andesite","category":1,"distinct_rating":1.95,"distinct_type":"Bottom","item_type":"Target","rt":2394,"stimulus":"Stimuli_Rocks480/I_Andesite_08.png","response":"l","trial_type":"image-keyboard-response","trial_index":107,"plugin_version":"2.1.0","time_elapsed":280446,"subject_id":"91934","group":"Group1","condition":"1_Rep","full_date":"2026-02-24T04:13:18.211Z","date":"2026-02-24","time":"04:13:18","cor_ans":true},{"trial_type":"html-keyboard-response","rt":null,"stimulus":"<p style=\"color: green; font-size: 50px; font-weight: bold;\">Correct</p>","response":null,"trial_index":108,"plugin_version":"2.1.0","time_elapsed":280949,"subject_id":"91934","group":"Group1","condition":"1_Rep","full_date":"2026-02-24T04:13:18.211Z","date":"2026-02-24","time":"04:13:18"},{"correct_response":"a","task":"test_phase","broad_category":"I","image_png":"I_Rhyolite_08.png","image_id":152,"category_name":"Rhyolite","category":10,"distinct_rating":1.38,"distinct_type":"Bottom","item_type":"Foil","rt":1723,"stimulus":"Stimuli_Rocks480/I_Rhyolite_08.png","response":"l","trial_type":"image-keyboard-response","trial_index":109,"plugin_version":"2.1.0","time_elapsed":282685,"subject_id":"91934","group":"Group1","condition":"1_Rep","full_date":"2026-02-24T04:13:18.211Z","date":"2026-02-24","time":"04:13:18","cor_ans":false},{"trial_type":"html-keyboard-response","rt":null,"stimulus":"<p style=\"color: red; font-size: 50px; font-weight: bold;\">Incorrect</p>","response":null,"trial_index":110,"plugin_version":"2.1.0","time_elapsed":283188,"subject_id":"91934","group":"Group1","condition":"1_Rep","full_date":"2026-02-24T04:13:18.211Z","date":"2026-02-24","time":"04:13:18"},{"correct_response":"a","task":"test_phase","broad_category":"I","image_png":"I_Basalt_10.png","image_id":26,"category_name":"Basalt","category":2,"distinct_rating":2.76,"distinct_type":"Bottom","item_type":"Foil","rt":2069,"stimulus":"Stimuli_Rocks480/I_Basalt_10.png","response":"l","trial_type":"image-keyboard-response","trial_index":111,"plugin_version":"2.1.0","time_elapsed":285270,"subject_id":"91934","group":"Group1","condition":"1_Rep","full_date":"2026-02-24T04:13:18.211Z","date":"2026-02-24","time":"04:13:18","cor_ans":false},{"trial_type":"html-keyboard-response","rt":null,"stimulus":"<p style=\"color: red; font-size: 50px; font-weight: bold;\">Incorrect</p>","response":null,"trial_index":112,"plugin_version":"2.1.0","time_elapsed":285772,"subject_id":"91934","group":"Group1","condition":"1_Rep","full_date":"2026-02-24T04:13:18.211Z","date":"2026-02-24","time":"04:13:18"},{"correct_response":"a","task":"test_phase","broad_category":"M","image_png":"M_Phyllite_13.png","image_id":269,"category_name":"Phyllite","category":17,"distinct_rating":2.8,"distinct_type":"Bottom","item_type":"Foil","rt":1790,"stimulus":"Stimuli_Rocks480/M_Phyllite_13.png","response":"a","trial_type":"image-keyboard-response","trial_index":113,"plugin_version":"2.1.0","time_elapsed":287578,"subject_id":"91934","group":"Group1","condition":"1_Rep","full_date":"2026-02-24T04:13:18.211Z","date":"2026-02-24","time":"04:13:18","cor_ans":true},{"trial_type":"html-keyboard-response","rt":null,"stimulus":"<p style=\"color: green; font-size: 50px; font-weight: bold;\">Correct</p>","response":null,"trial_index":114,"plugin_version":"2.1.0","time_elapsed":288081,"subject_id":"91934","group":"Group1","condition":"1_Rep","full_date":"2026-02-24T04:13:18.211Z","date":"2026-02-24","time":"04:13:18"},{"correct_response":"l","task":"test_phase","broad_category":"I","image_png":"I_Pegmatite_16.png","image_id":112,"category_name":"Pegmatite","category":7,"distinct_rating":7.03,"distinct_type":"Top","item_type":"Target","rt":1286,"stimulus":"Stimuli_Rocks480/I_Pegmatite_16.png","response":"l","trial_type":"image-keyboard-response","trial_index":115,"plugin_version":"2.1.0","time_elapsed":289383,"subject_id":"91934","group":"Group1","condition":"1_Rep","full_date":"2026-02-24T04:13:18.211Z","date":"2026-02-24","time":"04:13:18","cor_ans":true},{"trial_type":"html-keyboard-response","rt":null,"stimulus":"<p style=\"color: green; font-size: 50px; font-weight: bold;\">Correct</p>","response":null,"trial_index":116,"plugin_version":"2.1.0","time_elapsed":289886,"subject_id":"91934","group":"Group1","condition":"1_Rep","full_date":"2026-02-24T04:13:18.211Z","date":"2026-02-24","time":"04:13:18"},{"correct_response":"a","task":"test_phase","broad_category":"I","image_png":"I_Pumice_14.png","image_id":142,"category_name":"Pumice","category":9,"distinct_rating":3.22,"distinct_type":"Bottom","item_type":"Foil","rt":1251,"stimulus":"Stimuli_Rocks480/I_Pumice_14.png","response":"a","trial_type":"image-keyboard-response","trial_index":117,"plugin_version":"2.1.0","time_elapsed":291152,"subject_id":"91934","group":"Group1","condition":"1_Rep","full_date":"2026-02-24T04:13:18.211Z","date":"2026-02-24","time":"04:13:18","cor_ans":true},{"trial_type":"html-keyboard-response","rt":null,"stimulus":"<p style=\"color: green; font-size: 50px; font-weight: bold;\">Correct</p>","response":null,"trial_index":118,"plugin_version":"2.1.0","time_elapsed":291654,"subject_id":"91934","group":"Group1","condition":"1_Rep","full_date":"2026-02-24T04:13:18.211Z","date":"2026-02-24","time":"04:13:18"},{"correct_response":"l","task":"test_phase","broad_category":"I","image_png":"I_Gabbro_11.png","image_id":59,"category_name":"Gabbro","category":4,"distinct_rating":1.99,"distinct_type":"Bottom","item_type":"Target","rt":1233,"stimulus":"Stimuli_Rocks480/I_Gabbro_11.png","response":"l","trial_type":"image-keyboard-response","trial_index":119,"plugin_version":"2.1.0","time_elapsed":292899,"subject_id":"91934","group":"Group1","condition":"1_Rep","full_date":"2026-02-24T04:13:18.211Z","date":"2026-02-24","time":"04:13:18","cor_ans":true},{"trial_type":"html-keyboard-response","rt":null,"stimulus":"<p style=\"color: green; font-size: 50px; font-weight: bold;\">Correct</p>","response":null,"trial_index":120,"plugin_version":"2.1.0","time_elapsed":293401,"subject_id":"91934","group":"Group1","condition":"1_Rep","full_date":"2026-02-24T04:13:18.211Z","date":"2026-02-24","time":"04:13:18"},{"correct_response":"l","task":"test_phase","broad_category":"S","image_png":"S_Chert_10.png","image_id":362,"category_name":"Chert","category":23,"distinct_rating":7.17,"distinct_type":"Top","item_type":"Target","rt":1147,"stimulus":"Stimuli_Rocks480/S_Chert_10.png","response":"l","trial_type":"image-keyboard-response","trial_index":121,"plugin_version":"2.1.0","time_elapsed":294564,"subject_id":"91934","group":"Group1","condition":"1_Rep","full_date":"2026-02-24T04:13:18.211Z","date":"2026-02-24","time":"04:13:18","cor_ans":true},{"trial_type":"html-keyboard-response","rt":null,"stimulus":"<p style=\"color: green; font-size: 50px; font-weight: bold;\">Correct</p>","response":null,"trial_index":122,"plugin_version":"2.1.0","time_elapsed":295066,"subject_id":"91934","group":"Group1","condition":"1_Rep","full_date":"2026-02-24T04:13:18.211Z","date":"2026-02-24","time":"04:13:18"},{"correct_response":"l","task":"test_phase","broad_category":"M","image_png":"M_Gneiss_13.png","image_id":205,"category_name":"Gneiss","category":13,"distinct_rating":3.26,"distinct_type":"Bottom","item_type":"Target","rt":798,"stimulus":"Stimuli_Rocks480/M_Gneiss_13.png","response":"a","trial_type":"image-keyboard-response","trial_index":123,"plugin_version":"2.1.0","time_elapsed":295876,"subject_id":"91934","group":"Group1","condition":"1_Rep","full_date":"2026-02-24T04:13:18.211Z","date":"2026-02-24","time":"04:13:18","cor_ans":false},{"trial_type":"html-keyboard-response","rt":null,"stimulus":"<p style=\"color: red; font-size: 50px; font-weight: bold;\">Incorrect</p>","response":null,"trial_index":124,"plugin_version":"2.1.0","time_elapsed":296378,"subject_id":"91934","group":"Group1","condition":"1_Rep","full_date":"2026-02-24T04:13:18.211Z","date":"2026-02-24","time":"04:13:18"},{"correct_response":"l","task":"test_phase","broad_category":"M","image_png":"M_Phyllite_07.png","image_id":263,"category_name":"Phyllite","category":17,"distinct_rating":2.59,"distinct_type":"Bottom","item_type":"Target","rt":1063,"stimulus":"Stimuli_Rocks480/M_Phyllite_07.png","response":"l","trial_type":"image-keyboard-response","trial_index":125,"plugin_version":"2.1.0","time_elapsed":297453,"subject_id":"91934","group":"Group1","condition":"1_Rep","full_date":"2026-02-24T04:13:18.211Z","date":"2026-02-24","time":"04:13:18","cor_ans":true},{"trial_type":"html-keyboard-response","rt":null,"stimulus":"<p style=\"color: green; font-size: 50px; font-weight: bold;\">Correct</p>","response":null,"trial_index":126,"plugin_version":"2.1.0","time_elapsed":297957,"subject_id":"91934","group":"Group1","condition":"1_Rep","full_date":"2026-02-24T04:13:18.211Z","date":"2026-02-24","time":"04:13:18"},{"correct_response":"l","task":"test_phase","broad_category":"M","image_png":"M_Marble_16.png","image_id":240,"category_name":"Marble","category":15,"distinct_rating":2.57,"distinct_type":"Bottom","item_type":"Target","rt":1052,"stimulus":"Stimuli_Rocks480/M_Marble_16.png","response":"l","trial_type":"image-keyboard-response","trial_index":127,"plugin_version":"2.1.0","time_elapsed":299026,"subject_id":"91934","group":"Group1","condition":"1_Rep","full_date":"2026-02-24T04:13:18.211Z","date":"2026-02-24","time":"04:13:18","cor_ans":true},{"trial_type":"html-keyboard-response","rt":null,"stimulus":"<p style=\"color: green; font-size: 50px; font-weight: bold;\">Correct</p>","response":null,"trial_index":128,"plugin_version":"2.1.0","time_elapsed":299529,"subject_id":"91934","group":"Group1","condition":"1_Rep","full_date":"2026-02-24T04:13:18.211Z","date":"2026-02-24","time":"04:13:18"},{"correct_response":"l","task":"test_phase","broad_category":"I","image_png":"I_Andesite_06.png","image_id":6,"category_name":"Andesite","category":1,"distinct_rating":3.17,"distinct_type":"Bottom","item_type":"Target","rt":784,"stimulus":"Stimuli_Rocks480/I_Andesite_06.png","response":"a","trial_type":"image-keyboard-response","trial_index":129,"plugin_version":"2.1.0","time_elapsed":300332,"subject_id":"91934","group":"Group1","condition":"1_Rep","full_date":"2026-02-24T04:13:18.211Z","date":"2026-02-24","time":"04:13:18","cor_ans":false},{"trial_type":"html-keyboard-response","rt":null,"stimulus":"<p style=\"color: red; font-size: 50px; font-weight: bold;\">Incorrect</p>","response":null,"trial_index":130,"plugin_version":"2.1.0","time_elapsed":300834,"subject_id":"91934","group":"Group1","condition":"1_Rep","full_date":"2026-02-24T04:13:18.211Z","date":"2026-02-24","time":"04:13:18"},{"correct_response":"a","task":"test_phase","broad_category":"I","image_png":"I_Gabbro_14.png","image_id":62,"category_name":"Gabbro","category":4,"distinct_rating":2.95,"distinct_type":"Bottom","item_type":"Foil","rt":771,"stimulus":"Stimuli_Rocks480/I_Gabbro_14.png","response":"a","trial_type":"image-keyboard-response","trial_index":131,"plugin_version":"2.1.0","time_elapsed":301624,"subject_id":"91934","group":"Group1","condition":"1_Rep","full_date":"2026-02-24T04:13:18.211Z","date":"2026-02-24","time":"04:13:18","cor_ans":true},{"trial_type":"html-keyboard-response","rt":null,"stimulus":"<p style=\"color: green; font-size: 50px; font-weight: bold;\">Correct</p>","response":null,"trial_index":132,"plugin_version":"2.1.0","time_elapsed":302126,"subject_id":"91934","group":"Group1","condition":"1_Rep","full_date":"2026-02-24T04:13:18.211Z","date":"2026-02-24","time":"04:13:18"},{"correct_response":"l","task":"test_phase","broad_category":"I","image_png":"I_Pumice_11.png","image_id":139,"category_name":"Pumice","category":9,"distinct_rating":1.74,"distinct_type":"Bottom","item_type":"Target","rt":1216,"stimulus":"Stimuli_Rocks480/I_Pumice_11.png","response":"l","trial_type":"image-keyboard-response","trial_index":133,"plugin_version":"2.1.0","time_elapsed":303346,"subject_id":"91934","group":"Group1","condition":"1_Rep","full_date":"2026-02-24T04:13:18.211Z","date":"2026-02-24","time":"04:13:18","cor_ans":true},{"trial_type":"html-keyboard-response","rt":null,"stimulus":"<p style=\"color: green; font-size: 50px; font-weight: bold;\">Correct</p>","response":null,"trial_index":134,"plugin_version":"2.1.0","time_elapsed":303848,"subject_id":"91934","group":"Group1","condition":"1_Rep","full_date":"2026-02-24T04:13:18.211Z","date":"2026-02-24","time":"04:13:18"},{"correct_response":"a","task":"test_phase","broad_category":"M","image_png":"M_Gneiss_14.png","image_id":206,"category_name":"Gneiss","category":13,"distinct_rating":3.41,"distinct_type":"Bottom","item_type":"Foil","rt":802,"stimulus":"Stimuli_Rocks480/M_Gneiss_14.png","response":"a","trial_type":"image-keyboard-response","trial_index":135,"plugin_version":"2.1.0","time_elapsed":304666,"subject_id":"91934","group":"Group1","condition":"1_Rep","full_date":"2026-02-24T04:13:18.211Z","date":"2026-02-24","time":"04:13:18","cor_ans":true},{"trial_type":"html-keyboard-response","rt":null,"stimulus":"<p style=\"color: green; font-size: 50px; font-weight: bold;\">Correct</p>","response":null,"trial_index":136,"plugin_version":"2.1.0","time_elapsed":305169,"subject_id":"91934","group":"Group1","condition":"1_Rep","full_date":"2026-02-24T04:13:18.211Z","date":"2026-02-24","time":"04:13:18"},{"correct_response":"a","task":"test_phase","broad_category":"M","image_png":"M_Marble_03.png","image_id":227,"category_name":"Marble","category":15,"distinct_rating":2.67,"distinct_type":"Bottom","item_type":"Foil","rt":1219,"stimulus":"Stimuli_Rocks480/M_Marble_03.png","response":"l","trial_type":"image-keyboard-response","trial_index":137,"plugin_version":"2.1.0","time_elapsed":306402,"subject_id":"91934","group":"Group1","condition":"1_Rep","full_date":"2026-02-24T04:13:18.211Z","date":"2026-02-24","time":"04:13:18","cor_ans":false},{"trial_type":"html-keyboard-response","rt":null,"stimulus":"<p style=\"color: red; font-size: 50px; font-weight: bold;\">Incorrect</p>","response":null,"trial_index":138,"plugin_version":"2.1.0","time_elapsed":306905,"subject_id":"91934","group":"Group1","condition":"1_Rep","full_date":"2026-02-24T04:13:18.211Z","date":"2026-02-24","time":"04:13:18"},{"correct_response":"l","task":"test_phase","broad_category":"I","image_png":"I_Diorite_03.png","image_id":35,"category_name":"Diorite","category":3,"distinct_rating":3.14,"distinct_type":"Bottom","item_type":"Target","rt":888,"stimulus":"Stimuli_Rocks480/I_Diorite_03.png","response":"a","trial_type":"image-keyboard-response","trial_index":139,"plugin_version":"2.1.0","time_elapsed":307796,"subject_id":"91934","group":"Group1","condition":"1_Rep","full_date":"2026-02-24T04:13:18.211Z","date":"2026-02-24","time":"04:13:18","cor_ans":false},{"trial_type":"html-keyboard-response","rt":null,"stimulus":"<p style=\"color: red; font-size: 50px; font-weight: bold;\">Incorrect</p>","response":null,"trial_index":140,"plugin_version":"2.1.0","time_elapsed":308299,"subject_id":"91934","group":"Group1","condition":"1_Rep","full_date":"2026-02-24T04:13:18.211Z","date":"2026-02-24","time":"04:13:18"},{"correct_response":"l","task":"test_phase","broad_category":"I","image_png":"I_Diorite_05.png","image_id":37,"category_name":"Diorite","category":3,"distinct_rating":3.08,"distinct_type":"Bottom","item_type":"Target","rt":2492,"stimulus":"Stimuli_Rocks480/I_Diorite_05.png","response":"l","trial_type":"image-keyboard-response","trial_index":141,"plugin_version":"2.1.0","time_elapsed":310793,"subject_id":"91934","group":"Group1","condition":"1_Rep","full_date":"2026-02-24T04:13:18.211Z","date":"2026-02-24","time":"04:13:18","cor_ans":true},{"trial_type":"html-keyboard-response","rt":null,"stimulus":"<p style=\"color: green; font-size: 50px; font-weight: bold;\">Correct</p>","response":null,"trial_index":142,"plugin_version":"2.1.0","time_elapsed":311296,"subject_id":"91934","group":"Group1","condition":"1_Rep","full_date":"2026-02-24T04:13:18.211Z","date":"2026-02-24","time":"04:13:18"},{"correct_response":"a","task":"test_phase","broad_category":"I","image_png":"I_Basalt_08.png","image_id":24,"category_name":"Basalt","category":2,"distinct_rating":2.31,"distinct_type":"Bottom","item_type":"Foil","rt":2262,"stimulus":"Stimuli_Rocks480/I_Basalt_08.png","response":"a","trial_type":"image-keyboard-response","trial_index":143,"plugin_version":"2.1.0","time_elapsed":313582,"subject_id":"91934","group":"Group1","condition":"1_Rep","full_date":"2026-02-24T04:13:18.211Z","date":"2026-02-24","time":"04:13:18","cor_ans":true},{"trial_type":"html-keyboard-response","rt":null,"stimulus":"<p style=\"color: green; font-size: 50px; font-weight: bold;\">Correct</p>","response":null,"trial_index":144,"plugin_version":"2.1.0","time_elapsed":314084,"subject_id":"91934","group":"Group1","condition":"1_Rep","full_date":"2026-02-24T04:13:18.211Z","date":"2026-02-24","time":"04:13:18"},{"correct_response":"a","task":"test_phase","broad_category":"S","image_png":"S_Shale_03.png","image_id":467,"category_name":"Shale","category":30,"distinct_rating":1.95,"distinct_type":"Bottom","item_type":"Foil","rt":1467,"stimulus":"Stimuli_Rocks480/S_Shale_03.png","response":"l","trial_type":"image-keyboard-response","trial_index":145,"plugin_version":"2.1.0","time_elapsed":315570,"subject_id":"91934","group":"Group1","condition":"1_Rep","full_date":"2026-02-24T04:13:18.211Z","date":"2026-02-24","time":"04:13:18","cor_ans":false},{"trial_type":"html-keyboard-response","rt":null,"stimulus":"<p style=\"color: red; font-size: 50px; font-weight: bold;\">Incorrect</p>","response":null,"trial_index":146,"plugin_version":"2.1.0","time_elapsed":316073,"subject_id":"91934","group":"Group1","condition":"1_Rep","full_date":"2026-02-24T04:13:18.211Z","date":"2026-02-24","time":"04:13:18"},{"correct_response":"l","task":"test_phase","broad_category":"I","image_png":"I_Andesite_10.png","image_id":10,"category_name":"Andesite","category":1,"distinct_rating":3.15,"distinct_type":"Bottom","item_type":"Target","rt":823,"stimulus":"Stimuli_Rocks480/I_Andesite_10.png","response":"a","trial_type":"image-keyboard-response","trial_index":147,"plugin_version":"2.1.0","time_elapsed":316909,"subject_id":"91934","group":"Group1","condition":"1_Rep","full_date":"2026-02-24T04:13:18.211Z","date":"2026-02-24","time":"04:13:18","cor_ans":false},{"trial_type":"html-keyboard-response","rt":null,"stimulus":"<p style=\"color: red; font-size: 50px; font-weight: bold;\">Incorrect</p>","response":null,"trial_index":148,"plugin_version":"2.1.0","time_elapsed":317412,"subject_id":"91934","group":"Group1","condition":"1_Rep","full_date":"2026-02-24T04:13:18.211Z","date":"2026-02-24","time":"04:13:18"},{"correct_response":"a","task":"test_phase","broad_category":"I","image_png":"I_Gabbro_12.png","image_id":60,"category_name":"Gabbro","category":4,"distinct_rating":2.6,"distinct_type":"Bottom","item_type":"Foil","rt":913,"stimulus":"Stimuli_Rocks480/I_Gabbro_12.png","response":"a","trial_type":"image-keyboard-response","trial_index":149,"plugin_version":"2.1.0","time_elapsed":318345,"subject_id":"91934","group":"Group1","condition":"1_Rep","full_date":"2026-02-24T04:13:18.211Z","date":"2026-02-24","time":"04:13:18","cor_ans":true},{"trial_type":"html-keyboard-response","rt":null,"stimulus":"<p style=\"color: green; font-size: 50px; font-weight: bold;\">Correct</p>","response":null,"trial_index":150,"plugin_version":"2.1.0","time_elapsed":318848,"subject_id":"91934","group":"Group1","condition":"1_Rep","full_date":"2026-02-24T04:13:18.211Z","date":"2026-02-24","time":"04:13:18"},{"correct_response":"l","task":"test_phase","broad_category":"M","image_png":"M_Quartzite_13.png","image_id":285,"category_name":"Quartzite","category":18,"distinct_rating":2.27,"distinct_type":"Bottom","item_type":"Target","rt":883,"stimulus":"Stimuli_Rocks480/M_Quartzite_13.png","response":"l","trial_type":"image-keyboard-response","trial_index":151,"plugin_version":"2.1.0","time_elapsed":319747,"subject_id":"91934","group":"Group1","condition":"1_Rep","full_date":"2026-02-24T04:13:18.211Z","date":"2026-02-24","time":"04:13:18","cor_ans":true},{"trial_type":"html-keyboard-response","rt":null,"stimulus":"<p style=\"color: green; font-size: 50px; font-weight: bold;\">Correct</p>","response":null,"trial_index":152,"plugin_version":"2.1.0","time_elapsed":320250,"subject_id":"91934","group":"Group1","condition":"1_Rep","full_date":"2026-02-24T04:13:18.211Z","date":"2026-02-24","time":"04:13:18"},{"correct_response":"a","task":"test_phase","broad_category":"I","image_png":"I_Peridotite_13.png","image_id":125,"category_name":"Peridotite","category":8,"distinct_rating":7.28,"distinct_type":"Top","item_type":"Foil","rt":774,"stimulus":"Stimuli_Rocks480/I_Peridotite_13.png","response":"a","trial_type":"image-keyboard-response","trial_index":153,"plugin_version":"2.1.0","time_elapsed":321043,"subject_id":"91934","group":"Group1","condition":"1_Rep","full_date":"2026-02-24T04:13:18.211Z","date":"2026-02-24","time":"04:13:18","cor_ans":true},{"trial_type":"html-keyboard-response","rt":null,"stimulus":"<p style=\"color: green; font-size: 50px; font-weight: bold;\">Correct</p>","response":null,"trial_index":154,"plugin_version":"2.1.0","time_elapsed":321545,"subject_id":"91934","group":"Group1","condition":"1_Rep","full_date":"2026-02-24T04:13:18.211Z","date":"2026-02-24","time":"04:13:18"},{"correct_response":"l","task":"test_phase","broad_category":"I","image_png":"I_Gabbro_08.png","image_id":56,"category_name":"Gabbro","category":4,"distinct_rating":3.02,"distinct_type":"Bottom","item_type":"Target","rt":2145,"stimulus":"Stimuli_Rocks480/I_Gabbro_08.png","response":"a","trial_type":"image-keyboard-response","trial_index":155,"plugin_version":"2.1.0","time_elapsed":323702,"subject_id":"91934","group":"Group1","condition":"1_Rep","full_date":"2026-02-24T04:13:18.211Z","date":"2026-02-24","time":"04:13:18","cor_ans":false},{"trial_type":"html-keyboard-response","rt":null,"stimulus":"<p style=\"color: red; font-size: 50px; font-weight: bold;\">Incorrect</p>","response":null,"trial_index":156,"plugin_version":"2.1.0","time_elapsed":324205,"subject_id":"91934","group":"Group1","condition":"1_Rep","full_date":"2026-02-24T04:13:18.211Z","date":"2026-02-24","time":"04:13:18"},{"correct_response":"a","task":"test_phase","broad_category":"I","image_png":"I_Rhyolite_05.png","image_id":149,"category_name":"Rhyolite","category":10,"distinct_rating":3.02,"distinct_type":"Bottom","item_type":"Foil","rt":1138,"stimulus":"Stimuli_Rocks480/I_Rhyolite_05.png","response":"a","trial_type":"image-keyboard-response","trial_index":157,"plugin_version":"2.1.0","time_elapsed":325363,"subject_id":"91934","group":"Group1","condition":"1_Rep","full_date":"2026-02-24T04:13:18.211Z","date":"2026-02-24","time":"04:13:18","cor_ans":true},{"trial_type":"html-keyboard-response","rt":null,"stimulus":"<p style=\"color: green; font-size: 50px; font-weight: bold;\">Correct</p>","response":null,"trial_index":158,"plugin_version":"2.1.0","time_elapsed":325866,"subject_id":"91934","group":"Group1","condition":"1_Rep","full_date":"2026-02-24T04:13:18.211Z","date":"2026-02-24","time":"04:13:18"},{"correct_response":"l","task":"test_phase","broad_category":"I","image_png":"I_Pumice_12.png","image_id":140,"category_name":"Pumice","category":9,"distinct_rating":2.97,"distinct_type":"Bottom","item_type":"Target","rt":1459,"stimulus":"Stimuli_Rocks480/I_Pumice_12.png","response":"l","trial_type":"image-keyboard-response","trial_index":159,"plugin_version":"2.1.0","time_elapsed":327338,"subject_id":"91934","group":"Group1","condition":"1_Rep","full_date":"2026-02-24T04:13:18.211Z","date":"2026-02-24","time":"04:13:18","cor_ans":true},{"trial_type":"html-keyboard-response","rt":null,"stimulus":"<p style=\"color: green; font-size: 50px; font-weight: bold;\">Correct</p>","response":null,"trial_index":160,"plugin_version":"2.1.0","time_elapsed":327840,"subject_id":"91934","group":"Group1","condition":"1_Rep","full_date":"2026-02-24T04:13:18.211Z","date":"2026-02-24","time":"04:13:18"},{"correct_response":"a","task":"test_phase","broad_category":"M","image_png":"M_Quartzite_15.png","image_id":287,"category_name":"Quartzite","category":18,"distinct_rating":2.19,"distinct_type":"Bottom","item_type":"Foil","rt":962,"stimulus":"Stimuli_Rocks480/M_Quartzite_15.png","response":"l","trial_type":"image-keyboard-response","trial_index":161,"plugin_version":"2.1.0","time_elapsed":328819,"subject_id":"91934","group":"Group1","condition":"1_Rep","full_date":"2026-02-24T04:13:18.211Z","date":"2026-02-24","time":"04:13:18","cor_ans":false},{"trial_type":"html-keyboard-response","rt":null,"stimulus":"<p style=\"color: red; font-size: 50px; font-weight: bold;\">Incorrect</p>","response":null,"trial_index":162,"plugin_version":"2.1.0","time_elapsed":329322,"subject_id":"91934","group":"Group1","condition":"1_Rep","full_date":"2026-02-24T04:13:18.211Z","date":"2026-02-24","time":"04:13:18"},{"correct_response":"a","task":"test_phase","broad_category":"S","image_png":"S_Sandstone_11.png","image_id":459,"category_name":"Sandstone","category":29,"distinct_rating":1.82,"distinct_type":"Bottom","item_type":"Foil","rt":815,"stimulus":"Stimuli_Rocks480/S_Sandstone_11.png","response":"a","trial_type":"image-keyboard-response","trial_index":163,"plugin_version":"2.1.0","time_elapsed":330156,"subject_id":"91934","group":"Group1","condition":"1_Rep","full_date":"2026-02-24T04:13:18.211Z","date":"2026-02-24","time":"04:13:18","cor_ans":true},{"trial_type":"html-keyboard-response","rt":null,"stimulus":"<p style=\"color: green; font-size: 50px; font-weight: bold;\">Correct</p>","response":null,"trial_index":164,"plugin_version":"2.1.0","time_elapsed":330659,"subject_id":"91934","group":"Group1","condition":"1_Rep","full_date":"2026-02-24T04:13:18.211Z","date":"2026-02-24","time":"04:13:18"},{"correct_response":"l","task":"test_phase","broad_category":"M","image_png":"M_Phyllite_10.png","image_id":266,"category_name":"Phyllite","category":17,"distinct_rating":2.6,"distinct_type":"Bottom","item_type":"Target","rt":1086,"stimulus":"Stimuli_Rocks480/M_Phyllite_10.png","response":"a","trial_type":"image-keyboard-response","trial_index":165,"plugin_version":"2.1.0","time_elapsed":331758,"subject_id":"91934","group":"Group1","condition":"1_Rep","full_date":"2026-02-24T04:13:18.211Z","date":"2026-02-24","time":"04:13:18","cor_ans":false},{"trial_type":"html-keyboard-response","rt":null,"stimulus":"<p style=\"color: red; font-size: 50px; font-weight: bold;\">Incorrect</p>","response":null,"trial_index":166,"plugin_version":"2.1.0","time_elapsed":332261,"subject_id":"91934","group":"Group1","condition":"1_Rep","full_date":"2026-02-24T04:13:18.211Z","date":"2026-02-24","time":"04:13:18"},{"correct_response":"a","task":"test_phase","broad_category":"I","image_png":"I_Andesite_04.png","image_id":4,"category_name":"Andesite","category":1,"distinct_rating":3.18,"distinct_type":"Bottom","item_type":"Foil","rt":796,"stimulus":"Stimuli_Rocks480/I_Andesite_04.png","response":"l","trial_type":"image-keyboard-response","trial_index":167,"plugin_version":"2.1.0","time_elapsed":333074,"subject_id":"91934","group":"Group1","condition":"1_Rep","full_date":"2026-02-24T04:13:18.211Z","date":"2026-02-24","time":"04:13:18","cor_ans":false},{"trial_type":"html-keyboard-response","rt":null,"stimulus":"<p style=\"color: red; font-size: 50px; font-weight: bold;\">Incorrect</p>","response":null,"trial_index":168,"plugin_version":"2.1.0","time_elapsed":333577,"subject_id":"91934","group":"Group1","condition":"1_Rep","full_date":"2026-02-24T04:13:18.211Z","date":"2026-02-24","time":"04:13:18"},{"correct_response":"l","task":"test_phase","broad_category":"I","image_png":"I_Basalt_01.png","image_id":17,"category_name":"Basalt","category":2,"distinct_rating":1.92,"distinct_type":"Bottom","item_type":"Target","rt":1727,"stimulus":"Stimuli_Rocks480/I_Basalt_01.png","response":"l","trial_type":"image-keyboard-response","trial_index":169,"plugin_version":"2.1.0","time_elapsed":335322,"subject_id":"91934","group":"Group1","condition":"1_Rep","full_date":"2026-02-24T04:13:18.211Z","date":"2026-02-24","time":"04:13:18","cor_ans":true},{"trial_type":"html-keyboard-response","rt":null,"stimulus":"<p style=\"color: green; font-size: 50px; font-weight: bold;\">Correct</p>","response":null,"trial_index":170,"plugin_version":"2.1.0","time_elapsed":335825,"subject_id":"91934","group":"Group1","condition":"1_Rep","full_date":"2026-02-24T04:13:18.211Z","date":"2026-02-24","time":"04:13:18"},{"correct_response":"l","task":"test_phase","broad_category":"S","image_png":"S_Shale_12.png","image_id":476,"category_name":"Shale","category":30,"distinct_rating":2.48,"distinct_type":"Bottom","item_type":"Target","rt":1003,"stimulus":"Stimuli_Rocks480/S_Shale_12.png","response":"a","trial_type":"image-keyboard-response","trial_index":171,"plugin_version":"2.1.0","time_elapsed":336844,"subject_id":"91934","group":"Group1","condition":"1_Rep","full_date":"2026-02-24T04:13:18.211Z","date":"2026-02-24","time":"04:13:18","cor_ans":false},{"trial_type":"html-keyboard-response","rt":null,"stimulus":"<p style=\"color: red; font-size: 50px; font-weight: bold;\">Incorrect</p>","response":null,"trial_index":172,"plugin_version":"2.1.0","time_elapsed":337347,"subject_id":"91934","group":"Group1","condition":"1_Rep","full_date":"2026-02-24T04:13:18.211Z","date":"2026-02-24","time":"04:13:18"},{"correct_response":"a","task":"test_phase","broad_category":"I","image_png":"I_Obsidian_06.png","image_id":86,"category_name":"Obsidian","category":6,"distinct_rating":8.01,"distinct_type":"Top","item_type":"Foil","rt":1720,"stimulus":"Stimuli_Rocks480/I_Obsidian_06.png","response":"a","trial_type":"image-keyboard-response","trial_index":173,"plugin_version":"2.1.0","time_elapsed":339088,"subject_id":"91934","group":"Group1","condition":"1_Rep","full_date":"2026-02-24T04:13:18.211Z","date":"2026-02-24","time":"04:13:18","cor_ans":true},{"trial_type":"html-keyboard-response","rt":null,"stimulus":"<p style=\"color: green; font-size: 50px; font-weight: bold;\">Correct</p>","response":null,"trial_index":174,"plugin_version":"2.1.0","time_elapsed":339591,"subject_id":"91934","group":"Group1","condition":"1_Rep","full_date":"2026-02-24T04:13:18.211Z","date":"2026-02-24","time":"04:13:18"},{"correct_response":"l","task":"test_phase","broad_category":"M","image_png":"M_Marble_04.png","image_id":228,"category_name":"Marble","category":15,"distinct_rating":3.15,"distinct_type":"Bottom","item_type":"Target","rt":1113,"stimulus":"Stimuli_Rocks480/M_Marble_04.png","response":"l","trial_type":"image-keyboard-response","trial_index":175,"plugin_version":"2.1.0","time_elapsed":340721,"subject_id":"91934","group":"Group1","condition":"1_Rep","full_date":"2026-02-24T04:13:18.211Z","date":"2026-02-24","time":"04:13:18","cor_ans":true},{"trial_type":"html-keyboard-response","rt":null,"stimulus":"<p style=\"color: green; font-size: 50px; font-weight: bold;\">Correct</p>","response":null,"trial_index":176,"plugin_version":"2.1.0","time_elapsed":341224,"subject_id":"91934","group":"Group1","condition":"1_Rep","full_date":"2026-02-24T04:13:18.211Z","date":"2026-02-24","time":"04:13:18"},{"correct_response":"a","task":"test_phase","broad_category":"M","image_png":"M_Marble_14.png","image_id":238,"category_name":"Marble","category":15,"distinct_rating":3.31,"distinct_type":"Bottom","item_type":"Foil","rt":932,"stimulus":"Stimuli_Rocks480/M_Marble_14.png","response":"l","trial_type":"image-keyboard-response","trial_index":177,"plugin_version":"2.1.0","time_elapsed":342171,"subject_id":"91934","group":"Group1","condition":"1_Rep","full_date":"2026-02-24T04:13:18.211Z","date":"2026-02-24","time":"04:13:18","cor_ans":false},{"trial_type":"html-keyboard-response","rt":null,"stimulus":"<p style=\"color: red; font-size: 50px; font-weight: bold;\">Incorrect</p>","response":null,"trial_index":178,"plugin_version":"2.1.0","time_elapsed":342674,"subject_id":"91934","group":"Group1","condition":"1_Rep","full_date":"2026-02-24T04:13:18.211Z","date":"2026-02-24","time":"04:13:18"},{"correct_response":"a","task":"test_phase","broad_category":"S","image_png":"S_Rock Salt_15.png","image_id":447,"category_name":"Rock Salt","category":28,"distinct_rating":7.79,"distinct_type":"Top","item_type":"Foil","rt":1972,"stimulus":"Stimuli_Rocks480/S_Rock Salt_15.png","response":"a","trial_type":"image-keyboard-response","trial_index":179,"plugin_version":"2.1.0","time_elapsed":344661,"subject_id":"91934","group":"Group1","condition":"1_Rep","full_date":"2026-02-24T04:13:18.211Z","date":"2026-02-24","time":"04:13:18","cor_ans":true},{"trial_type":"html-keyboard-response","rt":null,"stimulus":"<p style=\"color: green; font-size: 50px; font-weight: bold;\">Correct</p>","response":null,"trial_index":180,"plugin_version":"2.1.0","time_elapsed":345163,"subject_id":"91934","group":"Group1","condition":"1_Rep","full_date":"2026-02-24T04:13:18.211Z","date":"2026-02-24","time":"04:13:18"},{"correct_response":"a","task":"test_phase","broad_category":"I","image_png":"I_Pumice_13.png","image_id":141,"category_name":"Pumice","category":9,"distinct_rating":3.12,"distinct_type":"Bottom","item_type":"Foil","rt":1074,"stimulus":"Stimuli_Rocks480/I_Pumice_13.png","response":"a","trial_type":"image-keyboard-response","trial_index":181,"plugin_version":"2.1.0","time_elapsed":346257,"subject_id":"91934","group":"Group1","condition":"1_Rep","full_date":"2026-02-24T04:13:18.211Z","date":"2026-02-24","time":"04:13:18","cor_ans":true},{"trial_type":"html-keyboard-response","rt":null,"stimulus":"<p style=\"color: green; font-size: 50px; font-weight: bold;\">Correct</p>","response":null,"trial_index":182,"plugin_version":"2.1.0","time_elapsed":346759,"subject_id":"91934","group":"Group1","condition":"1_Rep","full_date":"2026-02-24T04:13:18.211Z","date":"2026-02-24","time":"04:13:18"},{"correct_response":"a","task":"test_phase","broad_category":"M","image_png":"M_Phyllite_05.png","image_id":261,"category_name":"Phyllite","category":17,"distinct_rating":2.14,"distinct_type":"Bottom","item_type":"Foil","rt":1254,"stimulus":"Stimuli_Rocks480/M_Phyllite_05.png","response":"a","trial_type":"image-keyboard-response","trial_index":183,"plugin_version":"2.1.0","time_elapsed":348027,"subject_id":"91934","group":"Group1","condition":"1_Rep","full_date":"2026-02-24T04:13:18.211Z","date":"2026-02-24","time":"04:13:18","cor_ans":true},{"trial_type":"html-keyboard-response","rt":null,"stimulus":"<p style=\"color: green; font-size: 50px; font-weight: bold;\">Correct</p>","response":null,"trial_index":184,"plugin_version":"2.1.0","time_elapsed":348530,"subject_id":"91934","group":"Group1","condition":"1_Rep","full_date":"2026-02-24T04:13:18.211Z","date":"2026-02-24","time":"04:13:18"},{"correct_response":"l","task":"test_phase","broad_category":"S","image_png":"S_Sandstone_16.png","image_id":464,"category_name":"Sandstone","category":29,"distinct_rating":1.93,"distinct_type":"Bottom","item_type":"Target","rt":916,"stimulus":"Stimuli_Rocks480/S_Sandstone_16.png","response":"l","trial_type":"image-keyboard-response","trial_index":185,"plugin_version":"2.1.0","time_elapsed":349457,"subject_id":"91934","group":"Group1","condition":"1_Rep","full_date":"2026-02-24T04:13:18.211Z","date":"2026-02-24","time":"04:13:18","cor_ans":true},{"trial_type":"html-keyboard-response","rt":null,"stimulus":"<p style=\"color: green; font-size: 50px; font-weight: bold;\">Correct</p>","response":null,"trial_index":186,"plugin_version":"2.1.0","time_elapsed":349959,"subject_id":"91934","group":"Group1","condition":"1_Rep","full_date":"2026-02-24T04:13:18.211Z","date":"2026-02-24","time":"04:13:18"},{"correct_response":"l","task":"test_phase","broad_category":"M","image_png":"M_Phyllite_03.png","image_id":259,"category_name":"Phyllite","category":17,"distinct_rating":2.5,"distinct_type":"Bottom","item_type":"Target","rt":969,"stimulus":"Stimuli_Rocks480/M_Phyllite_03.png","response":"a","trial_type":"image-keyboard-response","trial_index":187,"plugin_version":"2.1.0","time_elapsed":350944,"subject_id":"91934","group":"Group1","condition":"1_Rep","full_date":"2026-02-24T04:13:18.211Z","date":"2026-02-24","time":"04:13:18","cor_ans":false},{"trial_type":"html-keyboard-response","rt":null,"stimulus":"<p style=\"color: red; font-size: 50px; font-weight: bold;\">Incorrect</p>","response":null,"trial_index":188,"plugin_version":"2.1.0","time_elapsed":351446,"subject_id":"91934","group":"Group1","condition":"1_Rep","full_date":"2026-02-24T04:13:18.211Z","date":"2026-02-24","time":"04:13:18"},{"correct_response":"a","task":"test_phase","broad_category":"S","image_png":"S_Shale_02.png","image_id":466,"category_name":"Shale","category":30,"distinct_rating":2.9,"distinct_type":"Bottom","item_type":"Foil","rt":811,"stimulus":"Stimuli_Rocks480/S_Shale_02.png","response":"a","trial_type":"image-keyboard-response","trial_index":189,"plugin_version":"2.1.0","time_elapsed":352273,"subject_id":"91934","group":"Group1","condition":"1_Rep","full_date":"2026-02-24T04:13:18.211Z","date":"2026-02-24","time":"04:13:18","cor_ans":true},{"trial_type":"html-keyboard-response","rt":null,"stimulus":"<p style=\"color: green; font-size: 50px; font-weight: bold;\">Correct</p>","response":null,"trial_index":190,"plugin_version":"2.1.0","time_elapsed":352775,"subject_id":"91934","group":"Group1","condition":"1_Rep","full_date":"2026-02-24T04:13:18.211Z","date":"2026-02-24","time":"04:13:18"},{"correct_response":"a","task":"test_phase","broad_category":"I","image_png":"I_Diorite_15.png","image_id":47,"category_name":"Diorite","category":3,"distinct_rating":3.05,"distinct_type":"Bottom","item_type":"Foil","rt":868,"stimulus":"Stimuli_Rocks480/I_Diorite_15.png","response":"l","trial_type":"image-keyboard-response","trial_index":191,"plugin_version":"2.1.0","time_elapsed":353658,"subject_id":"91934","group":"Group1","condition":"1_Rep","full_date":"2026-02-24T04:13:18.211Z","date":"2026-02-24","time":"04:13:18","cor_ans":false},{"trial_type":"html-keyboard-response","rt":null,"stimulus":"<p style=\"color: red; font-size: 50px; font-weight: bold;\">Incorrect</p>","response":null,"trial_index":192,"plugin_version":"2.1.0","time_elapsed":354160,"subject_id":"91934","group":"Group1","condition":"1_Rep","full_date":"2026-02-24T04:13:18.211Z","date":"2026-02-24","time":"04:13:18"},{"correct_response":"a","task":"test_phase","broad_category":"S","image_png":"S_Dolomite_01.png","image_id":385,"category_name":"Dolomite","category":25,"distinct_rating":1.43,"distinct_type":"Bottom","item_type":"Foil","rt":784,"stimulus":"Stimuli_Rocks480/S_Dolomite_01.png","response":"a","trial_type":"image-keyboard-response","trial_index":193,"plugin_version":"2.1.0","time_elapsed":354964,"subject_id":"91934","group":"Group1","condition":"1_Rep","full_date":"2026-02-24T04:13:18.211Z","date":"2026-02-24","time":"04:13:18","cor_ans":true},{"trial_type":"html-keyboard-response","rt":null,"stimulus":"<p style=\"color: green; font-size: 50px; font-weight: bold;\">Correct</p>","response":null,"trial_index":194,"plugin_version":"2.1.0","time_elapsed":355466,"subject_id":"91934","group":"Group1","condition":"1_Rep","full_date":"2026-02-24T04:13:18.211Z","date":"2026-02-24","time":"04:13:18"},{"correct_response":"a","task":"test_phase","broad_category":"M","image_png":"M_Slate_14.png","image_id":318,"category_name":"Slate","category":20,"distinct_rating":2.58,"distinct_type":"Bottom","item_type":"Foil","rt":5526,"stimulus":"Stimuli_Rocks480/M_Slate_14.png","response":"a","trial_type":"image-keyboard-response","trial_index":195,"plugin_version":"2.1.0","time_elapsed":361004,"subject_id":"91934","group":"Group1","condition":"1_Rep","full_date":"2026-02-24T04:13:18.211Z","date":"2026-02-24","time":"04:13:18","cor_ans":true},{"trial_type":"html-keyboard-response","rt":null,"stimulus":"<p style=\"color: green; font-size: 50px; font-weight: bold;\">Correct</p>","response":null,"trial_index":196,"plugin_version":"2.1.0","time_elapsed":361507,"subject_id":"91934","group":"Group1","condition":"1_Rep","full_date":"2026-02-24T04:13:18.211Z","date":"2026-02-24","time":"04:13:18"},{"correct_response":"l","task":"test_phase","broad_category":"I","image_png":"I_Obsidian_05.png","image_id":85,"category_name":"Obsidian","category":6,"distinct_rating":7.32,"distinct_type":"Top","item_type":"Target","rt":998,"stimulus":"Stimuli_Rocks480/I_Obsidian_05.png","response":"l","trial_type":"image-keyboard-response","trial_index":197,"plugin_version":"2.1.0","time_elapsed":362524,"subject_id":"91934","group":"Group1","condition":"1_Rep","full_date":"2026-02-24T04:13:18.211Z","date":"2026-02-24","time":"04:13:18","cor_ans":true},{"trial_type":"html-keyboard-response","rt":null,"stimulus":"<p style=\"color: green; font-size: 50px; font-weight: bold;\">Correct</p>","response":null,"trial_index":198,"plugin_version":"2.1.0","time_elapsed":363026,"subject_id":"91934","group":"Group1","condition":"1_Rep","full_date":"2026-02-24T04:13:18.211Z","date":"2026-02-24","time":"04:13:18"},{"correct_response":"a","task":"test_phase","broad_category":"I","image_png":"I_Pegmatite_03.png","image_id":99,"category_name":"Pegmatite","category":7,"distinct_rating":7.24,"distinct_type":"Top","item_type":"Foil","rt":1036,"stimulus":"Stimuli_Rocks480/I_Pegmatite_03.png","response":"a","trial_type":"image-keyboard-response","trial_index":199,"plugin_version":"2.1.0","time_elapsed":364079,"subject_id":"91934","group":"Group1","condition":"1_Rep","full_date":"2026-02-24T04:13:18.211Z","date":"2026-02-24","time":"04:13:18","cor_ans":true},{"trial_type":"html-keyboard-response","rt":null,"stimulus":"<p style=\"color: green; font-size: 50px; font-weight: bold;\">Correct</p>","response":null,"trial_index":200,"plugin_version":"2.1.0","time_elapsed":364582,"subject_id":"91934","group":"Group1","condition":"1_Rep","full_date":"2026-02-24T04:13:18.211Z","date":"2026-02-24","time":"04:13:18"},{"correct_response":"a","task":"test_phase","broad_category":"S","image_png":"S_Chert_13.png","image_id":365,"category_name":"Chert","category":23,"distinct_rating":6.57,"distinct_type":"Top","item_type":"Foil","rt":902,"stimulus":"Stimuli_Rocks480/S_Chert_13.png","response":"a","trial_type":"image-keyboard-response","trial_index":201,"plugin_version":"2.1.0","time_elapsed":365496,"subject_id":"91934","group":"Group1","condition":"1_Rep","full_date":"2026-02-24T04:13:18.211Z","date":"2026-02-24","time":"04:13:18","cor_ans":true},{"trial_type":"html-keyboard-response","rt":null,"stimulus":"<p style=\"color: green; font-size: 50px; font-weight: bold;\">Correct</p>","response":null,"trial_index":202,"plugin_version":"2.1.0","time_elapsed":365998,"subject_id":"91934","group":"Group1","condition":"1_Rep","full_date":"2026-02-24T04:13:18.211Z","date":"2026-02-24","time":"04:13:18"},{"correct_response":"a","task":"test_phase","broad_category":"S","image_png":"S_Dolomite_16.png","image_id":400,"category_name":"Dolomite","category":25,"distinct_rating":1.71,"distinct_type":"Bottom","item_type":"Foil","rt":1178,"stimulus":"Stimuli_Rocks480/S_Dolomite_16.png","response":"a","trial_type":"image-keyboard-response","trial_index":203,"plugin_version":"2.1.0","time_elapsed":367190,"subject_id":"91934","group":"Group1","condition":"1_Rep","full_date":"2026-02-24T04:13:18.211Z","date":"2026-02-24","time":"04:13:18","cor_ans":true},{"trial_type":"html-keyboard-response","rt":null,"stimulus":"<p style=\"color: green; font-size: 50px; font-weight: bold;\">Correct</p>","response":null,"trial_index":204,"plugin_version":"2.1.0","time_elapsed":367693,"subject_id":"91934","group":"Group1","condition":"1_Rep","full_date":"2026-02-24T04:13:18.211Z","date":"2026-02-24","time":"04:13:18"},{"correct_response":"a","task":"test_phase","broad_category":"S","image_png":"S_Rock Salt_13.png","image_id":445,"category_name":"Rock Salt","category":28,"distinct_rating":7.58,"distinct_type":"Top","item_type":"Foil","rt":778,"stimulus":"Stimuli_Rocks480/S_Rock Salt_13.png","response":"a","trial_type":"image-keyboard-response","trial_index":205,"plugin_version":"2.1.0","time_elapsed":368488,"subject_id":"91934","group":"Group1","condition":"1_Rep","full_date":"2026-02-24T04:13:18.211Z","date":"2026-02-24","time":"04:13:18","cor_ans":true},{"trial_type":"html-keyboard-response","rt":null,"stimulus":"<p style=\"color: green; font-size: 50px; font-weight: bold;\">Correct</p>","response":null,"trial_index":206,"plugin_version":"2.1.0","time_elapsed":368991,"subject_id":"91934","group":"Group1","condition":"1_Rep","full_date":"2026-02-24T04:13:18.211Z","date":"2026-02-24","time":"04:13:18"},{"correct_response":"l","task":"test_phase","broad_category":"M","image_png":"M_Slate_03.png","image_id":307,"category_name":"Slate","category":20,"distinct_rating":1.87,"distinct_type":"Bottom","item_type":"Target","rt":769,"stimulus":"Stimuli_Rocks480/M_Slate_03.png","response":"l","trial_type":"image-keyboard-response","trial_index":207,"plugin_version":"2.1.0","time_elapsed":369778,"subject_id":"91934","group":"Group1","condition":"1_Rep","full_date":"2026-02-24T04:13:18.211Z","date":"2026-02-24","time":"04:13:18","cor_ans":true},{"trial_type":"html-keyboard-response","rt":null,"stimulus":"<p style=\"color: green; font-size: 50px; font-weight: bold;\">Correct</p>","response":null,"trial_index":208,"plugin_version":"2.1.0","time_elapsed":370281,"subject_id":"91934","group":"Group1","condition":"1_Rep","full_date":"2026-02-24T04:13:18.211Z","date":"2026-02-24","time":"04:13:18"},{"correct_response":"a","task":"test_phase","broad_category":"M","image_png":"M_Gneiss_15.png","image_id":207,"category_name":"Gneiss","category":13,"distinct_rating":3.11,"distinct_type":"Bottom","item_type":"Foil","rt":821,"stimulus":"Stimuli_Rocks480/M_Gneiss_15.png","response":"l","trial_type":"image-keyboard-response","trial_index":209,"plugin_version":"2.1.0","time_elapsed":371113,"subject_id":"91934","group":"Group1","condition":"1_Rep","full_date":"2026-02-24T04:13:18.211Z","date":"2026-02-24","time":"04:13:18","cor_ans":false},{"trial_type":"html-keyboard-response","rt":null,"stimulus":"<p style=\"color: red; font-size: 50px; font-weight: bold;\">Incorrect</p>","response":null,"trial_index":210,"plugin_version":"2.1.0","time_elapsed":371617,"subject_id":"91934","group":"Group1","condition":"1_Rep","full_date":"2026-02-24T04:13:18.211Z","date":"2026-02-24","time":"04:13:18"},{"correct_response":"l","task":"test_phase","broad_category":"S","image_png":"S_Dolomite_12.png","image_id":396,"category_name":"Dolomite","category":25,"distinct_rating":1.85,"distinct_type":"Bottom","item_type":"Target","rt":878,"stimulus":"Stimuli_Rocks480/S_Dolomite_12.png","response":"l","trial_type":"image-keyboard-response","trial_index":211,"plugin_version":"2.1.0","time_elapsed":372511,"subject_id":"91934","group":"Group1","condition":"1_Rep","full_date":"2026-02-24T04:13:18.211Z","date":"2026-02-24","time":"04:13:18","cor_ans":true},{"trial_type":"html-keyboard-response","rt":null,"stimulus":"<p style=\"color: green; font-size: 50px; font-weight: bold;\">Correct</p>","response":null,"trial_index":212,"plugin_version":"2.1.0","time_elapsed":373013,"subject_id":"91934","group":"Group1","condition":"1_Rep","full_date":"2026-02-24T04:13:18.211Z","date":"2026-02-24","time":"04:13:18"},{"correct_response":"a","task":"test_phase","broad_category":"I","image_png":"I_Pegmatite_11.png","image_id":107,"category_name":"Pegmatite","category":7,"distinct_rating":7.11,"distinct_type":"Top","item_type":"Foil","rt":755,"stimulus":"Stimuli_Rocks480/I_Pegmatite_11.png","response":"a","trial_type":"image-keyboard-response","trial_index":213,"plugin_version":"2.1.0","time_elapsed":373789,"subject_id":"91934","group":"Group1","condition":"1_Rep","full_date":"2026-02-24T04:13:18.211Z","date":"2026-02-24","time":"04:13:18","cor_ans":true},{"trial_type":"html-keyboard-response","rt":null,"stimulus":"<p style=\"color: green; font-size: 50px; font-weight: bold;\">Correct</p>","response":null,"trial_index":214,"plugin_version":"2.1.0","time_elapsed":374291,"subject_id":"91934","group":"Group1","condition":"1_Rep","full_date":"2026-02-24T04:13:18.211Z","date":"2026-02-24","time":"04:13:18"},{"correct_response":"l","task":"test_phase","broad_category":"S","image_png":"S_Rock Gypsum_04.png","image_id":420,"category_name":"Rock Gypsum","category":27,"distinct_rating":7.61,"distinct_type":"Top","item_type":"Target","rt":781,"stimulus":"Stimuli_Rocks480/S_Rock Gypsum_04.png","response":"a","trial_type":"image-keyboard-response","trial_index":215,"plugin_version":"2.1.0","time_elapsed":375088,"subject_id":"91934","group":"Group1","condition":"1_Rep","full_date":"2026-02-24T04:13:18.211Z","date":"2026-02-24","time":"04:13:18","cor_ans":false},{"trial_type":"html-keyboard-response","rt":null,"stimulus":"<p style=\"color: red; font-size: 50px; font-weight: bold;\">Incorrect</p>","response":null,"trial_index":216,"plugin_version":"2.1.0","time_elapsed":375591,"subject_id":"91934","group":"Group1","condition":"1_Rep","full_date":"2026-02-24T04:13:18.211Z","date":"2026-02-24","time":"04:13:18"},{"correct_response":"l","task":"test_phase","broad_category":"I","image_png":"I_Basalt_09.png","image_id":25,"category_name":"Basalt","category":2,"distinct_rating":1.89,"distinct_type":"Bottom","item_type":"Target","rt":3021,"stimulus":"Stimuli_Rocks480/I_Basalt_09.png","response":"l","trial_type":"image-keyboard-response","trial_index":217,"plugin_version":"2.1.0","time_elapsed":378624,"subject_id":"91934","group":"Group1","condition":"1_Rep","full_date":"2026-02-24T04:13:18.211Z","date":"2026-02-24","time":"04:13:18","cor_ans":true},{"trial_type":"html-keyboard-response","rt":null,"stimulus":"<p style=\"color: green; font-size: 50px; font-weight: bold;\">Correct</p>","response":null,"trial_index":218,"plugin_version":"2.1.0","time_elapsed":379127,"subject_id":"91934","group":"Group1","condition":"1_Rep","full_date":"2026-02-24T04:13:18.211Z","date":"2026-02-24","time":"04:13:18"},{"correct_response":"l","task":"test_phase","broad_category":"S","image_png":"S_Dolomite_14.png","image_id":398,"category_name":"Dolomite","category":25,"distinct_rating":1.43,"distinct_type":"Bottom","item_type":"Target","rt":969,"stimulus":"Stimuli_Rocks480/S_Dolomite_14.png","response":"l","trial_type":"image-keyboard-response","trial_index":219,"plugin_version":"2.1.0","time_elapsed":380108,"subject_id":"91934","group":"Group1","condition":"1_Rep","full_date":"2026-02-24T04:13:18.211Z","date":"2026-02-24","time":"04:13:18","cor_ans":true},{"trial_type":"html-keyboard-response","rt":null,"stimulus":"<p style=\"color: green; font-size: 50px; font-weight: bold;\">Correct</p>","response":null,"trial_index":220,"plugin_version":"2.1.0","time_elapsed":380611,"subject_id":"91934","group":"Group1","condition":"1_Rep","full_date":"2026-02-24T04:13:18.211Z","date":"2026-02-24","time":"04:13:18"},{"correct_response":"l","task":"test_phase","broad_category":"I","image_png":"I_Gabbro_16.png","image_id":64,"category_name":"Gabbro","category":4,"distinct_rating":2.52,"distinct_type":"Bottom","item_type":"Target","rt":955,"stimulus":"Stimuli_Rocks480/I_Gabbro_16.png","response":"a","trial_type":"image-keyboard-response","trial_index":221,"plugin_version":"2.1.0","time_elapsed":381579,"subject_id":"91934","group":"Group1","condition":"1_Rep","full_date":"2026-02-24T04:13:18.211Z","date":"2026-02-24","time":"04:13:18","cor_ans":false},{"trial_type":"html-keyboard-response","rt":null,"stimulus":"<p style=\"color: red; font-size: 50px; font-weight: bold;\">Incorrect</p>","response":null,"trial_index":222,"plugin_version":"2.1.0","time_elapsed":382082,"subject_id":"91934","group":"Group1","condition":"1_Rep","full_date":"2026-02-24T04:13:18.211Z","date":"2026-02-24","time":"04:13:18"},{"correct_response":"a","task":"test_phase","broad_category":"S","image_png":"S_Shale_07.png","image_id":471,"category_name":"Shale","category":30,"distinct_rating":2.73,"distinct_type":"Bottom","item_type":"Foil","rt":2877,"stimulus":"Stimuli_Rocks480/S_Shale_07.png","response":"l","trial_type":"image-keyboard-response","trial_index":223,"plugin_version":"2.1.0","time_elapsed":384973,"subject_id":"91934","group":"Group1","condition":"1_Rep","full_date":"2026-02-24T04:13:18.211Z","date":"2026-02-24","time":"04:13:18","cor_ans":false},{"trial_type":"html-keyboard-response","rt":null,"stimulus":"<p style=\"color: red; font-size: 50px; font-weight: bold;\">Incorrect</p>","response":null,"trial_index":224,"plugin_version":"2.1.0","time_elapsed":385475,"subject_id":"91934","group":"Group1","condition":"1_Rep","full_date":"2026-02-24T04:13:18.211Z","date":"2026-02-24","time":"04:13:18"},{"correct_response":"l","task":"test_phase","broad_category":"I","image_png":"I_Rhyolite_16.png"