[{"width":1432,"height":768,"webaudio":true,"browser":"edge-chromium","browser_version":"143.0.0","mobile":false,"os":"Windows 10","fullscreen":true,"vsync_rate":60.4,"webcam":true,"microphone":true,"trial_type":"browser-check","trial_index":0,"plugin_version":"2.1.0","time_elapsed":1013,"subject_id":"92294","group":"Group1","condition":"1_Rep","full_date":"2026-02-03T05:08:53.644Z","date":"2026-02-03","time":"05:08:53"},{"success":true,"timeout":false,"failed_images":[],"failed_audio":[],"failed_video":[],"trial_type":"preload","trial_index":1,"plugin_version":"2.1.0","time_elapsed":5944,"subject_id":"92294","group":"Group1","condition":"1_Rep","full_date":"2026-02-03T05:08:53.644Z","date":"2026-02-03","time":"05:08:53"},{"rt":8199,"url":"SONA_consent_memorability.html","trial_type":"external-html","trial_index":2,"plugin_version":"2.1.0","time_elapsed":14217,"subject_id":"92294","group":"Group1","condition":"1_Rep","full_date":"2026-02-03T05:08:53.644Z","date":"2026-02-03","time":"05:08:53"},{"success":true,"rt":1639,"trial_type":"fullscreen","trial_index":3,"plugin_version":"2.1.0","time_elapsed":16862,"subject_id":"92294","group":"Group1","condition":"1_Rep","full_date":"2026-02-03T05:08:53.644Z","date":"2026-02-03","time":"05:08:53"},{"rt":1367,"stimulus":"<div style=\"max-width: 760px; margin: auto; font-size: 20px; line-height: 1.5;\">\n      <h1 style=\"text-align:center; font-size: 30px;\">Instructions</h1>\n      <p>\n        Welcome to the study on <b>visual memory</b>. This experiment consists of <b>two phases</b>: \n        a <b>study phase</b> and a <b>test phase</b>.\n      </p>\n      <p>\n        In the study phase, you will see a series of rock images along with their category labels.\n        The images will appear one at a time.\n        <b>Your task</b> is to learn the categories to which the rock images belong \n        and to remember each image as accurately as possible.\n      </p> \n      <p>\n        Note that you will see each image only <b>once</b> during the study phase. \n          So, please pay close attention and try to remember each image carefully.\n      </p>\n      <p>\n        After the study phase, <b>your memory will be tested</b>. \n        Additional instructions for the test phase will be provided at that time.\n      </p>\n      <p>\n        If your computer has multiple <b>language settings</b> (e.g., English and another language),\n        please make sure it is set to English before starting.\n      </p>\n      <p>\n        You can track your progress using the <b>completion bar</b> at the top of the screen. \n        Please note that the bar will refresh when the test phase begins \n        to give you an accurate sense of your progress in both phases.\n      </p> \n      <p>\n        Press the button below when you are ready to begin.\n      </p>\n    </div>","response":0,"trial_type":"html-button-response","trial_index":4,"plugin_version":"2.1.0","time_elapsed":18231,"subject_id":"92294","group":"Group1","condition":"1_Rep","full_date":"2026-02-03T05:08:53.644Z","date":"2026-02-03","time":"05:08:53"},{"rt":null,"stimulus":"<p style=\"font-size: 50px; margin: 0; text-align: center;\">+</p>","response":null,"trial_type":"html-keyboard-response","trial_index":5,"plugin_version":"2.1.0","time_elapsed":19250,"subject_id":"92294","group":"Group1","condition":"1_Rep","full_date":"2026-02-03T05:08:53.644Z","date":"2026-02-03","time":"05:08:53"},{"task":"memory_phase","broad_category":"M","image_png":"M_Slate_03.png","image_id":307,"category_name":"Slate","category":20,"distinct_rating":1.87,"distinct_type":"Bottom","rt":null,"stimulus":"Stimuli_Rocks480/M_Slate_03.png","response":null,"trial_type":"image-keyboard-response","trial_index":6,"plugin_version":"2.1.0","time_elapsed":21766,"subject_id":"92294","group":"Group1","condition":"1_Rep","full_date":"2026-02-03T05:08:53.644Z","date":"2026-02-03","time":"05:08:53"},{"rt":null,"stimulus":"<p style=\"font-size: 50px; margin: 0; text-align: center;\">+</p>","response":null,"trial_type":"html-keyboard-response","trial_index":7,"plugin_version":"2.1.0","time_elapsed":22782,"subject_id":"92294","group":"Group1","condition":"1_Rep","full_date":"2026-02-03T05:08:53.644Z","date":"2026-02-03","time":"05:08:53"},{"task":"memory_phase","broad_category":"I","image_png":"I_Pumice_08.png","image_id":136,"category_name":"Pumice","category":9,"distinct_rating":3.1,"distinct_type":"Bottom","rt":null,"stimulus":"Stimuli_Rocks480/I_Pumice_08.png","response":null,"trial_type":"image-keyboard-response","trial_index":8,"plugin_version":"2.1.0","time_elapsed":25301,"subject_id":"92294","group":"Group1","condition":"1_Rep","full_date":"2026-02-03T05:08:53.644Z","date":"2026-02-03","time":"05:08:53"},{"rt":null,"stimulus":"<p style=\"font-size: 50px; margin: 0; text-align: center;\">+</p>","response":null,"trial_type":"html-keyboard-response","trial_index":9,"plugin_version":"2.1.0","time_elapsed":26304,"subject_id":"92294","group":"Group1","condition":"1_Rep","full_date":"2026-02-03T05:08:53.644Z","date":"2026-02-03","time":"05:08:53"},{"task":"memory_phase","broad_category":"M","image_png":"M_Gneiss_06.png","image_id":198,"category_name":"Gneiss","category":13,"distinct_rating":2.65,"distinct_type":"Bottom","rt":null,"stimulus":"Stimuli_Rocks480/M_Gneiss_06.png","response":null,"trial_type":"image-keyboard-response","trial_index":10,"plugin_version":"2.1.0","time_elapsed":28818,"subject_id":"92294","group":"Group1","condition":"1_Rep","full_date":"2026-02-03T05:08:53.644Z","date":"2026-02-03","time":"05:08:53"},{"rt":null,"stimulus":"<p style=\"font-size: 50px; margin: 0; text-align: center;\">+</p>","response":null,"trial_type":"html-keyboard-response","trial_index":11,"plugin_version":"2.1.0","time_elapsed":29829,"subject_id":"92294","group":"Group1","condition":"1_Rep","full_date":"2026-02-03T05:08:53.644Z","date":"2026-02-03","time":"05:08:53"},{"task":"memory_phase","broad_category":"I","image_png":"I_Gabbro_16.png","image_id":64,"category_name":"Gabbro","category":4,"distinct_rating":2.52,"distinct_type":"Bottom","rt":null,"stimulus":"Stimuli_Rocks480/I_Gabbro_16.png","response":null,"trial_type":"image-keyboard-response","trial_index":12,"plugin_version":"2.1.0","time_elapsed":32349,"subject_id":"92294","group":"Group1","condition":"1_Rep","full_date":"2026-02-03T05:08:53.644Z","date":"2026-02-03","time":"05:08:53"},{"rt":null,"stimulus":"<p style=\"font-size: 50px; margin: 0; text-align: center;\">+</p>","response":null,"trial_type":"html-keyboard-response","trial_index":13,"plugin_version":"2.1.0","time_elapsed":33364,"subject_id":"92294","group":"Group1","condition":"1_Rep","full_date":"2026-02-03T05:08:53.644Z","date":"2026-02-03","time":"05:08:53"},{"task":"memory_phase","broad_category":"M","image_png":"M_Slate_11.png","image_id":315,"category_name":"Slate","category":20,"distinct_rating":2.75,"distinct_type":"Bottom","rt":null,"stimulus":"Stimuli_Rocks480/M_Slate_11.png","response":null,"trial_type":"image-keyboard-response","trial_index":14,"plugin_version":"2.1.0","time_elapsed":35884,"subject_id":"92294","group":"Group1","condition":"1_Rep","full_date":"2026-02-03T05:08:53.644Z","date":"2026-02-03","time":"05:08:53"},{"rt":null,"stimulus":"<p style=\"font-size: 50px; margin: 0; text-align: center;\">+</p>","response":null,"trial_type":"html-keyboard-response","trial_index":15,"plugin_version":"2.1.0","time_elapsed":36898,"subject_id":"92294","group":"Group1","condition":"1_Rep","full_date":"2026-02-03T05:08:53.644Z","date":"2026-02-03","time":"05:08:53"},{"task":"memory_phase","broad_category":"I","image_png":"I_Obsidian_05.png","image_id":85,"category_name":"Obsidian","category":6,"distinct_rating":7.32,"distinct_type":"Top","rt":null,"stimulus":"Stimuli_Rocks480/I_Obsidian_05.png","response":null,"trial_type":"image-keyboard-response","trial_index":16,"plugin_version":"2.1.0","time_elapsed":39402,"subject_id":"92294","group":"Group1","condition":"1_Rep","full_date":"2026-02-03T05:08:53.644Z","date":"2026-02-03","time":"05:08:53"},{"rt":null,"stimulus":"<p style=\"font-size: 50px; margin: 0; text-align: center;\">+</p>","response":null,"trial_type":"html-keyboard-response","trial_index":17,"plugin_version":"2.1.0","time_elapsed":40405,"subject_id":"92294","group":"Group1","condition":"1_Rep","full_date":"2026-02-03T05:08:53.644Z","date":"2026-02-03","time":"05:08:53"},{"task":"memory_phase","broad_category":"I","image_png":"I_Basalt_01.png","image_id":17,"category_name":"Basalt","category":2,"distinct_rating":1.92,"distinct_type":"Bottom","rt":null,"stimulus":"Stimuli_Rocks480/I_Basalt_01.png","response":null,"trial_type":"image-keyboard-response","trial_index":18,"plugin_version":"2.1.0","time_elapsed":42917,"subject_id":"92294","group":"Group1","condition":"1_Rep","full_date":"2026-02-03T05:08:53.644Z","date":"2026-02-03","time":"05:08:53"},{"rt":null,"stimulus":"<p style=\"font-size: 50px; margin: 0; text-align: center;\">+</p>","response":null,"trial_type":"html-keyboard-response","trial_index":19,"plugin_version":"2.1.0","time_elapsed":43924,"subject_id":"92294","group":"Group1","condition":"1_Rep","full_date":"2026-02-03T05:08:53.644Z","date":"2026-02-03","time":"05:08:53"},{"task":"memory_phase","broad_category":"S","image_png":"S_Chert_10.png","image_id":362,"category_name":"Chert","category":23,"distinct_rating":7.17,"distinct_type":"Top","rt":null,"stimulus":"Stimuli_Rocks480/S_Chert_10.png","response":null,"trial_type":"image-keyboard-response","trial_index":20,"plugin_version":"2.1.0","time_elapsed":46435,"subject_id":"92294","group":"Group1","condition":"1_Rep","full_date":"2026-02-03T05:08:53.644Z","date":"2026-02-03","time":"05:08:53"},{"rt":null,"stimulus":"<p style=\"font-size: 50px; margin: 0; text-align: center;\">+</p>","response":null,"trial_type":"html-keyboard-response","trial_index":21,"plugin_version":"2.1.0","time_elapsed":47443,"subject_id":"92294","group":"Group1","condition":"1_Rep","full_date":"2026-02-03T05:08:53.644Z","date":"2026-02-03","time":"05:08:53"},{"task":"memory_phase","broad_category":"M","image_png":"M_Phyllite_03.png","image_id":259,"category_name":"Phyllite","category":17,"distinct_rating":2.5,"distinct_type":"Bottom","rt":null,"stimulus":"Stimuli_Rocks480/M_Phyllite_03.png","response":null,"trial_type":"image-keyboard-response","trial_index":22,"plugin_version":"2.1.0","time_elapsed":49960,"subject_id":"92294","group":"Group1","condition":"1_Rep","full_date":"2026-02-03T05:08:53.644Z","date":"2026-02-03","time":"05:08:53"},{"rt":null,"stimulus":"<p style=\"font-size: 50px; margin: 0; text-align: center;\">+</p>","response":null,"trial_type":"html-keyboard-response","trial_index":23,"plugin_version":"2.1.0","time_elapsed":50961,"subject_id":"92294","group":"Group1","condition":"1_Rep","full_date":"2026-02-03T05:08:53.644Z","date":"2026-02-03","time":"05:08:53"},{"task":"memory_phase","broad_category":"S","image_png":"S_Shale_12.png","image_id":476,"category_name":"Shale","category":30,"distinct_rating":2.48,"distinct_type":"Bottom","rt":null,"stimulus":"Stimuli_Rocks480/S_Shale_12.png","response":null,"trial_type":"image-keyboard-response","trial_index":24,"plugin_version":"2.1.0","time_elapsed":53477,"subject_id":"92294","group":"Group1","condition":"1_Rep","full_date":"2026-02-03T05:08:53.644Z","date":"2026-02-03","time":"05:08:53"},{"rt":null,"stimulus":"<p style=\"font-size: 50px; margin: 0; text-align: center;\">+</p>","response":null,"trial_type":"html-keyboard-response","trial_index":25,"plugin_version":"2.1.0","time_elapsed":54478,"subject_id":"92294","group":"Group1","condition":"1_Rep","full_date":"2026-02-03T05:08:53.644Z","date":"2026-02-03","time":"05:08:53"},{"task":"memory_phase","broad_category":"I","image_png":"I_Rhyolite_14.png","image_id":158,"category_name":"Rhyolite","category":10,"distinct_rating":2.59,"distinct_type":"Bottom","rt":null,"stimulus":"Stimuli_Rocks480/I_Rhyolite_14.png","response":null,"trial_type":"image-keyboard-response","trial_index":26,"plugin_version":"2.1.0","time_elapsed":56987,"subject_id":"92294","group":"Group1","condition":"1_Rep","full_date":"2026-02-03T05:08:53.644Z","date":"2026-02-03","time":"05:08:53"},{"rt":null,"stimulus":"<p style=\"font-size: 50px; margin: 0; text-align: center;\">+</p>","response":null,"trial_type":"html-keyboard-response","trial_index":27,"plugin_version":"2.1.0","time_elapsed":57989,"subject_id":"92294","group":"Group1","condition":"1_Rep","full_date":"2026-02-03T05:08:53.644Z","date":"2026-02-03","time":"05:08:53"},{"task":"memory_phase","broad_category":"I","image_png":"I_Diorite_04.png","image_id":36,"category_name":"Diorite","category":3,"distinct_rating":2.98,"distinct_type":"Bottom","rt":null,"stimulus":"Stimuli_Rocks480/I_Diorite_04.png","response":null,"trial_type":"image-keyboard-response","trial_index":28,"plugin_version":"2.1.0","time_elapsed":60511,"subject_id":"92294","group":"Group1","condition":"1_Rep","full_date":"2026-02-03T05:08:53.644Z","date":"2026-02-03","time":"05:08:53"},{"rt":null,"stimulus":"<p style=\"font-size: 50px; margin: 0; text-align: center;\">+</p>","response":null,"trial_type":"html-keyboard-response","trial_index":29,"plugin_version":"2.1.0","time_elapsed":61523,"subject_id":"92294","group":"Group1","condition":"1_Rep","full_date":"2026-02-03T05:08:53.644Z","date":"2026-02-03","time":"05:08:53"},{"task":"memory_phase","broad_category":"M","image_png":"M_Slate_15.png","image_id":319,"category_name":"Slate","category":20,"distinct_rating":2.13,"distinct_type":"Bottom","rt":null,"stimulus":"Stimuli_Rocks480/M_Slate_15.png","response":null,"trial_type":"image-keyboard-response","trial_index":30,"plugin_version":"2.1.0","time_elapsed":64036,"subject_id":"92294","group":"Group1","condition":"1_Rep","full_date":"2026-02-03T05:08:53.644Z","date":"2026-02-03","time":"05:08:53"},{"rt":null,"stimulus":"<p style=\"font-size: 50px; margin: 0; text-align: center;\">+</p>","response":null,"trial_type":"html-keyboard-response","trial_index":31,"plugin_version":"2.1.0","time_elapsed":65050,"subject_id":"92294","group":"Group1","condition":"1_Rep","full_date":"2026-02-03T05:08:53.644Z","date":"2026-02-03","time":"05:08:53"},{"task":"memory_phase","broad_category":"I","image_png":"I_Diorite_03.png","image_id":35,"category_name":"Diorite","category":3,"distinct_rating":3.14,"distinct_type":"Bottom","rt":null,"stimulus":"Stimuli_Rocks480/I_Diorite_03.png","response":null,"trial_type":"image-keyboard-response","trial_index":32,"plugin_version":"2.1.0","time_elapsed":67561,"subject_id":"92294","group":"Group1","condition":"1_Rep","full_date":"2026-02-03T05:08:53.644Z","date":"2026-02-03","time":"05:08:53"},{"rt":null,"stimulus":"<p style=\"font-size: 50px; margin: 0; text-align: center;\">+</p>","response":null,"trial_type":"html-keyboard-response","trial_index":33,"plugin_version":"2.1.0","time_elapsed":68577,"subject_id":"92294","group":"Group1","condition":"1_Rep","full_date":"2026-02-03T05:08:53.644Z","date":"2026-02-03","time":"05:08:53"},{"task":"memory_phase","broad_category":"I","image_png":"I_Diorite_05.png","image_id":37,"category_name":"Diorite","category":3,"distinct_rating":3.08,"distinct_type":"Bottom","rt":null,"stimulus":"Stimuli_Rocks480/I_Diorite_05.png","response":null,"trial_type":"image-keyboard-response","trial_index":34,"plugin_version":"2.1.0","time_elapsed":71093,"subject_id":"92294","group":"Group1","condition":"1_Rep","full_date":"2026-02-03T05:08:53.644Z","date":"2026-02-03","time":"05:08:53"},{"rt":null,"stimulus":"<p style=\"font-size: 50px; margin: 0; text-align: center;\">+</p>","response":null,"trial_type":"html-keyboard-response","trial_index":35,"plugin_version":"2.1.0","time_elapsed":72094,"subject_id":"92294","group":"Group1","condition":"1_Rep","full_date":"2026-02-03T05:08:53.644Z","date":"2026-02-03","time":"05:08:53"},{"task":"memory_phase","broad_category":"S","image_png":"S_Rock Salt_01.png","image_id":433,"category_name":"Rock Salt","category":28,"distinct_rating":7.18,"distinct_type":"Top","rt":null,"stimulus":"Stimuli_Rocks480/S_Rock Salt_01.png","response":null,"trial_type":"image-keyboard-response","trial_index":36,"plugin_version":"2.1.0","time_elapsed":74602,"subject_id":"92294","group":"Group1","condition":"1_Rep","full_date":"2026-02-03T05:08:53.644Z","date":"2026-02-03","time":"05:08:53"},{"rt":null,"stimulus":"<p style=\"font-size: 50px; margin: 0; text-align: center;\">+</p>","response":null,"trial_type":"html-keyboard-response","trial_index":37,"plugin_version":"2.1.0","time_elapsed":75610,"subject_id":"92294","group":"Group1","condition":"1_Rep","full_date":"2026-02-03T05:08:53.644Z","date":"2026-02-03","time":"05:08:53"},{"task":"memory_phase","broad_category":"I","image_png":"I_Pumice_12.png","image_id":140,"category_name":"Pumice","category":9,"distinct_rating":2.97,"distinct_type":"Bottom","rt":null,"stimulus":"Stimuli_Rocks480/I_Pumice_12.png","response":null,"trial_type":"image-keyboard-response","trial_index":38,"plugin_version":"2.1.0","time_elapsed":78113,"subject_id":"92294","group":"Group1","condition":"1_Rep","full_date":"2026-02-03T05:08:53.644Z","date":"2026-02-03","time":"05:08:53"},{"rt":null,"stimulus":"<p style=\"font-size: 50px; margin: 0; text-align: center;\">+</p>","response":null,"trial_type":"html-keyboard-response","trial_index":39,"plugin_version":"2.1.0","time_elapsed":79116,"subject_id":"92294","group":"Group1","condition":"1_Rep","full_date":"2026-02-03T05:08:53.644Z","date":"2026-02-03","time":"05:08:53"},{"task":"memory_phase","broad_category":"I","image_png":"I_Gabbro_08.png","image_id":56,"category_name":"Gabbro","category":4,"distinct_rating":3.02,"distinct_type":"Bottom","rt":null,"stimulus":"Stimuli_Rocks480/I_Gabbro_08.png","response":null,"trial_type":"image-keyboard-response","trial_index":40,"plugin_version":"2.1.0","time_elapsed":81628,"subject_id":"92294","group":"Group1","condition":"1_Rep","full_date":"2026-02-03T05:08:53.644Z","date":"2026-02-03","time":"05:08:53"},{"rt":null,"stimulus":"<p style=\"font-size: 50px; margin: 0; text-align: center;\">+</p>","response":null,"trial_type":"html-keyboard-response","trial_index":41,"plugin_version":"2.1.0","time_elapsed":82630,"subject_id":"92294","group":"Group1","condition":"1_Rep","full_date":"2026-02-03T05:08:53.644Z","date":"2026-02-03","time":"05:08:53"},{"task":"memory_phase","broad_category":"I","image_png":"I_Andesite_10.png","image_id":10,"category_name":"Andesite","category":1,"distinct_rating":3.15,"distinct_type":"Bottom","rt":null,"stimulus":"Stimuli_Rocks480/I_Andesite_10.png","response":null,"trial_type":"image-keyboard-response","trial_index":42,"plugin_version":"2.1.0","time_elapsed":85137,"subject_id":"92294","group":"Group1","condition":"1_Rep","full_date":"2026-02-03T05:08:53.644Z","date":"2026-02-03","time":"05:08:53"},{"rt":null,"stimulus":"<p style=\"font-size: 50px; margin: 0; text-align: center;\">+</p>","response":null,"trial_type":"html-keyboard-response","trial_index":43,"plugin_version":"2.1.0","time_elapsed":86151,"subject_id":"92294","group":"Group1","condition":"1_Rep","full_date":"2026-02-03T05:08:53.644Z","date":"2026-02-03","time":"05:08:53"},{"task":"memory_phase","broad_category":"I","image_png":"I_Basalt_09.png","image_id":25,"category_name":"Basalt","category":2,"distinct_rating":1.89,"distinct_type":"Bottom","rt":null,"stimulus":"Stimuli_Rocks480/I_Basalt_09.png","response":null,"trial_type":"image-keyboard-response","trial_index":44,"plugin_version":"2.1.0","time_elapsed":88662,"subject_id":"92294","group":"Group1","condition":"1_Rep","full_date":"2026-02-03T05:08:53.644Z","date":"2026-02-03","time":"05:08:53"},{"rt":null,"stimulus":"<p style=\"font-size: 50px; margin: 0; text-align: center;\">+</p>","response":null,"trial_type":"html-keyboard-response","trial_index":45,"plugin_version":"2.1.0","time_elapsed":89669,"subject_id":"92294","group":"Group1","condition":"1_Rep","full_date":"2026-02-03T05:08:53.644Z","date":"2026-02-03","time":"05:08:53"},{"task":"memory_phase","broad_category":"M","image_png":"M_Phyllite_10.png","image_id":266,"category_name":"Phyllite","category":17,"distinct_rating":2.6,"distinct_type":"Bottom","rt":null,"stimulus":"Stimuli_Rocks480/M_Phyllite_10.png","response":null,"trial_type":"image-keyboard-response","trial_index":46,"plugin_version":"2.1.0","time_elapsed":92178,"subject_id":"92294","group":"Group1","condition":"1_Rep","full_date":"2026-02-03T05:08:53.644Z","date":"2026-02-03","time":"05:08:53"},{"rt":null,"stimulus":"<p style=\"font-size: 50px; margin: 0; text-align: center;\">+</p>","response":null,"trial_type":"html-keyboard-response","trial_index":47,"plugin_version":"2.1.0","time_elapsed":93190,"subject_id":"92294","group":"Group1","condition":"1_Rep","full_date":"2026-02-03T05:08:53.644Z","date":"2026-02-03","time":"05:08:53"},{"task":"memory_phase","broad_category":"S","image_png":"S_Dolomite_14.png","image_id":398,"category_name":"Dolomite","category":25,"distinct_rating":1.43,"distinct_type":"Bottom","rt":null,"stimulus":"Stimuli_Rocks480/S_Dolomite_14.png","response":null,"trial_type":"image-keyboard-response","trial_index":48,"plugin_version":"2.1.0","time_elapsed":95699,"subject_id":"92294","group":"Group1","condition":"1_Rep","full_date":"2026-02-03T05:08:53.644Z","date":"2026-02-03","time":"05:08:53"},{"rt":null,"stimulus":"<p style=\"font-size: 50px; margin: 0; text-align: center;\">+</p>","response":null,"trial_type":"html-keyboard-response","trial_index":49,"plugin_version":"2.1.0","time_elapsed":96702,"subject_id":"92294","group":"Group1","condition":"1_Rep","full_date":"2026-02-03T05:08:53.644Z","date":"2026-02-03","time":"05:08:53"},{"task":"memory_phase","broad_category":"I","image_png":"I_Basalt_02.png","image_id":18,"category_name":"Basalt","category":2,"distinct_rating":1.84,"distinct_type":"Bottom","rt":null,"stimulus":"Stimuli_Rocks480/I_Basalt_02.png","response":null,"trial_type":"image-keyboard-response","trial_index":50,"plugin_version":"2.1.0","time_elapsed":99215,"subject_id":"92294","group":"Group1","condition":"1_Rep","full_date":"2026-02-03T05:08:53.644Z","date":"2026-02-03","time":"05:08:53"},{"rt":null,"stimulus":"<p style=\"font-size: 50px; margin: 0; text-align: center;\">+</p>","response":null,"trial_type":"html-keyboard-response","trial_index":51,"plugin_version":"2.1.0","time_elapsed":100216,"subject_id":"92294","group":"Group1","condition":"1_Rep","full_date":"2026-02-03T05:08:53.644Z","date":"2026-02-03","time":"05:08:53"},{"task":"memory_phase","broad_category":"I","image_png":"I_Rhyolite_11.png","image_id":155,"category_name":"Rhyolite","category":10,"distinct_rating":1.73,"distinct_type":"Bottom","rt":null,"stimulus":"Stimuli_Rocks480/I_Rhyolite_11.png","response":null,"trial_type":"image-keyboard-response","trial_index":52,"plugin_version":"2.1.0","time_elapsed":102727,"subject_id":"92294","group":"Group1","condition":"1_Rep","full_date":"2026-02-03T05:08:53.644Z","date":"2026-02-03","time":"05:08:53"},{"rt":null,"stimulus":"<p style=\"font-size: 50px; margin: 0; text-align: center;\">+</p>","response":null,"trial_type":"html-keyboard-response","trial_index":53,"plugin_version":"2.1.0","time_elapsed":103729,"subject_id":"92294","group":"Group1","condition":"1_Rep","full_date":"2026-02-03T05:08:53.644Z","date":"2026-02-03","time":"05:08:53"},{"task":"memory_phase","broad_category":"M","image_png":"M_Gneiss_05.png","image_id":197,"category_name":"Gneiss","category":13,"distinct_rating":2.97,"distinct_type":"Bottom","rt":null,"stimulus":"Stimuli_Rocks480/M_Gneiss_05.png","response":null,"trial_type":"image-keyboard-response","trial_index":54,"plugin_version":"2.1.0","time_elapsed":106247,"subject_id":"92294","group":"Group1","condition":"1_Rep","full_date":"2026-02-03T05:08:53.644Z","date":"2026-02-03","time":"05:08:53"},{"rt":3649,"stimulus":"<p style=\"max-width: 760px; margin: auto; font-size: 35px; line-height: 1.5;\">\n                Press SPACE to continue study phase\n              </p>","response":" ","trial_type":"html-keyboard-response","trial_index":55,"plugin_version":"2.1.0","time_elapsed":109898,"subject_id":"92294","group":"Group1","condition":"1_Rep","full_date":"2026-02-03T05:08:53.644Z","date":"2026-02-03","time":"05:08:53"},{"rt":null,"stimulus":"<p style=\"font-size: 50px; margin: 0; text-align: center;\">+</p>","response":null,"trial_type":"html-keyboard-response","trial_index":56,"plugin_version":"2.1.0","time_elapsed":110903,"subject_id":"92294","group":"Group1","condition":"1_Rep","full_date":"2026-02-03T05:08:53.644Z","date":"2026-02-03","time":"05:08:53"},{"task":"memory_phase","broad_category":"M","image_png":"M_Gneiss_13.png","image_id":205,"category_name":"Gneiss","category":13,"distinct_rating":3.26,"distinct_type":"Bottom","rt":null,"stimulus":"Stimuli_Rocks480/M_Gneiss_13.png","response":null,"trial_type":"image-keyboard-response","trial_index":57,"plugin_version":"2.1.0","time_elapsed":113419,"subject_id":"92294","group":"Group1","condition":"1_Rep","full_date":"2026-02-03T05:08:53.644Z","date":"2026-02-03","time":"05:08:53"},{"rt":null,"stimulus":"<p style=\"font-size: 50px; margin: 0; text-align: center;\">+</p>","response":null,"trial_type":"html-keyboard-response","trial_index":58,"plugin_version":"2.1.0","time_elapsed":114426,"subject_id":"92294","group":"Group1","condition":"1_Rep","full_date":"2026-02-03T05:08:53.644Z","date":"2026-02-03","time":"05:08:53"},{"task":"memory_phase","broad_category":"S","image_png":"S_Shale_01.png","image_id":465,"category_name":"Shale","category":30,"distinct_rating":2.7,"distinct_type":"Bottom","rt":null,"stimulus":"Stimuli_Rocks480/S_Shale_01.png","response":null,"trial_type":"image-keyboard-response","trial_index":59,"plugin_version":"2.1.0","time_elapsed":116936,"subject_id":"92294","group":"Group1","condition":"1_Rep","full_date":"2026-02-03T05:08:53.644Z","date":"2026-02-03","time":"05:08:53"},{"rt":null,"stimulus":"<p style=\"font-size: 50px; margin: 0; text-align: center;\">+</p>","response":null,"trial_type":"html-keyboard-response","trial_index":60,"plugin_version":"2.1.0","time_elapsed":117937,"subject_id":"92294","group":"Group1","condition":"1_Rep","full_date":"2026-02-03T05:08:53.644Z","date":"2026-02-03","time":"05:08:53"},{"task":"memory_phase","broad_category":"I","image_png":"I_Andesite_06.png","image_id":6,"category_name":"Andesite","category":1,"distinct_rating":3.17,"distinct_type":"Bottom","rt":null,"stimulus":"Stimuli_Rocks480/I_Andesite_06.png","response":null,"trial_type":"image-keyboard-response","trial_index":61,"plugin_version":"2.1.0","time_elapsed":120454,"subject_id":"92294","group":"Group1","condition":"1_Rep","full_date":"2026-02-03T05:08:53.644Z","date":"2026-02-03","time":"05:08:53"},{"rt":null,"stimulus":"<p style=\"font-size: 50px; margin: 0; text-align: center;\">+</p>","response":null,"trial_type":"html-keyboard-response","trial_index":62,"plugin_version":"2.1.0","time_elapsed":121457,"subject_id":"92294","group":"Group1","condition":"1_Rep","full_date":"2026-02-03T05:08:53.644Z","date":"2026-02-03","time":"05:08:53"},{"task":"memory_phase","broad_category":"M","image_png":"M_Quartzite_05.png","image_id":277,"category_name":"Quartzite","category":18,"distinct_rating":2.23,"distinct_type":"Bottom","rt":null,"stimulus":"Stimuli_Rocks480/M_Quartzite_05.png","response":null,"trial_type":"image-keyboard-response","trial_index":63,"plugin_version":"2.1.0","time_elapsed":123977,"subject_id":"92294","group":"Group1","condition":"1_Rep","full_date":"2026-02-03T05:08:53.644Z","date":"2026-02-03","time":"05:08:53"},{"rt":null,"stimulus":"<p style=\"font-size: 50px; margin: 0; text-align: center;\">+</p>","response":null,"trial_type":"html-keyboard-response","trial_index":64,"plugin_version":"2.1.0","time_elapsed":124980,"subject_id":"92294","group":"Group1","condition":"1_Rep","full_date":"2026-02-03T05:08:53.644Z","date":"2026-02-03","time":"05:08:53"},{"task":"memory_phase","broad_category":"S","image_png":"S_Sandstone_15.png","image_id":463,"category_name":"Sandstone","category":29,"distinct_rating":2,"distinct_type":"Bottom","rt":null,"stimulus":"Stimuli_Rocks480/S_Sandstone_15.png","response":null,"trial_type":"image-keyboard-response","trial_index":65,"plugin_version":"2.1.0","time_elapsed":127482,"subject_id":"92294","group":"Group1","condition":"1_Rep","full_date":"2026-02-03T05:08:53.644Z","date":"2026-02-03","time":"05:08:53"},{"rt":null,"stimulus":"<p style=\"font-size: 50px; margin: 0; text-align: center;\">+</p>","response":null,"trial_type":"html-keyboard-response","trial_index":66,"plugin_version":"2.1.0","time_elapsed":128484,"subject_id":"92294","group":"Group1","condition":"1_Rep","full_date":"2026-02-03T05:08:53.644Z","date":"2026-02-03","time":"05:08:53"},{"task":"memory_phase","broad_category":"I","image_png":"I_Rhyolite_16.png","image_id":160,"category_name":"Rhyolite","category":10,"distinct_rating":2.19,"distinct_type":"Bottom","rt":null,"stimulus":"Stimuli_Rocks480/I_Rhyolite_16.png","response":null,"trial_type":"image-keyboard-response","trial_index":67,"plugin_version":"2.1.0","time_elapsed":130993,"subject_id":"92294","group":"Group1","condition":"1_Rep","full_date":"2026-02-03T05:08:53.644Z","date":"2026-02-03","time":"05:08:53"},{"rt":null,"stimulus":"<p style=\"font-size: 50px; margin: 0; text-align: center;\">+</p>","response":null,"trial_type":"html-keyboard-response","trial_index":68,"plugin_version":"2.1.0","time_elapsed":131998,"subject_id":"92294","group":"Group1","condition":"1_Rep","full_date":"2026-02-03T05:08:53.644Z","date":"2026-02-03","time":"05:08:53"},{"task":"memory_phase","broad_category":"S","image_png":"S_Rock Gypsum_04.png","image_id":420,"category_name":"Rock Gypsum","category":27,"distinct_rating":7.61,"distinct_type":"Top","rt":null,"stimulus":"Stimuli_Rocks480/S_Rock Gypsum_04.png","response":null,"trial_type":"image-keyboard-response","trial_index":69,"plugin_version":"2.1.0","time_elapsed":134512,"subject_id":"92294","group":"Group1","condition":"1_Rep","full_date":"2026-02-03T05:08:53.644Z","date":"2026-02-03","time":"05:08:53"},{"rt":null,"stimulus":"<p style=\"font-size: 50px; margin: 0; text-align: center;\">+</p>","response":null,"trial_type":"html-keyboard-response","trial_index":70,"plugin_version":"2.1.0","time_elapsed":135519,"subject_id":"92294","group":"Group1","condition":"1_Rep","full_date":"2026-02-03T05:08:53.644Z","date":"2026-02-03","time":"05:08:53"},{"task":"memory_phase","broad_category":"I","image_png":"I_Pegmatite_16.png","image_id":112,"category_name":"Pegmatite","category":7,"distinct_rating":7.03,"distinct_type":"Top","rt":null,"stimulus":"Stimuli_Rocks480/I_Pegmatite_16.png","response":null,"trial_type":"image-keyboard-response","trial_index":71,"plugin_version":"2.1.0","time_elapsed":138030,"subject_id":"92294","group":"Group1","condition":"1_Rep","full_date":"2026-02-03T05:08:53.644Z","date":"2026-02-03","time":"05:08:53"},{"rt":null,"stimulus":"<p style=\"font-size: 50px; margin: 0; text-align: center;\">+</p>","response":null,"trial_type":"html-keyboard-response","trial_index":72,"plugin_version":"2.1.0","time_elapsed":139034,"subject_id":"92294","group":"Group1","condition":"1_Rep","full_date":"2026-02-03T05:08:53.644Z","date":"2026-02-03","time":"05:08:53"},{"task":"memory_phase","broad_category":"S","image_png":"S_Breccia_11.png","image_id":347,"category_name":"Breccia","category":22,"distinct_rating":6.7,"distinct_type":"Top","rt":null,"stimulus":"Stimuli_Rocks480/S_Breccia_11.png","response":null,"trial_type":"image-keyboard-response","trial_index":73,"plugin_version":"2.1.0","time_elapsed":141538,"subject_id":"92294","group":"Group1","condition":"1_Rep","full_date":"2026-02-03T05:08:53.644Z","date":"2026-02-03","time":"05:08:53"},{"rt":null,"stimulus":"<p style=\"font-size: 50px; margin: 0; text-align: center;\">+</p>","response":null,"trial_type":"html-keyboard-response","trial_index":74,"plugin_version":"2.1.0","time_elapsed":142539,"subject_id":"92294","group":"Group1","condition":"1_Rep","full_date":"2026-02-03T05:08:53.644Z","date":"2026-02-03","time":"05:08:53"},{"task":"memory_phase","broad_category":"S","image_png":"S_Sandstone_03.png","image_id":451,"category_name":"Sandstone","category":29,"distinct_rating":1.86,"distinct_type":"Bottom","rt":null,"stimulus":"Stimuli_Rocks480/S_Sandstone_03.png","response":null,"trial_type":"image-keyboard-response","trial_index":75,"plugin_version":"2.1.0","time_elapsed":145052,"subject_id":"92294","group":"Group1","condition":"1_Rep","full_date":"2026-02-03T05:08:53.644Z","date":"2026-02-03","time":"05:08:53"},{"rt":null,"stimulus":"<p style=\"font-size: 50px; margin: 0; text-align: center;\">+</p>","response":null,"trial_type":"html-keyboard-response","trial_index":76,"plugin_version":"2.1.0","time_elapsed":146055,"subject_id":"92294","group":"Group1","condition":"1_Rep","full_date":"2026-02-03T05:08:53.644Z","date":"2026-02-03","time":"05:08:53"},{"task":"memory_phase","broad_category":"M","image_png":"M_Marble_04.png","image_id":228,"category_name":"Marble","category":15,"distinct_rating":3.15,"distinct_type":"Bottom","rt":null,"stimulus":"Stimuli_Rocks480/M_Marble_04.png","response":null,"trial_type":"image-keyboard-response","trial_index":77,"plugin_version":"2.1.0","time_elapsed":148572,"subject_id":"92294","group":"Group1","condition":"1_Rep","full_date":"2026-02-03T05:08:53.644Z","date":"2026-02-03","time":"05:08:53"},{"rt":null,"stimulus":"<p style=\"font-size: 50px; margin: 0; text-align: center;\">+</p>","response":null,"trial_type":"html-keyboard-response","trial_index":78,"plugin_version":"2.1.0","time_elapsed":149573,"subject_id":"92294","group":"Group1","condition":"1_Rep","full_date":"2026-02-03T05:08:53.644Z","date":"2026-02-03","time":"05:08:53"},{"task":"memory_phase","broad_category":"I","image_png":"I_Andesite_08.png","image_id":8,"category_name":"Andesite","category":1,"distinct_rating":1.95,"distinct_type":"Bottom","rt":null,"stimulus":"Stimuli_Rocks480/I_Andesite_08.png","response":null,"trial_type":"image-keyboard-response","trial_index":79,"plugin_version":"2.1.0","time_elapsed":152086,"subject_id":"92294","group":"Group1","condition":"1_Rep","full_date":"2026-02-03T05:08:53.644Z","date":"2026-02-03","time":"05:08:53"},{"rt":null,"stimulus":"<p style=\"font-size: 50px; margin: 0; text-align: center;\">+</p>","response":null,"trial_type":"html-keyboard-response","trial_index":80,"plugin_version":"2.1.0","time_elapsed":153087,"subject_id":"92294","group":"Group1","condition":"1_Rep","full_date":"2026-02-03T05:08:53.644Z","date":"2026-02-03","time":"05:08:53"},{"task":"memory_phase","broad_category":"M","image_png":"M_Quartzite_08.png","image_id":280,"category_name":"Quartzite","category":18,"distinct_rating":2.15,"distinct_type":"Bottom","rt":null,"stimulus":"Stimuli_Rocks480/M_Quartzite_08.png","response":null,"trial_type":"image-keyboard-response","trial_index":81,"plugin_version":"2.1.0","time_elapsed":155596,"subject_id":"92294","group":"Group1","condition":"1_Rep","full_date":"2026-02-03T05:08:53.644Z","date":"2026-02-03","time":"05:08:53"},{"rt":null,"stimulus":"<p style=\"font-size: 50px; margin: 0; text-align: center;\">+</p>","response":null,"trial_type":"html-keyboard-response","trial_index":82,"plugin_version":"2.1.0","time_elapsed":156601,"subject_id":"92294","group":"Group1","condition":"1_Rep","full_date":"2026-02-03T05:08:53.644Z","date":"2026-02-03","time":"05:08:53"},{"task":"memory_phase","broad_category":"S","image_png":"S_Sandstone_16.png","image_id":464,"category_name":"Sandstone","category":29,"distinct_rating":1.93,"distinct_type":"Bottom","rt":null,"stimulus":"Stimuli_Rocks480/S_Sandstone_16.png","response":null,"trial_type":"image-keyboard-response","trial_index":83,"plugin_version":"2.1.0","time_elapsed":159113,"subject_id":"92294","group":"Group1","condition":"1_Rep","full_date":"2026-02-03T05:08:53.644Z","date":"2026-02-03","time":"05:08:53"},{"rt":null,"stimulus":"<p style=\"font-size: 50px; margin: 0; text-align: center;\">+</p>","response":null,"trial_type":"html-keyboard-response","trial_index":84,"plugin_version":"2.1.0","time_elapsed":160128,"subject_id":"92294","group":"Group1","condition":"1_Rep","full_date":"2026-02-03T05:08:53.644Z","date":"2026-02-03","time":"05:08:53"},{"task":"memory_phase","broad_category":"I","image_png":"I_Pegmatite_10.png","image_id":106,"category_name":"Pegmatite","category":7,"distinct_rating":7.66,"distinct_type":"Top","rt":null,"stimulus":"Stimuli_Rocks480/I_Pegmatite_10.png","response":null,"trial_type":"image-keyboard-response","trial_index":85,"plugin_version":"2.1.0","time_elapsed":162636,"subject_id":"92294","group":"Group1","condition":"1_Rep","full_date":"2026-02-03T05:08:53.644Z","date":"2026-02-03","time":"05:08:53"},{"rt":null,"stimulus":"<p style=\"font-size: 50px; margin: 0; text-align: center;\">+</p>","response":null,"trial_type":"html-keyboard-response","trial_index":86,"plugin_version":"2.1.0","time_elapsed":163651,"subject_id":"92294","group":"Group1","condition":"1_Rep","full_date":"2026-02-03T05:08:53.644Z","date":"2026-02-03","time":"05:08:53"},{"task":"memory_phase","broad_category":"S","image_png":"S_Shale_08.png","image_id":472,"category_name":"Shale","category":30,"distinct_rating":2.55,"distinct_type":"Bottom","rt":null,"stimulus":"Stimuli_Rocks480/S_Shale_08.png","response":null,"trial_type":"image-keyboard-response","trial_index":87,"plugin_version":"2.1.0","time_elapsed":166170,"subject_id":"92294","group":"Group1","condition":"1_Rep","full_date":"2026-02-03T05:08:53.644Z","date":"2026-02-03","time":"05:08:53"},{"rt":null,"stimulus":"<p style=\"font-size: 50px; margin: 0; text-align: center;\">+</p>","response":null,"trial_type":"html-keyboard-response","trial_index":88,"plugin_version":"2.1.0","time_elapsed":167186,"subject_id":"92294","group":"Group1","condition":"1_Rep","full_date":"2026-02-03T05:08:53.644Z","date":"2026-02-03","time":"05:08:53"},{"task":"memory_phase","broad_category":"M","image_png":"M_Phyllite_07.png","image_id":263,"category_name":"Phyllite","category":17,"distinct_rating":2.59,"distinct_type":"Bottom","rt":null,"stimulus":"Stimuli_Rocks480/M_Phyllite_07.png","response":null,"trial_type":"image-keyboard-response","trial_index":89,"plugin_version":"2.1.0","time_elapsed":169696,"subject_id":"92294","group":"Group1","condition":"1_Rep","full_date":"2026-02-03T05:08:53.644Z","date":"2026-02-03","time":"05:08:53"},{"rt":null,"stimulus":"<p style=\"font-size: 50px; margin: 0; text-align: center;\">+</p>","response":null,"trial_type":"html-keyboard-response","trial_index":90,"plugin_version":"2.1.0","time_elapsed":170701,"subject_id":"92294","group":"Group1","condition":"1_Rep","full_date":"2026-02-03T05:08:53.644Z","date":"2026-02-03","time":"05:08:53"},{"task":"memory_phase","broad_category":"I","image_png":"I_Pumice_11.png","image_id":139,"category_name":"Pumice","category":9,"distinct_rating":1.74,"distinct_type":"Bottom","rt":null,"stimulus":"Stimuli_Rocks480/I_Pumice_11.png","response":null,"trial_type":"image-keyboard-response","trial_index":91,"plugin_version":"2.1.0","time_elapsed":173205,"subject_id":"92294","group":"Group1","condition":"1_Rep","full_date":"2026-02-03T05:08:53.644Z","date":"2026-02-03","time":"05:08:53"},{"rt":null,"stimulus":"<p style=\"font-size: 50px; margin: 0; text-align: center;\">+</p>","response":null,"trial_type":"html-keyboard-response","trial_index":92,"plugin_version":"2.1.0","time_elapsed":174207,"subject_id":"92294","group":"Group1","condition":"1_Rep","full_date":"2026-02-03T05:08:53.644Z","date":"2026-02-03","time":"05:08:53"},{"task":"memory_phase","broad_category":"M","image_png":"M_Marble_16.png","image_id":240,"category_name":"Marble","category":15,"distinct_rating":2.57,"distinct_type":"Bottom","rt":null,"stimulus":"Stimuli_Rocks480/M_Marble_16.png","response":null,"trial_type":"image-keyboard-response","trial_index":93,"plugin_version":"2.1.0","time_elapsed":176716,"subject_id":"92294","group":"Group1","condition":"1_Rep","full_date":"2026-02-03T05:08:53.644Z","date":"2026-02-03","time":"05:08:53"},{"rt":null,"stimulus":"<p style=\"font-size: 50px; margin: 0; text-align: center;\">+</p>","response":null,"trial_type":"html-keyboard-response","trial_index":94,"plugin_version":"2.1.0","time_elapsed":177719,"subject_id":"92294","group":"Group1","condition":"1_Rep","full_date":"2026-02-03T05:08:53.644Z","date":"2026-02-03","time":"05:08:53"},{"task":"memory_phase","broad_category":"M","image_png":"M_Quartzite_13.png","image_id":285,"category_name":"Quartzite","category":18,"distinct_rating":2.27,"distinct_type":"Bottom","rt":null,"stimulus":"Stimuli_Rocks480/M_Quartzite_13.png","response":null,"trial_type":"image-keyboard-response","trial_index":95,"plugin_version":"2.1.0","time_elapsed":180235,"subject_id":"92294","group":"Group1","condition":"1_Rep","full_date":"2026-02-03T05:08:53.644Z","date":"2026-02-03","time":"05:08:53"},{"rt":null,"stimulus":"<p style=\"font-size: 50px; margin: 0; text-align: center;\">+</p>","response":null,"trial_type":"html-keyboard-response","trial_index":96,"plugin_version":"2.1.0","time_elapsed":181250,"subject_id":"92294","group":"Group1","condition":"1_Rep","full_date":"2026-02-03T05:08:53.644Z","date":"2026-02-03","time":"05:08:53"},{"task":"memory_phase","broad_category":"S","image_png":"S_Dolomite_12.png","image_id":396,"category_name":"Dolomite","category":25,"distinct_rating":1.85,"distinct_type":"Bottom","rt":null,"stimulus":"Stimuli_Rocks480/S_Dolomite_12.png","response":null,"trial_type":"image-keyboard-response","trial_index":97,"plugin_version":"2.1.0","time_elapsed":183767,"subject_id":"92294","group":"Group1","condition":"1_Rep","full_date":"2026-02-03T05:08:53.644Z","date":"2026-02-03","time":"05:08:53"},{"rt":null,"stimulus":"<p style=\"font-size: 50px; margin: 0; text-align: center;\">+</p>","response":null,"trial_type":"html-keyboard-response","trial_index":98,"plugin_version":"2.1.0","time_elapsed":184769,"subject_id":"92294","group":"Group1","condition":"1_Rep","full_date":"2026-02-03T05:08:53.644Z","date":"2026-02-03","time":"05:08:53"},{"task":"memory_phase","broad_category":"S","image_png":"S_Dolomite_13.png","image_id":397,"category_name":"Dolomite","category":25,"distinct_rating":1.77,"distinct_type":"Bottom","rt":null,"stimulus":"Stimuli_Rocks480/S_Dolomite_13.png","response":null,"trial_type":"image-keyboard-response","trial_index":99,"plugin_version":"2.1.0","time_elapsed":187279,"subject_id":"92294","group":"Group1","condition":"1_Rep","full_date":"2026-02-03T05:08:53.644Z","date":"2026-02-03","time":"05:08:53"},{"rt":null,"stimulus":"<p style=\"font-size: 50px; margin: 0; text-align: center;\">+</p>","response":null,"trial_type":"html-keyboard-response","trial_index":100,"plugin_version":"2.1.0","time_elapsed":188286,"subject_id":"92294","group":"Group1","condition":"1_Rep","full_date":"2026-02-03T05:08:53.644Z","date":"2026-02-03","time":"05:08:53"},{"task":"memory_phase","broad_category":"M","image_png":"M_Marble_06.png","image_id":230,"category_name":"Marble","category":15,"distinct_rating":3.4,"distinct_type":"Bottom","rt":null,"stimulus":"Stimuli_Rocks480/M_Marble_06.png","response":null,"trial_type":"image-keyboard-response","trial_index":101,"plugin_version":"2.1.0","time_elapsed":190803,"subject_id":"92294","group":"Group1","condition":"1_Rep","full_date":"2026-02-03T05:08:53.644Z","date":"2026-02-03","time":"05:08:53"},{"rt":null,"stimulus":"<p style=\"font-size: 50px; margin: 0; text-align: center;\">+</p>","response":null,"trial_type":"html-keyboard-response","trial_index":102,"plugin_version":"2.1.0","time_elapsed":191819,"subject_id":"92294","group":"Group1","condition":"1_Rep","full_date":"2026-02-03T05:08:53.644Z","date":"2026-02-03","time":"05:08:53"},{"task":"memory_phase","broad_category":"S","image_png":"S_Conglomerate_05.png","image_id":373,"category_name":"Conglomerate","category":24,"distinct_rating":7.32,"distinct_type":"Top","rt":null,"stimulus":"Stimuli_Rocks480/S_Conglomerate_05.png","response":null,"trial_type":"image-keyboard-response","trial_index":103,"plugin_version":"2.1.0","time_elapsed":194331,"subject_id":"92294","group":"Group1","condition":"1_Rep","full_date":"2026-02-03T05:08:53.644Z","date":"2026-02-03","time":"05:08:53"},{"rt":null,"stimulus":"<p style=\"font-size: 50px; margin: 0; text-align: center;\">+</p>","response":null,"trial_type":"html-keyboard-response","trial_index":104,"plugin_version":"2.1.0","time_elapsed":195343,"subject_id":"92294","group":"Group1","condition":"1_Rep","full_date":"2026-02-03T05:08:53.644Z","date":"2026-02-03","time":"05:08:53"},{"task":"memory_phase","broad_category":"I","image_png":"I_Gabbro_11.png","image_id":59,"category_name":"Gabbro","category":4,"distinct_rating":1.99,"distinct_type":"Bottom","rt":null,"stimulus":"Stimuli_Rocks480/I_Gabbro_11.png","response":null,"trial_type":"image-keyboard-response","trial_index":105,"plugin_version":"2.1.0","time_elapsed":197863,"subject_id":"92294","group":"Group1","condition":"1_Rep","full_date":"2026-02-03T05:08:53.644Z","date":"2026-02-03","time":"05:08:53"},{"rt":4946,"stimulus":"<div style=\"max-width: 760px; margin: auto; font-size: 20px; line-height: 1.5;\">\n      <h1 style=\"text-align:center; font-size: 30px;\">Instructions for the Test Phase</h1>\n      <p>\n        The study phase is now complete.\n      </p>\n      <p>\n        In the test phase, you will again see a series of rock images. \n        Some will be ones you saw before - during the study phase, while others will be new.  \n        <b>Your task</b> is to decide whether you have seen each image before by pressing the corresponding key on your keyboard:<br><br>\n          <b>A</b> - NO (you did not see this image before)<br>\n          <b>L</b> - YES (you saw this image before)<br><br>\n        The test will proceed at your own pace. You will receive feedback after each response.  \n        Please try to respond <b>as accurately as possible</b>.\n      </p>\n      <p>\n        <b>Reminder:</b> If your computer has multiple language settings (e.g., English and another language),\n        please ensure it is set to English during the test phase.\n      </p>\n      <p>\n        You can track your progress using the <b>completion bar</b> at the top of the screen.  \n        Note that it has been refreshed to reflect your progress during this final phase.\n      </p>\n      <p>\n        Press the button below when you are ready to continue.\n      </p>\n    </div>","response":0,"trial_type":"html-button-response","trial_index":106,"plugin_version":"2.1.0","time_elapsed":202812,"subject_id":"92294","group":"Group1","condition":"1_Rep","full_date":"2026-02-03T05:08:53.644Z","date":"2026-02-03","time":"05:08:53"},{"correct_response":"a","task":"test_phase","broad_category":"I","image_png":"I_Gabbro_14.png","image_id":62,"category_name":"Gabbro","category":4,"distinct_rating":2.95,"distinct_type":"Bottom","item_type":"Foil","rt":3305,"stimulus":"Stimuli_Rocks480/I_Gabbro_14.png","response":"l","trial_type":"image-keyboard-response","trial_index":107,"plugin_version":"2.1.0","time_elapsed":206122,"subject_id":"92294","group":"Group1","condition":"1_Rep","full_date":"2026-02-03T05:08:53.644Z","date":"2026-02-03","time":"05:08:53","cor_ans":false},{"trial_type":"html-keyboard-response","rt":null,"stimulus":"<p style=\"color: red; font-size: 50px; font-weight: bold;\">Incorrect</p>","response":null,"trial_index":108,"plugin_version":"2.1.0","time_elapsed":206637,"subject_id":"92294","group":"Group1","condition":"1_Rep","full_date":"2026-02-03T05:08:53.644Z","date":"2026-02-03","time":"05:08:53"},{"correct_response":"l","task":"test_phase","broad_category":"M","image_png":"M_Marble_04.png","image_id":228,"category_name":"Marble","category":15,"distinct_rating":3.15,"distinct_type":"Bottom","item_type":"Target","rt":4304,"stimulus":"Stimuli_Rocks480/M_Marble_04.png","response":"a","trial_type":"image-keyboard-response","trial_index":109,"plugin_version":"2.1.0","time_elapsed":210943,"subject_id":"92294","group":"Group1","condition":"1_Rep","full_date":"2026-02-03T05:08:53.644Z","date":"2026-02-03","time":"05:08:53","cor_ans":false},{"trial_type":"html-keyboard-response","rt":null,"stimulus":"<p style=\"color: red; font-size: 50px; font-weight: bold;\">Incorrect</p>","response":null,"trial_index":110,"plugin_version":"2.1.0","time_elapsed":211448,"subject_id":"92294","group":"Group1","condition":"1_Rep","full_date":"2026-02-03T05:08:53.644Z","date":"2026-02-03","time":"05:08:53"},{"correct_response":"l","task":"test_phase","broad_category":"I","image_png":"I_Gabbro_08.png","image_id":56,"category_name":"Gabbro","category":4,"distinct_rating":3.02,"distinct_type":"Bottom","item_type":"Target","rt":2264,"stimulus":"Stimuli_Rocks480/I_Gabbro_08.png","response":"l","trial_type":"image-keyboard-response","trial_index":111,"plugin_version":"2.1.0","time_elapsed":213714,"subject_id":"92294","group":"Group1","condition":"1_Rep","full_date":"2026-02-03T05:08:53.644Z","date":"2026-02-03","time":"05:08:53","cor_ans":true},{"trial_type":"html-keyboard-response","rt":null,"stimulus":"<p style=\"color: green; font-size: 50px; font-weight: bold;\">Correct</p>","response":null,"trial_index":112,"plugin_version":"2.1.0","time_elapsed":214217,"subject_id":"92294","group":"Group1","condition":"1_Rep","full_date":"2026-02-03T05:08:53.644Z","date":"2026-02-03","time":"05:08:53"},{"correct_response":"a","task":"test_phase","broad_category":"M","image_png":"M_Phyllite_05.png","image_id":261,"category_name":"Phyllite","category":17,"distinct_rating":2.14,"distinct_type":"Bottom","item_type":"Foil","rt":891,"stimulus":"Stimuli_Rocks480/M_Phyllite_05.png","response":"l","trial_type":"image-keyboard-response","trial_index":113,"plugin_version":"2.1.0","time_elapsed":215111,"subject_id":"92294","group":"Group1","condition":"1_Rep","full_date":"2026-02-03T05:08:53.644Z","date":"2026-02-03","time":"05:08:53","cor_ans":false},{"trial_type":"html-keyboard-response","rt":null,"stimulus":"<p style=\"color: red; font-size: 50px; font-weight: bold;\">Incorrect</p>","response":null,"trial_index":114,"plugin_version":"2.1.0","time_elapsed":215619,"subject_id":"92294","group":"Group1","condition":"1_Rep","full_date":"2026-02-03T05:08:53.644Z","date":"2026-02-03","time":"05:08:53"},{"correct_response":"l","task":"test_phase","broad_category":"I","image_png":"I_Andesite_06.png","image_id":6,"category_name":"Andesite","category":1,"distinct_rating":3.17,"distinct_type":"Bottom","item_type":"Target","rt":8593,"stimulus":"Stimuli_Rocks480/I_Andesite_06.png","response":"l","trial_type":"image-keyboard-response","trial_index":115,"plugin_version":"2.1.0","time_elapsed":224215,"subject_id":"92294","group":"Group1","condition":"1_Rep","full_date":"2026-02-03T05:08:53.644Z","date":"2026-02-03","time":"05:08:53","cor_ans":true},{"trial_type":"html-keyboard-response","rt":null,"stimulus":"<p style=\"color: green; font-size: 50px; font-weight: bold;\">Correct</p>","response":null,"trial_index":116,"plugin_version":"2.1.0","time_elapsed":224728,"subject_id":"92294","group":"Group1","condition":"1_Rep","full_date":"2026-02-03T05:08:53.644Z","date":"2026-02-03","time":"05:08:53"},{"correct_response":"a","task":"test_phase","broad_category":"S","image_png":"S_Shale_02.png","image_id":466,"category_name":"Shale","category":30,"distinct_rating":2.9,"distinct_type":"Bottom","item_type":"Foil","rt":1515,"stimulus":"Stimuli_Rocks480/S_Shale_02.png","response":"a","trial_type":"image-keyboard-response","trial_index":117,"plugin_version":"2.1.0","time_elapsed":226246,"subject_id":"92294","group":"Group1","condition":"1_Rep","full_date":"2026-02-03T05:08:53.644Z","date":"2026-02-03","time":"05:08:53","cor_ans":true},{"trial_type":"html-keyboard-response","rt":null,"stimulus":"<p style=\"color: green; font-size: 50px; font-weight: bold;\">Correct</p>","response":null,"trial_index":118,"plugin_version":"2.1.0","time_elapsed":226753,"subject_id":"92294","group":"Group1","condition":"1_Rep","full_date":"2026-02-03T05:08:53.644Z","date":"2026-02-03","time":"05:08:53"},{"correct_response":"a","task":"test_phase","broad_category":"I","image_png":"I_Andesite_09.png","image_id":9,"category_name":"Andesite","category":1,"distinct_rating":2.49,"distinct_type":"Bottom","item_type":"Foil","rt":1326,"stimulus":"Stimuli_Rocks480/I_Andesite_09.png","response":"l","trial_type":"image-keyboard-response","trial_index":119,"plugin_version":"2.1.0","time_elapsed":228081,"subject_id":"92294","group":"Group1","condition":"1_Rep","full_date":"2026-02-03T05:08:53.644Z","date":"2026-02-03","time":"05:08:53","cor_ans":false},{"trial_type":"html-keyboard-response","rt":null,"stimulus":"<p style=\"color: red; font-size: 50px; font-weight: bold;\">Incorrect</p>","response":null,"trial_index":120,"plugin_version":"2.1.0","time_elapsed":228594,"subject_id":"92294","group":"Group1","condition":"1_Rep","full_date":"2026-02-03T05:08:53.644Z","date":"2026-02-03","time":"05:08:53"},{"correct_response":"a","task":"test_phase","broad_category":"M","image_png":"M_Phyllite_13.png","image_id":269,"category_name":"Phyllite","category":17,"distinct_rating":2.8,"distinct_type":"Bottom","item_type":"Foil","rt":2742,"stimulus":"Stimuli_Rocks480/M_Phyllite_13.png","response":"l","trial_type":"image-keyboard-response","trial_index":121,"plugin_version":"2.1.0","time_elapsed":231338,"subject_id":"92294","group":"Group1","condition":"1_Rep","full_date":"2026-02-03T05:08:53.644Z","date":"2026-02-03","time":"05:08:53","cor_ans":false},{"trial_type":"html-keyboard-response","rt":null,"stimulus":"<p style=\"color: red; font-size: 50px; font-weight: bold;\">Incorrect</p>","response":null,"trial_index":122,"plugin_version":"2.1.0","time_elapsed":231850,"subject_id":"92294","group":"Group1","condition":"1_Rep","full_date":"2026-02-03T05:08:53.644Z","date":"2026-02-03","time":"05:08:53"},{"correct_response":"l","task":"test_phase","broad_category":"I","image_png":"I_Pegmatite_16.png","image_id":112,"category_name":"Pegmatite","category":7,"distinct_rating":7.03,"distinct_type":"Top","item_type":"Target","rt":1094,"stimulus":"Stimuli_Rocks480/I_Pegmatite_16.png","response":"a","trial_type":"image-keyboard-response","trial_index":123,"plugin_version":"2.1.0","time_elapsed":232947,"subject_id":"92294","group":"Group1","condition":"1_Rep","full_date":"2026-02-03T05:08:53.644Z","date":"2026-02-03","time":"05:08:53","cor_ans":false},{"trial_type":"html-keyboard-response","rt":null,"stimulus":"<p style=\"color: red; font-size: 50px; font-weight: bold;\">Incorrect</p>","response":null,"trial_index":124,"plugin_version":"2.1.0","time_elapsed":233461,"subject_id":"92294","group":"Group1","condition":"1_Rep","full_date":"2026-02-03T05:08:53.644Z","date":"2026-02-03","time":"05:08:53"},{"correct_response":"l","task":"test_phase","broad_category":"S","image_png":"S_Dolomite_13.png","image_id":397,"category_name":"Dolomite","category":25,"distinct_rating":1.77,"distinct_type":"Bottom","item_type":"Target","rt":2051,"stimulus":"Stimuli_Rocks480/S_Dolomite_13.png","response":"l","trial_type":"image-keyboard-response","trial_index":125,"plugin_version":"2.1.0","time_elapsed":235522,"subject_id":"92294","group":"Group1","condition":"1_Rep","full_date":"2026-02-03T05:08:53.644Z","date":"2026-02-03","time":"05:08:53","cor_ans":true},{"trial_type":"html-keyboard-response","rt":null,"stimulus":"<p style=\"color: green; font-size: 50px; font-weight: bold;\">Correct</p>","response":null,"trial_index":126,"plugin_version":"2.1.0","time_elapsed":236031,"subject_id":"92294","group":"Group1","condition":"1_Rep","full_date":"2026-02-03T05:08:53.644Z","date":"2026-02-03","time":"05:08:53"},{"correct_response":"a","task":"test_phase","broad_category":"M","image_png":"M_Marble_14.png","image_id":238,"category_name":"Marble","category":15,"distinct_rating":3.31,"distinct_type":"Bottom","item_type":"Foil","rt":1863,"stimulus":"Stimuli_Rocks480/M_Marble_14.png","response":"a","trial_type":"image-keyboard-response","trial_index":127,"plugin_version":"2.1.0","time_elapsed":237896,"subject_id":"92294","group":"Group1","condition":"1_Rep","full_date":"2026-02-03T05:08:53.644Z","date":"2026-02-03","time":"05:08:53","cor_ans":true},{"trial_type":"html-keyboard-response","rt":null,"stimulus":"<p style=\"color: green; font-size: 50px; font-weight: bold;\">Correct</p>","response":null,"trial_index":128,"plugin_version":"2.1.0","time_elapsed":238411,"subject_id":"92294","group":"Group1","condition":"1_Rep","full_date":"2026-02-03T05:08:53.644Z","date":"2026-02-03","time":"05:08:53"},{"correct_response":"l","task":"test_phase","broad_category":"I","image_png":"I_Andesite_10.png","image_id":10,"category_name":"Andesite","category":1,"distinct_rating":3.15,"distinct_type":"Bottom","item_type":"Target","rt":9843,"stimulus":"Stimuli_Rocks480/I_Andesite_10.png","response":"l","trial_type":"image-keyboard-response","trial_index":129,"plugin_version":"2.1.0","time_elapsed":248259,"subject_id":"92294","group":"Group1","condition":"1_Rep","full_date":"2026-02-03T05:08:53.644Z","date":"2026-02-03","time":"05:08:53","cor_ans":true},{"trial_type":"html-keyboard-response","rt":null,"stimulus":"<p style=\"color: green; font-size: 50px; font-weight: bold;\">Correct</p>","response":null,"trial_index":130,"plugin_version":"2.1.0","time_elapsed":248768,"subject_id":"92294","group":"Group1","condition":"1_Rep","full_date":"2026-02-03T05:08:53.644Z","date":"2026-02-03","time":"05:08:53"},{"correct_response":"l","task":"test_phase","broad_category":"S","image_png":"S_Conglomerate_05.png","image_id":373,"category_name":"Conglomerate","category":24,"distinct_rating":7.32,"distinct_type":"Top","item_type":"Target","rt":2075,"stimulus":"Stimuli_Rocks480/S_Conglomerate_05.png","response":"l","trial_type":"image-keyboard-response","trial_index":131,"plugin_version":"2.1.0","time_elapsed":250845,"subject_id":"92294","group":"Group1","condition":"1_Rep","full_date":"2026-02-03T05:08:53.644Z","date":"2026-02-03","time":"05:08:53","cor_ans":true},{"trial_type":"html-keyboard-response","rt":null,"stimulus":"<p style=\"color: green; font-size: 50px; font-weight: bold;\">Correct</p>","response":null,"trial_index":132,"plugin_version":"2.1.0","time_elapsed":251353,"subject_id":"92294","group":"Group1","condition":"1_Rep","full_date":"2026-02-03T05:08:53.644Z","date":"2026-02-03","time":"05:08:53"},{"correct_response":"l","task":"test_phase","broad_category":"I","image_png":"I_Rhyolite_11.png","image_id":155,"category_name":"Rhyolite","category":10,"distinct_rating":1.73,"distinct_type":"Bottom","item_type":"Target","rt":1348,"stimulus":"Stimuli_Rocks480/I_Rhyolite_11.png","response":"a","trial_type":"image-keyboard-response","trial_index":133,"plugin_version":"2.1.0","time_elapsed":252713,"subject_id":"92294","group":"Group1","condition":"1_Rep","full_date":"2026-02-03T05:08:53.644Z","date":"2026-02-03","time":"05:08:53","cor_ans":false},{"trial_type":"html-keyboard-response","rt":null,"stimulus":"<p style=\"color: red; font-size: 50px; font-weight: bold;\">Incorrect</p>","response":null,"trial_index":134,"plugin_version":"2.1.0","time_elapsed":253219,"subject_id":"92294","group":"Group1","condition":"1_Rep","full_date":"2026-02-03T05:08:53.644Z","date":"2026-02-03","time":"05:08:53"},{"correct_response":"a","task":"test_phase","broad_category":"S","image_png":"S_Shale_07.png","image_id":471,"category_name":"Shale","category":30,"distinct_rating":2.73,"distinct_type":"Bottom","item_type":"Foil","rt":1290,"stimulus":"Stimuli_Rocks480/S_Shale_07.png","response":"a","trial_type":"image-keyboard-response","trial_index":135,"plugin_version":"2.1.0","time_elapsed":254512,"subject_id":"92294","group":"Group1","condition":"1_Rep","full_date":"2026-02-03T05:08:53.644Z","date":"2026-02-03","time":"05:08:53","cor_ans":true},{"trial_type":"html-keyboard-response","rt":null,"stimulus":"<p style=\"color: green; font-size: 50px; font-weight: bold;\">Correct</p>","response":null,"trial_index":136,"plugin_version":"2.1.0","time_elapsed":255026,"subject_id":"92294","group":"Group1","condition":"1_Rep","full_date":"2026-02-03T05:08:53.644Z","date":"2026-02-03","time":"05:08:53"},{"correct_response":"a","task":"test_phase","broad_category":"S","image_png":"S_Sandstone_04.png","image_id":452,"category_name":"Sandstone","category":29,"distinct_rating":1.8,"distinct_type":"Bottom","item_type":"Foil","rt":1631,"stimulus":"Stimuli_Rocks480/S_Sandstone_04.png","response":"l","trial_type":"image-keyboard-response","trial_index":137,"plugin_version":"2.1.0","time_elapsed":256660,"subject_id":"92294","group":"Group1","condition":"1_Rep","full_date":"2026-02-03T05:08:53.644Z","date":"2026-02-03","time":"05:08:53","cor_ans":false},{"trial_type":"html-keyboard-response","rt":null,"stimulus":"<p style=\"color: red; font-size: 50px; font-weight: bold;\">Incorrect</p>","response":null,"trial_index":138,"plugin_version":"2.1.0","time_elapsed":257163,"subject_id":"92294","group":"Group1","condition":"1_Rep","full_date":"2026-02-03T05:08:53.644Z","date":"2026-02-03","time":"05:08:53"},{"correct_response":"a","task":"test_phase","broad_category":"I","image_png":"I_Diorite_15.png","image_id":47,"category_name":"Diorite","category":3,"distinct_rating":3.05,"distinct_type":"Bottom","item_type":"Foil","rt":1144,"stimulus":"Stimuli_Rocks480/I_Diorite_15.png","response":"a","trial_type":"image-keyboard-response","trial_index":139,"plugin_version":"2.1.0","time_elapsed":258310,"subject_id":"92294","group":"Group1","condition":"1_Rep","full_date":"2026-02-03T05:08:53.644Z","date":"2026-02-03","time":"05:08:53","cor_ans":true},{"trial_type":"html-keyboard-response","rt":null,"stimulus":"<p style=\"color: green; font-size: 50px; font-weight: bold;\">Correct</p>","response":null,"trial_index":140,"plugin_version":"2.1.0","time_elapsed":258820,"subject_id":"92294","group":"Group1","condition":"1_Rep","full_date":"2026-02-03T05:08:53.644Z","date":"2026-02-03","time":"05:08:53"},{"correct_response":"a","task":"test_phase","broad_category":"I","image_png":"I_Gabbro_02.png","image_id":50,"category_name":"Gabbro","category":4,"distinct_rating":2.73,"distinct_type":"Bottom","item_type":"Foil","rt":873,"stimulus":"Stimuli_Rocks480/I_Gabbro_02.png","response":"l","trial_type":"image-keyboard-response","trial_index":141,"plugin_version":"2.1.0","time_elapsed":259696,"subject_id":"92294","group":"Group1","condition":"1_Rep","full_date":"2026-02-03T05:08:53.644Z","date":"2026-02-03","time":"05:08:53","cor_ans":false},{"trial_type":"html-keyboard-response","rt":null,"stimulus":"<p style=\"color: red; font-size: 50px; font-weight: bold;\">Incorrect</p>","response":null,"trial_index":142,"plugin_version":"2.1.0","time_elapsed":260210,"subject_id":"92294","group":"Group1","condition":"1_Rep","full_date":"2026-02-03T05:08:53.644Z","date":"2026-02-03","time":"05:08:53"},{"correct_response":"l","task":"test_phase","broad_category":"I","image_png":"I_Pumice_11.png","image_id":139,"category_name":"Pumice","category":9,"distinct_rating":1.74,"distinct_type":"Bottom","item_type":"Target","rt":3158,"stimulus":"Stimuli_Rocks480/I_Pumice_11.png","response":"a","trial_type":"image-keyboard-response","trial_index":143,"plugin_version":"2.1.0","time_elapsed":263370,"subject_id":"92294","group":"Group1","condition":"1_Rep","full_date":"2026-02-03T05:08:53.644Z","date":"2026-02-03","time":"05:08:53","cor_ans":false},{"trial_type":"html-keyboard-response","rt":null,"stimulus":"<p style=\"color: red; font-size: 50px; font-weight: bold;\">Incorrect</p>","response":null,"trial_index":144,"plugin_version":"2.1.0","time_elapsed":263887,"subject_id":"92294","group":"Group1","condition":"1_Rep","full_date":"2026-02-03T05:08:53.644Z","date":"2026-02-03","time":"05:08:53"},{"correct_response":"l","task":"test_phase","broad_category":"M","image_png":"M_Phyllite_07.png","image_id":263,"category_name":"Phyllite","category":17,"distinct_rating":2.59,"distinct_type":"Bottom","item_type":"Target","rt":1356,"stimulus":"Stimuli_Rocks480/M_Phyllite_07.png","response":"l","trial_type":"image-keyboard-response","trial_index":145,"plugin_version":"2.1.0","time_elapsed":265246,"subject_id":"92294","group":"Group1","condition":"1_Rep","full_date":"2026-02-03T05:08:53.644Z","date":"2026-02-03","time":"05:08:53","cor_ans":true},{"trial_type":"html-keyboard-response","rt":null,"stimulus":"<p style=\"color: green; font-size: 50px; font-weight: bold;\">Correct</p>","response":null,"trial_index":146,"plugin_version":"2.1.0","time_elapsed":265747,"subject_id":"92294","group":"Group1","condition":"1_Rep","full_date":"2026-02-03T05:08:53.644Z","date":"2026-02-03","time":"05:08:53"},{"correct_response":"a","task":"test_phase","broad_category":"I","image_png":"I_Pumice_14.png","image_id":142,"category_name":"Pumice","category":9,"distinct_rating":3.22,"distinct_type":"Bottom","item_type":"Foil","rt":961,"stimulus":"Stimuli_Rocks480/I_Pumice_14.png","response":"a","trial_type":"image-keyboard-response","trial_index":147,"plugin_version":"2.1.0","time_elapsed":266711,"subject_id":"92294","group":"Group1","condition":"1_Rep","full_date":"2026-02-03T05:08:53.644Z","date":"2026-02-03","time":"05:08:53","cor_ans":true},{"trial_type":"html-keyboard-response","rt":null,"stimulus":"<p style=\"color: green; font-size: 50px; font-weight: bold;\">Correct</p>","response":null,"trial_index":148,"plugin_version":"2.1.0","time_elapsed":267226,"subject_id":"92294","group":"Group1","condition":"1_Rep","full_date":"2026-02-03T05:08:53.644Z","date":"2026-02-03","time":"05:08:53"},{"correct_response":"l","task":"test_phase","broad_category":"M","image_png":"M_Marble_06.png","image_id":230,"category_name":"Marble","category":15,"distinct_rating":3.4,"distinct_type":"Bottom","item_type":"Target","rt":4135,"stimulus":"Stimuli_Rocks480/M_Marble_06.png","response":"a","trial_type":"image-keyboard-response","trial_index":149,"plugin_version":"2.1.0","time_elapsed":271364,"subject_id":"92294","group":"Group1","condition":"1_Rep","full_date":"2026-02-03T05:08:53.644Z","date":"2026-02-03","time":"05:08:53","cor_ans":false},{"trial_type":"html-keyboard-response","rt":null,"stimulus":"<p style=\"color: red; font-size: 50px; font-weight: bold;\">Incorrect</p>","response":null,"trial_index":150,"plugin_version":"2.1.0","time_elapsed":271876,"subject_id":"92294","group":"Group1","condition":"1_Rep","full_date":"2026-02-03T05:08:53.644Z","date":"2026-02-03","time":"05:08:53"},{"correct_response":"a","task":"test_phase","broad_category":"M","image_png":"M_Gneiss_10.png","image_id":202,"category_name":"Gneiss","category":13,"distinct_rating":3.09,"distinct_type":"Bottom","item_type":"Foil","rt":1868,"stimulus":"Stimuli_Rocks480/M_Gneiss_10.png","response":"l","trial_type":"image-keyboard-response","trial_index":151,"plugin_version":"2.1.0","time_elapsed":273746,"subject_id":"92294","group":"Group1","condition":"1_Rep","full_date":"2026-02-03T05:08:53.644Z","date":"2026-02-03","time":"05:08:53","cor_ans":false},{"trial_type":"html-keyboard-response","rt":null,"stimulus":"<p style=\"color: red; font-size: 50px; font-weight: bold;\">Incorrect</p>","response":null,"trial_index":152,"plugin_version":"2.1.0","time_elapsed":274260,"subject_id":"92294","group":"Group1","condition":"1_Rep","full_date":"2026-02-03T05:08:53.644Z","date":"2026-02-03","time":"05:08:53"},{"correct_response":"l","task":"test_phase","broad_category":"M","image_png":"M_Quartzite_05.png","image_id":277,"category_name":"Quartzite","category":18,"distinct_rating":2.23,"distinct_type":"Bottom","item_type":"Target","rt":716,"stimulus":"Stimuli_Rocks480/M_Quartzite_05.png","response":"l","trial_type":"image-keyboard-response","trial_index":153,"plugin_version":"2.1.0","time_elapsed":274978,"subject_id":"92294","group":"Group1","condition":"1_Rep","full_date":"2026-02-03T05:08:53.644Z","date":"2026-02-03","time":"05:08:53","cor_ans":true},{"trial_type":"html-keyboard-response","rt":null,"stimulus":"<p style=\"color: green; font-size: 50px; font-weight: bold;\">Correct</p>","response":null,"trial_index":154,"plugin_version":"2.1.0","time_elapsed":275480,"subject_id":"92294","group":"Group1","condition":"1_Rep","full_date":"2026-02-03T05:08:53.644Z","date":"2026-02-03","time":"05:08:53"},{"correct_response":"l","task":"test_phase","broad_category":"I","image_png":"I_Andesite_08.png","image_id":8,"category_name":"Andesite","category":1,"distinct_rating":1.95,"distinct_type":"Bottom","item_type":"Target","rt":1707,"stimulus":"Stimuli_Rocks480/I_Andesite_08.png","response":"l","trial_type":"image-keyboard-response","trial_index":155,"plugin_version":"2.1.0","time_elapsed":277190,"subject_id":"92294","group":"Group1","condition":"1_Rep","full_date":"2026-02-03T05:08:53.644Z","date":"2026-02-03","time":"05:08:53","cor_ans":true},{"trial_type":"html-keyboard-response","rt":null,"stimulus":"<p style=\"color: green; font-size: 50px; font-weight: bold;\">Correct</p>","response":null,"trial_index":156,"plugin_version":"2.1.0","time_elapsed":277701,"subject_id":"92294","group":"Group1","condition":"1_Rep","full_date":"2026-02-03T05:08:53.644Z","date":"2026-02-03","time":"05:08:53"},{"correct_response":"a","task":"test_phase","broad_category":"M","image_png":"M_Marble_03.png","image_id":227,"category_name":"Marble","category":15,"distinct_rating":2.67,"distinct_type":"Bottom","item_type":"Foil","rt":1008,"stimulus":"Stimuli_Rocks480/M_Marble_03.png","response":"a","trial_type":"image-keyboard-response","trial_index":157,"plugin_version":"2.1.0","time_elapsed":278711,"subject_id":"92294","group":"Group1","condition":"1_Rep","full_date":"2026-02-03T05:08:53.644Z","date":"2026-02-03","time":"05:08:53","cor_ans":true},{"trial_type":"html-keyboard-response","rt":null,"stimulus":"<p style=\"color: green; font-size: 50px; font-weight: bold;\">Correct</p>","response":null,"trial_index":158,"plugin_version":"2.1.0","time_elapsed":279214,"subject_id":"92294","group":"Group1","condition":"1_Rep","full_date":"2026-02-03T05:08:53.644Z","date":"2026-02-03","time":"05:08:53"},{"correct_response":"l","task":"test_phase","broad_category":"I","image_png":"I_Rhyolite_14.png","image_id":158,"category_name":"Rhyolite","category":10,"distinct_rating":2.59,"distinct_type":"Bottom","item_type":"Target","rt":1693,"stimulus":"Stimuli_Rocks480/I_Rhyolite_14.png","response":"a","trial_type":"image-keyboard-response","trial_index":159,"plugin_version":"2.1.0","time_elapsed":280910,"subject_id":"92294","group":"Group1","condition":"1_Rep","full_date":"2026-02-03T05:08:53.644Z","date":"2026-02-03","time":"05:08:53","cor_ans":false},{"trial_type":"html-keyboard-response","rt":null,"stimulus":"<p style=\"color: red; font-size: 50px; font-weight: bold;\">Incorrect</p>","response":null,"trial_index":160,"plugin_version":"2.1.0","time_elapsed":281414,"subject_id":"92294","group":"Group1","condition":"1_Rep","full_date":"2026-02-03T05:08:53.644Z","date":"2026-02-03","time":"05:08:53"},{"correct_response":"a","task":"test_phase","broad_category":"I","image_png":"I_Rhyolite_05.png","image_id":149,"category_name":"Rhyolite","category":10,"distinct_rating":3.02,"distinct_type":"Bottom","item_type":"Foil","rt":937,"stimulus":"Stimuli_Rocks480/I_Rhyolite_05.png","response":"l","trial_type":"image-keyboard-response","trial_index":161,"plugin_version":"2.1.0","time_elapsed":282354,"subject_id":"92294","group":"Group1","condition":"1_Rep","full_date":"2026-02-03T05:08:53.644Z","date":"2026-02-03","time":"05:08:53","cor_ans":false},{"trial_type":"html-keyboard-response","rt":null,"stimulus":"<p style=\"color: red; font-size: 50px; font-weight: bold;\">Incorrect</p>","response":null,"trial_index":162,"plugin_version":"2.1.0","time_elapsed":282872,"subject_id":"92294","group":"Group1","condition":"1_Rep","full_date":"2026-02-03T05:08:53.644Z","date":"2026-02-03","time":"05:08:53"},{"correct_response":"l","task":"test_phase","broad_category":"M","image_png":"M_Slate_03.png","image_id":307,"category_name":"Slate","category":20,"distinct_rating":1.87,"distinct_type":"Bottom","item_type":"Target","rt":1553,"stimulus":"Stimuli_Rocks480/M_Slate_03.png","response":"l","trial_type":"image-keyboard-response","trial_index":163,"plugin_version":"2.1.0","time_elapsed":284430,"subject_id":"92294","group":"Group1","condition":"1_Rep","full_date":"2026-02-03T05:08:53.644Z","date":"2026-02-03","time":"05:08:53","cor_ans":true},{"trial_type":"html-keyboard-response","rt":null,"stimulus":"<p style=\"color: green; font-size: 50px; font-weight: bold;\">Correct</p>","response":null,"trial_index":164,"plugin_version":"2.1.0","time_elapsed":284942,"subject_id":"92294","group":"Group1","condition":"1_Rep","full_date":"2026-02-03T05:08:53.644Z","date":"2026-02-03","time":"05:08:53"},{"correct_response":"l","task":"test_phase","broad_category":"I","image_png":"I_Pumice_12.png","image_id":140,"category_name":"Pumice","category":9,"distinct_rating":2.97,"distinct_type":"Bottom","item_type":"Target","rt":1448,"stimulus":"Stimuli_Rocks480/I_Pumice_12.png","response":"a","trial_type":"image-keyboard-response","trial_index":165,"plugin_version":"2.1.0","time_elapsed":286393,"subject_id":"92294","group":"Group1","condition":"1_Rep","full_date":"2026-02-03T05:08:53.644Z","date":"2026-02-03","time":"05:08:53","cor_ans":false},{"trial_type":"html-keyboard-response","rt":null,"stimulus":"<p style=\"color: red; font-size: 50px; font-weight: bold;\">Incorrect</p>","response":null,"trial_index":166,"plugin_version":"2.1.0","time_elapsed":286902,"subject_id":"92294","group":"Group1","condition":"1_Rep","full_date":"2026-02-03T05:08:53.644Z","date":"2026-02-03","time":"05:08:53"},{"correct_response":"a","task":"test_phase","broad_category":"M","image_png":"M_Slate_10.png","image_id":314,"category_name":"Slate","category":20,"distinct_rating":1.94,"distinct_type":"Bottom","item_type":"Foil","rt":860,"stimulus":"Stimuli_Rocks480/M_Slate_10.png","response":"l","trial_type":"image-keyboard-response","trial_index":167,"plugin_version":"2.1.0","time_elapsed":287765,"subject_id":"92294","group":"Group1","condition":"1_Rep","full_date":"2026-02-03T05:08:53.644Z","date":"2026-02-03","time":"05:08:53","cor_ans":false},{"trial_type":"html-keyboard-response","rt":null,"stimulus":"<p style=\"color: red; font-size: 50px; font-weight: bold;\">Incorrect</p>","response":null,"trial_index":168,"plugin_version":"2.1.0","time_elapsed":288270,"subject_id":"92294","group":"Group1","condition":"1_Rep","full_date":"2026-02-03T05:08:53.644Z","date":"2026-02-03","time":"05:08:53"},{"correct_response":"a","task":"test_phase","broad_category":"I","image_png":"I_Basalt_08.png","image_id":24,"category_name":"Basalt","category":2,"distinct_rating":2.31,"distinct_type":"Bottom","item_type":"Foil","rt":773,"stimulus":"Stimuli_Rocks480/I_Basalt_08.png","response":"l","trial_type":"image-keyboard-response","trial_index":169,"plugin_version":"2.1.0","time_elapsed":289045,"subject_id":"92294","group":"Group1","condition":"1_Rep","full_date":"2026-02-03T05:08:53.644Z","date":"2026-02-03","time":"05:08:53","cor_ans":false},{"trial_type":"html-keyboard-response","rt":null,"stimulus":"<p style=\"color: red; font-size: 50px; font-weight: bold;\">Incorrect</p>","response":null,"trial_index":170,"plugin_version":"2.1.0","time_elapsed":289560,"subject_id":"92294","group":"Group1","condition":"1_Rep","full_date":"2026-02-03T05:08:53.644Z","date":"2026-02-03","time":"05:08:53"},{"correct_response":"l","task":"test_phase","broad_category":"S","image_png":"S_Breccia_11.png","image_id":347,"category_name":"Breccia","category":22,"distinct_rating":6.7,"distinct_type":"Top","item_type":"Target","rt":824,"stimulus":"Stimuli_Rocks480/S_Breccia_11.png","response":"a","trial_type":"image-keyboard-response","trial_index":171,"plugin_version":"2.1.0","time_elapsed":290385,"subject_id":"92294","group":"Group1","condition":"1_Rep","full_date":"2026-02-03T05:08:53.644Z","date":"2026-02-03","time":"05:08:53","cor_ans":false},{"trial_type":"html-keyboard-response","rt":null,"stimulus":"<p style=\"color: red; font-size: 50px; font-weight: bold;\">Incorrect</p>","response":null,"trial_index":172,"plugin_version":"2.1.0","time_elapsed":290897,"subject_id":"92294","group":"Group1","condition":"1_Rep","full_date":"2026-02-03T05:08:53.644Z","date":"2026-02-03","time":"05:08:53"},{"correct_response":"l","task":"test_phase","broad_category":"I","image_png":"I_Rhyolite_16.png","image_id":160,"category_name":"Rhyolite","category":10,"distinct_rating":2.19,"distinct_type":"Bottom","item_type":"Target","rt":981,"stimulus":"Stimuli_Rocks480/I_Rhyolite_16.png","response":"l","trial_type":"image-keyboard-response","trial_index":173,"plugin_version":"2.1.0","time_elapsed":291881,"subject_id":"92294","group":"Group1","condition":"1_Rep","full_date":"2026-02-03T05:08:53.644Z","date":"2026-02-03","time":"05:08:53","cor_ans":true},{"trial_type":"html-keyboard-response","rt":null,"stimulus":"<p style=\"color: green; font-size: 50px; font-weight: bold;\">Correct</p>","response":null,"trial_index":174,"plugin_version":"2.1.0","time_elapsed":292386,"subject_id":"92294","group":"Group1","condition":"1_Rep","full_date":"2026-02-03T05:08:53.644Z","date":"2026-02-03","time":"05:08:53"},{"correct_response":"l","task":"test_phase","broad_category":"S","image_png":"S_Shale_08.png","image_id":472,"category_name":"Shale","category":30,"distinct_rating":2.55,"distinct_type":"Bottom","item_type":"Target","rt":919,"stimulus":"Stimuli_Rocks480/S_Shale_08.png","response":"a","trial_type":"image-keyboard-response","trial_index":175,"plugin_version":"2.1.0","time_elapsed":293309,"subject_id":"92294","group":"Group1","condition":"1_Rep","full_date":"2026-02-03T05:08:53.644Z","date":"2026-02-03","time":"05:08:53","cor_ans":false},{"trial_type":"html-keyboard-response","rt":null,"stimulus":"<p style=\"color: red; font-size: 50px; font-weight: bold;\">Incorrect</p>","response":null,"trial_index":176,"plugin_version":"2.1.0","time_elapsed":293811,"subject_id":"92294","group":"Group1","condition":"1_Rep","full_date":"2026-02-03T05:08:53.644Z","date":"2026-02-03","time":"05:08:53"},{"correct_response":"a","task":"test_phase","broad_category":"M","image_png":"M_Quartzite_12.png","image_id":284,"category_name":"Quartzite","category":18,"distinct_rating":1.92,"distinct_type":"Bottom","item_type":"Foil","rt":524,"stimulus":"Stimuli_Rocks480/M_Quartzite_12.png","response":"l","trial_type":"image-keyboard-response","trial_index":177,"plugin_version":"2.1.0","time_elapsed":294337,"subject_id":"92294","group":"Group1","condition":"1_Rep","full_date":"2026-02-03T05:08:53.644Z","date":"2026-02-03","time":"05:08:53","cor_ans":false},{"trial_type":"html-keyboard-response","rt":null,"stimulus":"<p style=\"color: red; font-size: 50px; font-weight: bold;\">Incorrect</p>","response":null,"trial_index":178,"plugin_version":"2.1.0","time_elapsed":294844,"subject_id":"92294","group":"Group1","condition":"1_Rep","full_date":"2026-02-03T05:08:53.644Z","date":"2026-02-03","time":"05:08:53"},{"correct_response":"a","task":"test_phase","broad_category":"S","image_png":"S_Shale_03.png","image_id":467,"category_name":"Shale","category":30,"distinct_rating":1.95,"distinct_type":"Bottom","item_type":"Foil","rt":1130,"stimulus":"Stimuli_Rocks480/S_Shale_03.png","response":"a","trial_type":"image-keyboard-response","trial_index":179,"plugin_version":"2.1.0","time_elapsed":295977,"subject_id":"92294","group":"Group1","condition":"1_Rep","full_date":"2026-02-03T05:08:53.644Z","date":"2026-02-03","time":"05:08:53","cor_ans":true},{"trial_type":"html-keyboard-response","rt":null,"stimulus":"<p style=\"color: green; font-size: 50px; font-weight: bold;\">Correct</p>","response":null,"trial_index":180,"plugin_version":"2.1.0","time_elapsed":296484,"subject_id":"92294","group":"Group1","condition":"1_Rep","full_date":"2026-02-03T05:08:53.644Z","date":"2026-02-03","time":"05:08:53"},{"correct_response":"a","task":"test_phase","broad_category":"M","image_png":"M_Gneiss_15.png","image_id":207,"category_name":"Gneiss","category":13,"distinct_rating":3.11,"distinct_type":"Bottom","item_type":"Foil","rt":1425,"stimulus":"Stimuli_Rocks480/M_Gneiss_15.png","response":"l","trial_type":"image-keyboard-response","trial_index":181,"plugin_version":"2.1.0","time_elapsed":297911,"subject_id":"92294","group":"Group1","condition":"1_Rep","full_date":"2026-02-03T05:08:53.644Z","date":"2026-02-03","time":"05:08:53","cor_ans":false},{"trial_type":"html-keyboard-response","rt":null,"stimulus":"<p style=\"color: red; font-size: 50px; font-weight: bold;\">Incorrect</p>","response":null,"trial_index":182,"plugin_version":"2.1.0","time_elapsed":298413,"subject_id":"92294","group":"Group1","condition":"1_Rep","full_date":"2026-02-03T05:08:53.644Z","date":"2026-02-03","time":"05:08:53"},{"correct_response":"a","task":"test_phase","broad_category":"M","image_png":"M_Gneiss_14.png","image_id":206,"category_name":"Gneiss","category":13,"distinct_rating":3.41,"distinct_type":"Bottom","item_type":"Foil","rt":829,"stimulus":"Stimuli_Rocks480/M_Gneiss_14.png","response":"l","trial_type":"image-keyboard-response","trial_index":183,"plugin_version":"2.1.0","time_elapsed":299244,"subject_id":"92294","group":"Group1","condition":"1_Rep","full_date":"2026-02-03T05:08:53.644Z","date":"2026-02-03","time":"05:08:53","cor_ans":false},{"trial_type":"html-keyboard-response","rt":null,"stimulus":"<p style=\"color: red; font-size: 50px; font-weight: bold;\">Incorrect</p>","response":null,"trial_index":184,"plugin_version":"2.1.0","time_elapsed":299760,"subject_id":"92294","group":"Group1","condition":"1_Rep","full_date":"2026-02-03T05:08:53.644Z","date":"2026-02-03","time":"05:08:53"},{"correct_response":"l","task":"test_phase","broad_category":"S","image_png":"S_Chert_10.png","image_id":362,"category_name":"Chert","category":23,"distinct_rating":7.17,"distinct_type":"Top","item_type":"Target","rt":725,"stimulus":"Stimuli_Rocks480/S_Chert_10.png","response":"a","trial_type":"image-keyboard-response","trial_index":185,"plugin_version":"2.1.0","time_elapsed":300488,"subject_id":"92294","group":"Group1","condition":"1_Rep","full_date":"2026-02-03T05:08:53.644Z","date":"2026-02-03","time":"05:08:53","cor_ans":false},{"trial_type":"html-keyboard-response","rt":null,"stimulus":"<p style=\"color: red; font-size: 50px; font-weight: bold;\">Incorrect</p>","response":null,"trial_index":186,"plugin_version":"2.1.0","time_elapsed":300993,"subject_id":"92294","group":"Group1","condition":"1_Rep","full_date":"2026-02-03T05:08:53.644Z","date":"2026-02-03","time":"05:08:53"},{"correct_response":"a","task":"test_phase","broad_category":"I","image_png":"I_Obsidian_06.png","image_id":86,"category_name":"Obsidian","category":6,"distinct_rating":8.01,"distinct_type":"Top","item_type":"Foil","rt":1538,"stimulus":"Stimuli_Rocks480/I_Obsidian_06.png","response":"a","trial_type":"image-keyboard-response","trial_index":187,"plugin_version":"2.1.0","time_elapsed":302533,"subject_id":"92294","group":"Group1","condition":"1_Rep","full_date":"2026-02-03T05:08:53.644Z","date":"2026-02-03","time":"05:08:53","cor_ans":true},{"trial_type":"html-keyboard-response","rt":null,"stimulus":"<p style=\"color: green; font-size: 50px; font-weight: bold;\">Correct</p>","response":null,"trial_index":188,"plugin_version":"2.1.0","time_elapsed":303045,"subject_id":"92294","group":"Group1","condition":"1_Rep","full_date":"2026-02-03T05:08:53.644Z","date":"2026-02-03","time":"05:08:53"},{"correct_response":"a","task":"test_phase","broad_category":"S","image_png":"S_Dolomite_01.png","image_id":385,"category_name":"Dolomite","category":25,"distinct_rating":1.43,"distinct_type":"Bottom","item_type":"Foil","rt":2481,"stimulus":"Stimuli_Rocks480/S_Dolomite_01.png","response":"l","trial_type":"image-keyboard-response","trial_index":189,"plugin_version":"2.1.0","time_elapsed":305529,"subject_id":"92294","group":"Group1","condition":"1_Rep","full_date":"2026-02-03T05:08:53.644Z","date":"2026-02-03","time":"05:08:53","cor_ans":false},{"trial_type":"html-keyboard-response","rt":null,"stimulus":"<p style=\"color: red; font-size: 50px; font-weight: bold;\">Incorrect</p>","response":null,"trial_index":190,"plugin_version":"2.1.0","time_elapsed":306039,"subject_id":"92294","group":"Group1","condition":"1_Rep","full_date":"2026-02-03T05:08:53.644Z","date":"2026-02-03","time":"05:08:53"},{"correct_response":"l","task":"test_phase","broad_category":"S","image_png":"S_Dolomite_12.png","image_id":396,"category_name":"Dolomite","category":25,"distinct_rating":1.85,"distinct_type":"Bottom","item_type":"Target","rt":1152,"stimulus":"Stimuli_Rocks480/S_Dolomite_12.png","response":"l","trial_type":"image-keyboard-response","trial_index":191,"plugin_version":"2.1.0","time_elapsed":307194,"subject_id":"92294","group":"Group1","condition":"1_Rep","full_date":"2026-02-03T05:08:53.644Z","date":"2026-02-03","time":"05:08:53","cor_ans":true},{"trial_type":"html-keyboard-response","rt":null,"stimulus":"<p style=\"color: green; font-size: 50px; font-weight: bold;\">Correct</p>","response":null,"trial_index":192,"plugin_version":"2.1.0","time_elapsed":307696,"subject_id":"92294","group":"Group1","condition":"1_Rep","full_date":"2026-02-03T05:08:53.644Z","date":"2026-02-03","time":"05:08:53"},{"correct_response":"a","task":"test_phase","broad_category":"M","image_png":"M_Slate_04.png","image_id":308,"category_name":"Slate","category":20,"distinct_rating":2.2,"distinct_type":"Bottom","item_type":"Foil","rt":2222,"stimulus":"Stimuli_Rocks480/M_Slate_04.png","response":"a","trial_type":"image-keyboard-response","trial_index":193,"plugin_version":"2.1.0","time_elapsed":309921,"subject_id":"92294","group":"Group1","condition":"1_Rep","full_date":"2026-02-03T05:08:53.644Z","date":"2026-02-03","time":"05:08:53","cor_ans":true},{"trial_type":"html-keyboard-response","rt":null,"stimulus":"<p style=\"color: green; font-size: 50px; font-weight: bold;\">Correct</p>","response":null,"trial_index":194,"plugin_version":"2.1.0","time_elapsed":310435,"subject_id":"92294","group":"Group1","condition":"1_Rep","full_date":"2026-02-03T05:08:53.644Z","date":"2026-02-03","time":"05:08:53"},{"correct_response":"a","task":"test_phase","broad_category":"I","image_png":"I_Rhyolite_08.png","image_id":152,"category_name":"Rhyolite","category":10,"distinct_rating":1.38,"distinct_type":"Bottom","item_type":"Foil","rt":2958,"stimulus":"Stimuli_Rocks480/I_Rhyolite_08.png","response":"a","trial_type":"image-keyboard-response","trial_index":195,"plugin_version":"2.1.0","time_elapsed":313395,"subject_id":"92294","group":"Group1","condition":"1_Rep","full_date":"2026-02-03T05:08:53.644Z","date":"2026-02-03","time":"05:08:53","cor_ans":true},{"trial_type":"html-keyboard-response","rt":null,"stimulus":"<p style=\"color: green; font-size: 50px; font-weight: bold;\">Correct</p>","response":null,"trial_index":196,"plugin_version":"2.1.0","time_elapsed":313900,"subject_id":"92294","group":"Group1","condition":"1_Rep","full_date":"2026-02-03T05:08:53.644Z","date":"2026-02-03","time":"05:08:53"},{"correct_response":"a","task":"test_phase","broad_category":"I","image_png":"I_Andesite_03.png","image_id":3,"category_name":"Andesite","category":1,"distinct_rating":3.17,"distinct_type":"Bottom","item_type":"Foil","rt":892,"stimulus":"Stimuli_Rocks480/I_Andesite_03.png","response":"l","trial_type":"image-keyboard-response","trial_index":197,"plugin_version":"2.1.0","time_elapsed":314794,"subject_id":"92294","group":"Group1","condition":"1_Rep","full_date":"2026-02-03T05:08:53.644Z","date":"2026-02-03","time":"05:08:53","cor_ans":false},{"trial_type":"html-keyboard-response","rt":null,"stimulus":"<p style=\"color: red; font-size: 50px; font-weight: bold;\">Incorrect</p>","response":null,"trial_index":198,"plugin_version":"2.1.0","time_elapsed":315311,"subject_id":"92294","group":"Group1","condition":"1_Rep","full_date":"2026-02-03T05:08:53.644Z","date":"2026-02-03","time":"05:08:53"},{"correct_response":"l","task":"test_phase","broad_category":"I","image_png":"I_Diorite_03.png","image_id":35,"category_name":"Diorite","category":3,"distinct_rating":3.14,"distinct_type":"Bottom","item_type":"Target","rt":1384,"stimulus":"Stimuli_Rocks480/I_Diorite_03.png","response":"l","trial_type":"image-keyboard-response","trial_index":199,"plugin_version":"2.1.0","time_elapsed":316698,"subject_id":"92294","group":"Group1","condition":"1_Rep","full_date":"2026-02-03T05:08:53.644Z","date":"2026-02-03","time":"05:08:53","cor_ans":true},{"trial_type":"html-keyboard-response","rt":null,"stimulus":"<p style=\"color: green; font-size: 50px; font-weight: bold;\">Correct</p>","response":null,"trial_index":200,"plugin_version":"2.1.0","time_elapsed":317214,"subject_id":"92294","group":"Group1","condition":"1_Rep","full_date":"2026-02-03T05:08:53.644Z","date":"2026-02-03","time":"05:08:53"},{"correct_response":"l","task":"test_phase","broad_category":"M","image_png":"M_Phyllite_03.png","image_id":259,"category_name":"Phyllite","category":17,"distinct_rating":2.5,"distinct_type":"Bottom","item_type":"Target","rt":936,"stimulus":"Stimuli_Rocks480/M_Phyllite_03.png","response":"a","trial_type":"image-keyboard-response","trial_index":201,"plugin_version":"2.1.0","time_elapsed":318162,"subject_id":"92294","group":"Group1","condition":"1_Rep","full_date":"2026-02-03T05:08:53.644Z","date":"2026-02-03","time":"05:08:53","cor_ans":false},{"trial_type":"html-keyboard-response","rt":null,"stimulus":"<p style=\"color: red; font-size: 50px; font-weight: bold;\">Incorrect</p>","response":null,"trial_index":202,"plugin_version":"2.1.0","time_elapsed":318678,"subject_id":"92294","group":"Group1","condition":"1_Rep","full_date":"2026-02-03T05:08:53.644Z","date":"2026-02-03","time":"05:08:53"},{"correct_response":"a","task":"test_phase","broad_category":"S","image_png":"S_Sandstone_11.png","image_id":459,"category_name":"Sandstone","category":29,"distinct_rating":1.82,"distinct_type":"Bottom","item_type":"Foil","rt":607,"stimulus":"Stimuli_Rocks480/S_Sandstone_11.png","response":"l","trial_type":"image-keyboard-response","trial_index":203,"plugin_version":"2.1.0","time_elapsed":319287,"subject_id":"92294","group":"Group1","condition":"1_Rep","full_date":"2026-02-03T05:08:53.644Z","date":"2026-02-03","time":"05:08:53","cor_ans":false},{"trial_type":"html-keyboard-response","rt":null,"stimulus":"<p style=\"color: red; font-size: 50px; font-weight: bold;\">Incorrect</p>","response":null,"trial_index":204,"plugin_version":"2.1.0","time_elapsed":319789,"subject_id":"92294","group":"Group1","condition":"1_Rep","full_date":"2026-02-03T05:08:53.644Z","date":"2026-02-03","time":"05:08:53"},{"correct_response":"a","task":"test_phase","broad_category":"M","image_png":"M_Quartzite_15.png","image_id":287,"category_name":"Quartzite","category":18,"distinct_rating":2.19,"distinct_type":"Bottom","item_type":"Foil","rt":1118,"stimulus":"Stimuli_Rocks480/M_Quartzite_15.png","response":"a","trial_type":"image-keyboard-response","trial_index":205,"plugin_version":"2.1.0","time_elapsed":320910,"subject_id":"92294","group":"Group1","condition":"1_Rep","full_date":"2026-02-03T05:08:53.644Z","date":"2026-02-03","time":"05:08:53","cor_ans":true},{"trial_type":"html-keyboard-response","rt":null,"stimulus":"<p style=\"color: green; font-size: 50px; font-weight: bold;\">Correct</p>","response":null,"trial_index":206,"plugin_version":"2.1.0","time_elapsed":321426,"subject_id":"92294","group":"Group1","condition":"1_Rep","full_date":"2026-02-03T05:08:53.644Z","date":"2026-02-03","time":"05:08:53"},{"correct_response":"l","task":"test_phase","broad_category":"I","image_png":"I_Gabbro_11.png","image_id":59,"category_name":"Gabbro","category":4,"distinct_rating":1.99,"distinct_type":"Bottom","item_type":"Target","rt":2135,"stimulus":"Stimuli_Rocks480/I_Gabbro_11.png","response":"a","trial_type":"image-keyboard-response","trial_index":207,"plugin_version":"2.1.0","time_elapsed":323562,"subject_id":"92294","group":"Group1","condition":"1_Rep","full_date":"2026-02-03T05:08:53.644Z","date":"2026-02-03","time":"05:08:53","cor_ans":false},{"trial_type":"html-keyboard-response","rt":null,"stimulus":"<p style=\"color: red; font-size: 50px; font-weight: bold;\">Incorrect</p>","response":null,"trial_index":208,"plugin_version":"2.1.0","time_elapsed":324071,"subject_id":"92294","group":"Group1","condition":"1_Rep","full_date":"2026-02-03T05:08:53.644Z","date":"2026-02-03","time":"05:08:53"},{"correct_response":"a","task":"test_phase","broad_category":"I","image_png":"I_Rhyolite_10.png","image_id":154,"category_name":"Rhyolite","category":10,"distinct_rating":2.88,"distinct_type":"Bottom","item_type":"Foil","rt":720,"stimulus":"Stimuli_Rocks480/I_Rhyolite_10.png","response":"l","trial_type":"image-keyboard-response","trial_index":209,"plugin_version":"2.1.0","time_elapsed":324793,"subject_id":"92294","group":"Group1","condition":"1_Rep","full_date":"2026-02-03T05:08:53.644Z","date":"2026-02-03","time":"05:08:53","cor_ans":false},{"trial_type":"html-keyboard-response","rt":null,"stimulus":"<p style=\"color: red; font-size: 50px; font-weight: bold;\">Incorrect</p>","response":null,"trial_index":210,"plugin_version":"2.1.0","time_elapsed":325300,"subject_id":"92294","group":"Group1","condition":"1_Rep","full_date":"2026-02-03T05:08:53.644Z","date":"2026-02-03","time":"05:08:53"},{"correct_response":"l","task":"test_phase","broad_category":"I","image_png":"I_Basalt_02.png","image_id":18,"category_name":"Basalt","category":2,"distinct_rating":1.84,"distinct_type":"Bottom","item_type":"Target","rt":1058,"stimulus":"Stimuli_Rocks480/I_Basalt_02.png","response":"l","trial_type":"image-keyboard-response","trial_index":211,"plugin_version":"2.1.0","time_elapsed":326361,"subject_id":"92294","group":"Group1","condition":"1_Rep","full_date":"2026-02-03T05:08:53.644Z","date":"2026-02-03","time":"05:08:53","cor_ans":true},{"trial_type":"html-keyboard-response","rt":null,"stimulus":"<p style=\"color: green; font-size: 50px; font-weight: bold;\">Correct</p>","response":null,"trial_index":212,"plugin_version":"2.1.0","time_elapsed":326873,"subject_id":"92294","group":"Group1","condition":"1_Rep","full_date":"2026-02-03T05:08:53.644Z","date":"2026-02-03","time":"05:08:53"},{"correct_response":"l","task":"test_phase","broad_category":"I","image_png":"I_Diorite_05.png","image_id":37,"category_name":"Diorite","category":3,"distinct_rating":3.08,"distinct_type":"Bottom","item_type":"Target","rt":989,"stimulus":"Stimuli_Rocks480/I_Diorite_05.png","response":"l","trial_type":"image-keyboard-response","trial_index":213,"plugin_version":"2.1.0","time_elapsed":327867,"subject_id":"92294","group":"Group1","condition":"1_Rep","full_date":"2026-02-03T05:08:53.644Z","date":"2026-02-03","time":"05:08:53","cor_ans":true},{"trial_type":"html-keyboard-response","rt":null,"stimulus":"<p style=\"color: green; font-size: 50px; font-weight: bold;\">Correct</p>","response":null,"trial_index":214,"plugin_version":"2.1.0","time_elapsed":328370,"subject_id":"92294","group":"Group1","condition":"1_Rep","full_date":"2026-02-03T05:08:53.644Z","date":"2026-02-03","time":"05:08:53"},{"correct_response":"l","task":"test_phase","broad_category":"M","image_png":"M_Gneiss_13.png","image_id":205,"category_name":"Gneiss","category":13,"distinct_rating":3.26,"distinct_type":"Bottom","item_type":"Target","rt":1006,"stimulus":"Stimuli_Rocks480/M_Gneiss_13.png","response":"l","trial_type":"image-keyboard-response","trial_index":215,"plugin_version":"2.1.0","time_elapsed":329378,"subject_id":"92294","group":"Group1","condition":"1_Rep","full_date":"2026-02-03T05:08:53.644Z","date":"2026-02-03","time":"05:08:53","cor_ans":true},{"trial_type":"html-keyboard-response","rt":null,"stimulus":"<p style=\"color: green; font-size: 50px; font-weight: bold;\">Correct</p>","response":null,"trial_index":216,"plugin_version":"2.1.0","time_elapsed":329880,"subject_id":"92294","group":"Group1","condition":"1_Rep","full_date":"2026-02-03T05:08:53.644Z","date":"2026-02-03","time":"05:08:53"},{"correct_response":"l","task":"test_phase","broad_category":"I","image_png":"I_Diorite_04.png","image_id":36,"category_name":"Diorite","category":3,"distinct_rating":2.98,"distinct_type":"Bottom","item_type":"Target","rt":812,"stimulus":"Stimuli_Rocks480/I_Diorite_04.png","response":"l","trial_type":"image-keyboard-response","trial_index":217,"plugin_version":"2.1.0","time_elapsed":330694,"subject_id":"92294","group":"Group1","condition":"1_Rep","full_date":"2026-02-03T05:08:53.644Z","date":"2026-02-03","time":"05:08:53","cor_ans":true},{"trial_type":"html-keyboard-response","rt":null,"stimulus":"<p style=\"color: green; font-size: 50px; font-weight: bold;\">Correct</p>","response":null,"trial_index":218,"plugin_version":"2.1.0","time_elapsed":331209,"subject_id":"92294","group":"Group1","condition":"1_Rep","full_date":"2026-02-03T05:08:53.644Z","date":"2026-02-03","time":"05:08:53"},{"correct_response":"l","task":"test_phase","broad_category":"I","image_png":"I_Basalt_01.png","image_id":17,"category_name":"Basalt","category":2,"distinct_rating":1.92,"distinct_type":"Bottom","item_type":"Target","rt":1072,"stimulus":"Stimuli_Rocks480/I_Basalt_01.png","response":"l","trial_type":"image-keyboard-response","trial_index":219,"plugin_version":"2.1.0","time_elapsed":332282,"subject_id":"92294","group":"Group1","condition":"1_Rep","full_date":"2026-02-03T05:08:53.644Z","date":"2026-02-03","time":"05:08:53","cor_ans":true},{"trial_type":"html-keyboard-response","rt":null,"stimulus":"<p style=\"color: green; font-size: 50px; font-weight: bold;\">Correct</p>","response":null,"trial_index":220,"plugin_version":"2.1.0","time_elapsed":332798,"subject_id":"92294","group":"Group1","condition":"1_Rep","full_date":"2026-02-03T05:08:53.644Z","date":"2026-02-03","time":"05:08:53"},{"correct_response":"l","task":"test_phase","broad_category":"S","image_png":"S_Dolomite_14.png","image_id":398,"category_name":"Dolomite","category":25,"distinct_rating":1.43,"distinct_type":"Bottom","item_type":"Target","rt":1146,"stimulus":"Stimuli_Rocks480/S_Dolomite_14.png","response":"a","trial_type":"image-keyboard-response","trial_index":221,"plugin_version":"2.1.0","time_elapsed":333946,"subject_id":"92294","group":"Group1","condition":"1_Rep","full_date":"2026-02-03T05:08:53.644Z","date":"2026-02-03","time":"05:08:53","cor_ans":false},{"trial_type":"html-keyboard-response","rt":null,"stimulus":"<p style=\"color: red; font-size: 50px; font-weight: bold;\">Incorrect</p>","response":null,"trial_index":222,"plugin_version":"2.1.0","time_elapsed":334455,"subject_id":"92294","group":"Group1","condition":"1_Rep","full_date":"2026-02-03T05:08:53.644Z","date":"2026-02-03","time":"05:08:53"},{"correct_response":"l","task":"test_phase","broad_category":"S","image_png":"S_Rock Salt_01.png","image_id":433,"category_name":"Rock Salt","category":28,"distinct_rating":7.18,"distinct_type":"Top","item_type":"Target","rt":953,"stimulus":"Stimuli_Rocks480/S_Rock Salt_01.png","response":"l","trial_type":"image-keyboard-response","trial_index":223,"plugin_version":"2.1.0","time_elapsed":335413,"subject_id":"92294","group":"Group1","condition":"1_Rep","full_date":"2026-02-03T05:08:53.644Z","date":"2026-02-03","time":"05:08:53","cor_ans":true},{"trial_type":"html-keyboard-response","rt":null,"stimulus":"<p style=\"color: green; font-size: 50px; font-weight: bold;\">Correct</p>","response":null,"trial_index":224,"plugin_version":"2.1.0","time_elapsed":335915,"subject_id":"92294","group":"Group1","condition":"1_Rep","full_date":"2026-02-03T05:08:53.644Z","date":"2026-02-03","time":"05:08:53"},{"correct_response":"l","task":"test_phase","broad_category":"S","image_png":"S_