[{"width":1218,"height":599,"webaudio":true,"browser":"chrome","browser_version":"145.0.0","mobile":false,"os":"Windows 10","fullscreen":true,"vsync_rate":57.59,"webcam":true,"microphone":false,"trial_type":"browser-check","trial_index":0,"plugin_version":"2.1.0","time_elapsed":1049,"subject_id":"92540","group":"Group2","condition":"1_Rep","full_date":"2026-03-11T19:08:44.567Z","date":"2026-03-11","time":"19:08:44"},{"success":true,"timeout":false,"failed_images":[],"failed_audio":[],"failed_video":[],"trial_type":"preload","trial_index":1,"plugin_version":"2.1.0","time_elapsed":38286,"subject_id":"92540","group":"Group2","condition":"1_Rep","full_date":"2026-03-11T19:08:44.567Z","date":"2026-03-11","time":"19:08:44"},{"rt":281478,"url":"SONA_consent_memorability.html","trial_type":"external-html","trial_index":2,"plugin_version":"2.1.0","time_elapsed":319922,"subject_id":"92540","group":"Group2","condition":"1_Rep","full_date":"2026-03-11T19:08:44.567Z","date":"2026-03-11","time":"19:08:44"},{"success":true,"rt":1459,"trial_type":"fullscreen","trial_index":3,"plugin_version":"2.1.0","time_elapsed":322426,"subject_id":"92540","group":"Group2","condition":"1_Rep","full_date":"2026-03-11T19:08:44.567Z","date":"2026-03-11","time":"19:08:44"},{"rt":2580,"stimulus":"<div style=\"max-width: 760px; margin: auto; font-size: 20px; line-height: 1.5;\">\n      <h1 style=\"text-align:center; font-size: 30px;\">Instructions</h1>\n      <p>\n        Welcome to the study on <b>visual memory</b>. This experiment consists of <b>two phases</b>: \n        a <b>study phase</b> and a <b>test phase</b>.\n      </p>\n      <p>\n        In the study phase, you will see a series of rock images along with their category labels.\n        The images will appear one at a time.\n        <b>Your task</b> is to learn the categories to which the rock images belong \n        and to remember each image as accurately as possible.\n      </p> \n      <p>\n        Note that you will see each image only <b>once</b> during the study phase. \n          So, please pay close attention and try to remember each image carefully.\n      </p>\n      <p>\n        After the study phase, <b>your memory will be tested</b>. \n        Additional instructions for the test phase will be provided at that time.\n      </p>\n      <p>\n        If your computer has multiple <b>language settings</b> (e.g., English and another language),\n        please make sure it is set to English before starting.\n      </p>\n      <p>\n        You can track your progress using the <b>completion bar</b> at the top of the screen. \n        Please note that the bar will refresh when the test phase begins \n        to give you an accurate sense of your progress in both phases.\n      </p> \n      <p>\n        Press the button below when you are ready to begin.\n      </p>\n    </div>","response":0,"trial_type":"html-button-response","trial_index":4,"plugin_version":"2.1.0","time_elapsed":325013,"subject_id":"92540","group":"Group2","condition":"1_Rep","full_date":"2026-03-11T19:08:44.567Z","date":"2026-03-11","time":"19:08:44"},{"rt":null,"stimulus":"<p style=\"font-size: 50px; margin: 0; text-align: center;\">+</p>","response":null,"trial_type":"html-keyboard-response","trial_index":5,"plugin_version":"2.1.0","time_elapsed":326028,"subject_id":"92540","group":"Group2","condition":"1_Rep","full_date":"2026-03-11T19:08:44.567Z","date":"2026-03-11","time":"19:08:44"},{"task":"memory_phase","broad_category":"S","image_png":"S_Dolomite_16.png","image_id":400,"category_name":"Dolomite","category":25,"distinct_rating":1.71,"distinct_type":"Bottom","rt":null,"stimulus":"Stimuli_Rocks480/S_Dolomite_16.png","response":null,"trial_type":"image-keyboard-response","trial_index":6,"plugin_version":"2.1.0","time_elapsed":328542,"subject_id":"92540","group":"Group2","condition":"1_Rep","full_date":"2026-03-11T19:08:44.567Z","date":"2026-03-11","time":"19:08:44"},{"rt":null,"stimulus":"<p style=\"font-size: 50px; margin: 0; text-align: center;\">+</p>","response":null,"trial_type":"html-keyboard-response","trial_index":7,"plugin_version":"2.1.0","time_elapsed":329560,"subject_id":"92540","group":"Group2","condition":"1_Rep","full_date":"2026-03-11T19:08:44.567Z","date":"2026-03-11","time":"19:08:44"},{"task":"memory_phase","broad_category":"I","image_png":"I_Andesite_04.png","image_id":4,"category_name":"Andesite","category":1,"distinct_rating":3.18,"distinct_type":"Bottom","rt":null,"stimulus":"Stimuli_Rocks480/I_Andesite_04.png","response":null,"trial_type":"image-keyboard-response","trial_index":8,"plugin_version":"2.1.0","time_elapsed":332074,"subject_id":"92540","group":"Group2","condition":"1_Rep","full_date":"2026-03-11T19:08:44.567Z","date":"2026-03-11","time":"19:08:44"},{"rt":null,"stimulus":"<p style=\"font-size: 50px; margin: 0; text-align: center;\">+</p>","response":null,"trial_type":"html-keyboard-response","trial_index":9,"plugin_version":"2.1.0","time_elapsed":333078,"subject_id":"92540","group":"Group2","condition":"1_Rep","full_date":"2026-03-11T19:08:44.567Z","date":"2026-03-11","time":"19:08:44"},{"task":"memory_phase","broad_category":"S","image_png":"S_Rock Salt_15.png","image_id":447,"category_name":"Rock Salt","category":28,"distinct_rating":7.79,"distinct_type":"Top","rt":null,"stimulus":"Stimuli_Rocks480/S_Rock Salt_15.png","response":null,"trial_type":"image-keyboard-response","trial_index":10,"plugin_version":"2.1.0","time_elapsed":335660,"subject_id":"92540","group":"Group2","condition":"1_Rep","full_date":"2026-03-11T19:08:44.567Z","date":"2026-03-11","time":"19:08:44"},{"rt":null,"stimulus":"<p style=\"font-size: 50px; margin: 0; text-align: center;\">+</p>","response":null,"trial_type":"html-keyboard-response","trial_index":11,"plugin_version":"2.1.0","time_elapsed":336662,"subject_id":"92540","group":"Group2","condition":"1_Rep","full_date":"2026-03-11T19:08:44.567Z","date":"2026-03-11","time":"19:08:44"},{"task":"memory_phase","broad_category":"I","image_png":"I_Rhyolite_08.png","image_id":152,"category_name":"Rhyolite","category":10,"distinct_rating":1.38,"distinct_type":"Bottom","rt":null,"stimulus":"Stimuli_Rocks480/I_Rhyolite_08.png","response":null,"trial_type":"image-keyboard-response","trial_index":12,"plugin_version":"2.1.0","time_elapsed":339177,"subject_id":"92540","group":"Group2","condition":"1_Rep","full_date":"2026-03-11T19:08:44.567Z","date":"2026-03-11","time":"19:08:44"},{"rt":null,"stimulus":"<p style=\"font-size: 50px; margin: 0; text-align: center;\">+</p>","response":null,"trial_type":"html-keyboard-response","trial_index":13,"plugin_version":"2.1.0","time_elapsed":340186,"subject_id":"92540","group":"Group2","condition":"1_Rep","full_date":"2026-03-11T19:08:44.567Z","date":"2026-03-11","time":"19:08:44"},{"task":"memory_phase","broad_category":"M","image_png":"M_Slate_10.png","image_id":314,"category_name":"Slate","category":20,"distinct_rating":1.94,"distinct_type":"Bottom","rt":null,"stimulus":"Stimuli_Rocks480/M_Slate_10.png","response":null,"trial_type":"image-keyboard-response","trial_index":14,"plugin_version":"2.1.0","time_elapsed":342701,"subject_id":"92540","group":"Group2","condition":"1_Rep","full_date":"2026-03-11T19:08:44.567Z","date":"2026-03-11","time":"19:08:44"},{"rt":null,"stimulus":"<p style=\"font-size: 50px; margin: 0; text-align: center;\">+</p>","response":null,"trial_type":"html-keyboard-response","trial_index":15,"plugin_version":"2.1.0","time_elapsed":343714,"subject_id":"92540","group":"Group2","condition":"1_Rep","full_date":"2026-03-11T19:08:44.567Z","date":"2026-03-11","time":"19:08:44"},{"task":"memory_phase","broad_category":"S","image_png":"S_Sandstone_04.png","image_id":452,"category_name":"Sandstone","category":29,"distinct_rating":1.8,"distinct_type":"Bottom","rt":null,"stimulus":"Stimuli_Rocks480/S_Sandstone_04.png","response":null,"trial_type":"image-keyboard-response","trial_index":16,"plugin_version":"2.1.0","time_elapsed":346229,"subject_id":"92540","group":"Group2","condition":"1_Rep","full_date":"2026-03-11T19:08:44.567Z","date":"2026-03-11","time":"19:08:44"},{"rt":null,"stimulus":"<p style=\"font-size: 50px; margin: 0; text-align: center;\">+</p>","response":null,"trial_type":"html-keyboard-response","trial_index":17,"plugin_version":"2.1.0","time_elapsed":347246,"subject_id":"92540","group":"Group2","condition":"1_Rep","full_date":"2026-03-11T19:08:44.567Z","date":"2026-03-11","time":"19:08:44"},{"task":"memory_phase","broad_category":"I","image_png":"I_Basalt_08.png","image_id":24,"category_name":"Basalt","category":2,"distinct_rating":2.31,"distinct_type":"Bottom","rt":null,"stimulus":"Stimuli_Rocks480/I_Basalt_08.png","response":null,"trial_type":"image-keyboard-response","trial_index":18,"plugin_version":"2.1.0","time_elapsed":349765,"subject_id":"92540","group":"Group2","condition":"1_Rep","full_date":"2026-03-11T19:08:44.567Z","date":"2026-03-11","time":"19:08:44"},{"rt":null,"stimulus":"<p style=\"font-size: 50px; margin: 0; text-align: center;\">+</p>","response":null,"trial_type":"html-keyboard-response","trial_index":19,"plugin_version":"2.1.0","time_elapsed":350771,"subject_id":"92540","group":"Group2","condition":"1_Rep","full_date":"2026-03-11T19:08:44.567Z","date":"2026-03-11","time":"19:08:44"},{"task":"memory_phase","broad_category":"S","image_png":"S_Rock Salt_13.png","image_id":445,"category_name":"Rock Salt","category":28,"distinct_rating":7.58,"distinct_type":"Top","rt":null,"stimulus":"Stimuli_Rocks480/S_Rock Salt_13.png","response":null,"trial_type":"image-keyboard-response","trial_index":20,"plugin_version":"2.1.0","time_elapsed":353290,"subject_id":"92540","group":"Group2","condition":"1_Rep","full_date":"2026-03-11T19:08:44.567Z","date":"2026-03-11","time":"19:08:44"},{"rt":null,"stimulus":"<p style=\"font-size: 50px; margin: 0; text-align: center;\">+</p>","response":null,"trial_type":"html-keyboard-response","trial_index":21,"plugin_version":"2.1.0","time_elapsed":354313,"subject_id":"92540","group":"Group2","condition":"1_Rep","full_date":"2026-03-11T19:08:44.567Z","date":"2026-03-11","time":"19:08:44"},{"task":"memory_phase","broad_category":"S","image_png":"S_Chert_13.png","image_id":365,"category_name":"Chert","category":23,"distinct_rating":6.57,"distinct_type":"Top","rt":null,"stimulus":"Stimuli_Rocks480/S_Chert_13.png","response":null,"trial_type":"image-keyboard-response","trial_index":22,"plugin_version":"2.1.0","time_elapsed":356818,"subject_id":"92540","group":"Group2","condition":"1_Rep","full_date":"2026-03-11T19:08:44.567Z","date":"2026-03-11","time":"19:08:44"},{"rt":null,"stimulus":"<p style=\"font-size: 50px; margin: 0; text-align: center;\">+</p>","response":null,"trial_type":"html-keyboard-response","trial_index":23,"plugin_version":"2.1.0","time_elapsed":357836,"subject_id":"92540","group":"Group2","condition":"1_Rep","full_date":"2026-03-11T19:08:44.567Z","date":"2026-03-11","time":"19:08:44"},{"task":"memory_phase","broad_category":"M","image_png":"M_Gneiss_10.png","image_id":202,"category_name":"Gneiss","category":13,"distinct_rating":3.09,"distinct_type":"Bottom","rt":null,"stimulus":"Stimuli_Rocks480/M_Gneiss_10.png","response":null,"trial_type":"image-keyboard-response","trial_index":24,"plugin_version":"2.1.0","time_elapsed":360348,"subject_id":"92540","group":"Group2","condition":"1_Rep","full_date":"2026-03-11T19:08:44.567Z","date":"2026-03-11","time":"19:08:44"},{"rt":null,"stimulus":"<p style=\"font-size: 50px; margin: 0; text-align: center;\">+</p>","response":null,"trial_type":"html-keyboard-response","trial_index":25,"plugin_version":"2.1.0","time_elapsed":361368,"subject_id":"92540","group":"Group2","condition":"1_Rep","full_date":"2026-03-11T19:08:44.567Z","date":"2026-03-11","time":"19:08:44"},{"task":"memory_phase","broad_category":"M","image_png":"M_Marble_14.png","image_id":238,"category_name":"Marble","category":15,"distinct_rating":3.31,"distinct_type":"Bottom","rt":null,"stimulus":"Stimuli_Rocks480/M_Marble_14.png","response":null,"trial_type":"image-keyboard-response","trial_index":26,"plugin_version":"2.1.0","time_elapsed":363884,"subject_id":"92540","group":"Group2","condition":"1_Rep","full_date":"2026-03-11T19:08:44.567Z","date":"2026-03-11","time":"19:08:44"},{"rt":null,"stimulus":"<p style=\"font-size: 50px; margin: 0; text-align: center;\">+</p>","response":null,"trial_type":"html-keyboard-response","trial_index":27,"plugin_version":"2.1.0","time_elapsed":364899,"subject_id":"92540","group":"Group2","condition":"1_Rep","full_date":"2026-03-11T19:08:44.567Z","date":"2026-03-11","time":"19:08:44"},{"task":"memory_phase","broad_category":"I","image_png":"I_Diorite_15.png","image_id":47,"category_name":"Diorite","category":3,"distinct_rating":3.05,"distinct_type":"Bottom","rt":null,"stimulus":"Stimuli_Rocks480/I_Diorite_15.png","response":null,"trial_type":"image-keyboard-response","trial_index":28,"plugin_version":"2.1.0","time_elapsed":367410,"subject_id":"92540","group":"Group2","condition":"1_Rep","full_date":"2026-03-11T19:08:44.567Z","date":"2026-03-11","time":"19:08:44"},{"rt":null,"stimulus":"<p style=\"font-size: 50px; margin: 0; text-align: center;\">+</p>","response":null,"trial_type":"html-keyboard-response","trial_index":29,"plugin_version":"2.1.0","time_elapsed":368431,"subject_id":"92540","group":"Group2","condition":"1_Rep","full_date":"2026-03-11T19:08:44.567Z","date":"2026-03-11","time":"19:08:44"},{"task":"memory_phase","broad_category":"I","image_png":"I_Diorite_01.png","image_id":33,"category_name":"Diorite","category":3,"distinct_rating":2.97,"distinct_type":"Bottom","rt":null,"stimulus":"Stimuli_Rocks480/I_Diorite_01.png","response":null,"trial_type":"image-keyboard-response","trial_index":30,"plugin_version":"2.1.0","time_elapsed":370942,"subject_id":"92540","group":"Group2","condition":"1_Rep","full_date":"2026-03-11T19:08:44.567Z","date":"2026-03-11","time":"19:08:44"},{"rt":null,"stimulus":"<p style=\"font-size: 50px; margin: 0; text-align: center;\">+</p>","response":null,"trial_type":"html-keyboard-response","trial_index":31,"plugin_version":"2.1.0","time_elapsed":371954,"subject_id":"92540","group":"Group2","condition":"1_Rep","full_date":"2026-03-11T19:08:44.567Z","date":"2026-03-11","time":"19:08:44"},{"task":"memory_phase","broad_category":"S","image_png":"S_Shale_07.png","image_id":471,"category_name":"Shale","category":30,"distinct_rating":2.73,"distinct_type":"Bottom","rt":null,"stimulus":"Stimuli_Rocks480/S_Shale_07.png","response":null,"trial_type":"image-keyboard-response","trial_index":32,"plugin_version":"2.1.0","time_elapsed":374475,"subject_id":"92540","group":"Group2","condition":"1_Rep","full_date":"2026-03-11T19:08:44.567Z","date":"2026-03-11","time":"19:08:44"},{"rt":null,"stimulus":"<p style=\"font-size: 50px; margin: 0; text-align: center;\">+</p>","response":null,"trial_type":"html-keyboard-response","trial_index":33,"plugin_version":"2.1.0","time_elapsed":375490,"subject_id":"92540","group":"Group2","condition":"1_Rep","full_date":"2026-03-11T19:08:44.567Z","date":"2026-03-11","time":"19:08:44"},{"task":"memory_phase","broad_category":"M","image_png":"M_Phyllite_13.png","image_id":269,"category_name":"Phyllite","category":17,"distinct_rating":2.8,"distinct_type":"Bottom","rt":null,"stimulus":"Stimuli_Rocks480/M_Phyllite_13.png","response":null,"trial_type":"image-keyboard-response","trial_index":34,"plugin_version":"2.1.0","time_elapsed":378008,"subject_id":"92540","group":"Group2","condition":"1_Rep","full_date":"2026-03-11T19:08:44.567Z","date":"2026-03-11","time":"19:08:44"},{"rt":null,"stimulus":"<p style=\"font-size: 50px; margin: 0; text-align: center;\">+</p>","response":null,"trial_type":"html-keyboard-response","trial_index":35,"plugin_version":"2.1.0","time_elapsed":379020,"subject_id":"92540","group":"Group2","condition":"1_Rep","full_date":"2026-03-11T19:08:44.567Z","date":"2026-03-11","time":"19:08:44"},{"task":"memory_phase","broad_category":"S","image_png":"S_Sandstone_11.png","image_id":459,"category_name":"Sandstone","category":29,"distinct_rating":1.82,"distinct_type":"Bottom","rt":null,"stimulus":"Stimuli_Rocks480/S_Sandstone_11.png","response":null,"trial_type":"image-keyboard-response","trial_index":36,"plugin_version":"2.1.0","time_elapsed":381525,"subject_id":"92540","group":"Group2","condition":"1_Rep","full_date":"2026-03-11T19:08:44.567Z","date":"2026-03-11","time":"19:08:44"},{"rt":null,"stimulus":"<p style=\"font-size: 50px; margin: 0; text-align: center;\">+</p>","response":null,"trial_type":"html-keyboard-response","trial_index":37,"plugin_version":"2.1.0","time_elapsed":382545,"subject_id":"92540","group":"Group2","condition":"1_Rep","full_date":"2026-03-11T19:08:44.567Z","date":"2026-03-11","time":"19:08:44"},{"task":"memory_phase","broad_category":"I","image_png":"I_Pumice_13.png","image_id":141,"category_name":"Pumice","category":9,"distinct_rating":3.12,"distinct_type":"Bottom","rt":null,"stimulus":"Stimuli_Rocks480/I_Pumice_13.png","response":null,"trial_type":"image-keyboard-response","trial_index":38,"plugin_version":"2.1.0","time_elapsed":385057,"subject_id":"92540","group":"Group2","condition":"1_Rep","full_date":"2026-03-11T19:08:44.567Z","date":"2026-03-11","time":"19:08:44"},{"rt":null,"stimulus":"<p style=\"font-size: 50px; margin: 0; text-align: center;\">+</p>","response":null,"trial_type":"html-keyboard-response","trial_index":39,"plugin_version":"2.1.0","time_elapsed":386073,"subject_id":"92540","group":"Group2","condition":"1_Rep","full_date":"2026-03-11T19:08:44.567Z","date":"2026-03-11","time":"19:08:44"},{"task":"memory_phase","broad_category":"M","image_png":"M_Quartzite_15.png","image_id":287,"category_name":"Quartzite","category":18,"distinct_rating":2.19,"distinct_type":"Bottom","rt":null,"stimulus":"Stimuli_Rocks480/M_Quartzite_15.png","response":null,"trial_type":"image-keyboard-response","trial_index":40,"plugin_version":"2.1.0","time_elapsed":388587,"subject_id":"92540","group":"Group2","condition":"1_Rep","full_date":"2026-03-11T19:08:44.567Z","date":"2026-03-11","time":"19:08:44"},{"rt":null,"stimulus":"<p style=\"font-size: 50px; margin: 0; text-align: center;\">+</p>","response":null,"trial_type":"html-keyboard-response","trial_index":41,"plugin_version":"2.1.0","time_elapsed":389597,"subject_id":"92540","group":"Group2","condition":"1_Rep","full_date":"2026-03-11T19:08:44.567Z","date":"2026-03-11","time":"19:08:44"},{"task":"memory_phase","broad_category":"I","image_png":"I_Gabbro_02.png","image_id":50,"category_name":"Gabbro","category":4,"distinct_rating":2.73,"distinct_type":"Bottom","rt":null,"stimulus":"Stimuli_Rocks480/I_Gabbro_02.png","response":null,"trial_type":"image-keyboard-response","trial_index":42,"plugin_version":"2.1.0","time_elapsed":392111,"subject_id":"92540","group":"Group2","condition":"1_Rep","full_date":"2026-03-11T19:08:44.567Z","date":"2026-03-11","time":"19:08:44"},{"rt":null,"stimulus":"<p style=\"font-size: 50px; margin: 0; text-align: center;\">+</p>","response":null,"trial_type":"html-keyboard-response","trial_index":43,"plugin_version":"2.1.0","time_elapsed":393119,"subject_id":"92540","group":"Group2","condition":"1_Rep","full_date":"2026-03-11T19:08:44.567Z","date":"2026-03-11","time":"19:08:44"},{"task":"memory_phase","broad_category":"I","image_png":"I_Gabbro_14.png","image_id":62,"category_name":"Gabbro","category":4,"distinct_rating":2.95,"distinct_type":"Bottom","rt":null,"stimulus":"Stimuli_Rocks480/I_Gabbro_14.png","response":null,"trial_type":"image-keyboard-response","trial_index":44,"plugin_version":"2.1.0","time_elapsed":395625,"subject_id":"92540","group":"Group2","condition":"1_Rep","full_date":"2026-03-11T19:08:44.567Z","date":"2026-03-11","time":"19:08:44"},{"rt":null,"stimulus":"<p style=\"font-size: 50px; margin: 0; text-align: center;\">+</p>","response":null,"trial_type":"html-keyboard-response","trial_index":45,"plugin_version":"2.1.0","time_elapsed":396645,"subject_id":"92540","group":"Group2","condition":"1_Rep","full_date":"2026-03-11T19:08:44.567Z","date":"2026-03-11","time":"19:08:44"},{"task":"memory_phase","broad_category":"M","image_png":"M_Quartzite_12.png","image_id":284,"category_name":"Quartzite","category":18,"distinct_rating":1.92,"distinct_type":"Bottom","rt":null,"stimulus":"Stimuli_Rocks480/M_Quartzite_12.png","response":null,"trial_type":"image-keyboard-response","trial_index":46,"plugin_version":"2.1.0","time_elapsed":399153,"subject_id":"92540","group":"Group2","condition":"1_Rep","full_date":"2026-03-11T19:08:44.567Z","date":"2026-03-11","time":"19:08:44"},{"rt":null,"stimulus":"<p style=\"font-size: 50px; margin: 0; text-align: center;\">+</p>","response":null,"trial_type":"html-keyboard-response","trial_index":47,"plugin_version":"2.1.0","time_elapsed":400167,"subject_id":"92540","group":"Group2","condition":"1_Rep","full_date":"2026-03-11T19:08:44.567Z","date":"2026-03-11","time":"19:08:44"},{"task":"memory_phase","broad_category":"M","image_png":"M_Phyllite_02.png","image_id":258,"category_name":"Phyllite","category":17,"distinct_rating":2.89,"distinct_type":"Bottom","rt":null,"stimulus":"Stimuli_Rocks480/M_Phyllite_02.png","response":null,"trial_type":"image-keyboard-response","trial_index":48,"plugin_version":"2.1.0","time_elapsed":402672,"subject_id":"92540","group":"Group2","condition":"1_Rep","full_date":"2026-03-11T19:08:44.567Z","date":"2026-03-11","time":"19:08:44"},{"rt":null,"stimulus":"<p style=\"font-size: 50px; margin: 0; text-align: center;\">+</p>","response":null,"trial_type":"html-keyboard-response","trial_index":49,"plugin_version":"2.1.0","time_elapsed":403686,"subject_id":"92540","group":"Group2","condition":"1_Rep","full_date":"2026-03-11T19:08:44.567Z","date":"2026-03-11","time":"19:08:44"},{"task":"memory_phase","broad_category":"S","image_png":"S_Dolomite_01.png","image_id":385,"category_name":"Dolomite","category":25,"distinct_rating":1.43,"distinct_type":"Bottom","rt":null,"stimulus":"Stimuli_Rocks480/S_Dolomite_01.png","response":null,"trial_type":"image-keyboard-response","trial_index":50,"plugin_version":"2.1.0","time_elapsed":406195,"subject_id":"92540","group":"Group2","condition":"1_Rep","full_date":"2026-03-11T19:08:44.567Z","date":"2026-03-11","time":"19:08:44"},{"rt":null,"stimulus":"<p style=\"font-size: 50px; margin: 0; text-align: center;\">+</p>","response":null,"trial_type":"html-keyboard-response","trial_index":51,"plugin_version":"2.1.0","time_elapsed":407204,"subject_id":"92540","group":"Group2","condition":"1_Rep","full_date":"2026-03-11T19:08:44.567Z","date":"2026-03-11","time":"19:08:44"},{"task":"memory_phase","broad_category":"I","image_png":"I_Obsidian_06.png","image_id":86,"category_name":"Obsidian","category":6,"distinct_rating":8.01,"distinct_type":"Top","rt":null,"stimulus":"Stimuli_Rocks480/I_Obsidian_06.png","response":null,"trial_type":"image-keyboard-response","trial_index":52,"plugin_version":"2.1.0","time_elapsed":409710,"subject_id":"92540","group":"Group2","condition":"1_Rep","full_date":"2026-03-11T19:08:44.567Z","date":"2026-03-11","time":"19:08:44"},{"rt":null,"stimulus":"<p style=\"font-size: 50px; margin: 0; text-align: center;\">+</p>","response":null,"trial_type":"html-keyboard-response","trial_index":53,"plugin_version":"2.1.0","time_elapsed":410715,"subject_id":"92540","group":"Group2","condition":"1_Rep","full_date":"2026-03-11T19:08:44.567Z","date":"2026-03-11","time":"19:08:44"},{"task":"memory_phase","broad_category":"I","image_png":"I_Rhyolite_05.png","image_id":149,"category_name":"Rhyolite","category":10,"distinct_rating":3.02,"distinct_type":"Bottom","rt":null,"stimulus":"Stimuli_Rocks480/I_Rhyolite_05.png","response":null,"trial_type":"image-keyboard-response","trial_index":54,"plugin_version":"2.1.0","time_elapsed":413225,"subject_id":"92540","group":"Group2","condition":"1_Rep","full_date":"2026-03-11T19:08:44.567Z","date":"2026-03-11","time":"19:08:44"},{"rt":34877,"stimulus":"<p style=\"max-width: 760px; margin: auto; font-size: 35px; line-height: 1.5;\">\n                Press SPACE to continue study phase\n              </p>","response":" ","trial_type":"html-keyboard-response","trial_index":55,"plugin_version":"2.1.0","time_elapsed":448105,"subject_id":"92540","group":"Group2","condition":"1_Rep","full_date":"2026-03-11T19:08:44.567Z","date":"2026-03-11","time":"19:08:44"},{"rt":null,"stimulus":"<p style=\"font-size: 50px; margin: 0; text-align: center;\">+</p>","response":null,"trial_type":"html-keyboard-response","trial_index":56,"plugin_version":"2.1.0","time_elapsed":449109,"subject_id":"92540","group":"Group2","condition":"1_Rep","full_date":"2026-03-11T19:08:44.567Z","date":"2026-03-11","time":"19:08:44"},{"task":"memory_phase","broad_category":"M","image_png":"M_Marble_02.png","image_id":226,"category_name":"Marble","category":15,"distinct_rating":3.2,"distinct_type":"Bottom","rt":null,"stimulus":"Stimuli_Rocks480/M_Marble_02.png","response":null,"trial_type":"image-keyboard-response","trial_index":57,"plugin_version":"2.1.0","time_elapsed":451619,"subject_id":"92540","group":"Group2","condition":"1_Rep","full_date":"2026-03-11T19:08:44.567Z","date":"2026-03-11","time":"19:08:44"},{"rt":null,"stimulus":"<p style=\"font-size: 50px; margin: 0; text-align: center;\">+</p>","response":null,"trial_type":"html-keyboard-response","trial_index":58,"plugin_version":"2.1.0","time_elapsed":452628,"subject_id":"92540","group":"Group2","condition":"1_Rep","full_date":"2026-03-11T19:08:44.567Z","date":"2026-03-11","time":"19:08:44"},{"task":"memory_phase","broad_category":"M","image_png":"M_Phyllite_05.png","image_id":261,"category_name":"Phyllite","category":17,"distinct_rating":2.14,"distinct_type":"Bottom","rt":null,"stimulus":"Stimuli_Rocks480/M_Phyllite_05.png","response":null,"trial_type":"image-keyboard-response","trial_index":59,"plugin_version":"2.1.0","time_elapsed":455136,"subject_id":"92540","group":"Group2","condition":"1_Rep","full_date":"2026-03-11T19:08:44.567Z","date":"2026-03-11","time":"19:08:44"},{"rt":null,"stimulus":"<p style=\"font-size: 50px; margin: 0; text-align: center;\">+</p>","response":null,"trial_type":"html-keyboard-response","trial_index":60,"plugin_version":"2.1.0","time_elapsed":456149,"subject_id":"92540","group":"Group2","condition":"1_Rep","full_date":"2026-03-11T19:08:44.567Z","date":"2026-03-11","time":"19:08:44"},{"task":"memory_phase","broad_category":"I","image_png":"I_Pumice_14.png","image_id":142,"category_name":"Pumice","category":9,"distinct_rating":3.22,"distinct_type":"Bottom","rt":null,"stimulus":"Stimuli_Rocks480/I_Pumice_14.png","response":null,"trial_type":"image-keyboard-response","trial_index":61,"plugin_version":"2.1.0","time_elapsed":458665,"subject_id":"92540","group":"Group2","condition":"1_Rep","full_date":"2026-03-11T19:08:44.567Z","date":"2026-03-11","time":"19:08:44"},{"rt":null,"stimulus":"<p style=\"font-size: 50px; margin: 0; text-align: center;\">+</p>","response":null,"trial_type":"html-keyboard-response","trial_index":62,"plugin_version":"2.1.0","time_elapsed":459676,"subject_id":"92540","group":"Group2","condition":"1_Rep","full_date":"2026-03-11T19:08:44.567Z","date":"2026-03-11","time":"19:08:44"},{"task":"memory_phase","broad_category":"I","image_png":"I_Andesite_09.png","image_id":9,"category_name":"Andesite","category":1,"distinct_rating":2.49,"distinct_type":"Bottom","rt":null,"stimulus":"Stimuli_Rocks480/I_Andesite_09.png","response":null,"trial_type":"image-keyboard-response","trial_index":63,"plugin_version":"2.1.0","time_elapsed":462191,"subject_id":"92540","group":"Group2","condition":"1_Rep","full_date":"2026-03-11T19:08:44.567Z","date":"2026-03-11","time":"19:08:44"},{"rt":null,"stimulus":"<p style=\"font-size: 50px; margin: 0; text-align: center;\">+</p>","response":null,"trial_type":"html-keyboard-response","trial_index":64,"plugin_version":"2.1.0","time_elapsed":463203,"subject_id":"92540","group":"Group2","condition":"1_Rep","full_date":"2026-03-11T19:08:44.567Z","date":"2026-03-11","time":"19:08:44"},{"task":"memory_phase","broad_category":"M","image_png":"M_Gneiss_15.png","image_id":207,"category_name":"Gneiss","category":13,"distinct_rating":3.11,"distinct_type":"Bottom","rt":null,"stimulus":"Stimuli_Rocks480/M_Gneiss_15.png","response":null,"trial_type":"image-keyboard-response","trial_index":65,"plugin_version":"2.1.0","time_elapsed":465720,"subject_id":"92540","group":"Group2","condition":"1_Rep","full_date":"2026-03-11T19:08:44.567Z","date":"2026-03-11","time":"19:08:44"},{"rt":null,"stimulus":"<p style=\"font-size: 50px; margin: 0; text-align: center;\">+</p>","response":null,"trial_type":"html-keyboard-response","trial_index":66,"plugin_version":"2.1.0","time_elapsed":466727,"subject_id":"92540","group":"Group2","condition":"1_Rep","full_date":"2026-03-11T19:08:44.567Z","date":"2026-03-11","time":"19:08:44"},{"task":"memory_phase","broad_category":"S","image_png":"S_Shale_03.png","image_id":467,"category_name":"Shale","category":30,"distinct_rating":1.95,"distinct_type":"Bottom","rt":null,"stimulus":"Stimuli_Rocks480/S_Shale_03.png","response":null,"trial_type":"image-keyboard-response","trial_index":67,"plugin_version":"2.1.0","time_elapsed":469238,"subject_id":"92540","group":"Group2","condition":"1_Rep","full_date":"2026-03-11T19:08:44.567Z","date":"2026-03-11","time":"19:08:44"},{"rt":null,"stimulus":"<p style=\"font-size: 50px; margin: 0; text-align: center;\">+</p>","response":null,"trial_type":"html-keyboard-response","trial_index":68,"plugin_version":"2.1.0","time_elapsed":470243,"subject_id":"92540","group":"Group2","condition":"1_Rep","full_date":"2026-03-11T19:08:44.567Z","date":"2026-03-11","time":"19:08:44"},{"task":"memory_phase","broad_category":"I","image_png":"I_Diorite_10.png","image_id":42,"category_name":"Diorite","category":3,"distinct_rating":2.84,"distinct_type":"Bottom","rt":null,"stimulus":"Stimuli_Rocks480/I_Diorite_10.png","response":null,"trial_type":"image-keyboard-response","trial_index":69,"plugin_version":"2.1.0","time_elapsed":472752,"subject_id":"92540","group":"Group2","condition":"1_Rep","full_date":"2026-03-11T19:08:44.567Z","date":"2026-03-11","time":"19:08:44"},{"rt":null,"stimulus":"<p style=\"font-size: 50px; margin: 0; text-align: center;\">+</p>","response":null,"trial_type":"html-keyboard-response","trial_index":70,"plugin_version":"2.1.0","time_elapsed":473757,"subject_id":"92540","group":"Group2","condition":"1_Rep","full_date":"2026-03-11T19:08:44.567Z","date":"2026-03-11","time":"19:08:44"},{"task":"memory_phase","broad_category":"I","image_png":"I_Basalt_13.png","image_id":29,"category_name":"Basalt","category":2,"distinct_rating":2.68,"distinct_type":"Bottom","rt":null,"stimulus":"Stimuli_Rocks480/I_Basalt_13.png","response":null,"trial_type":"image-keyboard-response","trial_index":71,"plugin_version":"2.1.0","time_elapsed":476262,"subject_id":"92540","group":"Group2","condition":"1_Rep","full_date":"2026-03-11T19:08:44.567Z","date":"2026-03-11","time":"19:08:44"},{"rt":null,"stimulus":"<p style=\"font-size: 50px; margin: 0; text-align: center;\">+</p>","response":null,"trial_type":"html-keyboard-response","trial_index":72,"plugin_version":"2.1.0","time_elapsed":477278,"subject_id":"92540","group":"Group2","condition":"1_Rep","full_date":"2026-03-11T19:08:44.567Z","date":"2026-03-11","time":"19:08:44"},{"task":"memory_phase","broad_category":"I","image_png":"I_Andesite_03.png","image_id":3,"category_name":"Andesite","category":1,"distinct_rating":3.17,"distinct_type":"Bottom","rt":null,"stimulus":"Stimuli_Rocks480/I_Andesite_03.png","response":null,"trial_type":"image-keyboard-response","trial_index":73,"plugin_version":"2.1.0","time_elapsed":479796,"subject_id":"92540","group":"Group2","condition":"1_Rep","full_date":"2026-03-11T19:08:44.567Z","date":"2026-03-11","time":"19:08:44"},{"rt":null,"stimulus":"<p style=\"font-size: 50px; margin: 0; text-align: center;\">+</p>","response":null,"trial_type":"html-keyboard-response","trial_index":74,"plugin_version":"2.1.0","time_elapsed":480813,"subject_id":"92540","group":"Group2","condition":"1_Rep","full_date":"2026-03-11T19:08:44.567Z","date":"2026-03-11","time":"19:08:44"},{"task":"memory_phase","broad_category":"S","image_png":"S_Conglomerate_14.png","image_id":382,"category_name":"Conglomerate","category":24,"distinct_rating":6.86,"distinct_type":"Top","rt":null,"stimulus":"Stimuli_Rocks480/S_Conglomerate_14.png","response":null,"trial_type":"image-keyboard-response","trial_index":75,"plugin_version":"2.1.0","time_elapsed":483317,"subject_id":"92540","group":"Group2","condition":"1_Rep","full_date":"2026-03-11T19:08:44.567Z","date":"2026-03-11","time":"19:08:44"},{"rt":null,"stimulus":"<p style=\"font-size: 50px; margin: 0; text-align: center;\">+</p>","response":null,"trial_type":"html-keyboard-response","trial_index":76,"plugin_version":"2.1.0","time_elapsed":484333,"subject_id":"92540","group":"Group2","condition":"1_Rep","full_date":"2026-03-11T19:08:44.567Z","date":"2026-03-11","time":"19:08:44"},{"task":"memory_phase","broad_category":"I","image_png":"I_Pumice_01.png","image_id":129,"category_name":"Pumice","category":9,"distinct_rating":3.25,"distinct_type":"Bottom","rt":null,"stimulus":"Stimuli_Rocks480/I_Pumice_01.png","response":null,"trial_type":"image-keyboard-response","trial_index":77,"plugin_version":"2.1.0","time_elapsed":486852,"subject_id":"92540","group":"Group2","condition":"1_Rep","full_date":"2026-03-11T19:08:44.567Z","date":"2026-03-11","time":"19:08:44"},{"rt":null,"stimulus":"<p style=\"font-size: 50px; margin: 0; text-align: center;\">+</p>","response":null,"trial_type":"html-keyboard-response","trial_index":78,"plugin_version":"2.1.0","time_elapsed":487873,"subject_id":"92540","group":"Group2","condition":"1_Rep","full_date":"2026-03-11T19:08:44.567Z","date":"2026-03-11","time":"19:08:44"},{"task":"memory_phase","broad_category":"I","image_png":"I_Basalt_10.png","image_id":26,"category_name":"Basalt","category":2,"distinct_rating":2.76,"distinct_type":"Bottom","rt":null,"stimulus":"Stimuli_Rocks480/I_Basalt_10.png","response":null,"trial_type":"image-keyboard-response","trial_index":79,"plugin_version":"2.1.0","time_elapsed":490379,"subject_id":"92540","group":"Group2","condition":"1_Rep","full_date":"2026-03-11T19:08:44.567Z","date":"2026-03-11","time":"19:08:44"},{"rt":null,"stimulus":"<p style=\"font-size: 50px; margin: 0; text-align: center;\">+</p>","response":null,"trial_type":"html-keyboard-response","trial_index":80,"plugin_version":"2.1.0","time_elapsed":491382,"subject_id":"92540","group":"Group2","condition":"1_Rep","full_date":"2026-03-11T19:08:44.567Z","date":"2026-03-11","time":"19:08:44"},{"task":"memory_phase","broad_category":"S","image_png":"S_Dolomite_07.png","image_id":391,"category_name":"Dolomite","category":25,"distinct_rating":1.73,"distinct_type":"Bottom","rt":null,"stimulus":"Stimuli_Rocks480/S_Dolomite_07.png","response":null,"trial_type":"image-keyboard-response","trial_index":81,"plugin_version":"2.1.0","time_elapsed":493889,"subject_id":"92540","group":"Group2","condition":"1_Rep","full_date":"2026-03-11T19:08:44.567Z","date":"2026-03-11","time":"19:08:44"},{"rt":null,"stimulus":"<p style=\"font-size: 50px; margin: 0; text-align: center;\">+</p>","response":null,"trial_type":"html-keyboard-response","trial_index":82,"plugin_version":"2.1.0","time_elapsed":494899,"subject_id":"92540","group":"Group2","condition":"1_Rep","full_date":"2026-03-11T19:08:44.567Z","date":"2026-03-11","time":"19:08:44"},{"task":"memory_phase","broad_category":"S","image_png":"S_Sandstone_08.png","image_id":456,"category_name":"Sandstone","category":29,"distinct_rating":1.5,"distinct_type":"Bottom","rt":null,"stimulus":"Stimuli_Rocks480/S_Sandstone_08.png","response":null,"trial_type":"image-keyboard-response","trial_index":83,"plugin_version":"2.1.0","time_elapsed":497418,"subject_id":"92540","group":"Group2","condition":"1_Rep","full_date":"2026-03-11T19:08:44.567Z","date":"2026-03-11","time":"19:08:44"},{"rt":null,"stimulus":"<p style=\"font-size: 50px; margin: 0; text-align: center;\">+</p>","response":null,"trial_type":"html-keyboard-response","trial_index":84,"plugin_version":"2.1.0","time_elapsed":498421,"subject_id":"92540","group":"Group2","condition":"1_Rep","full_date":"2026-03-11T19:08:44.567Z","date":"2026-03-11","time":"19:08:44"},{"task":"memory_phase","broad_category":"I","image_png":"I_Pegmatite_03.png","image_id":99,"category_name":"Pegmatite","category":7,"distinct_rating":7.24,"distinct_type":"Top","rt":null,"stimulus":"Stimuli_Rocks480/I_Pegmatite_03.png","response":null,"trial_type":"image-keyboard-response","trial_index":85,"plugin_version":"2.1.0","time_elapsed":500928,"subject_id":"92540","group":"Group2","condition":"1_Rep","full_date":"2026-03-11T19:08:44.567Z","date":"2026-03-11","time":"19:08:44"},{"rt":null,"stimulus":"<p style=\"font-size: 50px; margin: 0; text-align: center;\">+</p>","response":null,"trial_type":"html-keyboard-response","trial_index":86,"plugin_version":"2.1.0","time_elapsed":501948,"subject_id":"92540","group":"Group2","condition":"1_Rep","full_date":"2026-03-11T19:08:44.567Z","date":"2026-03-11","time":"19:08:44"},{"task":"memory_phase","broad_category":"M","image_png":"M_Marble_03.png","image_id":227,"category_name":"Marble","category":15,"distinct_rating":2.67,"distinct_type":"Bottom","rt":null,"stimulus":"Stimuli_Rocks480/M_Marble_03.png","response":null,"trial_type":"image-keyboard-response","trial_index":87,"plugin_version":"2.1.0","time_elapsed":504458,"subject_id":"92540","group":"Group2","condition":"1_Rep","full_date":"2026-03-11T19:08:44.567Z","date":"2026-03-11","time":"19:08:44"},{"rt":null,"stimulus":"<p style=\"font-size: 50px; margin: 0; text-align: center;\">+</p>","response":null,"trial_type":"html-keyboard-response","trial_index":88,"plugin_version":"2.1.0","time_elapsed":505471,"subject_id":"92540","group":"Group2","condition":"1_Rep","full_date":"2026-03-11T19:08:44.567Z","date":"2026-03-11","time":"19:08:44"},{"task":"memory_phase","broad_category":"S","image_png":"S_Shale_02.png","image_id":466,"category_name":"Shale","category":30,"distinct_rating":2.9,"distinct_type":"Bottom","rt":null,"stimulus":"Stimuli_Rocks480/S_Shale_02.png","response":null,"trial_type":"image-keyboard-response","trial_index":89,"plugin_version":"2.1.0","time_elapsed":507985,"subject_id":"92540","group":"Group2","condition":"1_Rep","full_date":"2026-03-11T19:08:44.567Z","date":"2026-03-11","time":"19:08:44"},{"rt":null,"stimulus":"<p style=\"font-size: 50px; margin: 0; text-align: center;\">+</p>","response":null,"trial_type":"html-keyboard-response","trial_index":90,"plugin_version":"2.1.0","time_elapsed":508996,"subject_id":"92540","group":"Group2","condition":"1_Rep","full_date":"2026-03-11T19:08:44.567Z","date":"2026-03-11","time":"19:08:44"},{"task":"memory_phase","broad_category":"M","image_png":"M_Slate_14.png","image_id":318,"category_name":"Slate","category":20,"distinct_rating":2.58,"distinct_type":"Bottom","rt":null,"stimulus":"Stimuli_Rocks480/M_Slate_14.png","response":null,"trial_type":"image-keyboard-response","trial_index":91,"plugin_version":"2.1.0","time_elapsed":511511,"subject_id":"92540","group":"Group2","condition":"1_Rep","full_date":"2026-03-11T19:08:44.567Z","date":"2026-03-11","time":"19:08:44"},{"rt":null,"stimulus":"<p style=\"font-size: 50px; margin: 0; text-align: center;\">+</p>","response":null,"trial_type":"html-keyboard-response","trial_index":92,"plugin_version":"2.1.0","time_elapsed":512523,"subject_id":"92540","group":"Group2","condition":"1_Rep","full_date":"2026-03-11T19:08:44.567Z","date":"2026-03-11","time":"19:08:44"},{"task":"memory_phase","broad_category":"M","image_png":"M_Gneiss_14.png","image_id":206,"category_name":"Gneiss","category":13,"distinct_rating":3.41,"distinct_type":"Bottom","rt":null,"stimulus":"Stimuli_Rocks480/M_Gneiss_14.png","response":null,"trial_type":"image-keyboard-response","trial_index":93,"plugin_version":"2.1.0","time_elapsed":515040,"subject_id":"92540","group":"Group2","condition":"1_Rep","full_date":"2026-03-11T19:08:44.567Z","date":"2026-03-11","time":"19:08:44"},{"rt":null,"stimulus":"<p style=\"font-size: 50px; margin: 0; text-align: center;\">+</p>","response":null,"trial_type":"html-keyboard-response","trial_index":94,"plugin_version":"2.1.0","time_elapsed":516050,"subject_id":"92540","group":"Group2","condition":"1_Rep","full_date":"2026-03-11T19:08:44.567Z","date":"2026-03-11","time":"19:08:44"},{"task":"memory_phase","broad_category":"I","image_png":"I_Pegmatite_11.png","image_id":107,"category_name":"Pegmatite","category":7,"distinct_rating":7.11,"distinct_type":"Top","rt":null,"stimulus":"Stimuli_Rocks480/I_Pegmatite_11.png","response":null,"trial_type":"image-keyboard-response","trial_index":95,"plugin_version":"2.1.0","time_elapsed":518569,"subject_id":"92540","group":"Group2","condition":"1_Rep","full_date":"2026-03-11T19:08:44.567Z","date":"2026-03-11","time":"19:08:44"},{"rt":null,"stimulus":"<p style=\"font-size: 50px; margin: 0; text-align: center;\">+</p>","response":null,"trial_type":"html-keyboard-response","trial_index":96,"plugin_version":"2.1.0","time_elapsed":519573,"subject_id":"92540","group":"Group2","condition":"1_Rep","full_date":"2026-03-11T19:08:44.567Z","date":"2026-03-11","time":"19:08:44"},{"task":"memory_phase","broad_category":"M","image_png":"M_Quartzite_07.png","image_id":279,"category_name":"Quartzite","category":18,"distinct_rating":1.97,"distinct_type":"Bottom","rt":null,"stimulus":"Stimuli_Rocks480/M_Quartzite_07.png","response":null,"trial_type":"image-keyboard-response","trial_index":97,"plugin_version":"2.1.0","time_elapsed":522084,"subject_id":"92540","group":"Group2","condition":"1_Rep","full_date":"2026-03-11T19:08:44.567Z","date":"2026-03-11","time":"19:08:44"},{"rt":null,"stimulus":"<p style=\"font-size: 50px; margin: 0; text-align: center;\">+</p>","response":null,"trial_type":"html-keyboard-response","trial_index":98,"plugin_version":"2.1.0","time_elapsed":523096,"subject_id":"92540","group":"Group2","condition":"1_Rep","full_date":"2026-03-11T19:08:44.567Z","date":"2026-03-11","time":"19:08:44"},{"task":"memory_phase","broad_category":"I","image_png":"I_Peridotite_13.png","image_id":125,"category_name":"Peridotite","category":8,"distinct_rating":7.28,"distinct_type":"Top","rt":null,"stimulus":"Stimuli_Rocks480/I_Peridotite_13.png","response":null,"trial_type":"image-keyboard-response","trial_index":99,"plugin_version":"2.1.0","time_elapsed":525614,"subject_id":"92540","group":"Group2","condition":"1_Rep","full_date":"2026-03-11T19:08:44.567Z","date":"2026-03-11","time":"19:08:44"},{"rt":null,"stimulus":"<p style=\"font-size: 50px; margin: 0; text-align: center;\">+</p>","response":null,"trial_type":"html-keyboard-response","trial_index":100,"plugin_version":"2.1.0","time_elapsed":526622,"subject_id":"92540","group":"Group2","condition":"1_Rep","full_date":"2026-03-11T19:08:44.567Z","date":"2026-03-11","time":"19:08:44"},{"task":"memory_phase","broad_category":"I","image_png":"I_Rhyolite_10.png","image_id":154,"category_name":"Rhyolite","category":10,"distinct_rating":2.88,"distinct_type":"Bottom","rt":null,"stimulus":"Stimuli_Rocks480/I_Rhyolite_10.png","response":null,"trial_type":"image-keyboard-response","trial_index":101,"plugin_version":"2.1.0","time_elapsed":529136,"subject_id":"92540","group":"Group2","condition":"1_Rep","full_date":"2026-03-11T19:08:44.567Z","date":"2026-03-11","time":"19:08:44"},{"rt":null,"stimulus":"<p style=\"font-size: 50px; margin: 0; text-align: center;\">+</p>","response":null,"trial_type":"html-keyboard-response","trial_index":102,"plugin_version":"2.1.0","time_elapsed":530151,"subject_id":"92540","group":"Group2","condition":"1_Rep","full_date":"2026-03-11T19:08:44.567Z","date":"2026-03-11","time":"19:08:44"},{"task":"memory_phase","broad_category":"I","image_png":"I_Gabbro_12.png","image_id":60,"category_name":"Gabbro","category":4,"distinct_rating":2.6,"distinct_type":"Bottom","rt":null,"stimulus":"Stimuli_Rocks480/I_Gabbro_12.png","response":null,"trial_type":"image-keyboard-response","trial_index":103,"plugin_version":"2.1.0","time_elapsed":532668,"subject_id":"92540","group":"Group2","condition":"1_Rep","full_date":"2026-03-11T19:08:44.567Z","date":"2026-03-11","time":"19:08:44"},{"rt":null,"stimulus":"<p style=\"font-size: 50px; margin: 0; text-align: center;\">+</p>","response":null,"trial_type":"html-keyboard-response","trial_index":104,"plugin_version":"2.1.0","time_elapsed":533685,"subject_id":"92540","group":"Group2","condition":"1_Rep","full_date":"2026-03-11T19:08:44.567Z","date":"2026-03-11","time":"19:08:44"},{"task":"memory_phase","broad_category":"M","image_png":"M_Slate_04.png","image_id":308,"category_name":"Slate","category":20,"distinct_rating":2.2,"distinct_type":"Bottom","rt":null,"stimulus":"Stimuli_Rocks480/M_Slate_04.png","response":null,"trial_type":"image-keyboard-response","trial_index":105,"plugin_version":"2.1.0","time_elapsed":536196,"subject_id":"92540","group":"Group2","condition":"1_Rep","full_date":"2026-03-11T19:08:44.567Z","date":"2026-03-11","time":"19:08:44"},{"rt":8302,"stimulus":"<div style=\"max-width: 760px; margin: auto; font-size: 20px; line-height: 1.5;\">\n      <h1 style=\"text-align:center; font-size: 30px;\">Instructions for the Test Phase</h1>\n      <p>\n        The study phase is now complete.\n      </p>\n      <p>\n        In the test phase, you will again see a series of rock images. \n        Some will be ones you saw before - during the study phase, while others will be new.  \n        <b>Your task</b> is to decide whether you have seen each image before by pressing the corresponding key on your keyboard:<br><br>\n          <b>A</b> - NO (you did not see this image before)<br>\n          <b>L</b> - YES (you saw this image before)<br><br>\n        The test will proceed at your own pace. You will receive feedback after each response.  \n        Please try to respond <b>as accurately as possible</b>.\n      </p>\n      <p>\n        <b>Reminder:</b> If your computer has multiple language settings (e.g., English and another language),\n        please ensure it is set to English during the test phase.\n      </p>\n      <p>\n        You can track your progress using the <b>completion bar</b> at the top of the screen.  \n        Note that it has been refreshed to reflect your progress during this final phase.\n      </p>\n      <p>\n        Press the button below when you are ready to continue.\n      </p>\n    </div>","response":0,"trial_type":"html-button-response","trial_index":106,"plugin_version":"2.1.0","time_elapsed":544502,"subject_id":"92540","group":"Group2","condition":"1_Rep","full_date":"2026-03-11T19:08:44.567Z","date":"2026-03-11","time":"19:08:44"},{"correct_response":"a","task":"test_phase","broad_category":"M","image_png":"M_Marble_16.png","image_id":240,"category_name":"Marble","category":15,"distinct_rating":2.57,"distinct_type":"Bottom","item_type":"Foil","rt":3305,"stimulus":"Stimuli_Rocks480/M_Marble_16.png","response":"a","trial_type":"image-keyboard-response","trial_index":107,"plugin_version":"2.1.0","time_elapsed":547814,"subject_id":"92540","group":"Group2","condition":"1_Rep","full_date":"2026-03-11T19:08:44.567Z","date":"2026-03-11","time":"19:08:44","cor_ans":true},{"trial_type":"html-keyboard-response","rt":null,"stimulus":"<p style=\"color: green; font-size: 50px; font-weight: bold;\">Correct</p>","response":null,"trial_index":108,"plugin_version":"2.1.0","time_elapsed":548338,"subject_id":"92540","group":"Group2","condition":"1_Rep","full_date":"2026-03-11T19:08:44.567Z","date":"2026-03-11","time":"19:08:44"},{"correct_response":"l","task":"test_phase","broad_category":"S","image_png":"S_Chert_13.png","image_id":365,"category_name":"Chert","category":23,"distinct_rating":6.57,"distinct_type":"Top","item_type":"Target","rt":1232,"stimulus":"Stimuli_Rocks480/S_Chert_13.png","response":"l","trial_type":"image-keyboard-response","trial_index":109,"plugin_version":"2.1.0","time_elapsed":549573,"subject_id":"92540","group":"Group2","condition":"1_Rep","full_date":"2026-03-11T19:08:44.567Z","date":"2026-03-11","time":"19:08:44","cor_ans":true},{"trial_type":"html-keyboard-response","rt":null,"stimulus":"<p style=\"color: green; font-size: 50px; font-weight: bold;\">Correct</p>","response":null,"trial_index":110,"plugin_version":"2.1.0","time_elapsed":550075,"subject_id":"92540","group":"Group2","condition":"1_Rep","full_date":"2026-03-11T19:08:44.567Z","date":"2026-03-11","time":"19:08:44"},{"correct_response":"l","task":"test_phase","broad_category":"M","image_png":"M_Gneiss_14.png","image_id":206,"category_name":"Gneiss","category":13,"distinct_rating":3.41,"distinct_type":"Bottom","item_type":"Target","rt":1506,"stimulus":"Stimuli_Rocks480/M_Gneiss_14.png","response":"a","trial_type":"image-keyboard-response","trial_index":111,"plugin_version":"2.1.0","time_elapsed":551583,"subject_id":"92540","group":"Group2","condition":"1_Rep","full_date":"2026-03-11T19:08:44.567Z","date":"2026-03-11","time":"19:08:44","cor_ans":false},{"trial_type":"html-keyboard-response","rt":null,"stimulus":"<p style=\"color: red; font-size: 50px; font-weight: bold;\">Incorrect</p>","response":null,"trial_index":112,"plugin_version":"2.1.0","time_elapsed":552094,"subject_id":"92540","group":"Group2","condition":"1_Rep","full_date":"2026-03-11T19:08:44.567Z","date":"2026-03-11","time":"19:08:44"},{"correct_response":"l","task":"test_phase","broad_category":"M","image_png":"M_Marble_14.png","image_id":238,"category_name":"Marble","category":15,"distinct_rating":3.31,"distinct_type":"Bottom","item_type":"Target","rt":939,"stimulus":"Stimuli_Rocks480/M_Marble_14.png","response":"a","trial_type":"image-keyboard-response","trial_index":113,"plugin_version":"2.1.0","time_elapsed":553035,"subject_id":"92540","group":"Group2","condition":"1_Rep","full_date":"2026-03-11T19:08:44.567Z","date":"2026-03-11","time":"19:08:44","cor_ans":false},{"trial_type":"html-keyboard-response","rt":null,"stimulus":"<p style=\"color: red; font-size: 50px; font-weight: bold;\">Incorrect</p>","response":null,"trial_index":114,"plugin_version":"2.1.0","time_elapsed":553547,"subject_id":"92540","group":"Group2","condition":"1_Rep","full_date":"2026-03-11T19:08:44.567Z","date":"2026-03-11","time":"19:08:44"},{"correct_response":"a","task":"test_phase","broad_category":"M","image_png":"M_Quartzite_13.png","image_id":285,"category_name":"Quartzite","category":18,"distinct_rating":2.27,"distinct_type":"Bottom","item_type":"Foil","rt":1165,"stimulus":"Stimuli_Rocks480/M_Quartzite_13.png","response":"l","trial_type":"image-keyboard-response","trial_index":115,"plugin_version":"2.1.0","time_elapsed":554715,"subject_id":"92540","group":"Group2","condition":"1_Rep","full_date":"2026-03-11T19:08:44.567Z","date":"2026-03-11","time":"19:08:44","cor_ans":false},{"trial_type":"html-keyboard-response","rt":null,"stimulus":"<p style=\"color: red; font-size: 50px; font-weight: bold;\">Incorrect</p>","response":null,"trial_index":116,"plugin_version":"2.1.0","time_elapsed":555237,"subject_id":"92540","group":"Group2","condition":"1_Rep","full_date":"2026-03-11T19:08:44.567Z","date":"2026-03-11","time":"19:08:44"},{"correct_response":"a","task":"test_phase","broad_category":"I","image_png":"I_Obsidian_05.png","image_id":85,"category_name":"Obsidian","category":6,"distinct_rating":7.32,"distinct_type":"Top","item_type":"Foil","rt":722,"stimulus":"Stimuli_Rocks480/I_Obsidian_05.png","response":"a","trial_type":"image-keyboard-response","trial_index":117,"plugin_version":"2.1.0","time_elapsed":555962,"subject_id":"92540","group":"Group2","condition":"1_Rep","full_date":"2026-03-11T19:08:44.567Z","date":"2026-03-11","time":"19:08:44","cor_ans":true},{"trial_type":"html-keyboard-response","rt":null,"stimulus":"<p style=\"color: green; font-size: 50px; font-weight: bold;\">Correct</p>","response":null,"trial_index":118,"plugin_version":"2.1.0","time_elapsed":556467,"subject_id":"92540","group":"Group2","condition":"1_Rep","full_date":"2026-03-11T19:08:44.567Z","date":"2026-03-11","time":"19:08:44"},{"correct_response":"l","task":"test_phase","broad_category":"I","image_png":"I_Basalt_08.png","image_id":24,"category_name":"Basalt","category":2,"distinct_rating":2.31,"distinct_type":"Bottom","item_type":"Target","rt":894,"stimulus":"Stimuli_Rocks480/I_Basalt_08.png","response":"a","trial_type":"image-keyboard-response","trial_index":119,"plugin_version":"2.1.0","time_elapsed":557362,"subject_id":"92540","group":"Group2","condition":"1_Rep","full_date":"2026-03-11T19:08:44.567Z","date":"2026-03-11","time":"19:08:44","cor_ans":false},{"trial_type":"html-keyboard-response","rt":null,"stimulus":"<p style=\"color: red; font-size: 50px; font-weight: bold;\">Incorrect</p>","response":null,"trial_index":120,"plugin_version":"2.1.0","time_elapsed":557880,"subject_id":"92540","group":"Group2","condition":"1_Rep","full_date":"2026-03-11T19:08:44.567Z","date":"2026-03-11","time":"19:08:44"},{"correct_response":"l","task":"test_phase","broad_category":"S","image_png":"S_Shale_07.png","image_id":471,"category_name":"Shale","category":30,"distinct_rating":2.73,"distinct_type":"Bottom","item_type":"Target","rt":806,"stimulus":"Stimuli_Rocks480/S_Shale_07.png","response":"a","trial_type":"image-keyboard-response","trial_index":121,"plugin_version":"2.1.0","time_elapsed":558689,"subject_id":"92540","group":"Group2","condition":"1_Rep","full_date":"2026-03-11T19:08:44.567Z","date":"2026-03-11","time":"19:08:44","cor_ans":false},{"trial_type":"html-keyboard-response","rt":null,"stimulus":"<p style=\"color: red; font-size: 50px; font-weight: bold;\">Incorrect</p>","response":null,"trial_index":122,"plugin_version":"2.1.0","time_elapsed":559202,"subject_id":"92540","group":"Group2","condition":"1_Rep","full_date":"2026-03-11T19:08:44.567Z","date":"2026-03-11","time":"19:08:44"},{"correct_response":"l","task":"test_phase","broad_category":"I","image_png":"I_Pegmatite_11.png","image_id":107,"category_name":"Pegmatite","category":7,"distinct_rating":7.11,"distinct_type":"Top","item_type":"Target","rt":670,"stimulus":"Stimuli_Rocks480/I_Pegmatite_11.png","response":"l","trial_type":"image-keyboard-response","trial_index":123,"plugin_version":"2.1.0","time_elapsed":559874,"subject_id":"92540","group":"Group2","condition":"1_Rep","full_date":"2026-03-11T19:08:44.567Z","date":"2026-03-11","time":"19:08:44","cor_ans":true},{"trial_type":"html-keyboard-response","rt":null,"stimulus":"<p style=\"color: green; font-size: 50px; font-weight: bold;\">Correct</p>","response":null,"trial_index":124,"plugin_version":"2.1.0","time_elapsed":560385,"subject_id":"92540","group":"Group2","condition":"1_Rep","full_date":"2026-03-11T19:08:44.567Z","date":"2026-03-11","time":"19:08:44"},{"correct_response":"a","task":"test_phase","broad_category":"M","image_png":"M_Phyllite_07.png","image_id":263,"category_name":"Phyllite","category":17,"distinct_rating":2.59,"distinct_type":"Bottom","item_type":"Foil","rt":724,"stimulus":"Stimuli_Rocks480/M_Phyllite_07.png","response":"l","trial_type":"image-keyboard-response","trial_index":125,"plugin_version":"2.1.0","time_elapsed":561112,"subject_id":"92540","group":"Group2","condition":"1_Rep","full_date":"2026-03-11T19:08:44.567Z","date":"2026-03-11","time":"19:08:44","cor_ans":false},{"trial_type":"html-keyboard-response","rt":null,"stimulus":"<p style=\"color: red; font-size: 50px; font-weight: bold;\">Incorrect</p>","response":null,"trial_index":126,"plugin_version":"2.1.0","time_elapsed":561614,"subject_id":"92540","group":"Group2","condition":"1_Rep","full_date":"2026-03-11T19:08:44.567Z","date":"2026-03-11","time":"19:08:44"},{"correct_response":"l","task":"test_phase","broad_category":"S","image_png":"S_Dolomite_16.png","image_id":400,"category_name":"Dolomite","category":25,"distinct_rating":1.71,"distinct_type":"Bottom","item_type":"Target","rt":721,"stimulus":"Stimuli_Rocks480/S_Dolomite_16.png","response":"l","trial_type":"image-keyboard-response","trial_index":127,"plugin_version":"2.1.0","time_elapsed":562339,"subject_id":"92540","group":"Group2","condition":"1_Rep","full_date":"2026-03-11T19:08:44.567Z","date":"2026-03-11","time":"19:08:44","cor_ans":true},{"trial_type":"html-keyboard-response","rt":null,"stimulus":"<p style=\"color: green; font-size: 50px; font-weight: bold;\">Correct</p>","response":null,"trial_index":128,"plugin_version":"2.1.0","time_elapsed":562844,"subject_id":"92540","group":"Group2","condition":"1_Rep","full_date":"2026-03-11T19:08:44.567Z","date":"2026-03-11","time":"19:08:44"},{"correct_response":"a","task":"test_phase","broad_category":"M","image_png":"M_Slate_03.png","image_id":307,"category_name":"Slate","category":20,"distinct_rating":1.87,"distinct_type":"Bottom","item_type":"Foil","rt":656,"stimulus":"Stimuli_Rocks480/M_Slate_03.png","response":"l","trial_type":"image-keyboard-response","trial_index":129,"plugin_version":"2.1.0","time_elapsed":563504,"subject_id":"92540","group":"Group2","condition":"1_Rep","full_date":"2026-03-11T19:08:44.567Z","date":"2026-03-11","time":"19:08:44","cor_ans":false},{"trial_type":"html-keyboard-response","rt":null,"stimulus":"<p style=\"color: red; font-size: 50px; font-weight: bold;\">Incorrect</p>","response":null,"trial_index":130,"plugin_version":"2.1.0","time_elapsed":564017,"subject_id":"92540","group":"Group2","condition":"1_Rep","full_date":"2026-03-11T19:08:44.567Z","date":"2026-03-11","time":"19:08:44"},{"correct_response":"a","task":"test_phase","broad_category":"I","image_png":"I_Pegmatite_10.png","image_id":106,"category_name":"Pegmatite","category":7,"distinct_rating":7.66,"distinct_type":"Top","item_type":"Foil","rt":666,"stimulus":"Stimuli_Rocks480/I_Pegmatite_10.png","response":"a","trial_type":"image-keyboard-response","trial_index":131,"plugin_version":"2.1.0","time_elapsed":564687,"subject_id":"92540","group":"Group2","condition":"1_Rep","full_date":"2026-03-11T19:08:44.567Z","date":"2026-03-11","time":"19:08:44","cor_ans":true},{"trial_type":"html-keyboard-response","rt":null,"stimulus":"<p style=\"color: green; font-size: 50px; font-weight: bold;\">Correct</p>","response":null,"trial_index":132,"plugin_version":"2.1.0","time_elapsed":565207,"subject_id":"92540","group":"Group2","condition":"1_Rep","full_date":"2026-03-11T19:08:44.567Z","date":"2026-03-11","time":"19:08:44"},{"correct_response":"a","task":"test_phase","broad_category":"I","image_png":"I_Pumice_08.png","image_id":136,"category_name":"Pumice","category":9,"distinct_rating":3.1,"distinct_type":"Bottom","item_type":"Foil","rt":930,"stimulus":"Stimuli_Rocks480/I_Pumice_08.png","response":"a","trial_type":"image-keyboard-response","trial_index":133,"plugin_version":"2.1.0","time_elapsed":566139,"subject_id":"92540","group":"Group2","condition":"1_Rep","full_date":"2026-03-11T19:08:44.567Z","date":"2026-03-11","time":"19:08:44","cor_ans":true},{"trial_type":"html-keyboard-response","rt":null,"stimulus":"<p style=\"color: green; font-size: 50px; font-weight: bold;\">Correct</p>","response":null,"trial_index":134,"plugin_version":"2.1.0","time_elapsed":566658,"subject_id":"92540","group":"Group2","condition":"1_Rep","full_date":"2026-03-11T19:08:44.567Z","date":"2026-03-11","time":"19:08:44"},{"correct_response":"l","task":"test_phase","broad_category":"I","image_png":"I_Diorite_01.png","image_id":33,"category_name":"Diorite","category":3,"distinct_rating":2.97,"distinct_type":"Bottom","item_type":"Target","rt":720,"stimulus":"Stimuli_Rocks480/I_Diorite_01.png","response":"l","trial_type":"image-keyboard-response","trial_index":135,"plugin_version":"2.1.0","time_elapsed":567381,"subject_id":"92540","group":"Group2","condition":"1_Rep","full_date":"2026-03-11T19:08:44.567Z","date":"2026-03-11","time":"19:08:44","cor_ans":true},{"trial_type":"html-keyboard-response","rt":null,"stimulus":"<p style=\"color: green; font-size: 50px; font-weight: bold;\">Correct</p>","response":null,"trial_index":136,"plugin_version":"2.1.0","time_elapsed":567898,"subject_id":"92540","group":"Group2","condition":"1_Rep","full_date":"2026-03-11T19:08:44.567Z","date":"2026-03-11","time":"19:08:44"},{"correct_response":"a","task":"test_phase","broad_category":"S","image_png":"S_Sandstone_03.png","image_id":451,"category_name":"Sandstone","category":29,"distinct_rating":1.86,"distinct_type":"Bottom","item_type":"Foil","rt":749,"stimulus":"Stimuli_Rocks480/S_Sandstone_03.png","response":"l","trial_type":"image-keyboard-response","trial_index":137,"plugin_version":"2.1.0","time_elapsed":568651,"subject_id":"92540","group":"Group2","condition":"1_Rep","full_date":"2026-03-11T19:08:44.567Z","date":"2026-03-11","time":"19:08:44","cor_ans":false},{"trial_type":"html-keyboard-response","rt":null,"stimulus":"<p style=\"color: red; font-size: 50px; font-weight: bold;\">Incorrect</p>","response":null,"trial_index":138,"plugin_version":"2.1.0","time_elapsed":569158,"subject_id":"92540","group":"Group2","condition":"1_Rep","full_date":"2026-03-11T19:08:44.567Z","date":"2026-03-11","time":"19:08:44"},{"correct_response":"a","task":"test_phase","broad_category":"I","image_png":"I_Rhyolite_11.png","image_id":155,"category_name":"Rhyolite","category":10,"distinct_rating":1.73,"distinct_type":"Bottom","item_type":"Foil","rt":1032,"stimulus":"Stimuli_Rocks480/I_Rhyolite_11.png","response":"l","trial_type":"image-keyboard-response","trial_index":139,"plugin_version":"2.1.0","time_elapsed":570191,"subject_id":"92540","group":"Group2","condition":"1_Rep","full_date":"2026-03-11T19:08:44.567Z","date":"2026-03-11","time":"19:08:44","cor_ans":false},{"trial_type":"html-keyboard-response","rt":null,"stimulus":"<p style=\"color: red; font-size: 50px; font-weight: bold;\">Incorrect</p>","response":null,"trial_index":140,"plugin_version":"2.1.0","time_elapsed":570694,"subject_id":"92540","group":"Group2","condition":"1_Rep","full_date":"2026-03-11T19:08:44.567Z","date":"2026-03-11","time":"19:08:44"},{"correct_response":"l","task":"test_phase","broad_category":"M","image_png":"M_Gneiss_10.png","image_id":202,"category_name":"Gneiss","category":13,"distinct_rating":3.09,"distinct_type":"Bottom","item_type":"Target","rt":1152,"stimulus":"Stimuli_Rocks480/M_Gneiss_10.png","response":"a","trial_type":"image-keyboard-response","trial_index":141,"plugin_version":"2.1.0","time_elapsed":571851,"subject_id":"92540","group":"Group2","condition":"1_Rep","full_date":"2026-03-11T19:08:44.567Z","date":"2026-03-11","time":"19:08:44","cor_ans":false},{"trial_type":"html-keyboard-response","rt":null,"stimulus":"<p style=\"color: red; font-size: 50px; font-weight: bold;\">Incorrect</p>","response":null,"trial_index":142,"plugin_version":"2.1.0","time_elapsed":572367,"subject_id":"92540","group":"Group2","condition":"1_Rep","full_date":"2026-03-11T19:08:44.567Z","date":"2026-03-11","time":"19:08:44"},{"correct_response":"a","task":"test_phase","broad_category":"I","image_png":"I_Andesite_10.png","image_id":10,"category_name":"Andesite","category":1,"distinct_rating":3.15,"distinct_type":"Bottom","item_type":"Foil","rt":961,"stimulus":"Stimuli_Rocks480/I_Andesite_10.png","response":"a","trial_type":"image-keyboard-response","trial_index":143,"plugin_version":"2.1.0","time_elapsed":573331,"subject_id":"92540","group":"Group2","condition":"1_Rep","full_date":"2026-03-11T19:08:44.567Z","date":"2026-03-11","time":"19:08:44","cor_ans":true},{"trial_type":"html-keyboard-response","rt":null,"stimulus":"<p style=\"color: green; font-size: 50px; font-weight: bold;\">Correct</p>","response":null,"trial_index":144,"plugin_version":"2.1.0","time_elapsed":573838,"subject_id":"92540","group":"Group2","condition":"1_Rep","full_date":"2026-03-11T19:08:44.567Z","date":"2026-03-11","time":"19:08:44"},{"correct_response":"l","task":"test_phase","broad_category":"I","image_png":"I_Andesite_03.png","image_id":3,"category_name":"Andesite","category":1,"distinct_rating":3.17,"distinct_type":"Bottom","item_type":"Target","rt":835,"stimulus":"Stimuli_Rocks480/I_Andesite_03.png","response":"a","trial_type":"image-keyboard-response","trial_index":145,"plugin_version":"2.1.0","time_elapsed":574676,"subject_id":"92540","group":"Group2","condition":"1_Rep","full_date":"2026-03-11T19:08:44.567Z","date":"2026-03-11","time":"19:08:44","cor_ans":false},{"trial_type":"html-keyboard-response","rt":null,"stimulus":"<p style=\"color: red; font-size: 50px; font-weight: bold;\">Incorrect</p>","response":null,"trial_index":146,"plugin_version":"2.1.0","time_elapsed":575184,"subject_id":"92540","group":"Group2","condition":"1_Rep","full_date":"2026-03-11T19:08:44.567Z","date":"2026-03-11","time":"19:08:44"},{"correct_response":"l","task":"test_phase","broad_category":"S","image_png":"S_Sandstone_04.png","image_id":452,"category_name":"Sandstone","category":29,"distinct_rating":1.8,"distinct_type":"Bottom","item_type":"Target","rt":836,"stimulus":"Stimuli_Rocks480/S_Sandstone_04.png","response":"l","trial_type":"image-keyboard-response","trial_index":147,"plugin_version":"2.1.0","time_elapsed":576022,"subject_id":"92540","group":"Group2","condition":"1_Rep","full_date":"2026-03-11T19:08:44.567Z","date":"2026-03-11","time":"19:08:44","cor_ans":true},{"trial_type":"html-keyboard-response","rt":null,"stimulus":"<p style=\"color: green; font-size: 50px; font-weight: bold;\">Correct</p>","response":null,"trial_index":148,"plugin_version":"2.1.0","time_elapsed":576542,"subject_id":"92540","group":"Group2","condition":"1_Rep","full_date":"2026-03-11T19:08:44.567Z","date":"2026-03-11","time":"19:08:44"},{"correct_response":"a","task":"test_phase","broad_category":"S","image_png":"S_Rock Salt_01.png","image_id":433,"category_name":"Rock Salt","category":28,"distinct_rating":7.18,"distinct_type":"Top","item_type":"Foil","rt":1215,"stimulus":"Stimuli_Rocks480/S_Rock Salt_01.png","response":"l","trial_type":"image-keyboard-response","trial_index":149,"plugin_version":"2.1.0","time_elapsed":577760,"subject_id":"92540","group":"Group2","condition":"1_Rep","full_date":"2026-03-11T19:08:44.567Z","date":"2026-03-11","time":"19:08:44","cor_ans":false},{"trial_type":"html-keyboard-response","rt":null,"stimulus":"<p style=\"color: red; font-size: 50px; font-weight: bold;\">Incorrect</p>","response":null,"trial_index":150,"plugin_version":"2.1.0","time_elapsed":578265,"subject_id":"92540","group":"Group2","condition":"1_Rep","full_date":"2026-03-11T19:08:44.567Z","date":"2026-03-11","time":"19:08:44"},{"correct_response":"a","task":"test_phase","broad_category":"S","image_png":"S_Sandstone_16.png","image_id":464,"category_name":"Sandstone","category":29,"distinct_rating":1.93,"distinct_type":"Bottom","item_type":"Foil","rt":760,"stimulus":"Stimuli_Rocks480/S_Sandstone_16.png","response":"a","trial_type":"image-keyboard-response","trial_index":151,"plugin_version":"2.1.0","time_elapsed":579027,"subject_id":"92540","group":"Group2","condition":"1_Rep","full_date":"2026-03-11T19:08:44.567Z","date":"2026-03-11","time":"19:08:44","cor_ans":true},{"trial_type":"html-keyboard-response","rt":null,"stimulus":"<p style=\"color: green; font-size: 50px; font-weight: bold;\">Correct</p>","response":null,"trial_index":152,"plugin_version":"2.1.0","time_elapsed":579530,"subject_id":"92540","group":"Group2","condition":"1_Rep","full_date":"2026-03-11T19:08:44.567Z","date":"2026-03-11","time":"19:08:44"},{"correct_response":"a","task":"test_phase","broad_category":"S","image_png":"S_Rock Gypsum_04.png","image_id":420,"category_name":"Rock Gypsum","category":27,"distinct_rating":7.61,"distinct_type":"Top","item_type":"Foil","rt":759,"stimulus":"Stimuli_Rocks480/S_Rock Gypsum_04.png","response":"l","trial_type":"image-keyboard-response","trial_index":153,"plugin_version":"2.1.0","time_elapsed":580292,"subject_id":"92540","group":"Group2","condition":"1_Rep","full_date":"2026-03-11T19:08:44.567Z","date":"2026-03-11","time":"19:08:44","cor_ans":false},{"trial_type":"html-keyboard-response","rt":null,"stimulus":"<p style=\"color: red; font-size: 50px; font-weight: bold;\">Incorrect</p>","response":null,"trial_index":154,"plugin_version":"2.1.0","time_elapsed":580796,"subject_id":"92540","group":"Group2","condition":"1_Rep","full_date":"2026-03-11T19:08:44.567Z","date":"2026-03-11","time":"19:08:44"},{"correct_response":"l","task":"test_phase","broad_category":"I","image_png":"I_Pumice_14.png","image_id":142,"category_name":"Pumice","category":9,"distinct_rating":3.22,"distinct_type":"Bottom","item_type":"Target","rt":1425,"stimulus":"Stimuli_Rocks480/I_Pumice_14.png","response":"a","trial_type":"image-keyboard-response","trial_index":155,"plugin_version":"2.1.0","time_elapsed":582223,"subject_id":"92540","group":"Group2","condition":"1_Rep","full_date":"2026-03-11T19:08:44.567Z","date":"2026-03-11","time":"19:08:44","cor_ans":false},{"trial_type":"html-keyboard-response","rt":null,"stimulus":"<p style=\"color: red; font-size: 50px; font-weight: bold;\">Incorrect</p>","response":null,"trial_index":156,"plugin_version":"2.1.0","time_elapsed":582731,"subject_id":"92540","group":"Group2","condition":"1_Rep","full_date":"2026-03-11T19:08:44.567Z","date":"2026-03-11","time":"19:08:44"},{"correct_response":"a","task":"test_phase","broad_category":"I","image_png":"I_Gabbro_11.png","image_id":59,"category_name":"Gabbro","category":4,"distinct_rating":1.99,"distinct_type":"Bottom","item_type":"Foil","rt":796,"stimulus":"Stimuli_Rocks480/I_Gabbro_11.png","response":"a","trial_type":"image-keyboard-response","trial_index":157,"plugin_version":"2.1.0","time_elapsed":583531,"subject_id":"92540","group":"Group2","condition":"1_Rep","full_date":"2026-03-11T19:08:44.567Z","date":"2026-03-11","time":"19:08:44","cor_ans":true},{"trial_type":"html-keyboard-response","rt":null,"stimulus":"<p style=\"color: green; font-size: 50px; font-weight: bold;\">Correct</p>","response":null,"trial_index":158,"plugin_version":"2.1.0","time_elapsed":584044,"subject_id":"92540","group":"Group2","condition":"1_Rep","full_date":"2026-03-11T19:08:44.567Z","date":"2026-03-11","time":"19:08:44"},{"correct_response":"a","task":"test_phase","broad_category":"M","image_png":"M_Slate_11.png","image_id":315,"category_name":"Slate","category":20,"distinct_rating":2.75,"distinct_type":"Bottom","item_type":"Foil","rt":712,"stimulus":"Stimuli_Rocks480/M_Slate_11.png","response":"l","trial_type":"image-keyboard-response","trial_index":159,"plugin_version":"2.1.0","time_elapsed":584759,"subject_id":"92540","group":"Group2","condition":"1_Rep","full_date":"2026-03-11T19:08:44.567Z","date":"2026-03-11","time":"19:08:44","cor_ans":false},{"trial_type":"html-keyboard-response","rt":null,"stimulus":"<p style=\"color: red; font-size: 50px; font-weight: bold;\">Incorrect</p>","response":null,"trial_index":160,"plugin_version":"2.1.0","time_elapsed":585274,"subject_id":"92540","group":"Group2","condition":"1_Rep","full_date":"2026-03-11T19:08:44.567Z","date":"2026-03-11","time":"19:08:44"},{"correct_response":"l","task":"test_phase","broad_category":"I","image_png":"I_Andesite_09.png","image_id":9,"category_name":"Andesite","category":1,"distinct_rating":2.49,"distinct_type":"Bottom","item_type":"Target","rt":968,"stimulus":"Stimuli_Rocks480/I_Andesite_09.png","response":"l","trial_type":"image-keyboard-response","trial_index":161,"plugin_version":"2.1.0","time_elapsed":586244,"subject_id":"92540","group":"Group2","condition":"1_Rep","full_date":"2026-03-11T19:08:44.567Z","date":"2026-03-11","time":"19:08:44","cor_ans":true},{"trial_type":"html-keyboard-response","rt":null,"stimulus":"<p style=\"color: green; font-size: 50px; font-weight: bold;\">Correct</p>","response":null,"trial_index":162,"plugin_version":"2.1.0","time_elapsed":586754,"subject_id":"92540","group":"Group2","condition":"1_Rep","full_date":"2026-03-11T19:08:44.567Z","date":"2026-03-11","time":"19:08:44"},{"correct_response":"l","task":"test_phase","broad_category":"M","image_png":"M_Quartzite_07.png","image_id":279,"category_name":"Quartzite","category":18,"distinct_rating":1.97,"distinct_type":"Bottom","item_type":"Target","rt":714,"stimulus":"Stimuli_Rocks480/M_Quartzite_07.png","response":"l","trial_type":"image-keyboard-response","trial_index":163,"plugin_version":"2.1.0","time_elapsed":587471,"subject_id":"92540","group":"Group2","condition":"1_Rep","full_date":"2026-03-11T19:08:44.567Z","date":"2026-03-11","time":"19:08:44","cor_ans":true},{"trial_type":"html-keyboard-response","rt":null,"stimulus":"<p style=\"color: green; font-size: 50px; font-weight: bold;\">Correct</p>","response":null,"trial_index":164,"plugin_version":"2.1.0","time_elapsed":587984,"subject_id":"92540","group":"Group2","condition":"1_Rep","full_date":"2026-03-11T19:08:44.567Z","date":"2026-03-11","time":"19:08:44"},{"correct_response":"l","task":"test_phase","broad_category":"M","image_png":"M_Phyllite_02.png","image_id":258,"category_name":"Phyllite","category":17,"distinct_rating":2.89,"distinct_type":"Bottom","item_type":"Target","rt":540,"stimulus":"Stimuli_Rocks480/M_Phyllite_02.png","response":"l","trial_type":"image-keyboard-response","trial_index":165,"plugin_version":"2.1.0","time_elapsed":588526,"subject_id":"92540","group":"Group2","condition":"1_Rep","full_date":"2026-03-11T19:08:44.567Z","date":"2026-03-11","time":"19:08:44","cor_ans":true},{"trial_type":"html-keyboard-response","rt":null,"stimulus":"<p style=\"color: green; font-size: 50px; font-weight: bold;\">Correct</p>","response":null,"trial_index":166,"plugin_version":"2.1.0","time_elapsed":589040,"subject_id":"92540","group":"Group2","condition":"1_Rep","full_date":"2026-03-11T19:08:44.567Z","date":"2026-03-11","time":"19:08:44"},{"correct_response":"l","task":"test_phase","broad_category":"I","image_png":"I_Basalt_13.png","image_id":29,"category_name":"Basalt","category":2,"distinct_rating":2.68,"distinct_type":"Bottom","item_type":"Target","rt":823,"stimulus":"Stimuli_Rocks480/I_Basalt_13.png","response":"l","trial_type":"image-keyboard-response","trial_index":167,"plugin_version":"2.1.0","time_elapsed":589866,"subject_id":"92540","group":"Group2","condition":"1_Rep","full_date":"2026-03-11T19:08:44.567Z","date":"2026-03-11","time":"19:08:44","cor_ans":true},{"trial_type":"html-keyboard-response","rt":null,"stimulus":"<p style=\"color: green; font-size: 50px; font-weight: bold;\">Correct</p>","response":null,"trial_index":168,"plugin_version":"2.1.0","time_elapsed":590384,"subject_id":"92540","group":"Group2","condition":"1_Rep","full_date":"2026-03-11T19:08:44.567Z","date":"2026-03-11","time":"19:08:44"},{"correct_response":"l","task":"test_phase","broad_category":"M","image_png":"M_Gneiss_15.png","image_id":207,"category_name":"Gneiss","category":13,"distinct_rating":3.11,"distinct_type":"Bottom","item_type":"Target","rt":864,"stimulus":"Stimuli_Rocks480/M_Gneiss_15.png","response":"l","trial_type":"image-keyboard-response","trial_index":169,"plugin_version":"2.1.0","time_elapsed":591251,"subject_id":"92540","group":"Group2","condition":"1_Rep","full_date":"2026-03-11T19:08:44.567Z","date":"2026-03-11","time":"19:08:44","cor_ans":true},{"trial_type":"html-keyboard-response","rt":null,"stimulus":"<p style=\"color: green; font-size: 50px; font-weight: bold;\">Correct</p>","response":null,"trial_index":170,"plugin_version":"2.1.0","time_elapsed":591768,"subject_id":"92540","group":"Group2","condition":"1_Rep","full_date":"2026-03-11T19:08:44.567Z","date":"2026-03-11","time":"19:08:44"},{"correct_response":"l","task":"test_phase","broad_category":"S","image_png":"S_Dolomite_07.png","image_id":391,"category_name":"Dolomite","category":25,"distinct_rating":1.73,"distinct_type":"Bottom","item_type":"Target","rt":782,"stimulus":"Stimuli_Rocks480/S_Dolomite_07.png","response":"l","trial_type":"image-keyboard-response","trial_index":171,"plugin_version":"2.1.0","time_elapsed":592552,"subject_id":"92540","group":"Group2","condition":"1_Rep","full_date":"2026-03-11T19:08:44.567Z","date":"2026-03-11","time":"19:08:44","cor_ans":true},{"trial_type":"html-keyboard-response","rt":null,"stimulus":"<p style=\"color: green; font-size: 50px; font-weight: bold;\">Correct</p>","response":null,"trial_index":172,"plugin_version":"2.1.0","time_elapsed":593064,"subject_id":"92540","group":"Group2","condition":"1_Rep","full_date":"2026-03-11T19:08:44.567Z","date":"2026-03-11","time":"19:08:44"},{"correct_response":"l","task":"test_phase","broad_category":"M","image_png":"M_Slate_04.png","image_id":308,"category_name":"Slate","category":20,"distinct_rating":2.2,"distinct_type":"Bottom","item_type":"Target","rt":697,"stimulus":"Stimuli_Rocks480/M_Slate_04.png","response":"l","trial_type":"image-keyboard-response","trial_index":173,"plugin_version":"2.1.0","time_elapsed":593763,"subject_id":"92540","group":"Group2","condition":"1_Rep","full_date":"2026-03-11T19:08:44.567Z","date":"2026-03-11","time":"19:08:44","cor_ans":true},{"trial_type":"html-keyboard-response","rt":null,"stimulus":"<p style=\"color: green; font-size: 50px; font-weight: bold;\">Correct</p>","response":null,"trial_index":174,"plugin_version":"2.1.0","time_elapsed":594279,"subject_id":"92540","group":"Group2","condition":"1_Rep","full_date":"2026-03-11T19:08:44.567Z","date":"2026-03-11","time":"19:08:44"},{"correct_response":"l","task":"test_phase","broad_category":"I","image_png":"I_Peridotite_13.png","image_id":125,"category_name":"Peridotite","category":8,"distinct_rating":7.28,"distinct_type":"Top","item_type":"Target","rt":763,"stimulus":"Stimuli_Rocks480/I_Peridotite_13.png","response":"a","trial_type":"image-keyboard-response","trial_index":175,"plugin_version":"2.1.0","time_elapsed":595044,"subject_id":"92540","group":"Group2","condition":"1_Rep","full_date":"2026-03-11T19:08:44.567Z","date":"2026-03-11","time":"19:08:44","cor_ans":false},{"trial_type":"html-keyboard-response","rt":null,"stimulus":"<p style=\"color: red; font-size: 50px; font-weight: bold;\">Incorrect</p>","response":null,"trial_index":176,"plugin_version":"2.1.0","time_elapsed":595564,"subject_id":"92540","group":"Group2","condition":"1_Rep","full_date":"2026-03-11T19:08:44.567Z","date":"2026-03-11","time":"19:08:44"},{"correct_response":"a","task":"test_phase","broad_category":"M","image_png":"M_Quartzite_05.png","image_id":277,"category_name":"Quartzite","category":18,"distinct_rating":2.23,"distinct_type":"Bottom","item_type":"Foil","rt":571,"stimulus":"Stimuli_Rocks480/M_Quartzite_05.png","response":"l","trial_type":"image-keyboard-response","trial_index":177,"plugin_version":"2.1.0","time_elapsed":596137,"subject_id":"92540","group":"Group2","condition":"1_Rep","full_date":"2026-03-11T19:08:44.567Z","date":"2026-03-11","time":"19:08:44","cor_ans":false},{"trial_type":"html-keyboard-response","rt":null,"stimulus":"<p style=\"color: red; font-size: 50px; font-weight: bold;\">Incorrect</p>","response":null,"trial_index":178,"plugin_version":"2.1.0","time_elapsed":596654,"subject_id":"92540","group":"Group2","condition":"1_Rep","full_date":"2026-03-11T19:08:44.567Z","date":"2026-03-11","time":"19:08:44"},{"correct_response":"a","task":"test_phase","broad_category":"M","image_png":"M_Marble_06.png","image_id":230,"category_name":"Marble","category":15,"distinct_rating":3.4,"distinct_type":"Bottom","item_type":"Foil","rt":582,"stimulus":"Stimuli_Rocks480/M_Marble_06.png","response":"a","trial_type":"image-keyboard-response","trial_index":179,"plugin_version":"2.1.0","time_elapsed":597239,"subject_id":"92540","group":"Group2","condition":"1_Rep","full_date":"2026-03-11T19:08:44.567Z","date":"2026-03-11","time":"19:08:44","cor_ans":true},{"trial_type":"html-keyboard-response","rt":null,"stimulus":"<p style=\"color: green; font-size: 50px; font-weight: bold;\">Correct</p>","response":null,"trial_index":180,"plugin_version":"2.1.0","time_elapsed":597749,"subject_id":"92540","group":"Group2","condition":"1_Rep","full_date":"2026-03-11T19:08:44.567Z","date":"2026-03-11","time":"19:08:44"},{"correct_response":"a","task":"test_phase","broad_category":"I","image_png":"I_Basalt_01.png","image_id":17,"category_name":"Basalt","category":2,"distinct_rating":1.92,"distinct_type":"Bottom","item_type":"Foil","rt":587,"stimulus":"Stimuli_Rocks480/I_Basalt_01.png","response":"a","trial_type":"image-keyboard-response","trial_index":181,"plugin_version":"2.1.0","time_elapsed":598339,"subject_id":"92540","group":"Group2","condition":"1_Rep","full_date":"2026-03-11T19:08:44.567Z","date":"2026-03-11","time":"19:08:44","cor_ans":true},{"trial_type":"html-keyboard-response","rt":null,"stimulus":"<p style=\"color: green; font-size: 50px; font-weight: bold;\">Correct</p>","response":null,"trial_index":182,"plugin_version":"2.1.0","time_elapsed":598855,"subject_id":"92540","group":"Group2","condition":"1_Rep","full_date":"2026-03-11T19:08:44.567Z","date":"2026-03-11","time":"19:08:44"},{"correct_response":"l","task":"test_phase","broad_category":"M","image_png":"M_Quartzite_12.png","image_id":284,"category_name":"Quartzite","category":18,"distinct_rating":1.92,"distinct_type":"Bottom","item_type":"Target","rt":702,"stimulus":"Stimuli_Rocks480/M_Quartzite_12.png","response":"a","trial_type":"image-keyboard-response","trial_index":183,"plugin_version":"2.1.0","time_elapsed":599560,"subject_id":"92540","group":"Group2","condition":"1_Rep","full_date":"2026-03-11T19:08:44.567Z","date":"2026-03-11","time":"19:08:44","cor_ans":false},{"trial_type":"html-keyboard-response","rt":null,"stimulus":"<p style=\"color: red; font-size: 50px; font-weight: bold;\">Incorrect</p>","response":null,"trial_index":184,"plugin_version":"2.1.0","time_elapsed":600081,"subject_id":"92540","group":"Group2","condition":"1_Rep","full_date":"2026-03-11T19:08:44.567Z","date":"2026-03-11","time":"19:08:44"},{"correct_response":"a","task":"test_phase","broad_category":"S","image_png":"S_Shale_08.png","image_id":472,"category_name":"Shale","category":30,"distinct_rating":2.55,"distinct_type":"Bottom","item_type":"Foil","rt":719,"stimulus":"Stimuli_Rocks480/S_Shale_08.png","response":"l","trial_type":"image-keyboard-response","trial_index":185,"plugin_version":"2.1.0","time_elapsed":600804,"subject_id":"92540","group":"Group2","condition":"1_Rep","full_date":"2026-03-11T19:08:44.567Z","date":"2026-03-11","time":"19:08:44","cor_ans":false},{"trial_type":"html-keyboard-response","rt":null,"stimulus":"<p style=\"color: red; font-size: 50px; font-weight: bold;\">Incorrect</p>","response":null,"trial_index":186,"plugin_version":"2.1.0","time_elapsed":601325,"subject_id":"92540","group":"Group2","condition":"1_Rep","full_date":"2026-03-11T19:08:44.567Z","date":"2026-03-11","time":"19:08:44"},{"correct_response":"a","task":"test_phase","broad_category":"I","image_png":"I_Andesite_06.png","image_id":6,"category_name":"Andesite","category":1,"distinct_rating":3.17,"distinct_type":"Bottom","item_type":"Foil","rt":709,"stimulus":"Stimuli_Rocks480/I_Andesite_06.png","response":"a","trial_type":"image-keyboard-response","trial_index":187,"plugin_version":"2.1.0","time_elapsed":602036,"subject_id":"92540","group":"Group2","condition":"1_Rep","full_date":"2026-03-11T19:08:44.567Z","date":"2026-03-11","time":"19:08:44","cor_ans":true},{"trial_type":"html-keyboard-response","rt":null,"stimulus":"<p style=\"color: green; font-size: 50px; font-weight: bold;\">Correct</p>","response":null,"trial_index":188,"plugin_version":"2.1.0","time_elapsed":602538,"subject_id":"92540","group":"Group2","condition":"1_Rep","full_date":"2026-03-11T19:08:44.567Z","date":"2026-03-11","time":"19:08:44"},{"correct_response":"a","task":"test_phase","broad_category":"M","image_png":"M_Phyllite_03.png","image_id":259,"category_name":"Phyllite","category":17,"distinct_rating":2.5,"distinct_type":"Bottom","item_type":"Foil","rt":660,"stimulus":"Stimuli_Rocks480/M_Phyllite_03.png","response":"a","trial_type":"image-keyboard-response","trial_index":189,"plugin_version":"2.1.0","time_elapsed":603201,"subject_id":"92540","group":"Group2","condition":"1_Rep","full_date":"2026-03-11T19:08:44.567Z","date":"2026-03-11","time":"19:08:44","cor_ans":true},{"trial_type":"html-keyboard-response","rt":null,"stimulus":"<p style=\"color: green; font-size: 50px; font-weight: bold;\">Correct</p>","response":null,"trial_index":190,"plugin_version":"2.1.0","time_elapsed":603710,"subject_id":"92540","group":"Group2","condition":"1_Rep","full_date":"2026-03-11T19:08:44.567Z","date":"2026-03-11","time":"19:08:44"},{"correct_response":"l","task":"test_phase","broad_category":"M","image_png":"M_Marble_03.png","image_id":227,"category_name":"Marble","category":15,"distinct_rating":2.67,"distinct_type":"Bottom","item_type":"Target","rt":731,"stimulus":"Stimuli_Rocks480/M_Marble_03.png","response":"a","trial_type":"image-keyboard-response","trial_index":191,"plugin_version":"2.1.0","time_elapsed":604444,"subject_id":"92540","group":"Group2","condition":"1_Rep","full_date":"2026-03-11T19:08:44.567Z","date":"2026-03-11","time":"19:08:44","cor_ans":false},{"trial_type":"html-keyboard-response","rt":null,"stimulus":"<p style=\"color: red; font-size: 50px; font-weight: bold;\">Incorrect</p>","response":null,"trial_index":192,"plugin_version":"2.1.0","time_elapsed":604948,"subject_id":"92540","group":"Group2","condition":"1_Rep","full_date":"2026-03-11T19:08:44.567Z","date":"2026-03-11","time":"19:08:44"},{"correct_response":"a","task":"test_phase","broad_category":"M","image_png":"M_Phyllite_10.png","image_id":266,"category_name":"Phyllite","category":17,"distinct_rating":2.6,"distinct_type":"Bottom","item_type":"Foil","rt":440,"stimulus":"Stimuli_Rocks480/M_Phyllite_10.png","response":"l","trial_type":"image-keyboard-response","trial_index":193,"plugin_version":"2.1.0","time_elapsed":605391,"subject_id":"92540","group":"Group2","condition":"1_Rep","full_date":"2026-03-11T19:08:44.567Z","date":"2026-03-11","time":"19:08:44","cor_ans":false},{"trial_type":"html-keyboard-response","rt":null,"stimulus":"<p style=\"color: red; font-size: 50px; font-weight: bold;\">Incorrect</p>","response":null,"trial_index":194,"plugin_version":"2.1.0","time_elapsed":605893,"subject_id":"92540","group":"Group2","condition":"1_Rep","full_date":"2026-03-11T19:08:44.567Z","date":"2026-03-11","time":"19:08:44"},{"correct_response":"l","task":"test_phase","broad_category":"M","image_png":"M_Phyllite_05.png","image_id":261,"category_name":"Phyllite","category":17,"distinct_rating":2.14,"distinct_type":"Bottom","item_type":"Target","rt":533,"stimulus":"Stimuli_Rocks480/M_Phyllite_05.png","response":"a","trial_type":"image-keyboard-response","trial_index":195,"plugin_version":"2.1.0","time_elapsed":606429,"subject_id":"92540","group":"Group2","condition":"1_Rep","full_date":"2026-03-11T19:08:44.567Z","date":"2026-03-11","time":"19:08:44","cor_ans":false},{"trial_type":"html-keyboard-response","rt":null,"stimulus":"<p style=\"color: red; font-size: 50px; font-weight: bold;\">Incorrect</p>","response":null,"trial_index":196,"plugin_version":"2.1.0","time_elapsed":606942,"subject_id":"92540","group":"Group2","condition":"1_Rep","full_date":"2026-03-11T19:08:44.567Z","date":"2026-03-11","time":"19:08:44"},{"correct_response":"a","task":"test_phase","broad_category":"S","image_png":"S_Chert_10.png","image_id":362,"category_name":"Chert","category":23,"distinct_rating":7.17,"distinct_type":"Top","item_type":"Foil","rt":330,"stimulus":"Stimuli_Rocks480/S_Chert_10.png","response":"l","trial_type":"image-keyboard-response","trial_index":197,"plugin_version":"2.1.0","time_elapsed":607277,"subject_id":"92540","group":"Group2","condition":"1_Rep","full_date":"2026-03-11T19:08:44.567Z","date":"2026-03-11","time":"19:08:44","cor_ans":false},{"trial_type":"html-keyboard-response","rt":null,"stimulus":"<p style=\"color: red; font-size: 50px; font-weight: bold;\">Incorrect</p>","response":null,"trial_index":198,"plugin_version":"2.1.0","time_elapsed":607795,"subject_id":"92540","group":"Group2","condition":"1_Rep","full_date":"2026-03-11T19:08:44.567Z","date":"2026-03-11","time":"19:08:44"},{"correct_response":"l","task":"test_phase","broad_category":"I","image_png":"I_Gabbro_14.png","image_id":62,"category_name":"Gabbro","category":4,"distinct_rating":2.95,"distinct_type":"Bottom","item_type":"Target","rt":1008,"stimulus":"Stimuli_Rocks480/I_Gabbro_14.png","response":"l","trial_type":"image-keyboard-response","trial_index":199,"plugin_version":"2.1.0","time_elapsed":608806,"subject_id":"92540","group":"Group2","condition":"1_Rep","full_date":"2026-03-11T19:08:44.567Z","date":"2026-03-11","time":"19:08:44","cor_ans":true},{"trial_type":"html-keyboard-response","rt":null,"stimulus":"<p style=\"color: green; font-size: 50px; font-weight: bold;\">Correct</p>","response":null,"trial_index":200,"plugin_version":"2.1.0","time_elapsed":609317,"subject_id":"92540","group":"Group2","condition":"1_Rep","full_date":"2026-03-11T19:08:44.567Z","date":"2026-03-11","time":"19:08:44"},{"correct_response":"l","task":"test_phase","broad_category":"I","image_png":"I_Gabbro_02.png","image_id":50,"category_name":"Gabbro","category":4,"distinct_rating":2.73,"distinct_type":"Bottom","item_type":"Target","rt":664,"stimulus":"Stimuli_Rocks480/I_Gabbro_02.png","response":"l","trial_type":"image-keyboard-response","trial_index":201,"plugin_version":"2.1.0","time_elapsed":609985,"subject_id":"92540","group":"Group2","condition":"1_Rep","full_date":"2026-03-11T19:08:44.567Z","date":"2026-03-11","time":"19:08:44","cor_ans":true},{"trial_type":"html-keyboard-response","rt":null,"stimulus":"<p style=\"color: green; font-size: 50px; font-weight: bold;\">Correct</p>","response":null,"trial_index":202,"plugin_version":"2.1.0","time_elapsed":610506,"subject_id":"92540","group":"Group2","condition":"1_Rep","full_date":"2026-03-11T19:08:44.567Z","date":"2026-03-11","time":"19:08:44"},{"correct_response":"l","task":"test_phase","broad_category":"I","image_png":"I_Pegmatite_03.png","image_id":99,"category_name":"Pegmatite","category":7,"distinct_rating":7.24,"distinct_type":"Top","item_type":"Target","rt":604,"stimulus":"Stimuli_Rocks480/I_Pegmatite_03.png","response":"l","trial_type":"image-keyboard-response","trial_index":203,"plugin_version":"2.1.0","time_elapsed":611111,"subject_id":"92540","group":"Group2","condition":"1_Rep","full_date":"2026-03-11T19:08:44.567Z","date":"2026-03-11","time":"19:08:44","cor_ans":true},{"trial_type":"html-keyboard-response","rt":null,"stimulus":"<p style=\"color: green; font-size: 50px; font-weight: bold;\">Correct</p>","response":null,"trial_index":204,"plugin_version":"2.1.0","time_elapsed":611617,"subject_id":"92540","group":"Group2","condition":"1_Rep","full_date":"2026-03-11T19:08:44.567Z","date":"2026-03-11","time":"19:08:44"},{"correct_response":"l","task":"test_phase","broad_category":"S","image_png":"S_Rock Salt_13.png","image_id":445,"category_name":"Rock Salt","category":28,"distinct_rating":7.58,"distinct_type":"Top","item_type":"Target","rt":691,"stimulus":"Stimuli_Rocks480/S_Rock Salt_13.png","response":"l","trial_type":"image-keyboard-response","trial_index":205,"plugin_version":"2.1.0","time_elapsed":612310,"subject_id":"92540","group":"Group2","condition":"1_Rep","full_date":"2026-03-11T19:08:44.567Z","date":"2026-03-11","time":"19:08:44","cor_ans":true},{"trial_type":"html-keyboard-response","rt":null,"stimulus":"<p style=\"color: green; font-size: 50px; font-weight: bold;\">Correct</p>","response":null,"trial_index":206,"plugin_version":"2.1.0","time_elapsed":612827,"subject_id":"92540","group":"Group2","condition":"1_Rep","full_date":"2026-03-11T19:08:44.567Z","date":"2026-03-11","time":"19:08:44"},{"correct_response":"a","task":"test_phase","broad_category":"M","image_png":"M_Slate_15.png","image_id":319,"category_name":"Slate","category":20,"distinct_rating":2.13,"distinct_type":"Bottom","item_type":"Foil","rt":764,"stimulus":"Stimuli_Rocks480/M_Slate_15.png","response":"l","trial_type":"image-keyboard-response","trial_index":207,"plugin_version":"2.1.0","time_elapsed":613593,"subject_id":"92540","group":"Group2","condition":"1_Rep","full_date":"2026-03-11T19:08:44.567Z","date":"2026-03-11","time":"19:08:44","cor_ans":false},{"trial_type":"html-keyboard-response","rt":null,"stimulus":"<p style=\"color: red; font-size: 50px; font-weight: bold;\">Incorrect</p>","response":null,"trial_index":208,"plugin_version":"2.1.0","time_elapsed":614109,"subject_id":"92540","group":"Group2","condition":"1_Rep","full_date":"2026-03-11T19:08:44.567Z","date":"2026-03-11","time":"19:08:44"},{"correct_response":"a","task":"test_phase","broad_category":"I","image_png":"I_Rhyolite_16.png","image_id":160,"category_name":"Rhyolite","category":10,"distinct_rating":2.19,"distinct_type":"Bottom","item_type":"Foil","rt":766,"stimulus":"Stimuli_Rocks480/I_Rhyolite_16.png","response":"a","trial_type":"image-keyboard-response","trial_index":209,"plugin_version":"2.1.0","time_elapsed":614878,"subject_id":"92540","group":"Group2","condition":"1_Rep","full_date":"2026-03-11T19:08:44.567Z","date":"2026-03-11","time":"19:08:44","cor_ans":true},{"trial_type":"html-keyboard-response","rt":null,"stimulus":"<p style=\"color: green; font-size: 50px; font-weight: bold;\">Correct</p>","response":null,"trial_index":210,"plugin_version":"2.1.0","time_elapsed":615389,"subject_id":"92540","group":"Group2","condition":"1_Rep","full_date":"2026-03-11T19:08:44.567Z","date":"2026-03-11","time":"19:08:44"},{"correct_response":"a","task":"test_phase","broad_category":"I","image_png":"I_Gabbro_08.png","image_id":56,"category_name":"Gabbro","category":4,"distinct_rating":3.02,"distinct_type":"Bottom","item_type":"Foil","rt":568,"stimulus":"Stimuli_Rocks480/I_Gabbro_08.png","response":"a","trial_type":"image-keyboard-response","trial_index":211,"plugin_version":"2.1.0","time_elapsed":615959,"subject_id":"92540","group":"Group2","condition":"1_Rep","full_date":"2026-03-11T19:08:44.567Z","date":"2026-03-11","time":"19:08:44","cor_ans":true},{"trial_type":"html-keyboard-response","rt":null,"stimulus":"<p style=\"color: green; font-size: 50px; font-weight: bold;\">Correct</p>","response":null,"trial_index":212,"plugin_version":"2.1.0","time_elapsed":616466,"subject_id":"92540","group":"Group2","condition":"1_Rep","full_date":"2026-03-11T19:08:44.567Z","date":"2026-03-11","time":"19:08:44"},{"correct_response":"a","task":"test_phase","broad_category":"I","image_png":"I_Diorite_05.png","image_id":37,"category_name":"Diorite","category":3,"distinct_rating":3.08,"distinct_type":"Bottom","item_type":"Foil","rt":624,"stimulus":"Stimuli_Rocks480/I_Diorite_05.png","response":"a","trial_type":"image-keyboard-response","trial_index":213,"plugin_version":"2.1.0","time_elapsed":617093,"subject_id":"92540","group":"Group2","condition":"1_Rep","full_date":"2026-03-11T19:08:44.567Z","date":"2026-03-11","time":"19:08:44","cor_ans":true},{"trial_type":"html-keyboard-response","rt":null,"stimulus":"<p style=\"color: green; font-size: 50px; font-weight: bold;\">Correct</p>","response":null,"trial_index":214,"plugin_version":"2.1.0","time_elapsed":617601,"subject_id":"92540","group":"Group2","condition":"1_Rep","full_date":"2026-03-11T19:08:44.567Z","date":"2026-03-11","time":"19:08:44"},{"correct_response":"l","task":"test_phase","broad_category":"I","image_png":"I_Diorite_10.png","image_id":42,"category_name":"Diorite","category":3,"distinct_rating":2.84,"distinct_type":"Bottom","item_type":"Target","rt":619,"stimulus":"Stimuli_Rocks480/I_Diorite_10.png","response":"a","trial_type":"image-keyboard-response","trial_index":215,"plugin_version":"2.1.0","time_elapsed":618224,"subject_id":"92540","group":"Group2","condition":"1_Rep","full_date":"2026-03-11T19:08:44.567Z","date":"2026-03-11","time":"19:08:44","cor_ans":false},{"trial_type":"html-keyboard-response","rt":null,"stimulus":"<p style=\"color: red; font-size: 50px; font-weight: bold;\">Incorrect</p>","response":null,"trial_index":216,"plugin_version":"2.1.0","time_elapsed":618732,"subject_id":"92540","group":"Group2","condition":"1_Rep","full_date":"2026-03-11T19:08:44.567Z","date":"2026-03-11","time":"19:08:44"},{"correct_response":"l","task":"test_phase","broad_category":"S","image_png":"S_Sandstone_08.png","image_id":456,"category_name":"Sandstone","category":29,"distinct_rating":1.5,"distinct_type":"Bottom","item_type":"Target","rt":456,"stimulus":"Stimuli_Rocks480/S_Sandstone_08.png","response":"l","trial_type":"image-keyboard-response","trial_index":217,"plugin_version":"2.1.0","time_elapsed":619191,"subject_id":"92540","group":"Group2","condition":"1_Rep","full_date":"2026-03-11T19:08:44.567Z","date":"2026-03-11","time":"19:08:44","cor_ans":true},{"trial_type":"html-keyboard-response","rt":null,"stimulus":"<p style=\"color: green; font-size: 50px; font-weight: bold;\">Correct</p>","response":null,"trial_index":218,"plugin_version":"2.1.0","time_elapsed":619709,"subject_id":"92540","group":"Group2","condition":"1_Rep","full_date":"2026-03-11T19:08:44.567Z","date":"2026-03-11","time":"19:08:44"},{"correct_response":"l","task":"test_phase","broad_category":"S","image_png":"S_Shale_02.png","image_id":466,"category_name":"Shale","category":30,"distinct_rating":2.9,"distinct_type":"Bottom","item_type":"Target","rt":910,"stimulus":"Stimuli_Rocks480/S_Shale_02.png","response":"l","trial_type":"image-keyboard-response","trial_index":219,"plugin_version":"2.1.0","time_elapsed":620622,"subject_id":"92540","group":"Group2","condition":"1_Rep","full_date":"2026-03-11T19:08:44.567Z","date":"2026-03-11","time":"19:08:44","cor_ans":true},{"trial_type":"html-keyboard-response","rt":null,"stimulus":"<p style=\"color: green; font-size: 50px; font-weight: bold;\">Correct</p>","response":null,"trial_index":220,"plugin_version":"2.1.0","time_elapsed":621127,"subject_id":"92540","group":"Group2","condition":"1_Rep","full_date":"2026-03-11T19:08:44.567Z","date":"2026-03-11","time":"19:08:44"},{"correct_response":"a","task":"test_phase","broad_category":"S","image_png":"S_Shale_12.png","image_id":476,"category_name":"Shale","category":30,"distinct_rating":2.48,"distinct_type":"Bottom","item_type":"Foil","rt":655,"stimulus":"Stimuli_Rocks480/S_Shale_12.png","response":"l","trial_type":"image-keyboard-response","trial_index":221,"plugin_version":"2.1.0","time_elapsed":621783,"subject_id":"92540","group":"Group2","condition":"1_Rep","full_date":"2026-03-11T19:08:44.567Z","date":"2026-03-11","time":"19:08:44","cor_ans":false},{"trial_type":"html-keyboard-response","rt":null,"stimulus":"<p style=\"color: red; font-size: 50px; font-weight: bold;\">Incorrect</p>","response":null,"trial_index":222,"plugin_version":"2.1.0","time_elapsed":622294,"subject_id":"92540","group":"Group2","condition":"1_Rep","full_date":"2026-03-11T19:08:44.567Z","date":"2026-03-11","time":"19:08:44"},{"correct_response":"l","task":"test_phase","broad_category":"I","image_png":"I_Basalt_10.png","image_id":26,"category_name":"Basalt","category":2,"distinct_rating":2.76,"distinct_type":"Bottom","item_type":"Target","rt":481,"stimulus":"Stimuli_Rocks480/I_Basalt_10.png","response":"a","trial_type":"image-keyboard-response","trial_index":223,"plugin_version":"2.1.0","time_elapsed":622778,"subject_id":"92540","group":"Group2","condition":"1_Rep","full_date":"2026-03-11T19:08:44.567Z","date":"2026-03-11","time":"19:08:44","cor_ans":false},{"trial_type":"html-keyboard-response","rt":null,"stimulus":"<p style=\"color: red; font-size: 50px; font-weight: bold;\">Incorrect</p>","response":null,"trial_index":224,"plugin_version":"2.1.0","time_elapsed":623287,"subject_id":"92540","group":"Group2","condition":"1_Rep","full_date":"2026-03-11T19:08:44.567Z","date":"2026-03-11","time":"19:08:44"},{"correct_response":"a","task":"test_phase","broad_category":