[{"width":1440,"height":810,"webaudio":true,"browser":"safari","browser_version":"26.0.0","mobile":false,"os":"Mac OS","fullscreen":true,"vsync_rate":60.42,"webcam":true,"microphone":true,"trial_type":"browser-check","trial_index":0,"plugin_version":"2.1.0","time_elapsed":1004,"subject_id":"92611","group":"Group1","condition":"1_Rep","full_date":"2026-03-09T06:29:53.699Z","date":"2026-03-09","time":"06:29:53"},{"success":true,"timeout":false,"failed_images":[],"failed_audio":[],"failed_video":[],"trial_type":"preload","trial_index":1,"plugin_version":"2.1.0","time_elapsed":6151,"subject_id":"92611","group":"Group1","condition":"1_Rep","full_date":"2026-03-09T06:29:53.699Z","date":"2026-03-09","time":"06:29:53"},{"rt":43330,"url":"SONA_consent_memorability.html","trial_type":"external-html","trial_index":2,"plugin_version":"2.1.0","time_elapsed":49538,"subject_id":"92611","group":"Group1","condition":"1_Rep","full_date":"2026-03-09T06:29:53.699Z","date":"2026-03-09","time":"06:29:53"},{"success":true,"rt":2680,"trial_type":"fullscreen","trial_index":3,"plugin_version":"2.1.0","time_elapsed":53226,"subject_id":"92611","group":"Group1","condition":"1_Rep","full_date":"2026-03-09T06:29:53.699Z","date":"2026-03-09","time":"06:29:53"},{"rt":60793,"stimulus":"<div style=\"max-width: 760px; margin: auto; font-size: 20px; line-height: 1.5;\">\n      <h1 style=\"text-align:center; font-size: 30px;\">Instructions</h1>\n      <p>\n        Welcome to the study on <b>visual memory</b>. This experiment consists of <b>two phases</b>: \n        a <b>study phase</b> and a <b>test phase</b>.\n      </p>\n      <p>\n        In the study phase, you will see a series of rock images along with their category labels.\n        The images will appear one at a time.\n        <b>Your task</b> is to learn the categories to which the rock images belong \n        and to remember each image as accurately as possible.\n      </p> \n      <p>\n        Note that you will see each image only <b>once</b> during the study phase. \n          So, please pay close attention and try to remember each image carefully.\n      </p>\n      <p>\n        After the study phase, <b>your memory will be tested</b>. \n        Additional instructions for the test phase will be provided at that time.\n      </p>\n      <p>\n        If your computer has multiple <b>language settings</b> (e.g., English and another language),\n        please make sure it is set to English before starting.\n      </p>\n      <p>\n        You can track your progress using the <b>completion bar</b> at the top of the screen. \n        Please note that the bar will refresh when the test phase begins \n        to give you an accurate sense of your progress in both phases.\n      </p> \n      <p>\n        Press the button below when you are ready to begin.\n      </p>\n    </div>","response":0,"trial_type":"html-button-response","trial_index":4,"plugin_version":"2.1.0","time_elapsed":114023,"subject_id":"92611","group":"Group1","condition":"1_Rep","full_date":"2026-03-09T06:29:53.699Z","date":"2026-03-09","time":"06:29:53"},{"rt":null,"stimulus":"<p style=\"font-size: 50px; margin: 0; text-align: center;\">+</p>","response":null,"trial_type":"html-keyboard-response","trial_index":5,"plugin_version":"2.1.0","time_elapsed":115028,"subject_id":"92611","group":"Group1","condition":"1_Rep","full_date":"2026-03-09T06:29:53.699Z","date":"2026-03-09","time":"06:29:53"},{"task":"memory_phase","broad_category":"S","image_png":"S_Shale_01.png","image_id":465,"category_name":"Shale","category":30,"distinct_rating":2.7,"distinct_type":"Bottom","rt":null,"stimulus":"Stimuli_Rocks480/S_Shale_01.png","response":null,"trial_type":"image-keyboard-response","trial_index":6,"plugin_version":"2.1.0","time_elapsed":117553,"subject_id":"92611","group":"Group1","condition":"1_Rep","full_date":"2026-03-09T06:29:53.699Z","date":"2026-03-09","time":"06:29:53"},{"rt":null,"stimulus":"<p style=\"font-size: 50px; margin: 0; text-align: center;\">+</p>","response":null,"trial_type":"html-keyboard-response","trial_index":7,"plugin_version":"2.1.0","time_elapsed":118555,"subject_id":"92611","group":"Group1","condition":"1_Rep","full_date":"2026-03-09T06:29:53.699Z","date":"2026-03-09","time":"06:29:53"},{"task":"memory_phase","broad_category":"S","image_png":"S_Rock Gypsum_04.png","image_id":420,"category_name":"Rock Gypsum","category":27,"distinct_rating":7.61,"distinct_type":"Top","rt":null,"stimulus":"Stimuli_Rocks480/S_Rock Gypsum_04.png","response":null,"trial_type":"image-keyboard-response","trial_index":8,"plugin_version":"2.1.0","time_elapsed":121079,"subject_id":"92611","group":"Group1","condition":"1_Rep","full_date":"2026-03-09T06:29:53.699Z","date":"2026-03-09","time":"06:29:53"},{"rt":null,"stimulus":"<p style=\"font-size: 50px; margin: 0; text-align: center;\">+</p>","response":null,"trial_type":"html-keyboard-response","trial_index":9,"plugin_version":"2.1.0","time_elapsed":122082,"subject_id":"92611","group":"Group1","condition":"1_Rep","full_date":"2026-03-09T06:29:53.699Z","date":"2026-03-09","time":"06:29:53"},{"task":"memory_phase","broad_category":"I","image_png":"I_Rhyolite_14.png","image_id":158,"category_name":"Rhyolite","category":10,"distinct_rating":2.59,"distinct_type":"Bottom","rt":null,"stimulus":"Stimuli_Rocks480/I_Rhyolite_14.png","response":null,"trial_type":"image-keyboard-response","trial_index":10,"plugin_version":"2.1.0","time_elapsed":124602,"subject_id":"92611","group":"Group1","condition":"1_Rep","full_date":"2026-03-09T06:29:53.699Z","date":"2026-03-09","time":"06:29:53"},{"rt":null,"stimulus":"<p style=\"font-size: 50px; margin: 0; text-align: center;\">+</p>","response":null,"trial_type":"html-keyboard-response","trial_index":11,"plugin_version":"2.1.0","time_elapsed":125606,"subject_id":"92611","group":"Group1","condition":"1_Rep","full_date":"2026-03-09T06:29:53.699Z","date":"2026-03-09","time":"06:29:53"},{"task":"memory_phase","broad_category":"I","image_png":"I_Basalt_01.png","image_id":17,"category_name":"Basalt","category":2,"distinct_rating":1.92,"distinct_type":"Bottom","rt":null,"stimulus":"Stimuli_Rocks480/I_Basalt_01.png","response":null,"trial_type":"image-keyboard-response","trial_index":12,"plugin_version":"2.1.0","time_elapsed":128136,"subject_id":"92611","group":"Group1","condition":"1_Rep","full_date":"2026-03-09T06:29:53.699Z","date":"2026-03-09","time":"06:29:53"},{"rt":null,"stimulus":"<p style=\"font-size: 50px; margin: 0; text-align: center;\">+</p>","response":null,"trial_type":"html-keyboard-response","trial_index":13,"plugin_version":"2.1.0","time_elapsed":129139,"subject_id":"92611","group":"Group1","condition":"1_Rep","full_date":"2026-03-09T06:29:53.699Z","date":"2026-03-09","time":"06:29:53"},{"task":"memory_phase","broad_category":"I","image_png":"I_Pumice_08.png","image_id":136,"category_name":"Pumice","category":9,"distinct_rating":3.1,"distinct_type":"Bottom","rt":null,"stimulus":"Stimuli_Rocks480/I_Pumice_08.png","response":null,"trial_type":"image-keyboard-response","trial_index":14,"plugin_version":"2.1.0","time_elapsed":131660,"subject_id":"92611","group":"Group1","condition":"1_Rep","full_date":"2026-03-09T06:29:53.699Z","date":"2026-03-09","time":"06:29:53"},{"rt":null,"stimulus":"<p style=\"font-size: 50px; margin: 0; text-align: center;\">+</p>","response":null,"trial_type":"html-keyboard-response","trial_index":15,"plugin_version":"2.1.0","time_elapsed":132661,"subject_id":"92611","group":"Group1","condition":"1_Rep","full_date":"2026-03-09T06:29:53.699Z","date":"2026-03-09","time":"06:29:53"},{"task":"memory_phase","broad_category":"M","image_png":"M_Phyllite_10.png","image_id":266,"category_name":"Phyllite","category":17,"distinct_rating":2.6,"distinct_type":"Bottom","rt":null,"stimulus":"Stimuli_Rocks480/M_Phyllite_10.png","response":null,"trial_type":"image-keyboard-response","trial_index":16,"plugin_version":"2.1.0","time_elapsed":135181,"subject_id":"92611","group":"Group1","condition":"1_Rep","full_date":"2026-03-09T06:29:53.699Z","date":"2026-03-09","time":"06:29:53"},{"rt":null,"stimulus":"<p style=\"font-size: 50px; margin: 0; text-align: center;\">+</p>","response":null,"trial_type":"html-keyboard-response","trial_index":17,"plugin_version":"2.1.0","time_elapsed":136183,"subject_id":"92611","group":"Group1","condition":"1_Rep","full_date":"2026-03-09T06:29:53.699Z","date":"2026-03-09","time":"06:29:53"},{"task":"memory_phase","broad_category":"I","image_png":"I_Rhyolite_11.png","image_id":155,"category_name":"Rhyolite","category":10,"distinct_rating":1.73,"distinct_type":"Bottom","rt":null,"stimulus":"Stimuli_Rocks480/I_Rhyolite_11.png","response":null,"trial_type":"image-keyboard-response","trial_index":18,"plugin_version":"2.1.0","time_elapsed":138703,"subject_id":"92611","group":"Group1","condition":"1_Rep","full_date":"2026-03-09T06:29:53.699Z","date":"2026-03-09","time":"06:29:53"},{"rt":null,"stimulus":"<p style=\"font-size: 50px; margin: 0; text-align: center;\">+</p>","response":null,"trial_type":"html-keyboard-response","trial_index":19,"plugin_version":"2.1.0","time_elapsed":139706,"subject_id":"92611","group":"Group1","condition":"1_Rep","full_date":"2026-03-09T06:29:53.699Z","date":"2026-03-09","time":"06:29:53"},{"task":"memory_phase","broad_category":"M","image_png":"M_Gneiss_13.png","image_id":205,"category_name":"Gneiss","category":13,"distinct_rating":3.26,"distinct_type":"Bottom","rt":null,"stimulus":"Stimuli_Rocks480/M_Gneiss_13.png","response":null,"trial_type":"image-keyboard-response","trial_index":20,"plugin_version":"2.1.0","time_elapsed":142226,"subject_id":"92611","group":"Group1","condition":"1_Rep","full_date":"2026-03-09T06:29:53.699Z","date":"2026-03-09","time":"06:29:53"},{"rt":null,"stimulus":"<p style=\"font-size: 50px; margin: 0; text-align: center;\">+</p>","response":null,"trial_type":"html-keyboard-response","trial_index":21,"plugin_version":"2.1.0","time_elapsed":143229,"subject_id":"92611","group":"Group1","condition":"1_Rep","full_date":"2026-03-09T06:29:53.699Z","date":"2026-03-09","time":"06:29:53"},{"task":"memory_phase","broad_category":"I","image_png":"I_Pegmatite_10.png","image_id":106,"category_name":"Pegmatite","category":7,"distinct_rating":7.66,"distinct_type":"Top","rt":null,"stimulus":"Stimuli_Rocks480/I_Pegmatite_10.png","response":null,"trial_type":"image-keyboard-response","trial_index":22,"plugin_version":"2.1.0","time_elapsed":145750,"subject_id":"92611","group":"Group1","condition":"1_Rep","full_date":"2026-03-09T06:29:53.699Z","date":"2026-03-09","time":"06:29:53"},{"rt":null,"stimulus":"<p style=\"font-size: 50px; margin: 0; text-align: center;\">+</p>","response":null,"trial_type":"html-keyboard-response","trial_index":23,"plugin_version":"2.1.0","time_elapsed":146753,"subject_id":"92611","group":"Group1","condition":"1_Rep","full_date":"2026-03-09T06:29:53.699Z","date":"2026-03-09","time":"06:29:53"},{"task":"memory_phase","broad_category":"M","image_png":"M_Gneiss_06.png","image_id":198,"category_name":"Gneiss","category":13,"distinct_rating":2.65,"distinct_type":"Bottom","rt":null,"stimulus":"Stimuli_Rocks480/M_Gneiss_06.png","response":null,"trial_type":"image-keyboard-response","trial_index":24,"plugin_version":"2.1.0","time_elapsed":149280,"subject_id":"92611","group":"Group1","condition":"1_Rep","full_date":"2026-03-09T06:29:53.699Z","date":"2026-03-09","time":"06:29:53"},{"rt":null,"stimulus":"<p style=\"font-size: 50px; margin: 0; text-align: center;\">+</p>","response":null,"trial_type":"html-keyboard-response","trial_index":25,"plugin_version":"2.1.0","time_elapsed":150283,"subject_id":"92611","group":"Group1","condition":"1_Rep","full_date":"2026-03-09T06:29:53.699Z","date":"2026-03-09","time":"06:29:53"},{"task":"memory_phase","broad_category":"S","image_png":"S_Shale_08.png","image_id":472,"category_name":"Shale","category":30,"distinct_rating":2.55,"distinct_type":"Bottom","rt":null,"stimulus":"Stimuli_Rocks480/S_Shale_08.png","response":null,"trial_type":"image-keyboard-response","trial_index":26,"plugin_version":"2.1.0","time_elapsed":152811,"subject_id":"92611","group":"Group1","condition":"1_Rep","full_date":"2026-03-09T06:29:53.699Z","date":"2026-03-09","time":"06:29:53"},{"rt":null,"stimulus":"<p style=\"font-size: 50px; margin: 0; text-align: center;\">+</p>","response":null,"trial_type":"html-keyboard-response","trial_index":27,"plugin_version":"2.1.0","time_elapsed":153814,"subject_id":"92611","group":"Group1","condition":"1_Rep","full_date":"2026-03-09T06:29:53.699Z","date":"2026-03-09","time":"06:29:53"},{"task":"memory_phase","broad_category":"S","image_png":"S_Sandstone_15.png","image_id":463,"category_name":"Sandstone","category":29,"distinct_rating":2,"distinct_type":"Bottom","rt":null,"stimulus":"Stimuli_Rocks480/S_Sandstone_15.png","response":null,"trial_type":"image-keyboard-response","trial_index":28,"plugin_version":"2.1.0","time_elapsed":156342,"subject_id":"92611","group":"Group1","condition":"1_Rep","full_date":"2026-03-09T06:29:53.699Z","date":"2026-03-09","time":"06:29:53"},{"rt":null,"stimulus":"<p style=\"font-size: 50px; margin: 0; text-align: center;\">+</p>","response":null,"trial_type":"html-keyboard-response","trial_index":29,"plugin_version":"2.1.0","time_elapsed":157345,"subject_id":"92611","group":"Group1","condition":"1_Rep","full_date":"2026-03-09T06:29:53.699Z","date":"2026-03-09","time":"06:29:53"},{"task":"memory_phase","broad_category":"I","image_png":"I_Basalt_02.png","image_id":18,"category_name":"Basalt","category":2,"distinct_rating":1.84,"distinct_type":"Bottom","rt":null,"stimulus":"Stimuli_Rocks480/I_Basalt_02.png","response":null,"trial_type":"image-keyboard-response","trial_index":30,"plugin_version":"2.1.0","time_elapsed":159869,"subject_id":"92611","group":"Group1","condition":"1_Rep","full_date":"2026-03-09T06:29:53.699Z","date":"2026-03-09","time":"06:29:53"},{"rt":null,"stimulus":"<p style=\"font-size: 50px; margin: 0; text-align: center;\">+</p>","response":null,"trial_type":"html-keyboard-response","trial_index":31,"plugin_version":"2.1.0","time_elapsed":160872,"subject_id":"92611","group":"Group1","condition":"1_Rep","full_date":"2026-03-09T06:29:53.699Z","date":"2026-03-09","time":"06:29:53"},{"task":"memory_phase","broad_category":"M","image_png":"M_Slate_15.png","image_id":319,"category_name":"Slate","category":20,"distinct_rating":2.13,"distinct_type":"Bottom","rt":null,"stimulus":"Stimuli_Rocks480/M_Slate_15.png","response":null,"trial_type":"image-keyboard-response","trial_index":32,"plugin_version":"2.1.0","time_elapsed":163389,"subject_id":"92611","group":"Group1","condition":"1_Rep","full_date":"2026-03-09T06:29:53.699Z","date":"2026-03-09","time":"06:29:53"},{"rt":null,"stimulus":"<p style=\"font-size: 50px; margin: 0; text-align: center;\">+</p>","response":null,"trial_type":"html-keyboard-response","trial_index":33,"plugin_version":"2.1.0","time_elapsed":164392,"subject_id":"92611","group":"Group1","condition":"1_Rep","full_date":"2026-03-09T06:29:53.699Z","date":"2026-03-09","time":"06:29:53"},{"task":"memory_phase","broad_category":"I","image_png":"I_Andesite_10.png","image_id":10,"category_name":"Andesite","category":1,"distinct_rating":3.15,"distinct_type":"Bottom","rt":null,"stimulus":"Stimuli_Rocks480/I_Andesite_10.png","response":null,"trial_type":"image-keyboard-response","trial_index":34,"plugin_version":"2.1.0","time_elapsed":166909,"subject_id":"92611","group":"Group1","condition":"1_Rep","full_date":"2026-03-09T06:29:53.699Z","date":"2026-03-09","time":"06:29:53"},{"rt":null,"stimulus":"<p style=\"font-size: 50px; margin: 0; text-align: center;\">+</p>","response":null,"trial_type":"html-keyboard-response","trial_index":35,"plugin_version":"2.1.0","time_elapsed":167913,"subject_id":"92611","group":"Group1","condition":"1_Rep","full_date":"2026-03-09T06:29:53.699Z","date":"2026-03-09","time":"06:29:53"},{"task":"memory_phase","broad_category":"M","image_png":"M_Phyllite_03.png","image_id":259,"category_name":"Phyllite","category":17,"distinct_rating":2.5,"distinct_type":"Bottom","rt":null,"stimulus":"Stimuli_Rocks480/M_Phyllite_03.png","response":null,"trial_type":"image-keyboard-response","trial_index":36,"plugin_version":"2.1.0","time_elapsed":170435,"subject_id":"92611","group":"Group1","condition":"1_Rep","full_date":"2026-03-09T06:29:53.699Z","date":"2026-03-09","time":"06:29:53"},{"rt":null,"stimulus":"<p style=\"font-size: 50px; margin: 0; text-align: center;\">+</p>","response":null,"trial_type":"html-keyboard-response","trial_index":37,"plugin_version":"2.1.0","time_elapsed":171439,"subject_id":"92611","group":"Group1","condition":"1_Rep","full_date":"2026-03-09T06:29:53.699Z","date":"2026-03-09","time":"06:29:53"},{"task":"memory_phase","broad_category":"I","image_png":"I_Pegmatite_16.png","image_id":112,"category_name":"Pegmatite","category":7,"distinct_rating":7.03,"distinct_type":"Top","rt":null,"stimulus":"Stimuli_Rocks480/I_Pegmatite_16.png","response":null,"trial_type":"image-keyboard-response","trial_index":38,"plugin_version":"2.1.0","time_elapsed":173962,"subject_id":"92611","group":"Group1","condition":"1_Rep","full_date":"2026-03-09T06:29:53.699Z","date":"2026-03-09","time":"06:29:53"},{"rt":null,"stimulus":"<p style=\"font-size: 50px; margin: 0; text-align: center;\">+</p>","response":null,"trial_type":"html-keyboard-response","trial_index":39,"plugin_version":"2.1.0","time_elapsed":174965,"subject_id":"92611","group":"Group1","condition":"1_Rep","full_date":"2026-03-09T06:29:53.699Z","date":"2026-03-09","time":"06:29:53"},{"task":"memory_phase","broad_category":"S","image_png":"S_Dolomite_12.png","image_id":396,"category_name":"Dolomite","category":25,"distinct_rating":1.85,"distinct_type":"Bottom","rt":null,"stimulus":"Stimuli_Rocks480/S_Dolomite_12.png","response":null,"trial_type":"image-keyboard-response","trial_index":40,"plugin_version":"2.1.0","time_elapsed":177489,"subject_id":"92611","group":"Group1","condition":"1_Rep","full_date":"2026-03-09T06:29:53.699Z","date":"2026-03-09","time":"06:29:53"},{"rt":null,"stimulus":"<p style=\"font-size: 50px; margin: 0; text-align: center;\">+</p>","response":null,"trial_type":"html-keyboard-response","trial_index":41,"plugin_version":"2.1.0","time_elapsed":178491,"subject_id":"92611","group":"Group1","condition":"1_Rep","full_date":"2026-03-09T06:29:53.699Z","date":"2026-03-09","time":"06:29:53"},{"task":"memory_phase","broad_category":"I","image_png":"I_Gabbro_08.png","image_id":56,"category_name":"Gabbro","category":4,"distinct_rating":3.02,"distinct_type":"Bottom","rt":null,"stimulus":"Stimuli_Rocks480/I_Gabbro_08.png","response":null,"trial_type":"image-keyboard-response","trial_index":42,"plugin_version":"2.1.0","time_elapsed":181011,"subject_id":"92611","group":"Group1","condition":"1_Rep","full_date":"2026-03-09T06:29:53.699Z","date":"2026-03-09","time":"06:29:53"},{"rt":null,"stimulus":"<p style=\"font-size: 50px; margin: 0; text-align: center;\">+</p>","response":null,"trial_type":"html-keyboard-response","trial_index":43,"plugin_version":"2.1.0","time_elapsed":182014,"subject_id":"92611","group":"Group1","condition":"1_Rep","full_date":"2026-03-09T06:29:53.699Z","date":"2026-03-09","time":"06:29:53"},{"task":"memory_phase","broad_category":"M","image_png":"M_Quartzite_13.png","image_id":285,"category_name":"Quartzite","category":18,"distinct_rating":2.27,"distinct_type":"Bottom","rt":null,"stimulus":"Stimuli_Rocks480/M_Quartzite_13.png","response":null,"trial_type":"image-keyboard-response","trial_index":44,"plugin_version":"2.1.0","time_elapsed":184539,"subject_id":"92611","group":"Group1","condition":"1_Rep","full_date":"2026-03-09T06:29:53.699Z","date":"2026-03-09","time":"06:29:53"},{"rt":null,"stimulus":"<p style=\"font-size: 50px; margin: 0; text-align: center;\">+</p>","response":null,"trial_type":"html-keyboard-response","trial_index":45,"plugin_version":"2.1.0","time_elapsed":185542,"subject_id":"92611","group":"Group1","condition":"1_Rep","full_date":"2026-03-09T06:29:53.699Z","date":"2026-03-09","time":"06:29:53"},{"task":"memory_phase","broad_category":"M","image_png":"M_Marble_04.png","image_id":228,"category_name":"Marble","category":15,"distinct_rating":3.15,"distinct_type":"Bottom","rt":null,"stimulus":"Stimuli_Rocks480/M_Marble_04.png","response":null,"trial_type":"image-keyboard-response","trial_index":46,"plugin_version":"2.1.0","time_elapsed":188066,"subject_id":"92611","group":"Group1","condition":"1_Rep","full_date":"2026-03-09T06:29:53.699Z","date":"2026-03-09","time":"06:29:53"},{"rt":null,"stimulus":"<p style=\"font-size: 50px; margin: 0; text-align: center;\">+</p>","response":null,"trial_type":"html-keyboard-response","trial_index":47,"plugin_version":"2.1.0","time_elapsed":189069,"subject_id":"92611","group":"Group1","condition":"1_Rep","full_date":"2026-03-09T06:29:53.699Z","date":"2026-03-09","time":"06:29:53"},{"task":"memory_phase","broad_category":"S","image_png":"S_Breccia_11.png","image_id":347,"category_name":"Breccia","category":22,"distinct_rating":6.7,"distinct_type":"Top","rt":null,"stimulus":"Stimuli_Rocks480/S_Breccia_11.png","response":null,"trial_type":"image-keyboard-response","trial_index":48,"plugin_version":"2.1.0","time_elapsed":191607,"subject_id":"92611","group":"Group1","condition":"1_Rep","full_date":"2026-03-09T06:29:53.699Z","date":"2026-03-09","time":"06:29:53"},{"rt":null,"stimulus":"<p style=\"font-size: 50px; margin: 0; text-align: center;\">+</p>","response":null,"trial_type":"html-keyboard-response","trial_index":49,"plugin_version":"2.1.0","time_elapsed":192609,"subject_id":"92611","group":"Group1","condition":"1_Rep","full_date":"2026-03-09T06:29:53.699Z","date":"2026-03-09","time":"06:29:53"},{"task":"memory_phase","broad_category":"M","image_png":"M_Quartzite_08.png","image_id":280,"category_name":"Quartzite","category":18,"distinct_rating":2.15,"distinct_type":"Bottom","rt":null,"stimulus":"Stimuli_Rocks480/M_Quartzite_08.png","response":null,"trial_type":"image-keyboard-response","trial_index":50,"plugin_version":"2.1.0","time_elapsed":195131,"subject_id":"92611","group":"Group1","condition":"1_Rep","full_date":"2026-03-09T06:29:53.699Z","date":"2026-03-09","time":"06:29:53"},{"rt":null,"stimulus":"<p style=\"font-size: 50px; margin: 0; text-align: center;\">+</p>","response":null,"trial_type":"html-keyboard-response","trial_index":51,"plugin_version":"2.1.0","time_elapsed":196134,"subject_id":"92611","group":"Group1","condition":"1_Rep","full_date":"2026-03-09T06:29:53.699Z","date":"2026-03-09","time":"06:29:53"},{"task":"memory_phase","broad_category":"M","image_png":"M_Phyllite_07.png","image_id":263,"category_name":"Phyllite","category":17,"distinct_rating":2.59,"distinct_type":"Bottom","rt":null,"stimulus":"Stimuli_Rocks480/M_Phyllite_07.png","response":null,"trial_type":"image-keyboard-response","trial_index":52,"plugin_version":"2.1.0","time_elapsed":198652,"subject_id":"92611","group":"Group1","condition":"1_Rep","full_date":"2026-03-09T06:29:53.699Z","date":"2026-03-09","time":"06:29:53"},{"rt":null,"stimulus":"<p style=\"font-size: 50px; margin: 0; text-align: center;\">+</p>","response":null,"trial_type":"html-keyboard-response","trial_index":53,"plugin_version":"2.1.0","time_elapsed":199655,"subject_id":"92611","group":"Group1","condition":"1_Rep","full_date":"2026-03-09T06:29:53.699Z","date":"2026-03-09","time":"06:29:53"},{"task":"memory_phase","broad_category":"I","image_png":"I_Andesite_06.png","image_id":6,"category_name":"Andesite","category":1,"distinct_rating":3.17,"distinct_type":"Bottom","rt":null,"stimulus":"Stimuli_Rocks480/I_Andesite_06.png","response":null,"trial_type":"image-keyboard-response","trial_index":54,"plugin_version":"2.1.0","time_elapsed":202187,"subject_id":"92611","group":"Group1","condition":"1_Rep","full_date":"2026-03-09T06:29:53.699Z","date":"2026-03-09","time":"06:29:53"},{"rt":3195,"stimulus":"<p style=\"max-width: 760px; margin: auto; font-size: 35px; line-height: 1.5;\">\n                Press SPACE to continue study phase\n              </p>","response":" ","trial_type":"html-keyboard-response","trial_index":55,"plugin_version":"2.1.0","time_elapsed":205386,"subject_id":"92611","group":"Group1","condition":"1_Rep","full_date":"2026-03-09T06:29:53.699Z","date":"2026-03-09","time":"06:29:53"},{"rt":null,"stimulus":"<p style=\"font-size: 50px; margin: 0; text-align: center;\">+</p>","response":null,"trial_type":"html-keyboard-response","trial_index":56,"plugin_version":"2.1.0","time_elapsed":206388,"subject_id":"92611","group":"Group1","condition":"1_Rep","full_date":"2026-03-09T06:29:53.699Z","date":"2026-03-09","time":"06:29:53"},{"task":"memory_phase","broad_category":"I","image_png":"I_Andesite_08.png","image_id":8,"category_name":"Andesite","category":1,"distinct_rating":1.95,"distinct_type":"Bottom","rt":null,"stimulus":"Stimuli_Rocks480/I_Andesite_08.png","response":null,"trial_type":"image-keyboard-response","trial_index":57,"plugin_version":"2.1.0","time_elapsed":208913,"subject_id":"92611","group":"Group1","condition":"1_Rep","full_date":"2026-03-09T06:29:53.699Z","date":"2026-03-09","time":"06:29:53"},{"rt":null,"stimulus":"<p style=\"font-size: 50px; margin: 0; text-align: center;\">+</p>","response":null,"trial_type":"html-keyboard-response","trial_index":58,"plugin_version":"2.1.0","time_elapsed":209916,"subject_id":"92611","group":"Group1","condition":"1_Rep","full_date":"2026-03-09T06:29:53.699Z","date":"2026-03-09","time":"06:29:53"},{"task":"memory_phase","broad_category":"S","image_png":"S_Conglomerate_05.png","image_id":373,"category_name":"Conglomerate","category":24,"distinct_rating":7.32,"distinct_type":"Top","rt":null,"stimulus":"Stimuli_Rocks480/S_Conglomerate_05.png","response":null,"trial_type":"image-keyboard-response","trial_index":59,"plugin_version":"2.1.0","time_elapsed":212442,"subject_id":"92611","group":"Group1","condition":"1_Rep","full_date":"2026-03-09T06:29:53.699Z","date":"2026-03-09","time":"06:29:53"},{"rt":null,"stimulus":"<p style=\"font-size: 50px; margin: 0; text-align: center;\">+</p>","response":null,"trial_type":"html-keyboard-response","trial_index":60,"plugin_version":"2.1.0","time_elapsed":213445,"subject_id":"92611","group":"Group1","condition":"1_Rep","full_date":"2026-03-09T06:29:53.699Z","date":"2026-03-09","time":"06:29:53"},{"task":"memory_phase","broad_category":"S","image_png":"S_Shale_12.png","image_id":476,"category_name":"Shale","category":30,"distinct_rating":2.48,"distinct_type":"Bottom","rt":null,"stimulus":"Stimuli_Rocks480/S_Shale_12.png","response":null,"trial_type":"image-keyboard-response","trial_index":61,"plugin_version":"2.1.0","time_elapsed":215971,"subject_id":"92611","group":"Group1","condition":"1_Rep","full_date":"2026-03-09T06:29:53.699Z","date":"2026-03-09","time":"06:29:53"},{"rt":null,"stimulus":"<p style=\"font-size: 50px; margin: 0; text-align: center;\">+</p>","response":null,"trial_type":"html-keyboard-response","trial_index":62,"plugin_version":"2.1.0","time_elapsed":216974,"subject_id":"92611","group":"Group1","condition":"1_Rep","full_date":"2026-03-09T06:29:53.699Z","date":"2026-03-09","time":"06:29:53"},{"task":"memory_phase","broad_category":"S","image_png":"S_Sandstone_03.png","image_id":451,"category_name":"Sandstone","category":29,"distinct_rating":1.86,"distinct_type":"Bottom","rt":null,"stimulus":"Stimuli_Rocks480/S_Sandstone_03.png","response":null,"trial_type":"image-keyboard-response","trial_index":63,"plugin_version":"2.1.0","time_elapsed":219498,"subject_id":"92611","group":"Group1","condition":"1_Rep","full_date":"2026-03-09T06:29:53.699Z","date":"2026-03-09","time":"06:29:53"},{"rt":null,"stimulus":"<p style=\"font-size: 50px; margin: 0; text-align: center;\">+</p>","response":null,"trial_type":"html-keyboard-response","trial_index":64,"plugin_version":"2.1.0","time_elapsed":220501,"subject_id":"92611","group":"Group1","condition":"1_Rep","full_date":"2026-03-09T06:29:53.699Z","date":"2026-03-09","time":"06:29:53"},{"task":"memory_phase","broad_category":"I","image_png":"I_Pumice_11.png","image_id":139,"category_name":"Pumice","category":9,"distinct_rating":1.74,"distinct_type":"Bottom","rt":null,"stimulus":"Stimuli_Rocks480/I_Pumice_11.png","response":null,"trial_type":"image-keyboard-response","trial_index":65,"plugin_version":"2.1.0","time_elapsed":223017,"subject_id":"92611","group":"Group1","condition":"1_Rep","full_date":"2026-03-09T06:29:53.699Z","date":"2026-03-09","time":"06:29:53"},{"rt":null,"stimulus":"<p style=\"font-size: 50px; margin: 0; text-align: center;\">+</p>","response":null,"trial_type":"html-keyboard-response","trial_index":66,"plugin_version":"2.1.0","time_elapsed":224019,"subject_id":"92611","group":"Group1","condition":"1_Rep","full_date":"2026-03-09T06:29:53.699Z","date":"2026-03-09","time":"06:29:53"},{"task":"memory_phase","broad_category":"S","image_png":"S_Sandstone_16.png","image_id":464,"category_name":"Sandstone","category":29,"distinct_rating":1.93,"distinct_type":"Bottom","rt":null,"stimulus":"Stimuli_Rocks480/S_Sandstone_16.png","response":null,"trial_type":"image-keyboard-response","trial_index":67,"plugin_version":"2.1.0","time_elapsed":226535,"subject_id":"92611","group":"Group1","condition":"1_Rep","full_date":"2026-03-09T06:29:53.699Z","date":"2026-03-09","time":"06:29:53"},{"rt":null,"stimulus":"<p style=\"font-size: 50px; margin: 0; text-align: center;\">+</p>","response":null,"trial_type":"html-keyboard-response","trial_index":68,"plugin_version":"2.1.0","time_elapsed":227538,"subject_id":"92611","group":"Group1","condition":"1_Rep","full_date":"2026-03-09T06:29:53.699Z","date":"2026-03-09","time":"06:29:53"},{"task":"memory_phase","broad_category":"M","image_png":"M_Quartzite_05.png","image_id":277,"category_name":"Quartzite","category":18,"distinct_rating":2.23,"distinct_type":"Bottom","rt":null,"stimulus":"Stimuli_Rocks480/M_Quartzite_05.png","response":null,"trial_type":"image-keyboard-response","trial_index":69,"plugin_version":"2.1.0","time_elapsed":230065,"subject_id":"92611","group":"Group1","condition":"1_Rep","full_date":"2026-03-09T06:29:53.699Z","date":"2026-03-09","time":"06:29:53"},{"rt":null,"stimulus":"<p style=\"font-size: 50px; margin: 0; text-align: center;\">+</p>","response":null,"trial_type":"html-keyboard-response","trial_index":70,"plugin_version":"2.1.0","time_elapsed":231068,"subject_id":"92611","group":"Group1","condition":"1_Rep","full_date":"2026-03-09T06:29:53.699Z","date":"2026-03-09","time":"06:29:53"},{"task":"memory_phase","broad_category":"S","image_png":"S_Rock Salt_01.png","image_id":433,"category_name":"Rock Salt","category":28,"distinct_rating":7.18,"distinct_type":"Top","rt":null,"stimulus":"Stimuli_Rocks480/S_Rock Salt_01.png","response":null,"trial_type":"image-keyboard-response","trial_index":71,"plugin_version":"2.1.0","time_elapsed":233596,"subject_id":"92611","group":"Group1","condition":"1_Rep","full_date":"2026-03-09T06:29:53.699Z","date":"2026-03-09","time":"06:29:53"},{"rt":null,"stimulus":"<p style=\"font-size: 50px; margin: 0; text-align: center;\">+</p>","response":null,"trial_type":"html-keyboard-response","trial_index":72,"plugin_version":"2.1.0","time_elapsed":234599,"subject_id":"92611","group":"Group1","condition":"1_Rep","full_date":"2026-03-09T06:29:53.699Z","date":"2026-03-09","time":"06:29:53"},{"task":"memory_phase","broad_category":"M","image_png":"M_Marble_16.png","image_id":240,"category_name":"Marble","category":15,"distinct_rating":2.57,"distinct_type":"Bottom","rt":null,"stimulus":"Stimuli_Rocks480/M_Marble_16.png","response":null,"trial_type":"image-keyboard-response","trial_index":73,"plugin_version":"2.1.0","time_elapsed":237123,"subject_id":"92611","group":"Group1","condition":"1_Rep","full_date":"2026-03-09T06:29:53.699Z","date":"2026-03-09","time":"06:29:53"},{"rt":null,"stimulus":"<p style=\"font-size: 50px; margin: 0; text-align: center;\">+</p>","response":null,"trial_type":"html-keyboard-response","trial_index":74,"plugin_version":"2.1.0","time_elapsed":238126,"subject_id":"92611","group":"Group1","condition":"1_Rep","full_date":"2026-03-09T06:29:53.699Z","date":"2026-03-09","time":"06:29:53"},{"task":"memory_phase","broad_category":"S","image_png":"S_Dolomite_13.png","image_id":397,"category_name":"Dolomite","category":25,"distinct_rating":1.77,"distinct_type":"Bottom","rt":null,"stimulus":"Stimuli_Rocks480/S_Dolomite_13.png","response":null,"trial_type":"image-keyboard-response","trial_index":75,"plugin_version":"2.1.0","time_elapsed":240649,"subject_id":"92611","group":"Group1","condition":"1_Rep","full_date":"2026-03-09T06:29:53.699Z","date":"2026-03-09","time":"06:29:53"},{"rt":null,"stimulus":"<p style=\"font-size: 50px; margin: 0; text-align: center;\">+</p>","response":null,"trial_type":"html-keyboard-response","trial_index":76,"plugin_version":"2.1.0","time_elapsed":241652,"subject_id":"92611","group":"Group1","condition":"1_Rep","full_date":"2026-03-09T06:29:53.699Z","date":"2026-03-09","time":"06:29:53"},{"task":"memory_phase","broad_category":"M","image_png":"M_Gneiss_05.png","image_id":197,"category_name":"Gneiss","category":13,"distinct_rating":2.97,"distinct_type":"Bottom","rt":null,"stimulus":"Stimuli_Rocks480/M_Gneiss_05.png","response":null,"trial_type":"image-keyboard-response","trial_index":77,"plugin_version":"2.1.0","time_elapsed":244186,"subject_id":"92611","group":"Group1","condition":"1_Rep","full_date":"2026-03-09T06:29:53.699Z","date":"2026-03-09","time":"06:29:53"},{"rt":null,"stimulus":"<p style=\"font-size: 50px; margin: 0; text-align: center;\">+</p>","response":null,"trial_type":"html-keyboard-response","trial_index":78,"plugin_version":"2.1.0","time_elapsed":245189,"subject_id":"92611","group":"Group1","condition":"1_Rep","full_date":"2026-03-09T06:29:53.699Z","date":"2026-03-09","time":"06:29:53"},{"task":"memory_phase","broad_category":"I","image_png":"I_Gabbro_11.png","image_id":59,"category_name":"Gabbro","category":4,"distinct_rating":1.99,"distinct_type":"Bottom","rt":null,"stimulus":"Stimuli_Rocks480/I_Gabbro_11.png","response":null,"trial_type":"image-keyboard-response","trial_index":79,"plugin_version":"2.1.0","time_elapsed":247707,"subject_id":"92611","group":"Group1","condition":"1_Rep","full_date":"2026-03-09T06:29:53.699Z","date":"2026-03-09","time":"06:29:53"},{"rt":null,"stimulus":"<p style=\"font-size: 50px; margin: 0; text-align: center;\">+</p>","response":null,"trial_type":"html-keyboard-response","trial_index":80,"plugin_version":"2.1.0","time_elapsed":248710,"subject_id":"92611","group":"Group1","condition":"1_Rep","full_date":"2026-03-09T06:29:53.699Z","date":"2026-03-09","time":"06:29:53"},{"task":"memory_phase","broad_category":"I","image_png":"I_Gabbro_16.png","image_id":64,"category_name":"Gabbro","category":4,"distinct_rating":2.52,"distinct_type":"Bottom","rt":null,"stimulus":"Stimuli_Rocks480/I_Gabbro_16.png","response":null,"trial_type":"image-keyboard-response","trial_index":81,"plugin_version":"2.1.0","time_elapsed":251232,"subject_id":"92611","group":"Group1","condition":"1_Rep","full_date":"2026-03-09T06:29:53.699Z","date":"2026-03-09","time":"06:29:53"},{"rt":null,"stimulus":"<p style=\"font-size: 50px; margin: 0; text-align: center;\">+</p>","response":null,"trial_type":"html-keyboard-response","trial_index":82,"plugin_version":"2.1.0","time_elapsed":252235,"subject_id":"92611","group":"Group1","condition":"1_Rep","full_date":"2026-03-09T06:29:53.699Z","date":"2026-03-09","time":"06:29:53"},{"task":"memory_phase","broad_category":"I","image_png":"I_Obsidian_05.png","image_id":85,"category_name":"Obsidian","category":6,"distinct_rating":7.32,"distinct_type":"Top","rt":null,"stimulus":"Stimuli_Rocks480/I_Obsidian_05.png","response":null,"trial_type":"image-keyboard-response","trial_index":83,"plugin_version":"2.1.0","time_elapsed":254761,"subject_id":"92611","group":"Group1","condition":"1_Rep","full_date":"2026-03-09T06:29:53.699Z","date":"2026-03-09","time":"06:29:53"},{"rt":null,"stimulus":"<p style=\"font-size: 50px; margin: 0; text-align: center;\">+</p>","response":null,"trial_type":"html-keyboard-response","trial_index":84,"plugin_version":"2.1.0","time_elapsed":255764,"subject_id":"92611","group":"Group1","condition":"1_Rep","full_date":"2026-03-09T06:29:53.699Z","date":"2026-03-09","time":"06:29:53"},{"task":"memory_phase","broad_category":"I","image_png":"I_Pumice_12.png","image_id":140,"category_name":"Pumice","category":9,"distinct_rating":2.97,"distinct_type":"Bottom","rt":null,"stimulus":"Stimuli_Rocks480/I_Pumice_12.png","response":null,"trial_type":"image-keyboard-response","trial_index":85,"plugin_version":"2.1.0","time_elapsed":258281,"subject_id":"92611","group":"Group1","condition":"1_Rep","full_date":"2026-03-09T06:29:53.699Z","date":"2026-03-09","time":"06:29:53"},{"rt":null,"stimulus":"<p style=\"font-size: 50px; margin: 0; text-align: center;\">+</p>","response":null,"trial_type":"html-keyboard-response","trial_index":86,"plugin_version":"2.1.0","time_elapsed":259284,"subject_id":"92611","group":"Group1","condition":"1_Rep","full_date":"2026-03-09T06:29:53.699Z","date":"2026-03-09","time":"06:29:53"},{"task":"memory_phase","broad_category":"I","image_png":"I_Rhyolite_16.png","image_id":160,"category_name":"Rhyolite","category":10,"distinct_rating":2.19,"distinct_type":"Bottom","rt":null,"stimulus":"Stimuli_Rocks480/I_Rhyolite_16.png","response":null,"trial_type":"image-keyboard-response","trial_index":87,"plugin_version":"2.1.0","time_elapsed":261804,"subject_id":"92611","group":"Group1","condition":"1_Rep","full_date":"2026-03-09T06:29:53.699Z","date":"2026-03-09","time":"06:29:53"},{"rt":null,"stimulus":"<p style=\"font-size: 50px; margin: 0; text-align: center;\">+</p>","response":null,"trial_type":"html-keyboard-response","trial_index":88,"plugin_version":"2.1.0","time_elapsed":262806,"subject_id":"92611","group":"Group1","condition":"1_Rep","full_date":"2026-03-09T06:29:53.699Z","date":"2026-03-09","time":"06:29:53"},{"task":"memory_phase","broad_category":"I","image_png":"I_Diorite_03.png","image_id":35,"category_name":"Diorite","category":3,"distinct_rating":3.14,"distinct_type":"Bottom","rt":null,"stimulus":"Stimuli_Rocks480/I_Diorite_03.png","response":null,"trial_type":"image-keyboard-response","trial_index":89,"plugin_version":"2.1.0","time_elapsed":265335,"subject_id":"92611","group":"Group1","condition":"1_Rep","full_date":"2026-03-09T06:29:53.699Z","date":"2026-03-09","time":"06:29:53"},{"rt":null,"stimulus":"<p style=\"font-size: 50px; margin: 0; text-align: center;\">+</p>","response":null,"trial_type":"html-keyboard-response","trial_index":90,"plugin_version":"2.1.0","time_elapsed":266337,"subject_id":"92611","group":"Group1","condition":"1_Rep","full_date":"2026-03-09T06:29:53.699Z","date":"2026-03-09","time":"06:29:53"},{"task":"memory_phase","broad_category":"S","image_png":"S_Dolomite_14.png","image_id":398,"category_name":"Dolomite","category":25,"distinct_rating":1.43,"distinct_type":"Bottom","rt":null,"stimulus":"Stimuli_Rocks480/S_Dolomite_14.png","response":null,"trial_type":"image-keyboard-response","trial_index":91,"plugin_version":"2.1.0","time_elapsed":268860,"subject_id":"92611","group":"Group1","condition":"1_Rep","full_date":"2026-03-09T06:29:53.699Z","date":"2026-03-09","time":"06:29:53"},{"rt":null,"stimulus":"<p style=\"font-size: 50px; margin: 0; text-align: center;\">+</p>","response":null,"trial_type":"html-keyboard-response","trial_index":92,"plugin_version":"2.1.0","time_elapsed":269863,"subject_id":"92611","group":"Group1","condition":"1_Rep","full_date":"2026-03-09T06:29:53.699Z","date":"2026-03-09","time":"06:29:53"},{"task":"memory_phase","broad_category":"M","image_png":"M_Marble_06.png","image_id":230,"category_name":"Marble","category":15,"distinct_rating":3.4,"distinct_type":"Bottom","rt":null,"stimulus":"Stimuli_Rocks480/M_Marble_06.png","response":null,"trial_type":"image-keyboard-response","trial_index":93,"plugin_version":"2.1.0","time_elapsed":272386,"subject_id":"92611","group":"Group1","condition":"1_Rep","full_date":"2026-03-09T06:29:53.699Z","date":"2026-03-09","time":"06:29:53"},{"rt":null,"stimulus":"<p style=\"font-size: 50px; margin: 0; text-align: center;\">+</p>","response":null,"trial_type":"html-keyboard-response","trial_index":94,"plugin_version":"2.1.0","time_elapsed":273388,"subject_id":"92611","group":"Group1","condition":"1_Rep","full_date":"2026-03-09T06:29:53.699Z","date":"2026-03-09","time":"06:29:53"},{"task":"memory_phase","broad_category":"I","image_png":"I_Diorite_05.png","image_id":37,"category_name":"Diorite","category":3,"distinct_rating":3.08,"distinct_type":"Bottom","rt":null,"stimulus":"Stimuli_Rocks480/I_Diorite_05.png","response":null,"trial_type":"image-keyboard-response","trial_index":95,"plugin_version":"2.1.0","time_elapsed":275913,"subject_id":"92611","group":"Group1","condition":"1_Rep","full_date":"2026-03-09T06:29:53.699Z","date":"2026-03-09","time":"06:29:53"},{"rt":null,"stimulus":"<p style=\"font-size: 50px; margin: 0; text-align: center;\">+</p>","response":null,"trial_type":"html-keyboard-response","trial_index":96,"plugin_version":"2.1.0","time_elapsed":276916,"subject_id":"92611","group":"Group1","condition":"1_Rep","full_date":"2026-03-09T06:29:53.699Z","date":"2026-03-09","time":"06:29:53"},{"task":"memory_phase","broad_category":"I","image_png":"I_Diorite_04.png","image_id":36,"category_name":"Diorite","category":3,"distinct_rating":2.98,"distinct_type":"Bottom","rt":null,"stimulus":"Stimuli_Rocks480/I_Diorite_04.png","response":null,"trial_type":"image-keyboard-response","trial_index":97,"plugin_version":"2.1.0","time_elapsed":279442,"subject_id":"92611","group":"Group1","condition":"1_Rep","full_date":"2026-03-09T06:29:53.699Z","date":"2026-03-09","time":"06:29:53"},{"rt":null,"stimulus":"<p style=\"font-size: 50px; margin: 0; text-align: center;\">+</p>","response":null,"trial_type":"html-keyboard-response","trial_index":98,"plugin_version":"2.1.0","time_elapsed":280445,"subject_id":"92611","group":"Group1","condition":"1_Rep","full_date":"2026-03-09T06:29:53.699Z","date":"2026-03-09","time":"06:29:53"},{"task":"memory_phase","broad_category":"M","image_png":"M_Slate_03.png","image_id":307,"category_name":"Slate","category":20,"distinct_rating":1.87,"distinct_type":"Bottom","rt":null,"stimulus":"Stimuli_Rocks480/M_Slate_03.png","response":null,"trial_type":"image-keyboard-response","trial_index":99,"plugin_version":"2.1.0","time_elapsed":282969,"subject_id":"92611","group":"Group1","condition":"1_Rep","full_date":"2026-03-09T06:29:53.699Z","date":"2026-03-09","time":"06:29:53"},{"rt":null,"stimulus":"<p style=\"font-size: 50px; margin: 0; text-align: center;\">+</p>","response":null,"trial_type":"html-keyboard-response","trial_index":100,"plugin_version":"2.1.0","time_elapsed":283972,"subject_id":"92611","group":"Group1","condition":"1_Rep","full_date":"2026-03-09T06:29:53.699Z","date":"2026-03-09","time":"06:29:53"},{"task":"memory_phase","broad_category":"S","image_png":"S_Chert_10.png","image_id":362,"category_name":"Chert","category":23,"distinct_rating":7.17,"distinct_type":"Top","rt":null,"stimulus":"Stimuli_Rocks480/S_Chert_10.png","response":null,"trial_type":"image-keyboard-response","trial_index":101,"plugin_version":"2.1.0","time_elapsed":286494,"subject_id":"92611","group":"Group1","condition":"1_Rep","full_date":"2026-03-09T06:29:53.699Z","date":"2026-03-09","time":"06:29:53"},{"rt":null,"stimulus":"<p style=\"font-size: 50px; margin: 0; text-align: center;\">+</p>","response":null,"trial_type":"html-keyboard-response","trial_index":102,"plugin_version":"2.1.0","time_elapsed":287497,"subject_id":"92611","group":"Group1","condition":"1_Rep","full_date":"2026-03-09T06:29:53.699Z","date":"2026-03-09","time":"06:29:53"},{"task":"memory_phase","broad_category":"I","image_png":"I_Basalt_09.png","image_id":25,"category_name":"Basalt","category":2,"distinct_rating":1.89,"distinct_type":"Bottom","rt":null,"stimulus":"Stimuli_Rocks480/I_Basalt_09.png","response":null,"trial_type":"image-keyboard-response","trial_index":103,"plugin_version":"2.1.0","time_elapsed":290020,"subject_id":"92611","group":"Group1","condition":"1_Rep","full_date":"2026-03-09T06:29:53.699Z","date":"2026-03-09","time":"06:29:53"},{"rt":null,"stimulus":"<p style=\"font-size: 50px; margin: 0; text-align: center;\">+</p>","response":null,"trial_type":"html-keyboard-response","trial_index":104,"plugin_version":"2.1.0","time_elapsed":291025,"subject_id":"92611","group":"Group1","condition":"1_Rep","full_date":"2026-03-09T06:29:53.699Z","date":"2026-03-09","time":"06:29:53"},{"task":"memory_phase","broad_category":"M","image_png":"M_Slate_11.png","image_id":315,"category_name":"Slate","category":20,"distinct_rating":2.75,"distinct_type":"Bottom","rt":null,"stimulus":"Stimuli_Rocks480/M_Slate_11.png","response":null,"trial_type":"image-keyboard-response","trial_index":105,"plugin_version":"2.1.0","time_elapsed":293545,"subject_id":"92611","group":"Group1","condition":"1_Rep","full_date":"2026-03-09T06:29:53.699Z","date":"2026-03-09","time":"06:29:53"},{"rt":77359,"stimulus":"<div style=\"max-width: 760px; margin: auto; font-size: 20px; line-height: 1.5;\">\n      <h1 style=\"text-align:center; font-size: 30px;\">Instructions for the Test Phase</h1>\n      <p>\n        The study phase is now complete.\n      </p>\n      <p>\n        In the test phase, you will again see a series of rock images. \n        Some will be ones you saw before - during the study phase, while others will be new.  \n        <b>Your task</b> is to decide whether you have seen each image before by pressing the corresponding key on your keyboard:<br><br>\n          <b>A</b> - NO (you did not see this image before)<br>\n          <b>L</b> - YES (you saw this image before)<br><br>\n        The test will proceed at your own pace. You will receive feedback after each response.  \n        Please try to respond <b>as accurately as possible</b>.\n      </p>\n      <p>\n        <b>Reminder:</b> If your computer has multiple language settings (e.g., English and another language),\n        please ensure it is set to English during the test phase.\n      </p>\n      <p>\n        You can track your progress using the <b>completion bar</b> at the top of the screen.  \n        Note that it has been refreshed to reflect your progress during this final phase.\n      </p>\n      <p>\n        Press the button below when you are ready to continue.\n      </p>\n    </div>","response":0,"trial_type":"html-button-response","trial_index":106,"plugin_version":"2.1.0","time_elapsed":370907,"subject_id":"92611","group":"Group1","condition":"1_Rep","full_date":"2026-03-09T06:29:53.699Z","date":"2026-03-09","time":"06:29:53"},{"correct_response":"a","task":"test_phase","broad_category":"S","image_png":"S_Shale_03.png","image_id":467,"category_name":"Shale","category":30,"distinct_rating":1.95,"distinct_type":"Bottom","item_type":"Foil","rt":11893,"stimulus":"Stimuli_Rocks480/S_Shale_03.png","response":"a","trial_type":"image-keyboard-response","trial_index":107,"plugin_version":"2.1.0","time_elapsed":382827,"subject_id":"92611","group":"Group1","condition":"1_Rep","full_date":"2026-03-09T06:29:53.699Z","date":"2026-03-09","time":"06:29:53","cor_ans":true},{"trial_type":"html-keyboard-response","rt":null,"stimulus":"<p style=\"color: green; font-size: 50px; font-weight: bold;\">Correct</p>","response":null,"trial_index":108,"plugin_version":"2.1.0","time_elapsed":383329,"subject_id":"92611","group":"Group1","condition":"1_Rep","full_date":"2026-03-09T06:29:53.699Z","date":"2026-03-09","time":"06:29:53"},{"correct_response":"l","task":"test_phase","broad_category":"I","image_png":"I_Pumice_08.png","image_id":136,"category_name":"Pumice","category":9,"distinct_rating":3.1,"distinct_type":"Bottom","item_type":"Target","rt":10549,"stimulus":"Stimuli_Rocks480/I_Pumice_08.png","response":"l","trial_type":"image-keyboard-response","trial_index":109,"plugin_version":"2.1.0","time_elapsed":393898,"subject_id":"92611","group":"Group1","condition":"1_Rep","full_date":"2026-03-09T06:29:53.699Z","date":"2026-03-09","time":"06:29:53","cor_ans":true},{"trial_type":"html-keyboard-response","rt":null,"stimulus":"<p style=\"color: green; font-size: 50px; font-weight: bold;\">Correct</p>","response":null,"trial_index":110,"plugin_version":"2.1.0","time_elapsed":394401,"subject_id":"92611","group":"Group1","condition":"1_Rep","full_date":"2026-03-09T06:29:53.699Z","date":"2026-03-09","time":"06:29:53"},{"correct_response":"l","task":"test_phase","broad_category":"I","image_png":"I_Rhyolite_14.png","image_id":158,"category_name":"Rhyolite","category":10,"distinct_rating":2.59,"distinct_type":"Bottom","item_type":"Target","rt":4736,"stimulus":"Stimuli_Rocks480/I_Rhyolite_14.png","response":"l","trial_type":"image-keyboard-response","trial_index":111,"plugin_version":"2.1.0","time_elapsed":399156,"subject_id":"92611","group":"Group1","condition":"1_Rep","full_date":"2026-03-09T06:29:53.699Z","date":"2026-03-09","time":"06:29:53","cor_ans":true},{"trial_type":"html-keyboard-response","rt":null,"stimulus":"<p style=\"color: green; font-size: 50px; font-weight: bold;\">Correct</p>","response":null,"trial_index":112,"plugin_version":"2.1.0","time_elapsed":399659,"subject_id":"92611","group":"Group1","condition":"1_Rep","full_date":"2026-03-09T06:29:53.699Z","date":"2026-03-09","time":"06:29:53"},{"correct_response":"l","task":"test_phase","broad_category":"M","image_png":"M_Phyllite_07.png","image_id":263,"category_name":"Phyllite","category":17,"distinct_rating":2.59,"distinct_type":"Bottom","item_type":"Target","rt":5532,"stimulus":"Stimuli_Rocks480/M_Phyllite_07.png","response":"a","trial_type":"image-keyboard-response","trial_index":113,"plugin_version":"2.1.0","time_elapsed":405209,"subject_id":"92611","group":"Group1","condition":"1_Rep","full_date":"2026-03-09T06:29:53.699Z","date":"2026-03-09","time":"06:29:53","cor_ans":false},{"trial_type":"html-keyboard-response","rt":null,"stimulus":"<p style=\"color: red; font-size: 50px; font-weight: bold;\">Incorrect</p>","response":null,"trial_index":114,"plugin_version":"2.1.0","time_elapsed":405711,"subject_id":"92611","group":"Group1","condition":"1_Rep","full_date":"2026-03-09T06:29:53.699Z","date":"2026-03-09","time":"06:29:53"},{"correct_response":"a","task":"test_phase","broad_category":"I","image_png":"I_Basalt_08.png","image_id":24,"category_name":"Basalt","category":2,"distinct_rating":2.31,"distinct_type":"Bottom","item_type":"Foil","rt":12619,"stimulus":"Stimuli_Rocks480/I_Basalt_08.png","response":"l","trial_type":"image-keyboard-response","trial_index":115,"plugin_version":"2.1.0","time_elapsed":418362,"subject_id":"92611","group":"Group1","condition":"1_Rep","full_date":"2026-03-09T06:29:53.699Z","date":"2026-03-09","time":"06:29:53","cor_ans":false},{"trial_type":"html-keyboard-response","rt":null,"stimulus":"<p style=\"color: red; font-size: 50px; font-weight: bold;\">Incorrect</p>","response":null,"trial_index":116,"plugin_version":"2.1.0","time_elapsed":418865,"subject_id":"92611","group":"Group1","condition":"1_Rep","full_date":"2026-03-09T06:29:53.699Z","date":"2026-03-09","time":"06:29:53"},{"correct_response":"l","task":"test_phase","broad_category":"S","image_png":"S_Chert_10.png","image_id":362,"category_name":"Chert","category":23,"distinct_rating":7.17,"distinct_type":"Top","item_type":"Target","rt":3173,"stimulus":"Stimuli_Rocks480/S_Chert_10.png","response":"l","trial_type":"image-keyboard-response","trial_index":117,"plugin_version":"2.1.0","time_elapsed":422039,"subject_id":"92611","group":"Group1","condition":"1_Rep","full_date":"2026-03-09T06:29:53.699Z","date":"2026-03-09","time":"06:29:53","cor_ans":true},{"trial_type":"html-keyboard-response","rt":null,"stimulus":"<p style=\"color: green; font-size: 50px; font-weight: bold;\">Correct</p>","response":null,"trial_index":118,"plugin_version":"2.1.0","time_elapsed":422542,"subject_id":"92611","group":"Group1","condition":"1_Rep","full_date":"2026-03-09T06:29:53.699Z","date":"2026-03-09","time":"06:29:53"},{"correct_response":"a","task":"test_phase","broad_category":"M","image_png":"M_Gneiss_10.png","image_id":202,"category_name":"Gneiss","category":13,"distinct_rating":3.09,"distinct_type":"Bottom","item_type":"Foil","rt":10430,"stimulus":"Stimuli_Rocks480/M_Gneiss_10.png","response":"l","trial_type":"image-keyboard-response","trial_index":119,"plugin_version":"2.1.0","time_elapsed":432994,"subject_id":"92611","group":"Group1","condition":"1_Rep","full_date":"2026-03-09T06:29:53.699Z","date":"2026-03-09","time":"06:29:53","cor_ans":false},{"trial_type":"html-keyboard-response","rt":null,"stimulus":"<p style=\"color: red; font-size: 50px; font-weight: bold;\">Incorrect</p>","response":null,"trial_index":120,"plugin_version":"2.1.0","time_elapsed":433497,"subject_id":"92611","group":"Group1","condition":"1_Rep","full_date":"2026-03-09T06:29:53.699Z","date":"2026-03-09","time":"06:29:53"},{"correct_response":"l","task":"test_phase","broad_category":"I","image_png":"I_Andesite_08.png","image_id":8,"category_name":"Andesite","category":1,"distinct_rating":1.95,"distinct_type":"Bottom","item_type":"Target","rt":1958,"stimulus":"Stimuli_Rocks480/I_Andesite_08.png","response":"l","trial_type":"image-keyboard-response","trial_index":121,"plugin_version":"2.1.0","time_elapsed":435478,"subject_id":"92611","group":"Group1","condition":"1_Rep","full_date":"2026-03-09T06:29:53.699Z","date":"2026-03-09","time":"06:29:53","cor_ans":true},{"trial_type":"html-keyboard-response","rt":null,"stimulus":"<p style=\"color: green; font-size: 50px; font-weight: bold;\">Correct</p>","response":null,"trial_index":122,"plugin_version":"2.1.0","time_elapsed":435981,"subject_id":"92611","group":"Group1","condition":"1_Rep","full_date":"2026-03-09T06:29:53.699Z","date":"2026-03-09","time":"06:29:53"},{"correct_response":"a","task":"test_phase","broad_category":"I","image_png":"I_Diorite_10.png","image_id":42,"category_name":"Diorite","category":3,"distinct_rating":2.84,"distinct_type":"Bottom","item_type":"Foil","rt":6748,"stimulus":"Stimuli_Rocks480/I_Diorite_10.png","response":"a","trial_type":"image-keyboard-response","trial_index":123,"plugin_version":"2.1.0","time_elapsed":442751,"subject_id":"92611","group":"Group1","condition":"1_Rep","full_date":"2026-03-09T06:29:53.699Z","date":"2026-03-09","time":"06:29:53","cor_ans":true},{"trial_type":"html-keyboard-response","rt":null,"stimulus":"<p style=\"color: green; font-size: 50px; font-weight: bold;\">Correct</p>","response":null,"trial_index":124,"plugin_version":"2.1.0","time_elapsed":443254,"subject_id":"92611","group":"Group1","condition":"1_Rep","full_date":"2026-03-09T06:29:53.699Z","date":"2026-03-09","time":"06:29:53"},{"correct_response":"l","task":"test_phase","broad_category":"I","image_png":"I_Rhyolite_16.png","image_id":160,"category_name":"Rhyolite","category":10,"distinct_rating":2.19,"distinct_type":"Bottom","item_type":"Target","rt":5450,"stimulus":"Stimuli_Rocks480/I_Rhyolite_16.png","response":"l","trial_type":"image-keyboard-response","trial_index":125,"plugin_version":"2.1.0","time_elapsed":448724,"subject_id":"92611","group":"Group1","condition":"1_Rep","full_date":"2026-03-09T06:29:53.699Z","date":"2026-03-09","time":"06:29:53","cor_ans":true},{"trial_type":"html-keyboard-response","rt":null,"stimulus":"<p style=\"color: green; font-size: 50px; font-weight: bold;\">Correct</p>","response":null,"trial_index":126,"plugin_version":"2.1.0","time_elapsed":449226,"subject_id":"92611","group":"Group1","condition":"1_Rep","full_date":"2026-03-09T06:29:53.699Z","date":"2026-03-09","time":"06:29:53"},{"correct_response":"l","task":"test_phase","broad_category":"I","image_png":"I_Rhyolite_11.png","image_id":155,"category_name":"Rhyolite","category":10,"distinct_rating":1.73,"distinct_type":"Bottom","item_type":"Target","rt":2661,"stimulus":"Stimuli_Rocks480/I_Rhyolite_11.png","response":"a","trial_type":"image-keyboard-response","trial_index":127,"plugin_version":"2.1.0","time_elapsed":451907,"subject_id":"92611","group":"Group1","condition":"1_Rep","full_date":"2026-03-09T06:29:53.699Z","date":"2026-03-09","time":"06:29:53","cor_ans":false},{"trial_type":"html-keyboard-response","rt":null,"stimulus":"<p style=\"color: red; font-size: 50px; font-weight: bold;\">Incorrect</p>","response":null,"trial_index":128,"plugin_version":"2.1.0","time_elapsed":452409,"subject_id":"92611","group":"Group1","condition":"1_Rep","full_date":"2026-03-09T06:29:53.699Z","date":"2026-03-09","time":"06:29:53"},{"correct_response":"l","task":"test_phase","broad_category":"M","image_png":"M_Slate_15.png","image_id":319,"category_name":"Slate","category":20,"distinct_rating":2.13,"distinct_type":"Bottom","item_type":"Target","rt":2023,"stimulus":"Stimuli_Rocks480/M_Slate_15.png","response":"l","trial_type":"image-keyboard-response","trial_index":129,"plugin_version":"2.1.0","time_elapsed":454447,"subject_id":"92611","group":"Group1","condition":"1_Rep","full_date":"2026-03-09T06:29:53.699Z","date":"2026-03-09","time":"06:29:53","cor_ans":true},{"trial_type":"html-keyboard-response","rt":null,"stimulus":"<p style=\"color: green; font-size: 50px; font-weight: bold;\">Correct</p>","response":null,"trial_index":130,"plugin_version":"2.1.0","time_elapsed":454949,"subject_id":"92611","group":"Group1","condition":"1_Rep","full_date":"2026-03-09T06:29:53.699Z","date":"2026-03-09","time":"06:29:53"},{"correct_response":"a","task":"test_phase","broad_category":"M","image_png":"M_Marble_14.png","image_id":238,"category_name":"Marble","category":15,"distinct_rating":3.31,"distinct_type":"Bottom","item_type":"Foil","rt":4222,"stimulus":"Stimuli_Rocks480/M_Marble_14.png","response":"l","trial_type":"image-keyboard-response","trial_index":131,"plugin_version":"2.1.0","time_elapsed":459184,"subject_id":"92611","group":"Group1","condition":"1_Rep","full_date":"2026-03-09T06:29:53.699Z","date":"2026-03-09","time":"06:29:53","cor_ans":false},{"trial_type":"html-keyboard-response","rt":null,"stimulus":"<p style=\"color: red; font-size: 50px; font-weight: bold;\">Incorrect</p>","response":null,"trial_index":132,"plugin_version":"2.1.0","time_elapsed":459687,"subject_id":"92611","group":"Group1","condition":"1_Rep","full_date":"2026-03-09T06:29:53.699Z","date":"2026-03-09","time":"06:29:53"},{"correct_response":"l","task":"test_phase","broad_category":"S","image_png":"S_Dolomite_14.png","image_id":398,"category_name":"Dolomite","category":25,"distinct_rating":1.43,"distinct_type":"Bottom","item_type":"Target","rt":1659,"stimulus":"Stimuli_Rocks480/S_Dolomite_14.png","response":"l","trial_type":"image-keyboard-response","trial_index":133,"plugin_version":"2.1.0","time_elapsed":461367,"subject_id":"92611","group":"Group1","condition":"1_Rep","full_date":"2026-03-09T06:29:53.699Z","date":"2026-03-09","time":"06:29:53","cor_ans":true},{"trial_type":"html-keyboard-response","rt":null,"stimulus":"<p style=\"color: green; font-size: 50px; font-weight: bold;\">Correct</p>","response":null,"trial_index":134,"plugin_version":"2.1.0","time_elapsed":461869,"subject_id":"92611","group":"Group1","condition":"1_Rep","full_date":"2026-03-09T06:29:53.699Z","date":"2026-03-09","time":"06:29:53"},{"correct_response":"l","task":"test_phase","broad_category":"I","image_png":"I_Obsidian_05.png","image_id":85,"category_name":"Obsidian","category":6,"distinct_rating":7.32,"distinct_type":"Top","item_type":"Target","rt":1449,"stimulus":"Stimuli_Rocks480/I_Obsidian_05.png","response":"l","trial_type":"image-keyboard-response","trial_index":135,"plugin_version":"2.1.0","time_elapsed":463343,"subject_id":"92611","group":"Group1","condition":"1_Rep","full_date":"2026-03-09T06:29:53.699Z","date":"2026-03-09","time":"06:29:53","cor_ans":true},{"trial_type":"html-keyboard-response","rt":null,"stimulus":"<p style=\"color: green; font-size: 50px; font-weight: bold;\">Correct</p>","response":null,"trial_index":136,"plugin_version":"2.1.0","time_elapsed":463846,"subject_id":"92611","group":"Group1","condition":"1_Rep","full_date":"2026-03-09T06:29:53.699Z","date":"2026-03-09","time":"06:29:53"},{"correct_response":"l","task":"test_phase","broad_category":"I","image_png":"I_Basalt_09.png","image_id":25,"category_name":"Basalt","category":2,"distinct_rating":1.89,"distinct_type":"Bottom","item_type":"Target","rt":1798,"stimulus":"Stimuli_Rocks480/I_Basalt_09.png","response":"l","trial_type":"image-keyboard-response","trial_index":137,"plugin_version":"2.1.0","time_elapsed":465647,"subject_id":"92611","group":"Group1","condition":"1_Rep","full_date":"2026-03-09T06:29:53.699Z","date":"2026-03-09","time":"06:29:53","cor_ans":true},{"trial_type":"html-keyboard-response","rt":null,"stimulus":"<p style=\"color: green; font-size: 50px; font-weight: bold;\">Correct</p>","response":null,"trial_index":138,"plugin_version":"2.1.0","time_elapsed":466149,"subject_id":"92611","group":"Group1","condition":"1_Rep","full_date":"2026-03-09T06:29:53.699Z","date":"2026-03-09","time":"06:29:53"},{"correct_response":"a","task":"test_phase","broad_category":"I","image_png":"I_Gabbro_12.png","image_id":60,"category_name":"Gabbro","category":4,"distinct_rating":2.6,"distinct_type":"Bottom","item_type":"Foil","rt":2186,"stimulus":"Stimuli_Rocks480/I_Gabbro_12.png","response":"l","trial_type":"image-keyboard-response","trial_index":139,"plugin_version":"2.1.0","time_elapsed":468363,"subject_id":"92611","group":"Group1","condition":"1_Rep","full_date":"2026-03-09T06:29:53.699Z","date":"2026-03-09","time":"06:29:53","cor_ans":false},{"trial_type":"html-keyboard-response","rt":null,"stimulus":"<p style=\"color: red; font-size: 50px; font-weight: bold;\">Incorrect</p>","response":null,"trial_index":140,"plugin_version":"2.1.0","time_elapsed":468865,"subject_id":"92611","group":"Group1","condition":"1_Rep","full_date":"2026-03-09T06:29:53.699Z","date":"2026-03-09","time":"06:29:53"},{"correct_response":"l","task":"test_phase","broad_category":"S","image_png":"S_Rock Salt_01.png","image_id":433,"category_name":"Rock Salt","category":28,"distinct_rating":7.18,"distinct_type":"Top","item_type":"Target","rt":1910,"stimulus":"Stimuli_Rocks480/S_Rock Salt_01.png","response":"l","trial_type":"image-keyboard-response","trial_index":141,"plugin_version":"2.1.0","time_elapsed":470802,"subject_id":"92611","group":"Group1","condition":"1_Rep","full_date":"2026-03-09T06:29:53.699Z","date":"2026-03-09","time":"06:29:53","cor_ans":true},{"trial_type":"html-keyboard-response","rt":null,"stimulus":"<p style=\"color: green; font-size: 50px; font-weight: bold;\">Correct</p>","response":null,"trial_index":142,"plugin_version":"2.1.0","time_elapsed":471305,"subject_id":"92611","group":"Group1","condition":"1_Rep","full_date":"2026-03-09T06:29:53.699Z","date":"2026-03-09","time":"06:29:53"},{"correct_response":"a","task":"test_phase","broad_category":"S","image_png":"S_Sandstone_04.png","image_id":452,"category_name":"Sandstone","category":29,"distinct_rating":1.8,"distinct_type":"Bottom","item_type":"Foil","rt":3525,"stimulus":"Stimuli_Rocks480/S_Sandstone_04.png","response":"l","trial_type":"image-keyboard-response","trial_index":143,"plugin_version":"2.1.0","time_elapsed":474855,"subject_id":"92611","group":"Group1","condition":"1_Rep","full_date":"2026-03-09T06:29:53.699Z","date":"2026-03-09","time":"06:29:53","cor_ans":false},{"trial_type":"html-keyboard-response","rt":null,"stimulus":"<p style=\"color: red; font-size: 50px; font-weight: bold;\">Incorrect</p>","response":null,"trial_index":144,"plugin_version":"2.1.0","time_elapsed":475358,"subject_id":"92611","group":"Group1","condition":"1_Rep","full_date":"2026-03-09T06:29:53.699Z","date":"2026-03-09","time":"06:29:53"},{"correct_response":"a","task":"test_phase","broad_category":"I","image_png":"I_Andesite_03.png","image_id":3,"category_name":"Andesite","category":1,"distinct_rating":3.17,"distinct_type":"Bottom","item_type":"Foil","rt":5194,"stimulus":"Stimuli_Rocks480/I_Andesite_03.png","response":"a","trial_type":"image-keyboard-response","trial_index":145,"plugin_version":"2.1.0","time_elapsed":480568,"subject_id":"92611","group":"Group1","condition":"1_Rep","full_date":"2026-03-09T06:29:53.699Z","date":"2026-03-09","time":"06:29:53","cor_ans":true},{"trial_type":"html-keyboard-response","rt":null,"stimulus":"<p style=\"color: green; font-size: 50px; font-weight: bold;\">Correct</p>","response":null,"trial_index":146,"plugin_version":"2.1.0","time_elapsed":481070,"subject_id":"92611","group":"Group1","condition":"1_Rep","full_date":"2026-03-09T06:29:53.699Z","date":"2026-03-09","time":"06:29:53"},{"correct_response":"l","task":"test_phase","broad_category":"S","image_png":"S_Shale_08.png","image_id":472,"category_name":"Shale","category":30,"distinct_rating":2.55,"distinct_type":"Bottom","item_type":"Target","rt":2654,"stimulus":"Stimuli_Rocks480/S_Shale_08.png","response":"l","trial_type":"image-keyboard-response","trial_index":147,"plugin_version":"2.1.0","time_elapsed":483750,"subject_id":"92611","group":"Group1","condition":"1_Rep","full_date":"2026-03-09T06:29:53.699Z","date":"2026-03-09","time":"06:29:53","cor_ans":true},{"trial_type":"html-keyboard-response","rt":null,"stimulus":"<p style=\"color: green; font-size: 50px; font-weight: bold;\">Correct</p>","response":null,"trial_index":148,"plugin_version":"2.1.0","time_elapsed":484253,"subject_id":"92611","group":"Group1","condition":"1_Rep","full_date":"2026-03-09T06:29:53.699Z","date":"2026-03-09","time":"06:29:53"},{"correct_response":"l","task":"test_phase","broad_category":"I","image_png":"I_Pegmatite_16.png","image_id":112,"category_name":"Pegmatite","category":7,"distinct_rating":7.03,"distinct_type":"Top","item_type":"Target","rt":1709,"stimulus":"Stimuli_Rocks480/I_Pegmatite_16.png","response":"a","trial_type":"image-keyboard-response","trial_index":149,"plugin_version":"2.1.0","time_elapsed":485985,"subject_id":"92611","group":"Group1","condition":"1_Rep","full_date":"2026-03-09T06:29:53.699Z","date":"2026-03-09","time":"06:29:53","cor_ans":false},{"trial_type":"html-keyboard-response","rt":null,"stimulus":"<p style=\"color: red; font-size: 50px; font-weight: bold;\">Incorrect</p>","response":null,"trial_index":150,"plugin_version":"2.1.0","time_elapsed":486487,"subject_id":"92611","group":"Group1","condition":"1_Rep","full_date":"2026-03-09T06:29:53.699Z","date":"2026-03-09","time":"06:29:53"},{"correct_response":"a","task":"test_phase","broad_category":"I","image_png":"I_Gabbro_02.png","image_id":50,"category_name":"Gabbro","category":4,"distinct_rating":2.73,"distinct_type":"Bottom","item_type":"Foil","rt":3833,"stimulus":"Stimuli_Rocks480/I_Gabbro_02.png","response":"l","trial_type":"image-keyboard-response","trial_index":151,"plugin_version":"2.1.0","time_elapsed":490344,"subject_id":"92611","group":"Group1","condition":"1_Rep","full_date":"2026-03-09T06:29:53.699Z","date":"2026-03-09","time":"06:29:53","cor_ans":false},{"trial_type":"html-keyboard-response","rt":null,"stimulus":"<p style=\"color: red; font-size: 50px; font-weight: bold;\">Incorrect</p>","response":null,"trial_index":152,"plugin_version":"2.1.0","time_elapsed":490847,"subject_id":"92611","group":"Group1","condition":"1_Rep","full_date":"2026-03-09T06:29:53.699Z","date":"2026-03-09","time":"06:29:53"},{"correct_response":"l","task":"test_phase","broad_category":"I","image_png":"I_Gabbro_08.png","image_id":56,"category_name":"Gabbro","category":4,"distinct_rating":3.02,"distinct_type":"Bottom","item_type":"Target","rt":942,"stimulus":"Stimuli_Rocks480/I_Gabbro_08.png","response":"l","trial_type":"image-keyboard-response","trial_index":153,"plugin_version":"2.1.0","time_elapsed":491812,"subject_id":"92611","group":"Group1","condition":"1_Rep","full_date":"2026-03-09T06:29:53.699Z","date":"2026-03-09","time":"06:29:53","cor_ans":true},{"trial_type":"html-keyboard-response","rt":null,"stimulus":"<p style=\"color: green; font-size: 50px; font-weight: bold;\">Correct</p>","response":null,"trial_index":154,"plugin_version":"2.1.0","time_elapsed":492316,"subject_id":"92611","group":"Group1","condition":"1_Rep","full_date":"2026-03-09T06:29:53.699Z","date":"2026-03-09","time":"06:29:53"},{"correct_response":"a","task":"test_phase","broad_category":"M","image_png":"M_Slate_14.png","image_id":318,"category_name":"Slate","category":20,"distinct_rating":2.58,"distinct_type":"Bottom","item_type":"Foil","rt":1336,"stimulus":"Stimuli_Rocks480/M_Slate_14.png","response":"l","trial_type":"image-keyboard-response","trial_index":155,"plugin_version":"2.1.0","time_elapsed":493670,"subject_id":"92611","group":"Group1","condition":"1_Rep","full_date":"2026-03-09T06:29:53.699Z","date":"2026-03-09","time":"06:29:53","cor_ans":false},{"trial_type":"html-keyboard-response","rt":null,"stimulus":"<p style=\"color: red; font-size: 50px; font-weight: bold;\">Incorrect</p>","response":null,"trial_index":156,"plugin_version":"2.1.0","time_elapsed":494173,"subject_id":"92611","group":"Group1","condition":"1_Rep","full_date":"2026-03-09T06:29:53.699Z","date":"2026-03-09","time":"06:29:53"},{"correct_response":"a","task":"test_phase","broad_category":"I","image_png":"I_Basalt_13.png","image_id":29,"category_name":"Basalt","category":2,"distinct_rating":2.68,"distinct_type":"Bottom","item_type":"Foil","rt":3474,"stimulus":"Stimuli_Rocks480/I_Basalt_13.png","response":"a","trial_type":"image-keyboard-response","trial_index":157,"plugin_version":"2.1.0","time_elapsed":497667,"subject_id":"92611","group":"Group1","condition":"1_Rep","full_date":"2026-03-09T06:29:53.699Z","date":"2026-03-09","time":"06:29:53","cor_ans":true},{"trial_type":"html-keyboard-response","rt":null,"stimulus":"<p style=\"color: green; font-size: 50px; font-weight: bold;\">Correct</p>","response":null,"trial_index":158,"plugin_version":"2.1.0","time_elapsed":498170,"subject_id":"92611","group":"Group1","condition":"1_Rep","full_date":"2026-03-09T06:29:53.699Z","date":"2026-03-09","time":"06:29:53"},{"correct_response":"a","task":"test_phase","broad_category":"I","image_png":"I_Pumice_13.png","image_id":141,"category_name":"Pumice","category":9,"distinct_rating":3.12,"distinct_type":"Bottom","item_type":"Foil","rt":4147,"stimulus":"Stimuli_Rocks480/I_Pumice_13.png","response":"a","trial_type":"image-keyboard-response","trial_index":159,"plugin_version":"2.1.0","time_elapsed":502341,"subject_id":"92611","group":"Group1","condition":"1_Rep","full_date":"2026-03-09T06:29:53.699Z","date":"2026-03-09","time":"06:29:53","cor_ans":true},{"trial_type":"html-keyboard-response","rt":null,"stimulus":"<p style=\"color: green; font-size: 50px; font-weight: bold;\">Correct</p>","response":null,"trial_index":160,"plugin_version":"2.1.0","time_elapsed":502844,"subject_id":"92611","group":"Group1","condition":"1_Rep","full_date":"2026-03-09T06:29:53.699Z","date":"2026-03-09","time":"06:29:53"},{"correct_response":"a","task":"test_phase","broad_category":"I","image_png":"I_Rhyolite_08.png","image_id":152,"category_name":"Rhyolite","category":10,"distinct_rating":1.38,"distinct_type":"Bottom","item_type":"Foil","rt":2237,"stimulus":"Stimuli_Rocks480/I_Rhyolite_08.png","response":"a","trial_type":"image-keyboard-response","trial_index":161,"plugin_version":"2.1.0","time_elapsed":505102,"subject_id":"92611","group":"Group1","condition":"1_Rep","full_date":"2026-03-09T06:29:53.699Z","date":"2026-03-09","time":"06:29:53","cor_ans":true},{"trial_type":"html-keyboard-response","rt":null,"stimulus":"<p style=\"color: green; font-size: 50px; font-weight: bold;\">Correct</p>","response":null,"trial_index":162,"plugin_version":"2.1.0","time_elapsed":505605,"subject_id":"92611","group":"Group1","condition":"1_Rep","full_date":"2026-03-09T06:29:53.699Z","date":"2026-03-09","time":"06:29:53"},{"correct_response":"l","task":"test_phase","broad_category":"S","image_png":"S_Shale_12.png","image_id":476,"category_name":"Shale","category":30,"distinct_rating":2.48,"distinct_type":"Bottom","item_type":"Target","rt":1921,"stimulus":"Stimuli_Rocks480/S_Shale_12.png","response":"l","trial_type":"image-keyboard-response","trial_index":163,"plugin_version":"2.1.0","time_elapsed":507553,"subject_id":"92611","group":"Group1","condition":"1_Rep","full_date":"2026-03-09T06:29:53.699Z","date":"2026-03-09","time":"06:29:53","cor_ans":true},{"trial_type":"html-keyboard-response","rt":null,"stimulus":"<p style=\"color: green; font-size: 50px; font-weight: bold;\">Correct</p>","response":null,"trial_index":164,"plugin_version":"2.1.0","time_elapsed":508056,"subject_id":"92611","group":"Group1","condition":"1_Rep","full_date":"2026-03-09T06:29:53.699Z","date":"2026-03-09","time":"06:29:53"},{"correct_response":"l","task":"test_phase","broad_category":"S","image_png":"S_Rock Gypsum_04.png","image_id":420,"category_name":"Rock Gypsum","category":27,"distinct_rating":7.61,"distinct_type":"Top","item_type":"Target","rt":4248,"stimulus":"Stimuli_Rocks480/S_Rock Gypsum_04.png","response":"a","trial_type":"image-keyboard-response","trial_index":165,"plugin_version":"2.1.0","time_elapsed":512327,"subject_id":"92611","group":"Group1","condition":"1_Rep","full_date":"2026-03-09T06:29:53.699Z","date":"2026-03-09","time":"06:29:53","cor_ans":false},{"trial_type":"html-keyboard-response","rt":null,"stimulus":"<p style=\"color: red; font-size: 50px; font-weight: bold;\">Incorrect</p>","response":null,"trial_index":166,"plugin_version":"2.1.0","time_elapsed":512830,"subject_id":"92611","group":"Group1","condition":"1_Rep","full_date":"2026-03-09T06:29:53.699Z","date":"2026-03-09","time":"06:29:53"},{"correct_response":"l","task":"test_phase","broad_category":"S","image_png":"S_Dolomite_12.png","image_id":396,"category_name":"Dolomite","category":25,"distinct_rating":1.85,"distinct_type":"Bottom","item_type":"Target","rt":1189,"stimulus":"Stimuli_Rocks480/S_Dolomite_12.png","response":"l","trial_type":"image-keyboard-response","trial_index":167,"plugin_version":"2.1.0","time_elapsed":514041,"subject_id":"92611","group":"Group1","condition":"1_Rep","full_date":"2026-03-09T06:29:53.699Z","date":"2026-03-09","time":"06:29:53","cor_ans":true},{"trial_type":"html-keyboard-response","rt":null,"stimulus":"<p style=\"color: green; font-size: 50px; font-weight: bold;\">Correct</p>","response":null,"trial_index":168,"plugin_version":"2.1.0","time_elapsed":514544,"subject_id":"92611","group":"Group1","condition":"1_Rep","full_date":"2026-03-09T06:29:53.699Z","date":"2026-03-09","time":"06:29:53"},{"correct_response":"l","task":"test_phase","broad_category":"I","image_png":"I_Diorite_03.png","image_id":35,"category_name":"Diorite","category":3,"distinct_rating":3.14,"distinct_type":"Bottom","item_type":"Target","rt":6466,"stimulus":"Stimuli_Rocks480/I_Diorite_03.png","response":"a","trial_type":"image-keyboard-response","trial_index":169,"plugin_version":"2.1.0","time_elapsed":521037,"subject_id":"92611","group":"Group1","condition":"1_Rep","full_date":"2026-03-09T06:29:53.699Z","date":"2026-03-09","time":"06:29:53","cor_ans":false},{"trial_type":"html-keyboard-response","rt":null,"stimulus":"<p style=\"color: red; font-size: 50px; font-weight: bold;\">Incorrect</p>","response":null,"trial_index":170,"plugin_version":"2.1.0","time_elapsed":521540,"subject_id":"92611","group":"Group1","condition":"1_Rep","full_date":"2026-03-09T06:29:53.699Z","date":"2026-03-09","time":"06:29:53"},{"correct_response":"a","task":"test_phase","broad_category":"S","image_png":"S_Dolomite_01.png","image_id":385,"category_name":"Dolomite","category":25,"distinct_rating":1.43,"distinct_type":"Bottom","item_type":"Foil","rt":3028,"stimulus":"Stimuli_Rocks480/S_Dolomite_01.png","response":"a","trial_type":"image-keyboard-response","trial_index":171,"plugin_version":"2.1.0","time_elapsed":524600,"subject_id":"92611","group":"Group1","condition":"1_Rep","full_date":"2026-03-09T06:29:53.699Z","date":"2026-03-09","time":"06:29:53","cor_ans":true},{"trial_type":"html-keyboard-response","rt":null,"stimulus":"<p style=\"color: green; font-size: 50px; font-weight: bold;\">Correct</p>","response":null,"trial_index":172,"plugin_version":"2.1.0","time_elapsed":525103,"subject_id":"92611","group":"Group1","condition":"1_Rep","full_date":"2026-03-09T06:29:53.699Z","date":"2026-03-09","time":"06:29:53"},{"correct_response":"l","task":"test_phase","broad_category":"I","image_png":"I_Gabbro_16.png","image_id":64,"category_name":"Gabbro","category":4,"distinct_rating":2.52,"distinct_type":"Bottom","item_type":"Target","rt":3242,"stimulus":"Stimuli_Rocks480/I_Gabbro_16.png","response":"a","trial_type":"image-keyboard-response","trial_index":173,"plugin_version":"2.1.0","time_elapsed":528366,"subject_id":"92611","group":"Group1","condition":"1_Rep","full_date":"2026-03-09T06:29:53.699Z","date":"2026-03-09","time":"06:29:53","cor_ans":false},{"trial_type":"html-keyboard-response","rt":null,"stimulus":"<p style=\"color: red; font-size: 50px; font-weight: bold;\">Incorrect</p>","response":null,"trial_index":174,"plugin_version":"2.1.0","time_elapsed":528869,"subject_id":"92611","group":"Group1","condition":"1_Rep","full_date":"2026-03-09T06:29:53.699Z","date":"2026-03-09","time":"06:29:53"},{"correct_response":"a","task":"test_phase","broad_category":"M","image_png":"M_Phyllite_02.png","image_id":258,"category_name":"Phyllite","category":17,"distinct_rating":2.89,"distinct_type":"Bottom","item_type":"Foil","rt":1856,"stimulus":"Stimuli_Rocks480/M_Phyllite_02.png","response":"l","trial_type":"image-keyboard-response","trial_index":175,"plugin_version":"2.1.0","time_elapsed":530749,"subject_id":"92611","group":"Group1","condition":"1_Rep","full_date":"2026-03-09T06:29:53.699Z","date":"2026-03-09","time":"06:29:53","cor_ans":false},{"trial_type":"html-keyboard-response","rt":null,"stimulus":"<p style=\"color: red; font-size: 50px; font-weight: bold;\">Incorrect</p>","response":null,"trial_index":176,"plugin_version":"2.1.0","time_elapsed":531252,"subject_id":"92611","group":"Group1","condition":"1_Rep","full_date":"2026-03-09T06:29:53.699Z","date":"2026-03-09","time":"06:29:53"},{"correct_response":"l","task":"test_phase","broad_category":"M","image_png":"M_Slate_11.png","image_id":315,"category_name":"Slate","category":20,"distinct_rating":2.75,"distinct_type":"Bottom","item_type":"Target","rt":1788,"stimulus":"Stimuli_Rocks480/M_Slate_11.png","response":"l","trial_type":"image-keyboard-response","trial_index":177,"plugin_version":"2.1.0","time_elapsed":533059,"subject_id":"92611","group":"Group1","condition":"1_Rep","full_date":"2026-03-09T06:29:53.699Z","date":"2026-03-09","time":"06:29:53","cor_ans":true},{"trial_type":"html-keyboard-response","rt":null,"stimulus":"<p style=\"color: green; font-size: 50px; font-weight: bold;\">Correct</p>","response":null,"trial_index":178,"plugin_version":"2.1.0","time_elapsed":533562,"subject_id":"92611","group":"Group1","condition":"1_Rep","full_date":"2026-03-09T06:29:53.699Z","date":"2026-03-09","time":"06:29:53"},{"correct_response":"l","task":"test_phase","broad_category":"I","image_png":"I_Pumice_11.png","image_id":139,"category_name":"Pumice","category":9,"distinct_rating":1.74,"distinct_type":"Bottom","item_type":"Target","rt":5219,"stimulus":"Stimuli_Rocks480/I_Pumice_11.png","response":"a","trial_type":"image-keyboard-response","trial_index":179,"plugin_version":"2.1.0","time_elapsed":538796,"subject_id":"92611","group":"Group1","condition":"1_Rep","full_date":"2026-03-09T06:29:53.699Z","date":"2026-03-09","time":"06:29:53","cor_ans":false},{"trial_type":"html-keyboard-response","rt":null,"stimulus":"<p style=\"color: red; font-size: 50px; font-weight: bold;\">Incorrect</p>","response":null,"trial_index":180,"plugin_version":"2.1.0","time_elapsed":539299,"subject_id":"92611","group":"Group1","condition":"1_Rep","full_date":"2026-03-09T06:29:53.699Z","date":"2026-03-09","time":"06:29:53"},{"correct_response":"a","task":"test_phase","broad_category":"I","image_png":"I_Rhyolite_10.png","image_id":154,"category_name":"Rhyolite","category":10,"distinct_rating":2.88,"distinct_type":"Bottom","item_type":"Foil","rt":1849,"stimulus":"Stimuli_Rocks480/I_Rhyolite_10.png","response":"l","trial_type":"image-keyboard-response","trial_index":181,"plugin_version":"2.1.0","time_elapsed":541182,"subject_id":"92611","group":"Group1","condition":"1_Rep","full_date":"2026-03-09T06:29:53.699Z","date":"2026-03-09","time":"06:29:53","cor_ans":false},{"trial_type":"html-keyboard-response","rt":null,"stimulus":"<p style=\"color: red; font-size: 50px; font-weight: bold;\">Incorrect</p>","response":null,"trial_index":182,"plugin_version":"2.1.0","time_elapsed":541685,"subject_id":"92611","group":"Group1","condition":"1_Rep","full_date":"2026-03-09T06:29:53.699Z","date":"2026-03-09","time":"06:29:53"},{"correct_response":"a","task":"test_phase","broad_category":"S","image_png":"S_Rock Salt_15.png","image_id":447,"category_name":"Rock Salt","category":28,"distinct_rating":7.79,"distinct_type":"Top","item_type":"Foil","rt":1803,"stimulus":"Stimuli_Rocks480/S_Rock Salt_15.png","response":"a","trial_type":"image-keyboard-response","trial_index":183,"plugin_version":"2.1.0","time_elapsed":543509,"subject_id":"92611","group":"Group1","condition":"1_Rep","full_date":"2026-03-09T06:29:53.699Z","date":"2026-03-09","time":"06:29:53","cor_ans":true},{"trial_type":"html-keyboard-response","rt":null,"stimulus":"<p style=\"color: green; font-size: 50px; font-weight: bold;\">Correct</p>","response":null,"trial_index":184,"plugin_version":"2.1.0","time_elapsed":544012,"subject_id":"92611","group":"Group1","condition":"1_Rep","full_date":"2026-03-09T06:29:53.699Z","date":"2026-03-09","time":"06:29:53"},{"correct_response":"l","task":"test_phase","broad_category":"I","image_png":"I_Basalt_01.png","image_id":17,"category_name":"Basalt","category":2,"distinct_rating":1.92,"distinct_type":"Bottom","item_type":"Target","rt":4163,"stimulus":"Stimuli_Rocks480/I_Basalt_01.png","response":"l","trial_type":"image-keyboard-response","trial_index":185,"plugin_version":"2.1.0","time_elapsed":548202,"subject_id":"92611","group":"Group1","condition":"1_Rep","full_date":"2026-03-09T06:29:53.699Z","date":"2026-03-09","time":"06:29:53","cor_ans":true},{"trial_type":"html-keyboard-response","rt":null,"stimulus":"<p style=\"color: green; font-size: 50px; font-weight: bold;\">Correct</p>","response":null,"trial_index":186,"plugin_version":"2.1.0","time_elapsed":548705,"subject_id":"92611","group":"Group1","condition":"1_Rep","full_date":"2026-03-09T06:29:53.699Z","date":"2026-03-09","time":"06:29:53"},{"correct_response":"a","task":"test_phase","broad_category":"M","image_png":"M_Gneiss_14.png","image_id":206,"category_name":"Gneiss","category":13,"distinct_rating":3.41,"distinct_type":"Bottom","item_type":"Foil","rt":5304,"stimulus":"Stimuli_Rocks480/M_Gneiss_14.png","response":"l","trial_type":"image-keyboard-response","trial_index":187,"plugin_version":"2.1.0","time_elapsed":554031,"subject_id":"92611","group":"Group1","condition":"1_Rep","full_date":"2026-03-09T06:29:53.699Z","date":"2026-03-09","time":"06:29:53","cor_ans":false},{"trial_type":"html-keyboard-response","rt":null,"stimulus":"<p style=\"color: red; font-size: 50px; font-weight: bold;\">Incorrect</p>","response":null,"trial_index":188,"plugin_version":"2.1.0","time_elapsed":554534,"subject_id":"92611","group":"Group1","condition":"1_Rep","full_date":"2026-03-09T06:29:53.699Z","date":"2026-03-09","time":"06:29:53"},{"correct_response":"a","task":"test_phase","broad_category":"I","image_png":"I_Pumice_14.png","image_id":142,"category_name":"Pumice","category":9,"distinct_rating":3.22,"distinct_type":"Bottom","item_type":"Foil","rt":2341,"stimulus":"Stimuli_Rocks480/I_Pumice_14.png","response":"a","trial_type":"image-keyboard-response","trial_index":189,"plugin_version":"2.1.0","time_elapsed":556895,"subject_id":"92611","group":"Group1","condition":"1_Rep","full_date":"2026-03-09T06:29:53.699Z","date":"2026-03-09","time":"06:29:53","cor_ans":true},{"trial_type":"html-keyboard-response","rt":null,"stimulus":"<p style=\"color: green; font-size: 50px; font-weight: bold;\">Correct</p>","response":null,"trial_index":190,"plugin_version":"2.1.0","time_elapsed":557398,"subject_id":"92611","group":"Group1","condition":"1_Rep","full_date":"2026-03-09T06:29:53.699Z","date":"2026-03-09","time":"06:29:53"},{"correct_response":"a","task":"test_phase","broad_category":"S","image_png":"S_Shale_02.png","image_id":466,"category_name":"Shale","category":30,"distinct_rating":2.9,"distinct_type":"Bottom","item_type":"Foil","rt":4312,"stimulus":"Stimuli_Rocks480/S_Shale_02.png","response":"l","trial_type":"image-keyboard-response","trial_index":191,"plugin_version":"2.1.0","time_elapsed":561728,"subject_id":"92611","group":"Group1","condition":"1_Rep","full_date":"2026-03-09T06:29:53.699Z","date":"2026-03-09","time":"06:29:53","cor_ans":false},{"trial_type":"html-keyboard-response","rt":null,"stimulus":"<p style=\"color: red; font-size: 50px; font-weight: bold;\">Incorrect</p>","response":null,"trial_index":192,"plugin_version":"2.1.0","time_elapsed":562230,"subject_id":"92611","group":"Group1","condition":"1_Rep","full_date":"2026-03-09T06:29:53.699Z","date":"2026-03-09","time":"06:29:53"},{"correct_response":"a","task":"test_phase","broad_category":"M","image_png":"M_Gneiss_15.png","image_id":207,"category_name":"Gneiss","category":13,"distinct_rating":3.11,"distinct_type":"Bottom","item_type":"Foil","rt":3265,"stimulus":"Stimuli_Rocks480/M_Gneiss_15.png","response":"a","trial_type":"image-keyboard-response","trial_index":193,"plugin_version":"2.1.0","time_elapsed":565511,"subject_id":"92611","group":"Group1","condition":"1_Rep","full_date":"2026-03-09T06:29:53.699Z","date":"2026-03-09","time":"06:29:53","cor_ans":true},{"trial_type":"html-keyboard-response","rt":null,"stimulus":"<p style=\"color: green; font-size: 50px; font-weight: bold;\">Correct</p>","response":null,"trial_index":194,"plugin_version":"2.1.0","time_elapsed":566014,"subject_id":"92611","group":"Group1","condition":"1_Rep","full_date":"2026-03-09T06:29:53.699Z","date":"2026-03-09","time":"06:29:53"},{"correct_response":"a","task":"test_phase","broad_category":"I","image_png":"I_Pegmatite_11.png","image_id":107,"category_name":"Pegmatite","category":7,"distinct_rating":7.11,"distinct_type":"Top","item_type":"Foil","rt":1763,"stimulus":"Stimuli_Rocks480/I_Pegmatite_11.png","response":"a","trial_type":"image-keyboard-response","trial_index":195,"plugin_version":"2.1.0","time_elapsed":567805,"subject_id":"92611","group":"Group1","condition":"1_Rep","full_date":"2026-03-09T06:29:53.699Z","date":"2026-03-09","time":"06:29:53","cor_ans":true},{"trial_type":"html-keyboard-response","rt":null,"stimulus":"<p style=\"color: green; font-size: 50px; font-weight: bold;\">Correct</p>","response":null,"trial_index":196,"plugin_version":"2.1.0","time_elapsed":568308,"subject_id":"92611","group":"Group1","condition":"1_Rep","full_date":"2026-03-09T06:29:53.699Z","date":"2026-03-09","time":"06:29:53"},{"correct_response":"l","task":"test_phase","broad_category":"M","image_png":"M_Quartzite_08.png","image_id":280,"category_name":"Quartzite","category":18,"distinct_rating":2.15,"distinct_type":"Bottom","item_type":"Target","rt":1831,"stimulus":"Stimuli_Rocks480/M_Quartzite_08.png","response":"l","trial_type":"image-keyboard-response","trial_index":197,"plugin_version":"2.1.0","time_elapsed":570160,"subject_id":"92611","group":"Group1","condition":"1_Rep","full_date":"2026-03-09T06:29:53.699Z","date":"2026-03-09","time":"06:29:53","cor_ans":true},{"trial_type":"html-keyboard-response","rt":null,"stimulus":"<p style=\"color: green; font-size: 50px; font-weight: bold;\">Correct</p>","response":null,"trial_index":198,"plugin_version":"2.1.0","time_elapsed":570663,"subject_id":"92611","group":"Group1","condition":"1_Rep","full_date":"2026-03-09T06:29:53.699Z","date":"2026-03-09","time":"06:29:53"},{"correct_response":"a","task":"test_phase","broad_category":"M","image_png":"M_Slate_04.png","image_id":308,"category_name":"Slate","category":20,"distinct_rating":2.2,"distinct_type":"Bottom","item_type":"Foil","rt":2028,"stimulus":"Stimuli_Rocks480/M_Slate_04.png","response":"l","trial_type":"image-keyboard-response","trial_index":199,"plugin_version":"2.1.0","time_elapsed":572709,"subject_id":"92611","group":"Group1","condition":"1_Rep","full_date":"2026-03-09T06:29:53.699Z","date":"2026-03-09","time":"06:29:53","cor_ans":false},{"trial_type":"html-keyboard-response","rt":null,"stimulus":"<p style=\"color: red; font-size: 50px; font-weight: bold;\">Incorrect</p>","response":null,"trial_index":200,"plugin_version":"2.1.0","time_elapsed":573211,"subject_id":"92611","group":"Group1","condition":"1_Rep","full_date":"2026-03-09T06:29:53.699Z","date":"2026-03-09","time":"06:29:53"},{"correct_response":"l","task":"test_phase","broad_category":"M","image_png":"M_Phyllite_03.png","image_id":259,"category_name":"Phyllite","category":17,"distinct_rating":2.5,"distinct_type":"Bottom","item_type":"Target","rt":2977,"stimulus":"Stimuli_Rocks480/M_Phyllite_03.png","response":"a","trial_type":"image-keyboard-response","trial_index":201,"plugin_version":"2.1.0","time_elapsed":576210,"subject_id":"92611","group":"Group1","condition":"1_Rep","full_date":"2026-03-09T06:29:53.699Z","date":"2026-03-09","time":"06:29:53","cor_ans":false},{"trial_type":"html-keyboard-response","rt":null,"stimulus":"<p style=\"color: red; font-size: 50px; font-weight: bold;\">Incorrect</p>","response":null,"trial_index":202,"plugin_version":"2.1.0","time_elapsed":576713,"subject_id":"92611","group":"Group1","condition":"1_Rep","full_date":"2026-03-09T06:29:53.699Z","date":"2026-03-09","time":"06:29:53"},{"correct_response":"l","task":"test_phase","broad_category":"S","image_png":"S_Shale_01.png","image_id":465,"category_name":"Shale","category":30,"distinct_rating":2.7,"distinct_type":"Bottom","item_type":"Target","rt":2378,"stimulus":"Stimuli_Rocks480/S_Shale_01.png","response":"l","trial_type":"image-keyboard-response","trial_index":203,"plugin_version":"2.1.0","time_elapsed":579114,"subject_id":"92611","group":"Group1","condition":"1_Rep","full_date":"2026-03-09T06:29:53.699Z","date":"2026-03-09","time":"06:29:53","cor_ans":true},{"trial_type":"html-keyboard-response","rt":null,"stimulus":"<p style=\"color: green; font-size: 50px; font-weight: bold;\">Correct</p>","response":null,"trial_index":204,"plugin_version":"2.1.0","time_elapsed":579618,"subject_id":"92611","group":"Group1","condition":"1_Rep","full_date":"2026-03-09T06:29:53.699Z","date":"2026-03-09","time":"06:29:53"},{"correct_response":"l","task":"test_phase","broad_category":"M","image_png":"M_Marble_06.png","image_id":230,"category_name":"Marble","category":15,"distinct_rating":3.4,"distinct_type":"Bottom","item_type":"Target","rt":1848,"stimulus":"Stimuli_Rocks480/M_Marble_06.png","response":"l","trial_type":"image-keyboard-response","trial_index":205,"plugin_version":"2.1.0","time_elapsed":581487,"subject_id":"92611","group":"Group1","condition":"1_Rep","full_date":"2026-03-09T06:29:53.699Z","date":"2026-03-09","time":"06:29:53","cor_ans":true},{"trial_type":"html-keyboard-response","rt":null,"stimulus":"<p style=\"color: green; font-size: 50px; font-weight: bold;\">Correct</p>","response":null,"trial_index":206,"plugin_version":"2.1.0","time_elapsed":581990,"subject_id":"92611","group":"Group1","condition":"1_Rep","full_date":"2026-03-09T06:29:53.699Z","date":"2026-03-09","time":"06:29:53"},{"correct_response":"a","task":"test_phase","broad_category":"S","image_png":"S_Conglomerate_14.png","image_id":382,"category_name":"Conglomerate","category":24,"distinct_rating":6.86,"distinct_type":"Top","item_type":"Foil","rt":4387,"stimulus":"Stimuli_Rocks480/S_Conglomerate_14.png","response":"l","trial_type":"image-keyboard-response","trial_index":207,"plugin_version":"2.1.0","time_elapsed":586399,"subject_id":"92611","group":"Group1","condition":"1_Rep","full_date":"2026-03-09T06:29:53.699Z","date":"2026-03-09","time":"06:29:53","cor_ans":false},{"trial_type":"html-keyboard-response","rt":null,"stimulus":"<p style=\"color: red; font-size: 50px; font-weight: bold;\">Incorrect</p>","response":null,"trial_index":208,"plugin_version":"2.1.0","time_elapsed":586902,"subject_id":"92611","group":"Group1","condition":"1_Rep","full_date":"2026-03-09T06:29:53.699Z","date":"2026-03-09","time":"06:29:53"},{"correct_response":"a","task":"test_phase","broad_category":"S","image_png":"S_Dolomite_16.png","image_id":400,"category_name":"Dolomite","category":25,"distinct_rating":1.71,"distinct_type":"Bottom","item_type":"Foil","rt":4978,"stimulus":"Stimuli_Rocks480/S_Dolomite_16.png","response":"a","trial_type":"image-keyboard-response","trial_index":209,"plugin_version":"2.1.0","time_elapsed":591900,"subject_id":"92611","group":"Group1","condition":"1_Rep","full_date":"2026-03-09T06:29:53.699Z","date":"2026-03-09","time":"06:29:53","cor_ans":true},{"trial_type":"html-keyboard-response","rt":null,"stimulus":"<p style=\"color: green; font-size: 50px; font-weight: bold;\">Correct</p>","response":null,"trial_index":210,"plugin_version":"2.1.0","time_elapsed":592403,"subject_id":"92611","group":"Group1","condition":"1_Rep","full_date":"2026-03-09T06:29:53.699Z","date":"2026-03-09","time":"06:29:53"},{"correct_response":"a","task":"test_phase","broad_category":"S","image_png":"S_Sandstone_08.png","image_id":456,"category_name":"Sandstone","category":29,"distinct_rating":1.5,"distinct_type":"Bottom","item_type":"Foil","rt":1229,"stimulus":"Stimuli_Rocks480/S_Sandstone_08.png","response":"a","trial_type":"image-keyboard-response","trial_index":211,"plugin_version":"2.1.0","time_elapsed":593651,"subject_id":"92611","group":"Group1","condition":"1_Rep","full_date":"2026-03-09T06:29:53.699Z","date":"2026-03-09","time":"06:29:53","cor_ans":true},{"trial_type":"html-keyboard-response","rt":null,"stimulus":"<p style=\"color: green; font-size: 50px; font-weight: bold;\">Correct</p>","response":null,"trial_index":212,"plugin_version":"2.1.0","time_elapsed":594154,"subject_id":"92611","group":"Group1","condition":"1_Rep","full_date":"2026-03-09T06:29:53.699Z","date":"2026-03-09","time":"06:29:53"},{"correct_response":"a","task":"test_phase","broad_category":"I","image_png":"I_Pumice_01.png","image_id":129,"category_name":"Pumice","category":9,"distinct_rating":3.25,"distinct_type":"Bottom","item_type":"Foil","rt":1298,"stimulus":"Stimuli_Rocks480/I_Pumice_01.png","response":"l","trial_type":"image-keyboard-response","trial_index":213,"plugin_version":"2.1.0","time_elapsed":595466,"subject_id":"92611","group":"Group1","condition":"1_Rep","full_date":"2026-03-09T06:29:53.699Z","date":"2026-03-09","time":"06:29:53","cor_ans":false},{"trial_type":"html-keyboard-response","rt":null,"stimulus":"<p style=\"color: red; font-size: 50px; font-weight: bold;\">Incorrect</p>","response":null,"trial_index":214,"plugin_version":"2.1.0","time_elapsed":595969,"subject_id":"92611","group":"Group1","condition":"1_Rep","full_date":"2026-03-09T06:29:53.699Z","date":"2026-03-09","time":"06:29:53"},{"correct_response":"a","task":"test_phase","broad_category":"I","image_png":"I_Gabbro_14.png","image_id":62,"category_name":"Gabbro","category":4,"distinct_rating":2.95,"distinct_type":"Bottom","item_type":"Foil","rt":2344,"stimulus":"Stimuli_Rocks480/I_Gabbro_14.png","response":"l","trial_type":"image-keyboard-response","trial_index":215,"plugin_version":"2.1.0","time_elapsed":598339,"subject_id":"92611","group":"Group1","condition":"1_Rep","full_date":"2026-03-09T06:29:53.699Z","date":"2026-03-09","time":"06:29:53","cor_ans":false},{"trial_type":"html-keyboard-response","rt":null,"stimulus":"<p style=\"color: red; font-size: 50px; font-weight: bold;\">Incorrect</p>","response":null,"trial_index":216,"plugin_version":"2.1.0","time_elapsed":598842,"subject_id":"92611","group":"Group1","condition":"1_Rep","full_date":"2026-03-09T06:29:53.699Z","date":"2026-03-09","time":"06:29:53"},{"correct_response":"l","task":"test_phase","broad_category":"M","image_png":"M_Quartzite_05.png","image_id":277,"category_name":"Quartzite","category":18,"distinct_rating":2.23,"distinct_type":"Bottom","item_type":"Target","rt":927,"stimulus":"Stimuli_Rocks480/M_Quartzite_05.png","response":"l","trial_type":"image-keyboard-response","trial_index":217,"plugin_version":"2.1.0","time_elapsed":599793,"subject_id":"92611","group":"Group1","condition":"1_Rep","full_date":"2026-03-09T06:29:53.699Z","date":"2026-03-09","time":"06:29:53","cor_ans":true},{"trial_type":"html-keyboard-response","rt":null,"stimulus":"<p style=\"color: green; font-size: 50px; font-weight: bold;\">Correct</p>","response":null,"trial_index":218,"plugin_version":"2.1.0","time_elapsed":600296,"subject_id":"92611","group":"Group1","condition":"1_Rep","full_date":"2026-03-09T06:29:53.699Z","date":"2026-03-09","time":"06:29:53"},{"correct_response":"a","task":"test_phase","broad_category":"S","image_png":"S_Chert_13.png","image_id":365,"category_name":"Chert","category":23,"distinct_rating":6.57,"distinct_type":"Top","item_type":"Foil","rt":1140,"stimulus":"Stimuli_Rocks480/S_Chert_13.png","response":"a","trial_type":"image-keyboard-response","trial_index":219,"plugin_version":"2.1.0","time_elapsed":601451,"subject_id":"92611","group":"Group1","condition":"1_Rep","full_date":"2026-03-09T06:29:53.699Z","date":"2026-03-09","time":"06:29:53","cor_ans":true},{"trial_type":"html-keyboard-response","rt":null,"stimulus":"<p style=\"color: green; font-size: 50px; font-weight: bold;\">Correct</p>","response":null,"trial_index":220,"plugin_version":"2.1.0","time_elapsed":601954,"subject_id":"92611","group":"Group1","condition":"1_Rep","full_date":"2026-03-09T06:29:53.699Z","date":"2026-03-09","time":"06:29:53"},{"correct_response":"l","task":"test_phase","broad_category":"I","image_png":"I_Diorite_04.png","image_id":36,"category_name":"Diorite","category":3,"distinct_rating":2.98,"distinct_type":"Bottom","item_type":"Target","rt":2245,"stimulus":"Stimuli_Rocks480/I_Diorite_04.png","response":"l","trial_type":"image-keyboard-response","trial_index":221,"plugin_version":"2.1.0","time_elapsed":604224,"subject_id":"92611","group":"Group1","condition":"1_Rep","full_date":"2026-03-09T06:29:53.699Z","date":"2026-03-09","time":"06:29:53","cor_ans":true},{"trial_type":"html-keyboard-response","rt":null,"stimulus":"<p style=\"color: green; font-size: 50px; font-weight: bold;\">Correct</p>","response":null,"trial_index":222,"plugin_version":"2.1.0","time_elapsed":604727,"subject_id":"92611","group":"Group1","condition":"1_Rep","full_date":"2026-03-09T06:29:53.699Z","date":"2026-03-09","time":"06:29:53"},{"correct_response":"a","task":"test_phase","broad_category":"M","image_png":"M_Phyllite_05.png","image_id":261,"category_name":"Phyllite","category":17,"distinct_rating":2.14,"distinct_type":"Bottom","item_type":"Foil","rt":4948,"stimulus":"Stimuli_Rocks480/M_Phyllite_05.png","response":"a","trial_type":"image-keyboard-response","trial_index":223,"plugin_version":"2.1.0","time_elapsed":609695,"subject_id":"92611","group":"Group1","condition":"1_Rep","full_date":"2026-03-09T06:29:53.699Z","date":"2026-03-09","time":"06:29:53","cor_ans":true},{"trial_type":"html-keyboard-response","rt":null,"stimulus":"<p style=\"color: green; font-size: 50px; font-weight: bold;\">Correct</p>","response":null,"trial_index":224,"plugin_version":"2.1.0","time_elapsed":610197,"subject_id":"92611","group":"Group1","condition":"1_Rep","full_date":"2026-03-09T06:29:53.699Z","date":"2026-03-09","time":"06:29:53"},{"correct_response":"l","task":"test_phase","broad_ca