[{"width":1710,"height":870,"webaudio":true,"browser":"chrome","browser_version":"126.0.0","mobile":false,"os":"Mac OS","fullscreen":true,"vsync_rate":60.02,"webcam":true,"microphone":true,"trial_type":"browser-check","trial_index":0,"plugin_version":"2.1.0","time_elapsed":1013,"subject_id":"92415","group":"Group2","condition":"1_Rep","full_date":"2026-02-23T20:11:20.992Z","date":"2026-02-23","time":"20:11:20"},{"success":true,"timeout":false,"failed_images":[],"failed_audio":[],"failed_video":[],"trial_type":"preload","trial_index":1,"plugin_version":"2.1.0","time_elapsed":5048,"subject_id":"92415","group":"Group2","condition":"1_Rep","full_date":"2026-02-23T20:11:20.992Z","date":"2026-02-23","time":"20:11:20"},{"rt":5692,"url":"SONA_consent_memorability.html","trial_type":"external-html","trial_index":2,"plugin_version":"2.1.0","time_elapsed":10766,"subject_id":"92415","group":"Group2","condition":"1_Rep","full_date":"2026-02-23T20:11:20.992Z","date":"2026-02-23","time":"20:11:20"},{"success":true,"rt":2682,"trial_type":"fullscreen","trial_index":3,"plugin_version":"2.1.0","time_elapsed":14454,"subject_id":"92415","group":"Group2","condition":"1_Rep","full_date":"2026-02-23T20:11:20.992Z","date":"2026-02-23","time":"20:11:20"},{"rt":25031,"stimulus":"<div style=\"max-width: 760px; margin: auto; font-size: 20px; line-height: 1.5;\">\n      <h1 style=\"text-align:center; font-size: 30px;\">Instructions</h1>\n      <p>\n        Welcome to the study on <b>visual memory</b>. This experiment consists of <b>two phases</b>: \n        a <b>study phase</b> and a <b>test phase</b>.\n      </p>\n      <p>\n        In the study phase, you will see a series of rock images along with their category labels.\n        The images will appear one at a time.\n        <b>Your task</b> is to learn the categories to which the rock images belong \n        and to remember each image as accurately as possible.\n      </p> \n      <p>\n        Note that you will see each image only <b>once</b> during the study phase. \n          So, please pay close attention and try to remember each image carefully.\n      </p>\n      <p>\n        After the study phase, <b>your memory will be tested</b>. \n        Additional instructions for the test phase will be provided at that time.\n      </p>\n      <p>\n        If your computer has multiple <b>language settings</b> (e.g., English and another language),\n        please make sure it is set to English before starting.\n      </p>\n      <p>\n        You can track your progress using the <b>completion bar</b> at the top of the screen. \n        Please note that the bar will refresh when the test phase begins \n        to give you an accurate sense of your progress in both phases.\n      </p> \n      <p>\n        Press the button below when you are ready to begin.\n      </p>\n    </div>","response":0,"trial_type":"html-button-response","trial_index":4,"plugin_version":"2.1.0","time_elapsed":39486,"subject_id":"92415","group":"Group2","condition":"1_Rep","full_date":"2026-02-23T20:11:20.992Z","date":"2026-02-23","time":"20:11:20"},{"rt":null,"stimulus":"<p style=\"font-size: 50px; margin: 0; text-align: center;\">+</p>","response":null,"trial_type":"html-keyboard-response","trial_index":5,"plugin_version":"2.1.0","time_elapsed":40491,"subject_id":"92415","group":"Group2","condition":"1_Rep","full_date":"2026-02-23T20:11:20.992Z","date":"2026-02-23","time":"20:11:20"},{"task":"memory_phase","broad_category":"M","image_png":"M_Gneiss_14.png","image_id":206,"category_name":"Gneiss","category":13,"distinct_rating":3.41,"distinct_type":"Bottom","rt":null,"stimulus":"Stimuli_Rocks480/M_Gneiss_14.png","response":null,"trial_type":"image-keyboard-response","trial_index":6,"plugin_version":"2.1.0","time_elapsed":42997,"subject_id":"92415","group":"Group2","condition":"1_Rep","full_date":"2026-02-23T20:11:20.992Z","date":"2026-02-23","time":"20:11:20"},{"rt":null,"stimulus":"<p style=\"font-size: 50px; margin: 0; text-align: center;\">+</p>","response":null,"trial_type":"html-keyboard-response","trial_index":7,"plugin_version":"2.1.0","time_elapsed":44000,"subject_id":"92415","group":"Group2","condition":"1_Rep","full_date":"2026-02-23T20:11:20.992Z","date":"2026-02-23","time":"20:11:20"},{"task":"memory_phase","broad_category":"I","image_png":"I_Pumice_01.png","image_id":129,"category_name":"Pumice","category":9,"distinct_rating":3.25,"distinct_type":"Bottom","rt":null,"stimulus":"Stimuli_Rocks480/I_Pumice_01.png","response":null,"trial_type":"image-keyboard-response","trial_index":8,"plugin_version":"2.1.0","time_elapsed":46504,"subject_id":"92415","group":"Group2","condition":"1_Rep","full_date":"2026-02-23T20:11:20.992Z","date":"2026-02-23","time":"20:11:20"},{"rt":null,"stimulus":"<p style=\"font-size: 50px; margin: 0; text-align: center;\">+</p>","response":null,"trial_type":"html-keyboard-response","trial_index":9,"plugin_version":"2.1.0","time_elapsed":47506,"subject_id":"92415","group":"Group2","condition":"1_Rep","full_date":"2026-02-23T20:11:20.992Z","date":"2026-02-23","time":"20:11:20"},{"task":"memory_phase","broad_category":"I","image_png":"I_Diorite_15.png","image_id":47,"category_name":"Diorite","category":3,"distinct_rating":3.05,"distinct_type":"Bottom","rt":null,"stimulus":"Stimuli_Rocks480/I_Diorite_15.png","response":null,"trial_type":"image-keyboard-response","trial_index":10,"plugin_version":"2.1.0","time_elapsed":50009,"subject_id":"92415","group":"Group2","condition":"1_Rep","full_date":"2026-02-23T20:11:20.992Z","date":"2026-02-23","time":"20:11:20"},{"rt":null,"stimulus":"<p style=\"font-size: 50px; margin: 0; text-align: center;\">+</p>","response":null,"trial_type":"html-keyboard-response","trial_index":11,"plugin_version":"2.1.0","time_elapsed":51012,"subject_id":"92415","group":"Group2","condition":"1_Rep","full_date":"2026-02-23T20:11:20.992Z","date":"2026-02-23","time":"20:11:20"},{"task":"memory_phase","broad_category":"S","image_png":"S_Conglomerate_14.png","image_id":382,"category_name":"Conglomerate","category":24,"distinct_rating":6.86,"distinct_type":"Top","rt":null,"stimulus":"Stimuli_Rocks480/S_Conglomerate_14.png","response":null,"trial_type":"image-keyboard-response","trial_index":12,"plugin_version":"2.1.0","time_elapsed":53516,"subject_id":"92415","group":"Group2","condition":"1_Rep","full_date":"2026-02-23T20:11:20.992Z","date":"2026-02-23","time":"20:11:20"},{"rt":null,"stimulus":"<p style=\"font-size: 50px; margin: 0; text-align: center;\">+</p>","response":null,"trial_type":"html-keyboard-response","trial_index":13,"plugin_version":"2.1.0","time_elapsed":54518,"subject_id":"92415","group":"Group2","condition":"1_Rep","full_date":"2026-02-23T20:11:20.992Z","date":"2026-02-23","time":"20:11:20"},{"task":"memory_phase","broad_category":"I","image_png":"I_Andesite_04.png","image_id":4,"category_name":"Andesite","category":1,"distinct_rating":3.18,"distinct_type":"Bottom","rt":null,"stimulus":"Stimuli_Rocks480/I_Andesite_04.png","response":null,"trial_type":"image-keyboard-response","trial_index":14,"plugin_version":"2.1.0","time_elapsed":57022,"subject_id":"92415","group":"Group2","condition":"1_Rep","full_date":"2026-02-23T20:11:20.992Z","date":"2026-02-23","time":"20:11:20"},{"rt":null,"stimulus":"<p style=\"font-size: 50px; margin: 0; text-align: center;\">+</p>","response":null,"trial_type":"html-keyboard-response","trial_index":15,"plugin_version":"2.1.0","time_elapsed":58024,"subject_id":"92415","group":"Group2","condition":"1_Rep","full_date":"2026-02-23T20:11:20.992Z","date":"2026-02-23","time":"20:11:20"},{"task":"memory_phase","broad_category":"M","image_png":"M_Phyllite_13.png","image_id":269,"category_name":"Phyllite","category":17,"distinct_rating":2.8,"distinct_type":"Bottom","rt":null,"stimulus":"Stimuli_Rocks480/M_Phyllite_13.png","response":null,"trial_type":"image-keyboard-response","trial_index":16,"plugin_version":"2.1.0","time_elapsed":60527,"subject_id":"92415","group":"Group2","condition":"1_Rep","full_date":"2026-02-23T20:11:20.992Z","date":"2026-02-23","time":"20:11:20"},{"rt":null,"stimulus":"<p style=\"font-size: 50px; margin: 0; text-align: center;\">+</p>","response":null,"trial_type":"html-keyboard-response","trial_index":17,"plugin_version":"2.1.0","time_elapsed":61529,"subject_id":"92415","group":"Group2","condition":"1_Rep","full_date":"2026-02-23T20:11:20.992Z","date":"2026-02-23","time":"20:11:20"},{"task":"memory_phase","broad_category":"I","image_png":"I_Diorite_10.png","image_id":42,"category_name":"Diorite","category":3,"distinct_rating":2.84,"distinct_type":"Bottom","rt":null,"stimulus":"Stimuli_Rocks480/I_Diorite_10.png","response":null,"trial_type":"image-keyboard-response","trial_index":18,"plugin_version":"2.1.0","time_elapsed":64032,"subject_id":"92415","group":"Group2","condition":"1_Rep","full_date":"2026-02-23T20:11:20.992Z","date":"2026-02-23","time":"20:11:20"},{"rt":null,"stimulus":"<p style=\"font-size: 50px; margin: 0; text-align: center;\">+</p>","response":null,"trial_type":"html-keyboard-response","trial_index":19,"plugin_version":"2.1.0","time_elapsed":65034,"subject_id":"92415","group":"Group2","condition":"1_Rep","full_date":"2026-02-23T20:11:20.992Z","date":"2026-02-23","time":"20:11:20"},{"task":"memory_phase","broad_category":"M","image_png":"M_Quartzite_07.png","image_id":279,"category_name":"Quartzite","category":18,"distinct_rating":1.97,"distinct_type":"Bottom","rt":null,"stimulus":"Stimuli_Rocks480/M_Quartzite_07.png","response":null,"trial_type":"image-keyboard-response","trial_index":20,"plugin_version":"2.1.0","time_elapsed":67537,"subject_id":"92415","group":"Group2","condition":"1_Rep","full_date":"2026-02-23T20:11:20.992Z","date":"2026-02-23","time":"20:11:20"},{"rt":null,"stimulus":"<p style=\"font-size: 50px; margin: 0; text-align: center;\">+</p>","response":null,"trial_type":"html-keyboard-response","trial_index":21,"plugin_version":"2.1.0","time_elapsed":68539,"subject_id":"92415","group":"Group2","condition":"1_Rep","full_date":"2026-02-23T20:11:20.992Z","date":"2026-02-23","time":"20:11:20"},{"task":"memory_phase","broad_category":"I","image_png":"I_Diorite_01.png","image_id":33,"category_name":"Diorite","category":3,"distinct_rating":2.97,"distinct_type":"Bottom","rt":null,"stimulus":"Stimuli_Rocks480/I_Diorite_01.png","response":null,"trial_type":"image-keyboard-response","trial_index":22,"plugin_version":"2.1.0","time_elapsed":71043,"subject_id":"92415","group":"Group2","condition":"1_Rep","full_date":"2026-02-23T20:11:20.992Z","date":"2026-02-23","time":"20:11:20"},{"rt":null,"stimulus":"<p style=\"font-size: 50px; margin: 0; text-align: center;\">+</p>","response":null,"trial_type":"html-keyboard-response","trial_index":23,"plugin_version":"2.1.0","time_elapsed":72045,"subject_id":"92415","group":"Group2","condition":"1_Rep","full_date":"2026-02-23T20:11:20.992Z","date":"2026-02-23","time":"20:11:20"},{"task":"memory_phase","broad_category":"M","image_png":"M_Gneiss_10.png","image_id":202,"category_name":"Gneiss","category":13,"distinct_rating":3.09,"distinct_type":"Bottom","rt":null,"stimulus":"Stimuli_Rocks480/M_Gneiss_10.png","response":null,"trial_type":"image-keyboard-response","trial_index":24,"plugin_version":"2.1.0","time_elapsed":74549,"subject_id":"92415","group":"Group2","condition":"1_Rep","full_date":"2026-02-23T20:11:20.992Z","date":"2026-02-23","time":"20:11:20"},{"rt":null,"stimulus":"<p style=\"font-size: 50px; margin: 0; text-align: center;\">+</p>","response":null,"trial_type":"html-keyboard-response","trial_index":25,"plugin_version":"2.1.0","time_elapsed":75551,"subject_id":"92415","group":"Group2","condition":"1_Rep","full_date":"2026-02-23T20:11:20.992Z","date":"2026-02-23","time":"20:11:20"},{"task":"memory_phase","broad_category":"I","image_png":"I_Pumice_13.png","image_id":141,"category_name":"Pumice","category":9,"distinct_rating":3.12,"distinct_type":"Bottom","rt":null,"stimulus":"Stimuli_Rocks480/I_Pumice_13.png","response":null,"trial_type":"image-keyboard-response","trial_index":26,"plugin_version":"2.1.0","time_elapsed":78054,"subject_id":"92415","group":"Group2","condition":"1_Rep","full_date":"2026-02-23T20:11:20.992Z","date":"2026-02-23","time":"20:11:20"},{"rt":null,"stimulus":"<p style=\"font-size: 50px; margin: 0; text-align: center;\">+</p>","response":null,"trial_type":"html-keyboard-response","trial_index":27,"plugin_version":"2.1.0","time_elapsed":79056,"subject_id":"92415","group":"Group2","condition":"1_Rep","full_date":"2026-02-23T20:11:20.992Z","date":"2026-02-23","time":"20:11:20"},{"task":"memory_phase","broad_category":"M","image_png":"M_Gneiss_15.png","image_id":207,"category_name":"Gneiss","category":13,"distinct_rating":3.11,"distinct_type":"Bottom","rt":null,"stimulus":"Stimuli_Rocks480/M_Gneiss_15.png","response":null,"trial_type":"image-keyboard-response","trial_index":28,"plugin_version":"2.1.0","time_elapsed":81560,"subject_id":"92415","group":"Group2","condition":"1_Rep","full_date":"2026-02-23T20:11:20.992Z","date":"2026-02-23","time":"20:11:20"},{"rt":null,"stimulus":"<p style=\"font-size: 50px; margin: 0; text-align: center;\">+</p>","response":null,"trial_type":"html-keyboard-response","trial_index":29,"plugin_version":"2.1.0","time_elapsed":82562,"subject_id":"92415","group":"Group2","condition":"1_Rep","full_date":"2026-02-23T20:11:20.992Z","date":"2026-02-23","time":"20:11:20"},{"task":"memory_phase","broad_category":"S","image_png":"S_Dolomite_16.png","image_id":400,"category_name":"Dolomite","category":25,"distinct_rating":1.71,"distinct_type":"Bottom","rt":null,"stimulus":"Stimuli_Rocks480/S_Dolomite_16.png","response":null,"trial_type":"image-keyboard-response","trial_index":30,"plugin_version":"2.1.0","time_elapsed":85066,"subject_id":"92415","group":"Group2","condition":"1_Rep","full_date":"2026-02-23T20:11:20.992Z","date":"2026-02-23","time":"20:11:20"},{"rt":null,"stimulus":"<p style=\"font-size: 50px; margin: 0; text-align: center;\">+</p>","response":null,"trial_type":"html-keyboard-response","trial_index":31,"plugin_version":"2.1.0","time_elapsed":86068,"subject_id":"92415","group":"Group2","condition":"1_Rep","full_date":"2026-02-23T20:11:20.992Z","date":"2026-02-23","time":"20:11:20"},{"task":"memory_phase","broad_category":"M","image_png":"M_Phyllite_05.png","image_id":261,"category_name":"Phyllite","category":17,"distinct_rating":2.14,"distinct_type":"Bottom","rt":null,"stimulus":"Stimuli_Rocks480/M_Phyllite_05.png","response":null,"trial_type":"image-keyboard-response","trial_index":32,"plugin_version":"2.1.0","time_elapsed":88572,"subject_id":"92415","group":"Group2","condition":"1_Rep","full_date":"2026-02-23T20:11:20.992Z","date":"2026-02-23","time":"20:11:20"},{"rt":null,"stimulus":"<p style=\"font-size: 50px; margin: 0; text-align: center;\">+</p>","response":null,"trial_type":"html-keyboard-response","trial_index":33,"plugin_version":"2.1.0","time_elapsed":89574,"subject_id":"92415","group":"Group2","condition":"1_Rep","full_date":"2026-02-23T20:11:20.992Z","date":"2026-02-23","time":"20:11:20"},{"task":"memory_phase","broad_category":"I","image_png":"I_Rhyolite_10.png","image_id":154,"category_name":"Rhyolite","category":10,"distinct_rating":2.88,"distinct_type":"Bottom","rt":null,"stimulus":"Stimuli_Rocks480/I_Rhyolite_10.png","response":null,"trial_type":"image-keyboard-response","trial_index":34,"plugin_version":"2.1.0","time_elapsed":92078,"subject_id":"92415","group":"Group2","condition":"1_Rep","full_date":"2026-02-23T20:11:20.992Z","date":"2026-02-23","time":"20:11:20"},{"rt":null,"stimulus":"<p style=\"font-size: 50px; margin: 0; text-align: center;\">+</p>","response":null,"trial_type":"html-keyboard-response","trial_index":35,"plugin_version":"2.1.0","time_elapsed":93080,"subject_id":"92415","group":"Group2","condition":"1_Rep","full_date":"2026-02-23T20:11:20.992Z","date":"2026-02-23","time":"20:11:20"},{"task":"memory_phase","broad_category":"S","image_png":"S_Chert_13.png","image_id":365,"category_name":"Chert","category":23,"distinct_rating":6.57,"distinct_type":"Top","rt":null,"stimulus":"Stimuli_Rocks480/S_Chert_13.png","response":null,"trial_type":"image-keyboard-response","trial_index":36,"plugin_version":"2.1.0","time_elapsed":95584,"subject_id":"92415","group":"Group2","condition":"1_Rep","full_date":"2026-02-23T20:11:20.992Z","date":"2026-02-23","time":"20:11:20"},{"rt":null,"stimulus":"<p style=\"font-size: 50px; margin: 0; text-align: center;\">+</p>","response":null,"trial_type":"html-keyboard-response","trial_index":37,"plugin_version":"2.1.0","time_elapsed":96586,"subject_id":"92415","group":"Group2","condition":"1_Rep","full_date":"2026-02-23T20:11:20.992Z","date":"2026-02-23","time":"20:11:20"},{"task":"memory_phase","broad_category":"I","image_png":"I_Andesite_09.png","image_id":9,"category_name":"Andesite","category":1,"distinct_rating":2.49,"distinct_type":"Bottom","rt":null,"stimulus":"Stimuli_Rocks480/I_Andesite_09.png","response":null,"trial_type":"image-keyboard-response","trial_index":38,"plugin_version":"2.1.0","time_elapsed":99090,"subject_id":"92415","group":"Group2","condition":"1_Rep","full_date":"2026-02-23T20:11:20.992Z","date":"2026-02-23","time":"20:11:20"},{"rt":null,"stimulus":"<p style=\"font-size: 50px; margin: 0; text-align: center;\">+</p>","response":null,"trial_type":"html-keyboard-response","trial_index":39,"plugin_version":"2.1.0","time_elapsed":100093,"subject_id":"92415","group":"Group2","condition":"1_Rep","full_date":"2026-02-23T20:11:20.992Z","date":"2026-02-23","time":"20:11:20"},{"task":"memory_phase","broad_category":"I","image_png":"I_Andesite_03.png","image_id":3,"category_name":"Andesite","category":1,"distinct_rating":3.17,"distinct_type":"Bottom","rt":null,"stimulus":"Stimuli_Rocks480/I_Andesite_03.png","response":null,"trial_type":"image-keyboard-response","trial_index":40,"plugin_version":"2.1.0","time_elapsed":102596,"subject_id":"92415","group":"Group2","condition":"1_Rep","full_date":"2026-02-23T20:11:20.992Z","date":"2026-02-23","time":"20:11:20"},{"rt":null,"stimulus":"<p style=\"font-size: 50px; margin: 0; text-align: center;\">+</p>","response":null,"trial_type":"html-keyboard-response","trial_index":41,"plugin_version":"2.1.0","time_elapsed":103599,"subject_id":"92415","group":"Group2","condition":"1_Rep","full_date":"2026-02-23T20:11:20.992Z","date":"2026-02-23","time":"20:11:20"},{"task":"memory_phase","broad_category":"M","image_png":"M_Slate_04.png","image_id":308,"category_name":"Slate","category":20,"distinct_rating":2.2,"distinct_type":"Bottom","rt":null,"stimulus":"Stimuli_Rocks480/M_Slate_04.png","response":null,"trial_type":"image-keyboard-response","trial_index":42,"plugin_version":"2.1.0","time_elapsed":106103,"subject_id":"92415","group":"Group2","condition":"1_Rep","full_date":"2026-02-23T20:11:20.992Z","date":"2026-02-23","time":"20:11:20"},{"rt":null,"stimulus":"<p style=\"font-size: 50px; margin: 0; text-align: center;\">+</p>","response":null,"trial_type":"html-keyboard-response","trial_index":43,"plugin_version":"2.1.0","time_elapsed":107105,"subject_id":"92415","group":"Group2","condition":"1_Rep","full_date":"2026-02-23T20:11:20.992Z","date":"2026-02-23","time":"20:11:20"},{"task":"memory_phase","broad_category":"I","image_png":"I_Peridotite_13.png","image_id":125,"category_name":"Peridotite","category":8,"distinct_rating":7.28,"distinct_type":"Top","rt":null,"stimulus":"Stimuli_Rocks480/I_Peridotite_13.png","response":null,"trial_type":"image-keyboard-response","trial_index":44,"plugin_version":"2.1.0","time_elapsed":109608,"subject_id":"92415","group":"Group2","condition":"1_Rep","full_date":"2026-02-23T20:11:20.992Z","date":"2026-02-23","time":"20:11:20"},{"rt":null,"stimulus":"<p style=\"font-size: 50px; margin: 0; text-align: center;\">+</p>","response":null,"trial_type":"html-keyboard-response","trial_index":45,"plugin_version":"2.1.0","time_elapsed":110610,"subject_id":"92415","group":"Group2","condition":"1_Rep","full_date":"2026-02-23T20:11:20.992Z","date":"2026-02-23","time":"20:11:20"},{"task":"memory_phase","broad_category":"S","image_png":"S_Sandstone_08.png","image_id":456,"category_name":"Sandstone","category":29,"distinct_rating":1.5,"distinct_type":"Bottom","rt":null,"stimulus":"Stimuli_Rocks480/S_Sandstone_08.png","response":null,"trial_type":"image-keyboard-response","trial_index":46,"plugin_version":"2.1.0","time_elapsed":113114,"subject_id":"92415","group":"Group2","condition":"1_Rep","full_date":"2026-02-23T20:11:20.992Z","date":"2026-02-23","time":"20:11:20"},{"rt":null,"stimulus":"<p style=\"font-size: 50px; margin: 0; text-align: center;\">+</p>","response":null,"trial_type":"html-keyboard-response","trial_index":47,"plugin_version":"2.1.0","time_elapsed":114117,"subject_id":"92415","group":"Group2","condition":"1_Rep","full_date":"2026-02-23T20:11:20.992Z","date":"2026-02-23","time":"20:11:20"},{"task":"memory_phase","broad_category":"I","image_png":"I_Rhyolite_05.png","image_id":149,"category_name":"Rhyolite","category":10,"distinct_rating":3.02,"distinct_type":"Bottom","rt":null,"stimulus":"Stimuli_Rocks480/I_Rhyolite_05.png","response":null,"trial_type":"image-keyboard-response","trial_index":48,"plugin_version":"2.1.0","time_elapsed":116621,"subject_id":"92415","group":"Group2","condition":"1_Rep","full_date":"2026-02-23T20:11:20.992Z","date":"2026-02-23","time":"20:11:20"},{"rt":null,"stimulus":"<p style=\"font-size: 50px; margin: 0; text-align: center;\">+</p>","response":null,"trial_type":"html-keyboard-response","trial_index":49,"plugin_version":"2.1.0","time_elapsed":117623,"subject_id":"92415","group":"Group2","condition":"1_Rep","full_date":"2026-02-23T20:11:20.992Z","date":"2026-02-23","time":"20:11:20"},{"task":"memory_phase","broad_category":"I","image_png":"I_Pumice_14.png","image_id":142,"category_name":"Pumice","category":9,"distinct_rating":3.22,"distinct_type":"Bottom","rt":null,"stimulus":"Stimuli_Rocks480/I_Pumice_14.png","response":null,"trial_type":"image-keyboard-response","trial_index":50,"plugin_version":"2.1.0","time_elapsed":120127,"subject_id":"92415","group":"Group2","condition":"1_Rep","full_date":"2026-02-23T20:11:20.992Z","date":"2026-02-23","time":"20:11:20"},{"rt":null,"stimulus":"<p style=\"font-size: 50px; margin: 0; text-align: center;\">+</p>","response":null,"trial_type":"html-keyboard-response","trial_index":51,"plugin_version":"2.1.0","time_elapsed":121129,"subject_id":"92415","group":"Group2","condition":"1_Rep","full_date":"2026-02-23T20:11:20.992Z","date":"2026-02-23","time":"20:11:20"},{"task":"memory_phase","broad_category":"M","image_png":"M_Slate_14.png","image_id":318,"category_name":"Slate","category":20,"distinct_rating":2.58,"distinct_type":"Bottom","rt":null,"stimulus":"Stimuli_Rocks480/M_Slate_14.png","response":null,"trial_type":"image-keyboard-response","trial_index":52,"plugin_version":"2.1.0","time_elapsed":123633,"subject_id":"92415","group":"Group2","condition":"1_Rep","full_date":"2026-02-23T20:11:20.992Z","date":"2026-02-23","time":"20:11:20"},{"rt":null,"stimulus":"<p style=\"font-size: 50px; margin: 0; text-align: center;\">+</p>","response":null,"trial_type":"html-keyboard-response","trial_index":53,"plugin_version":"2.1.0","time_elapsed":124635,"subject_id":"92415","group":"Group2","condition":"1_Rep","full_date":"2026-02-23T20:11:20.992Z","date":"2026-02-23","time":"20:11:20"},{"task":"memory_phase","broad_category":"I","image_png":"I_Gabbro_14.png","image_id":62,"category_name":"Gabbro","category":4,"distinct_rating":2.95,"distinct_type":"Bottom","rt":null,"stimulus":"Stimuli_Rocks480/I_Gabbro_14.png","response":null,"trial_type":"image-keyboard-response","trial_index":54,"plugin_version":"2.1.0","time_elapsed":127138,"subject_id":"92415","group":"Group2","condition":"1_Rep","full_date":"2026-02-23T20:11:20.992Z","date":"2026-02-23","time":"20:11:20"},{"rt":3115,"stimulus":"<p style=\"max-width: 760px; margin: auto; font-size: 35px; line-height: 1.5;\">\n                Press SPACE to continue study phase\n              </p>","response":" ","trial_type":"html-keyboard-response","trial_index":55,"plugin_version":"2.1.0","time_elapsed":130255,"subject_id":"92415","group":"Group2","condition":"1_Rep","full_date":"2026-02-23T20:11:20.992Z","date":"2026-02-23","time":"20:11:20"},{"rt":null,"stimulus":"<p style=\"font-size: 50px; margin: 0; text-align: center;\">+</p>","response":null,"trial_type":"html-keyboard-response","trial_index":56,"plugin_version":"2.1.0","time_elapsed":131258,"subject_id":"92415","group":"Group2","condition":"1_Rep","full_date":"2026-02-23T20:11:20.992Z","date":"2026-02-23","time":"20:11:20"},{"task":"memory_phase","broad_category":"I","image_png":"I_Gabbro_02.png","image_id":50,"category_name":"Gabbro","category":4,"distinct_rating":2.73,"distinct_type":"Bottom","rt":null,"stimulus":"Stimuli_Rocks480/I_Gabbro_02.png","response":null,"trial_type":"image-keyboard-response","trial_index":57,"plugin_version":"2.1.0","time_elapsed":133762,"subject_id":"92415","group":"Group2","condition":"1_Rep","full_date":"2026-02-23T20:11:20.992Z","date":"2026-02-23","time":"20:11:20"},{"rt":null,"stimulus":"<p style=\"font-size: 50px; margin: 0; text-align: center;\">+</p>","response":null,"trial_type":"html-keyboard-response","trial_index":58,"plugin_version":"2.1.0","time_elapsed":134765,"subject_id":"92415","group":"Group2","condition":"1_Rep","full_date":"2026-02-23T20:11:20.992Z","date":"2026-02-23","time":"20:11:20"},{"task":"memory_phase","broad_category":"S","image_png":"S_Sandstone_04.png","image_id":452,"category_name":"Sandstone","category":29,"distinct_rating":1.8,"distinct_type":"Bottom","rt":null,"stimulus":"Stimuli_Rocks480/S_Sandstone_04.png","response":null,"trial_type":"image-keyboard-response","trial_index":59,"plugin_version":"2.1.0","time_elapsed":137268,"subject_id":"92415","group":"Group2","condition":"1_Rep","full_date":"2026-02-23T20:11:20.992Z","date":"2026-02-23","time":"20:11:20"},{"rt":null,"stimulus":"<p style=\"font-size: 50px; margin: 0; text-align: center;\">+</p>","response":null,"trial_type":"html-keyboard-response","trial_index":60,"plugin_version":"2.1.0","time_elapsed":138270,"subject_id":"92415","group":"Group2","condition":"1_Rep","full_date":"2026-02-23T20:11:20.992Z","date":"2026-02-23","time":"20:11:20"},{"task":"memory_phase","broad_category":"M","image_png":"M_Marble_03.png","image_id":227,"category_name":"Marble","category":15,"distinct_rating":2.67,"distinct_type":"Bottom","rt":null,"stimulus":"Stimuli_Rocks480/M_Marble_03.png","response":null,"trial_type":"image-keyboard-response","trial_index":61,"plugin_version":"2.1.0","time_elapsed":140774,"subject_id":"92415","group":"Group2","condition":"1_Rep","full_date":"2026-02-23T20:11:20.992Z","date":"2026-02-23","time":"20:11:20"},{"rt":null,"stimulus":"<p style=\"font-size: 50px; margin: 0; text-align: center;\">+</p>","response":null,"trial_type":"html-keyboard-response","trial_index":62,"plugin_version":"2.1.0","time_elapsed":141776,"subject_id":"92415","group":"Group2","condition":"1_Rep","full_date":"2026-02-23T20:11:20.992Z","date":"2026-02-23","time":"20:11:20"},{"task":"memory_phase","broad_category":"M","image_png":"M_Quartzite_12.png","image_id":284,"category_name":"Quartzite","category":18,"distinct_rating":1.92,"distinct_type":"Bottom","rt":null,"stimulus":"Stimuli_Rocks480/M_Quartzite_12.png","response":null,"trial_type":"image-keyboard-response","trial_index":63,"plugin_version":"2.1.0","time_elapsed":144280,"subject_id":"92415","group":"Group2","condition":"1_Rep","full_date":"2026-02-23T20:11:20.992Z","date":"2026-02-23","time":"20:11:20"},{"rt":null,"stimulus":"<p style=\"font-size: 50px; margin: 0; text-align: center;\">+</p>","response":null,"trial_type":"html-keyboard-response","trial_index":64,"plugin_version":"2.1.0","time_elapsed":145282,"subject_id":"92415","group":"Group2","condition":"1_Rep","full_date":"2026-02-23T20:11:20.992Z","date":"2026-02-23","time":"20:11:20"},{"task":"memory_phase","broad_category":"S","image_png":"S_Sandstone_11.png","image_id":459,"category_name":"Sandstone","category":29,"distinct_rating":1.82,"distinct_type":"Bottom","rt":null,"stimulus":"Stimuli_Rocks480/S_Sandstone_11.png","response":null,"trial_type":"image-keyboard-response","trial_index":65,"plugin_version":"2.1.0","time_elapsed":147785,"subject_id":"92415","group":"Group2","condition":"1_Rep","full_date":"2026-02-23T20:11:20.992Z","date":"2026-02-23","time":"20:11:20"},{"rt":null,"stimulus":"<p style=\"font-size: 50px; margin: 0; text-align: center;\">+</p>","response":null,"trial_type":"html-keyboard-response","trial_index":66,"plugin_version":"2.1.0","time_elapsed":148787,"subject_id":"92415","group":"Group2","condition":"1_Rep","full_date":"2026-02-23T20:11:20.992Z","date":"2026-02-23","time":"20:11:20"},{"task":"memory_phase","broad_category":"I","image_png":"I_Gabbro_12.png","image_id":60,"category_name":"Gabbro","category":4,"distinct_rating":2.6,"distinct_type":"Bottom","rt":null,"stimulus":"Stimuli_Rocks480/I_Gabbro_12.png","response":null,"trial_type":"image-keyboard-response","trial_index":67,"plugin_version":"2.1.0","time_elapsed":151291,"subject_id":"92415","group":"Group2","condition":"1_Rep","full_date":"2026-02-23T20:11:20.992Z","date":"2026-02-23","time":"20:11:20"},{"rt":null,"stimulus":"<p style=\"font-size: 50px; margin: 0; text-align: center;\">+</p>","response":null,"trial_type":"html-keyboard-response","trial_index":68,"plugin_version":"2.1.0","time_elapsed":152293,"subject_id":"92415","group":"Group2","condition":"1_Rep","full_date":"2026-02-23T20:11:20.992Z","date":"2026-02-23","time":"20:11:20"},{"task":"memory_phase","broad_category":"I","image_png":"I_Basalt_13.png","image_id":29,"category_name":"Basalt","category":2,"distinct_rating":2.68,"distinct_type":"Bottom","rt":null,"stimulus":"Stimuli_Rocks480/I_Basalt_13.png","response":null,"trial_type":"image-keyboard-response","trial_index":69,"plugin_version":"2.1.0","time_elapsed":154796,"subject_id":"92415","group":"Group2","condition":"1_Rep","full_date":"2026-02-23T20:11:20.992Z","date":"2026-02-23","time":"20:11:20"},{"rt":null,"stimulus":"<p style=\"font-size: 50px; margin: 0; text-align: center;\">+</p>","response":null,"trial_type":"html-keyboard-response","trial_index":70,"plugin_version":"2.1.0","time_elapsed":155798,"subject_id":"92415","group":"Group2","condition":"1_Rep","full_date":"2026-02-23T20:11:20.992Z","date":"2026-02-23","time":"20:11:20"},{"task":"memory_phase","broad_category":"S","image_png":"S_Rock Salt_15.png","image_id":447,"category_name":"Rock Salt","category":28,"distinct_rating":7.79,"distinct_type":"Top","rt":null,"stimulus":"Stimuli_Rocks480/S_Rock Salt_15.png","response":null,"trial_type":"image-keyboard-response","trial_index":71,"plugin_version":"2.1.0","time_elapsed":158301,"subject_id":"92415","group":"Group2","condition":"1_Rep","full_date":"2026-02-23T20:11:20.992Z","date":"2026-02-23","time":"20:11:20"},{"rt":null,"stimulus":"<p style=\"font-size: 50px; margin: 0; text-align: center;\">+</p>","response":null,"trial_type":"html-keyboard-response","trial_index":72,"plugin_version":"2.1.0","time_elapsed":159304,"subject_id":"92415","group":"Group2","condition":"1_Rep","full_date":"2026-02-23T20:11:20.992Z","date":"2026-02-23","time":"20:11:20"},{"task":"memory_phase","broad_category":"M","image_png":"M_Marble_02.png","image_id":226,"category_name":"Marble","category":15,"distinct_rating":3.2,"distinct_type":"Bottom","rt":null,"stimulus":"Stimuli_Rocks480/M_Marble_02.png","response":null,"trial_type":"image-keyboard-response","trial_index":73,"plugin_version":"2.1.0","time_elapsed":161807,"subject_id":"92415","group":"Group2","condition":"1_Rep","full_date":"2026-02-23T20:11:20.992Z","date":"2026-02-23","time":"20:11:20"},{"rt":null,"stimulus":"<p style=\"font-size: 50px; margin: 0; text-align: center;\">+</p>","response":null,"trial_type":"html-keyboard-response","trial_index":74,"plugin_version":"2.1.0","time_elapsed":162809,"subject_id":"92415","group":"Group2","condition":"1_Rep","full_date":"2026-02-23T20:11:20.992Z","date":"2026-02-23","time":"20:11:20"},{"task":"memory_phase","broad_category":"M","image_png":"M_Slate_10.png","image_id":314,"category_name":"Slate","category":20,"distinct_rating":1.94,"distinct_type":"Bottom","rt":null,"stimulus":"Stimuli_Rocks480/M_Slate_10.png","response":null,"trial_type":"image-keyboard-response","trial_index":75,"plugin_version":"2.1.0","time_elapsed":165313,"subject_id":"92415","group":"Group2","condition":"1_Rep","full_date":"2026-02-23T20:11:20.992Z","date":"2026-02-23","time":"20:11:20"},{"rt":null,"stimulus":"<p style=\"font-size: 50px; margin: 0; text-align: center;\">+</p>","response":null,"trial_type":"html-keyboard-response","trial_index":76,"plugin_version":"2.1.0","time_elapsed":166316,"subject_id":"92415","group":"Group2","condition":"1_Rep","full_date":"2026-02-23T20:11:20.992Z","date":"2026-02-23","time":"20:11:20"},{"task":"memory_phase","broad_category":"M","image_png":"M_Marble_14.png","image_id":238,"category_name":"Marble","category":15,"distinct_rating":3.31,"distinct_type":"Bottom","rt":null,"stimulus":"Stimuli_Rocks480/M_Marble_14.png","response":null,"trial_type":"image-keyboard-response","trial_index":77,"plugin_version":"2.1.0","time_elapsed":168820,"subject_id":"92415","group":"Group2","condition":"1_Rep","full_date":"2026-02-23T20:11:20.992Z","date":"2026-02-23","time":"20:11:20"},{"rt":null,"stimulus":"<p style=\"font-size: 50px; margin: 0; text-align: center;\">+</p>","response":null,"trial_type":"html-keyboard-response","trial_index":78,"plugin_version":"2.1.0","time_elapsed":169822,"subject_id":"92415","group":"Group2","condition":"1_Rep","full_date":"2026-02-23T20:11:20.992Z","date":"2026-02-23","time":"20:11:20"},{"task":"memory_phase","broad_category":"M","image_png":"M_Phyllite_02.png","image_id":258,"category_name":"Phyllite","category":17,"distinct_rating":2.89,"distinct_type":"Bottom","rt":null,"stimulus":"Stimuli_Rocks480/M_Phyllite_02.png","response":null,"trial_type":"image-keyboard-response","trial_index":79,"plugin_version":"2.1.0","time_elapsed":172324,"subject_id":"92415","group":"Group2","condition":"1_Rep","full_date":"2026-02-23T20:11:20.992Z","date":"2026-02-23","time":"20:11:20"},{"rt":null,"stimulus":"<p style=\"font-size: 50px; margin: 0; text-align: center;\">+</p>","response":null,"trial_type":"html-keyboard-response","trial_index":80,"plugin_version":"2.1.0","time_elapsed":173326,"subject_id":"92415","group":"Group2","condition":"1_Rep","full_date":"2026-02-23T20:11:20.992Z","date":"2026-02-23","time":"20:11:20"},{"task":"memory_phase","broad_category":"S","image_png":"S_Dolomite_01.png","image_id":385,"category_name":"Dolomite","category":25,"distinct_rating":1.43,"distinct_type":"Bottom","rt":null,"stimulus":"Stimuli_Rocks480/S_Dolomite_01.png","response":null,"trial_type":"image-keyboard-response","trial_index":81,"plugin_version":"2.1.0","time_elapsed":175830,"subject_id":"92415","group":"Group2","condition":"1_Rep","full_date":"2026-02-23T20:11:20.992Z","date":"2026-02-23","time":"20:11:20"},{"rt":null,"stimulus":"<p style=\"font-size: 50px; margin: 0; text-align: center;\">+</p>","response":null,"trial_type":"html-keyboard-response","trial_index":82,"plugin_version":"2.1.0","time_elapsed":176832,"subject_id":"92415","group":"Group2","condition":"1_Rep","full_date":"2026-02-23T20:11:20.992Z","date":"2026-02-23","time":"20:11:20"},{"task":"memory_phase","broad_category":"S","image_png":"S_Rock Salt_13.png","image_id":445,"category_name":"Rock Salt","category":28,"distinct_rating":7.58,"distinct_type":"Top","rt":null,"stimulus":"Stimuli_Rocks480/S_Rock Salt_13.png","response":null,"trial_type":"image-keyboard-response","trial_index":83,"plugin_version":"2.1.0","time_elapsed":179335,"subject_id":"92415","group":"Group2","condition":"1_Rep","full_date":"2026-02-23T20:11:20.992Z","date":"2026-02-23","time":"20:11:20"},{"rt":null,"stimulus":"<p style=\"font-size: 50px; margin: 0; text-align: center;\">+</p>","response":null,"trial_type":"html-keyboard-response","trial_index":84,"plugin_version":"2.1.0","time_elapsed":180337,"subject_id":"92415","group":"Group2","condition":"1_Rep","full_date":"2026-02-23T20:11:20.992Z","date":"2026-02-23","time":"20:11:20"},{"task":"memory_phase","broad_category":"S","image_png":"S_Shale_07.png","image_id":471,"category_name":"Shale","category":30,"distinct_rating":2.73,"distinct_type":"Bottom","rt":null,"stimulus":"Stimuli_Rocks480/S_Shale_07.png","response":null,"trial_type":"image-keyboard-response","trial_index":85,"plugin_version":"2.1.0","time_elapsed":182841,"subject_id":"92415","group":"Group2","condition":"1_Rep","full_date":"2026-02-23T20:11:20.992Z","date":"2026-02-23","time":"20:11:20"},{"rt":null,"stimulus":"<p style=\"font-size: 50px; margin: 0; text-align: center;\">+</p>","response":null,"trial_type":"html-keyboard-response","trial_index":86,"plugin_version":"2.1.0","time_elapsed":183844,"subject_id":"92415","group":"Group2","condition":"1_Rep","full_date":"2026-02-23T20:11:20.992Z","date":"2026-02-23","time":"20:11:20"},{"task":"memory_phase","broad_category":"S","image_png":"S_Dolomite_07.png","image_id":391,"category_name":"Dolomite","category":25,"distinct_rating":1.73,"distinct_type":"Bottom","rt":null,"stimulus":"Stimuli_Rocks480/S_Dolomite_07.png","response":null,"trial_type":"image-keyboard-response","trial_index":87,"plugin_version":"2.1.0","time_elapsed":186348,"subject_id":"92415","group":"Group2","condition":"1_Rep","full_date":"2026-02-23T20:11:20.992Z","date":"2026-02-23","time":"20:11:20"},{"rt":null,"stimulus":"<p style=\"font-size: 50px; margin: 0; text-align: center;\">+</p>","response":null,"trial_type":"html-keyboard-response","trial_index":88,"plugin_version":"2.1.0","time_elapsed":187350,"subject_id":"92415","group":"Group2","condition":"1_Rep","full_date":"2026-02-23T20:11:20.992Z","date":"2026-02-23","time":"20:11:20"},{"task":"memory_phase","broad_category":"I","image_png":"I_Basalt_08.png","image_id":24,"category_name":"Basalt","category":2,"distinct_rating":2.31,"distinct_type":"Bottom","rt":null,"stimulus":"Stimuli_Rocks480/I_Basalt_08.png","response":null,"trial_type":"image-keyboard-response","trial_index":89,"plugin_version":"2.1.0","time_elapsed":189854,"subject_id":"92415","group":"Group2","condition":"1_Rep","full_date":"2026-02-23T20:11:20.992Z","date":"2026-02-23","time":"20:11:20"},{"rt":null,"stimulus":"<p style=\"font-size: 50px; margin: 0; text-align: center;\">+</p>","response":null,"trial_type":"html-keyboard-response","trial_index":90,"plugin_version":"2.1.0","time_elapsed":190856,"subject_id":"92415","group":"Group2","condition":"1_Rep","full_date":"2026-02-23T20:11:20.992Z","date":"2026-02-23","time":"20:11:20"},{"task":"memory_phase","broad_category":"I","image_png":"I_Pegmatite_11.png","image_id":107,"category_name":"Pegmatite","category":7,"distinct_rating":7.11,"distinct_type":"Top","rt":null,"stimulus":"Stimuli_Rocks480/I_Pegmatite_11.png","response":null,"trial_type":"image-keyboard-response","trial_index":91,"plugin_version":"2.1.0","time_elapsed":193359,"subject_id":"92415","group":"Group2","condition":"1_Rep","full_date":"2026-02-23T20:11:20.992Z","date":"2026-02-23","time":"20:11:20"},{"rt":null,"stimulus":"<p style=\"font-size: 50px; margin: 0; text-align: center;\">+</p>","response":null,"trial_type":"html-keyboard-response","trial_index":92,"plugin_version":"2.1.0","time_elapsed":194362,"subject_id":"92415","group":"Group2","condition":"1_Rep","full_date":"2026-02-23T20:11:20.992Z","date":"2026-02-23","time":"20:11:20"},{"task":"memory_phase","broad_category":"M","image_png":"M_Quartzite_15.png","image_id":287,"category_name":"Quartzite","category":18,"distinct_rating":2.19,"distinct_type":"Bottom","rt":null,"stimulus":"Stimuli_Rocks480/M_Quartzite_15.png","response":null,"trial_type":"image-keyboard-response","trial_index":93,"plugin_version":"2.1.0","time_elapsed":196865,"subject_id":"92415","group":"Group2","condition":"1_Rep","full_date":"2026-02-23T20:11:20.992Z","date":"2026-02-23","time":"20:11:20"},{"rt":null,"stimulus":"<p style=\"font-size: 50px; margin: 0; text-align: center;\">+</p>","response":null,"trial_type":"html-keyboard-response","trial_index":94,"plugin_version":"2.1.0","time_elapsed":197868,"subject_id":"92415","group":"Group2","condition":"1_Rep","full_date":"2026-02-23T20:11:20.992Z","date":"2026-02-23","time":"20:11:20"},{"task":"memory_phase","broad_category":"I","image_png":"I_Obsidian_06.png","image_id":86,"category_name":"Obsidian","category":6,"distinct_rating":8.01,"distinct_type":"Top","rt":null,"stimulus":"Stimuli_Rocks480/I_Obsidian_06.png","response":null,"trial_type":"image-keyboard-response","trial_index":95,"plugin_version":"2.1.0","time_elapsed":200371,"subject_id":"92415","group":"Group2","condition":"1_Rep","full_date":"2026-02-23T20:11:20.992Z","date":"2026-02-23","time":"20:11:20"},{"rt":null,"stimulus":"<p style=\"font-size: 50px; margin: 0; text-align: center;\">+</p>","response":null,"trial_type":"html-keyboard-response","trial_index":96,"plugin_version":"2.1.0","time_elapsed":201374,"subject_id":"92415","group":"Group2","condition":"1_Rep","full_date":"2026-02-23T20:11:20.992Z","date":"2026-02-23","time":"20:11:20"},{"task":"memory_phase","broad_category":"S","image_png":"S_Shale_02.png","image_id":466,"category_name":"Shale","category":30,"distinct_rating":2.9,"distinct_type":"Bottom","rt":null,"stimulus":"Stimuli_Rocks480/S_Shale_02.png","response":null,"trial_type":"image-keyboard-response","trial_index":97,"plugin_version":"2.1.0","time_elapsed":203877,"subject_id":"92415","group":"Group2","condition":"1_Rep","full_date":"2026-02-23T20:11:20.992Z","date":"2026-02-23","time":"20:11:20"},{"rt":null,"stimulus":"<p style=\"font-size: 50px; margin: 0; text-align: center;\">+</p>","response":null,"trial_type":"html-keyboard-response","trial_index":98,"plugin_version":"2.1.0","time_elapsed":204880,"subject_id":"92415","group":"Group2","condition":"1_Rep","full_date":"2026-02-23T20:11:20.992Z","date":"2026-02-23","time":"20:11:20"},{"task":"memory_phase","broad_category":"S","image_png":"S_Shale_03.png","image_id":467,"category_name":"Shale","category":30,"distinct_rating":1.95,"distinct_type":"Bottom","rt":null,"stimulus":"Stimuli_Rocks480/S_Shale_03.png","response":null,"trial_type":"image-keyboard-response","trial_index":99,"plugin_version":"2.1.0","time_elapsed":207383,"subject_id":"92415","group":"Group2","condition":"1_Rep","full_date":"2026-02-23T20:11:20.992Z","date":"2026-02-23","time":"20:11:20"},{"rt":null,"stimulus":"<p style=\"font-size: 50px; margin: 0; text-align: center;\">+</p>","response":null,"trial_type":"html-keyboard-response","trial_index":100,"plugin_version":"2.1.0","time_elapsed":208385,"subject_id":"92415","group":"Group2","condition":"1_Rep","full_date":"2026-02-23T20:11:20.992Z","date":"2026-02-23","time":"20:11:20"},{"task":"memory_phase","broad_category":"I","image_png":"I_Basalt_10.png","image_id":26,"category_name":"Basalt","category":2,"distinct_rating":2.76,"distinct_type":"Bottom","rt":null,"stimulus":"Stimuli_Rocks480/I_Basalt_10.png","response":null,"trial_type":"image-keyboard-response","trial_index":101,"plugin_version":"2.1.0","time_elapsed":210896,"subject_id":"92415","group":"Group2","condition":"1_Rep","full_date":"2026-02-23T20:11:20.992Z","date":"2026-02-23","time":"20:11:20"},{"rt":null,"stimulus":"<p style=\"font-size: 50px; margin: 0; text-align: center;\">+</p>","response":null,"trial_type":"html-keyboard-response","trial_index":102,"plugin_version":"2.1.0","time_elapsed":211899,"subject_id":"92415","group":"Group2","condition":"1_Rep","full_date":"2026-02-23T20:11:20.992Z","date":"2026-02-23","time":"20:11:20"},{"task":"memory_phase","broad_category":"I","image_png":"I_Rhyolite_08.png","image_id":152,"category_name":"Rhyolite","category":10,"distinct_rating":1.38,"distinct_type":"Bottom","rt":null,"stimulus":"Stimuli_Rocks480/I_Rhyolite_08.png","response":null,"trial_type":"image-keyboard-response","trial_index":103,"plugin_version":"2.1.0","time_elapsed":214402,"subject_id":"92415","group":"Group2","condition":"1_Rep","full_date":"2026-02-23T20:11:20.992Z","date":"2026-02-23","time":"20:11:20"},{"rt":null,"stimulus":"<p style=\"font-size: 50px; margin: 0; text-align: center;\">+</p>","response":null,"trial_type":"html-keyboard-response","trial_index":104,"plugin_version":"2.1.0","time_elapsed":215405,"subject_id":"92415","group":"Group2","condition":"1_Rep","full_date":"2026-02-23T20:11:20.992Z","date":"2026-02-23","time":"20:11:20"},{"task":"memory_phase","broad_category":"I","image_png":"I_Pegmatite_03.png","image_id":99,"category_name":"Pegmatite","category":7,"distinct_rating":7.24,"distinct_type":"Top","rt":null,"stimulus":"Stimuli_Rocks480/I_Pegmatite_03.png","response":null,"trial_type":"image-keyboard-response","trial_index":105,"plugin_version":"2.1.0","time_elapsed":217908,"subject_id":"92415","group":"Group2","condition":"1_Rep","full_date":"2026-02-23T20:11:20.992Z","date":"2026-02-23","time":"20:11:20"},{"rt":4500,"stimulus":"<div style=\"max-width: 760px; margin: auto; font-size: 20px; line-height: 1.5;\">\n      <h1 style=\"text-align:center; font-size: 30px;\">Instructions for the Test Phase</h1>\n      <p>\n        The study phase is now complete.\n      </p>\n      <p>\n        In the test phase, you will again see a series of rock images. \n        Some will be ones you saw before - during the study phase, while others will be new.  \n        <b>Your task</b> is to decide whether you have seen each image before by pressing the corresponding key on your keyboard:<br><br>\n          <b>A</b> - NO (you did not see this image before)<br>\n          <b>L</b> - YES (you saw this image before)<br><br>\n        The test will proceed at your own pace. You will receive feedback after each response.  \n        Please try to respond <b>as accurately as possible</b>.\n      </p>\n      <p>\n        <b>Reminder:</b> If your computer has multiple language settings (e.g., English and another language),\n        please ensure it is set to English during the test phase.\n      </p>\n      <p>\n        You can track your progress using the <b>completion bar</b> at the top of the screen.  \n        Note that it has been refreshed to reflect your progress during this final phase.\n      </p>\n      <p>\n        Press the button below when you are ready to continue.\n      </p>\n    </div>","response":0,"trial_type":"html-button-response","trial_index":106,"plugin_version":"2.1.0","time_elapsed":222410,"subject_id":"92415","group":"Group2","condition":"1_Rep","full_date":"2026-02-23T20:11:20.992Z","date":"2026-02-23","time":"20:11:20"},{"correct_response":"a","task":"test_phase","broad_category":"M","image_png":"M_Gneiss_05.png","image_id":197,"category_name":"Gneiss","category":13,"distinct_rating":2.97,"distinct_type":"Bottom","item_type":"Foil","rt":7819,"stimulus":"Stimuli_Rocks480/M_Gneiss_05.png","response":"a","trial_type":"image-keyboard-response","trial_index":107,"plugin_version":"2.1.0","time_elapsed":230231,"subject_id":"92415","group":"Group2","condition":"1_Rep","full_date":"2026-02-23T20:11:20.992Z","date":"2026-02-23","time":"20:11:20","cor_ans":true},{"trial_type":"html-keyboard-response","rt":null,"stimulus":"<p style=\"color: green; font-size: 50px; font-weight: bold;\">Correct</p>","response":null,"trial_index":108,"plugin_version":"2.1.0","time_elapsed":230732,"subject_id":"92415","group":"Group2","condition":"1_Rep","full_date":"2026-02-23T20:11:20.992Z","date":"2026-02-23","time":"20:11:20"},{"correct_response":"a","task":"test_phase","broad_category":"I","image_png":"I_Pumice_08.png","image_id":136,"category_name":"Pumice","category":9,"distinct_rating":3.1,"distinct_type":"Bottom","item_type":"Foil","rt":8243,"stimulus":"Stimuli_Rocks480/I_Pumice_08.png","response":"a","trial_type":"image-keyboard-response","trial_index":109,"plugin_version":"2.1.0","time_elapsed":238977,"subject_id":"92415","group":"Group2","condition":"1_Rep","full_date":"2026-02-23T20:11:20.992Z","date":"2026-02-23","time":"20:11:20","cor_ans":true},{"trial_type":"html-keyboard-response","rt":null,"stimulus":"<p style=\"color: green; font-size: 50px; font-weight: bold;\">Correct</p>","response":null,"trial_index":110,"plugin_version":"2.1.0","time_elapsed":239478,"subject_id":"92415","group":"Group2","condition":"1_Rep","full_date":"2026-02-23T20:11:20.992Z","date":"2026-02-23","time":"20:11:20"},{"correct_response":"l","task":"test_phase","broad_category":"S","image_png":"S_Sandstone_04.png","image_id":452,"category_name":"Sandstone","category":29,"distinct_rating":1.8,"distinct_type":"Bottom","item_type":"Target","rt":3512,"stimulus":"Stimuli_Rocks480/S_Sandstone_04.png","response":"l","trial_type":"image-keyboard-response","trial_index":111,"plugin_version":"2.1.0","time_elapsed":242992,"subject_id":"92415","group":"Group2","condition":"1_Rep","full_date":"2026-02-23T20:11:20.992Z","date":"2026-02-23","time":"20:11:20","cor_ans":true},{"trial_type":"html-keyboard-response","rt":null,"stimulus":"<p style=\"color: green; font-size: 50px; font-weight: bold;\">Correct</p>","response":null,"trial_index":112,"plugin_version":"2.1.0","time_elapsed":243493,"subject_id":"92415","group":"Group2","condition":"1_Rep","full_date":"2026-02-23T20:11:20.992Z","date":"2026-02-23","time":"20:11:20"},{"correct_response":"l","task":"test_phase","broad_category":"M","image_png":"M_Quartzite_15.png","image_id":287,"category_name":"Quartzite","category":18,"distinct_rating":2.19,"distinct_type":"Bottom","item_type":"Target","rt":4815,"stimulus":"Stimuli_Rocks480/M_Quartzite_15.png","response":"a","trial_type":"image-keyboard-response","trial_index":113,"plugin_version":"2.1.0","time_elapsed":248310,"subject_id":"92415","group":"Group2","condition":"1_Rep","full_date":"2026-02-23T20:11:20.992Z","date":"2026-02-23","time":"20:11:20","cor_ans":false},{"trial_type":"html-keyboard-response","rt":null,"stimulus":"<p style=\"color: red; font-size: 50px; font-weight: bold;\">Incorrect</p>","response":null,"trial_index":114,"plugin_version":"2.1.0","time_elapsed":248812,"subject_id":"92415","group":"Group2","condition":"1_Rep","full_date":"2026-02-23T20:11:20.992Z","date":"2026-02-23","time":"20:11:20"},{"correct_response":"l","task":"test_phase","broad_category":"M","image_png":"M_Slate_10.png","image_id":314,"category_name":"Slate","category":20,"distinct_rating":1.94,"distinct_type":"Bottom","item_type":"Target","rt":2338,"stimulus":"Stimuli_Rocks480/M_Slate_10.png","response":"l","trial_type":"image-keyboard-response","trial_index":115,"plugin_version":"2.1.0","time_elapsed":251151,"subject_id":"92415","group":"Group2","condition":"1_Rep","full_date":"2026-02-23T20:11:20.992Z","date":"2026-02-23","time":"20:11:20","cor_ans":true},{"trial_type":"html-keyboard-response","rt":null,"stimulus":"<p style=\"color: green; font-size: 50px; font-weight: bold;\">Correct</p>","response":null,"trial_index":116,"plugin_version":"2.1.0","time_elapsed":251653,"subject_id":"92415","group":"Group2","condition":"1_Rep","full_date":"2026-02-23T20:11:20.992Z","date":"2026-02-23","time":"20:11:20"},{"correct_response":"a","task":"test_phase","broad_category":"M","image_png":"M_Phyllite_10.png","image_id":266,"category_name":"Phyllite","category":17,"distinct_rating":2.6,"distinct_type":"Bottom","item_type":"Foil","rt":13049,"stimulus":"Stimuli_Rocks480/M_Phyllite_10.png","response":"a","trial_type":"image-keyboard-response","trial_index":117,"plugin_version":"2.1.0","time_elapsed":264704,"subject_id":"92415","group":"Group2","condition":"1_Rep","full_date":"2026-02-23T20:11:20.992Z","date":"2026-02-23","time":"20:11:20","cor_ans":true},{"trial_type":"html-keyboard-response","rt":null,"stimulus":"<p style=\"color: green; font-size: 50px; font-weight: bold;\">Correct</p>","response":null,"trial_index":118,"plugin_version":"2.1.0","time_elapsed":265205,"subject_id":"92415","group":"Group2","condition":"1_Rep","full_date":"2026-02-23T20:11:20.992Z","date":"2026-02-23","time":"20:11:20"},{"correct_response":"l","task":"test_phase","broad_category":"S","image_png":"S_Dolomite_07.png","image_id":391,"category_name":"Dolomite","category":25,"distinct_rating":1.73,"distinct_type":"Bottom","item_type":"Target","rt":7305,"stimulus":"Stimuli_Rocks480/S_Dolomite_07.png","response":"a","trial_type":"image-keyboard-response","trial_index":119,"plugin_version":"2.1.0","time_elapsed":272513,"subject_id":"92415","group":"Group2","condition":"1_Rep","full_date":"2026-02-23T20:11:20.992Z","date":"2026-02-23","time":"20:11:20","cor_ans":false},{"trial_type":"html-keyboard-response","rt":null,"stimulus":"<p style=\"color: red; font-size: 50px; font-weight: bold;\">Incorrect</p>","response":null,"trial_index":120,"plugin_version":"2.1.0","time_elapsed":273014,"subject_id":"92415","group":"Group2","condition":"1_Rep","full_date":"2026-02-23T20:11:20.992Z","date":"2026-02-23","time":"20:11:20"},{"correct_response":"l","task":"test_phase","broad_category":"S","image_png":"S_Shale_03.png","image_id":467,"category_name":"Shale","category":30,"distinct_rating":1.95,"distinct_type":"Bottom","item_type":"Target","rt":2389,"stimulus":"Stimuli_Rocks480/S_Shale_03.png","response":"l","trial_type":"image-keyboard-response","trial_index":121,"plugin_version":"2.1.0","time_elapsed":275406,"subject_id":"92415","group":"Group2","condition":"1_Rep","full_date":"2026-02-23T20:11:20.992Z","date":"2026-02-23","time":"20:11:20","cor_ans":true},{"trial_type":"html-keyboard-response","rt":null,"stimulus":"<p style=\"color: green; font-size: 50px; font-weight: bold;\">Correct</p>","response":null,"trial_index":122,"plugin_version":"2.1.0","time_elapsed":275908,"subject_id":"92415","group":"Group2","condition":"1_Rep","full_date":"2026-02-23T20:11:20.992Z","date":"2026-02-23","time":"20:11:20"},{"correct_response":"a","task":"test_phase","broad_category":"S","image_png":"S_Shale_01.png","image_id":465,"category_name":"Shale","category":30,"distinct_rating":2.7,"distinct_type":"Bottom","item_type":"Foil","rt":10774,"stimulus":"Stimuli_Rocks480/S_Shale_01.png","response":"a","trial_type":"image-keyboard-response","trial_index":123,"plugin_version":"2.1.0","time_elapsed":286683,"subject_id":"92415","group":"Group2","condition":"1_Rep","full_date":"2026-02-23T20:11:20.992Z","date":"2026-02-23","time":"20:11:20","cor_ans":true},{"trial_type":"html-keyboard-response","rt":null,"stimulus":"<p style=\"color: green; font-size: 50px; font-weight: bold;\">Correct</p>","response":null,"trial_index":124,"plugin_version":"2.1.0","time_elapsed":287185,"subject_id":"92415","group":"Group2","condition":"1_Rep","full_date":"2026-02-23T20:11:20.992Z","date":"2026-02-23","time":"20:11:20"},{"correct_response":"l","task":"test_phase","broad_category":"I","image_png":"I_Gabbro_12.png","image_id":60,"category_name":"Gabbro","category":4,"distinct_rating":2.6,"distinct_type":"Bottom","item_type":"Target","rt":2291,"stimulus":"Stimuli_Rocks480/I_Gabbro_12.png","response":"l","trial_type":"image-keyboard-response","trial_index":125,"plugin_version":"2.1.0","time_elapsed":289478,"subject_id":"92415","group":"Group2","condition":"1_Rep","full_date":"2026-02-23T20:11:20.992Z","date":"2026-02-23","time":"20:11:20","cor_ans":true},{"trial_type":"html-keyboard-response","rt":null,"stimulus":"<p style=\"color: green; font-size: 50px; font-weight: bold;\">Correct</p>","response":null,"trial_index":126,"plugin_version":"2.1.0","time_elapsed":289979,"subject_id":"92415","group":"Group2","condition":"1_Rep","full_date":"2026-02-23T20:11:20.992Z","date":"2026-02-23","time":"20:11:20"},{"correct_response":"l","task":"test_phase","broad_category":"S","image_png":"S_Rock Salt_15.png","image_id":447,"category_name":"Rock Salt","category":28,"distinct_rating":7.79,"distinct_type":"Top","item_type":"Target","rt":4885,"stimulus":"Stimuli_Rocks480/S_Rock Salt_15.png","response":"l","trial_type":"image-keyboard-response","trial_index":127,"plugin_version":"2.1.0","time_elapsed":294866,"subject_id":"92415","group":"Group2","condition":"1_Rep","full_date":"2026-02-23T20:11:20.992Z","date":"2026-02-23","time":"20:11:20","cor_ans":true},{"trial_type":"html-keyboard-response","rt":null,"stimulus":"<p style=\"color: green; font-size: 50px; font-weight: bold;\">Correct</p>","response":null,"trial_index":128,"plugin_version":"2.1.0","time_elapsed":295368,"subject_id":"92415","group":"Group2","condition":"1_Rep","full_date":"2026-02-23T20:11:20.992Z","date":"2026-02-23","time":"20:11:20"},{"correct_response":"a","task":"test_phase","broad_category":"I","image_png":"I_Andesite_08.png","image_id":8,"category_name":"Andesite","category":1,"distinct_rating":1.95,"distinct_type":"Bottom","item_type":"Foil","rt":9209,"stimulus":"Stimuli_Rocks480/I_Andesite_08.png","response":"a","trial_type":"image-keyboard-response","trial_index":129,"plugin_version":"2.1.0","time_elapsed":304578,"subject_id":"92415","group":"Group2","condition":"1_Rep","full_date":"2026-02-23T20:11:20.992Z","date":"2026-02-23","time":"20:11:20","cor_ans":true},{"trial_type":"html-keyboard-response","rt":null,"stimulus":"<p style=\"color: green; font-size: 50px; font-weight: bold;\">Correct</p>","response":null,"trial_index":130,"plugin_version":"2.1.0","time_elapsed":305080,"subject_id":"92415","group":"Group2","condition":"1_Rep","full_date":"2026-02-23T20:11:20.992Z","date":"2026-02-23","time":"20:11:20"},{"correct_response":"l","task":"test_phase","broad_category":"I","image_png":"I_Pumice_01.png","image_id":129,"category_name":"Pumice","category":9,"distinct_rating":3.25,"distinct_type":"Bottom","item_type":"Target","rt":2402,"stimulus":"Stimuli_Rocks480/I_Pumice_01.png","response":"l","trial_type":"image-keyboard-response","trial_index":131,"plugin_version":"2.1.0","time_elapsed":307483,"subject_id":"92415","group":"Group2","condition":"1_Rep","full_date":"2026-02-23T20:11:20.992Z","date":"2026-02-23","time":"20:11:20","cor_ans":true},{"trial_type":"html-keyboard-response","rt":null,"stimulus":"<p style=\"color: green; font-size: 50px; font-weight: bold;\">Correct</p>","response":null,"trial_index":132,"plugin_version":"2.1.0","time_elapsed":307984,"subject_id":"92415","group":"Group2","condition":"1_Rep","full_date":"2026-02-23T20:11:20.992Z","date":"2026-02-23","time":"20:11:20"},{"correct_response":"l","task":"test_phase","broad_category":"S","image_png":"S_Shale_07.png","image_id":471,"category_name":"Shale","category":30,"distinct_rating":2.73,"distinct_type":"Bottom","item_type":"Target","rt":1734,"stimulus":"Stimuli_Rocks480/S_Shale_07.png","response":"l","trial_type":"image-keyboard-response","trial_index":133,"plugin_version":"2.1.0","time_elapsed":309719,"subject_id":"92415","group":"Group2","condition":"1_Rep","full_date":"2026-02-23T20:11:20.992Z","date":"2026-02-23","time":"20:11:20","cor_ans":true},{"trial_type":"html-keyboard-response","rt":null,"stimulus":"<p style=\"color: green; font-size: 50px; font-weight: bold;\">Correct</p>","response":null,"trial_index":134,"plugin_version":"2.1.0","time_elapsed":310221,"subject_id":"92415","group":"Group2","condition":"1_Rep","full_date":"2026-02-23T20:11:20.992Z","date":"2026-02-23","time":"20:11:20"},{"correct_response":"a","task":"test_phase","broad_category":"M","image_png":"M_Gneiss_06.png","image_id":198,"category_name":"Gneiss","category":13,"distinct_rating":2.65,"distinct_type":"Bottom","item_type":"Foil","rt":9753,"stimulus":"Stimuli_Rocks480/M_Gneiss_06.png","response":"a","trial_type":"image-keyboard-response","trial_index":135,"plugin_version":"2.1.0","time_elapsed":319976,"subject_id":"92415","group":"Group2","condition":"1_Rep","full_date":"2026-02-23T20:11:20.992Z","date":"2026-02-23","time":"20:11:20","cor_ans":true},{"trial_type":"html-keyboard-response","rt":null,"stimulus":"<p style=\"color: green; font-size: 50px; font-weight: bold;\">Correct</p>","response":null,"trial_index":136,"plugin_version":"2.1.0","time_elapsed":320477,"subject_id":"92415","group":"Group2","condition":"1_Rep","full_date":"2026-02-23T20:11:20.992Z","date":"2026-02-23","time":"20:11:20"},{"correct_response":"l","task":"test_phase","broad_category":"S","image_png":"S_Dolomite_16.png","image_id":400,"category_name":"Dolomite","category":25,"distinct_rating":1.71,"distinct_type":"Bottom","item_type":"Target","rt":11029,"stimulus":"Stimuli_Rocks480/S_Dolomite_16.png","response":"a","trial_type":"image-keyboard-response","trial_index":137,"plugin_version":"2.1.0","time_elapsed":331508,"subject_id":"92415","group":"Group2","condition":"1_Rep","full_date":"2026-02-23T20:11:20.992Z","date":"2026-02-23","time":"20:11:20","cor_ans":false},{"trial_type":"html-keyboard-response","rt":null,"stimulus":"<p style=\"color: red; font-size: 50px; font-weight: bold;\">Incorrect</p>","response":null,"trial_index":138,"plugin_version":"2.1.0","time_elapsed":332010,"subject_id":"92415","group":"Group2","condition":"1_Rep","full_date":"2026-02-23T20:11:20.992Z","date":"2026-02-23","time":"20:11:20"},{"correct_response":"a","task":"test_phase","broad_category":"I","image_png":"I_Basalt_02.png","image_id":18,"category_name":"Basalt","category":2,"distinct_rating":1.84,"distinct_type":"Bottom","item_type":"Foil","rt":1857,"stimulus":"Stimuli_Rocks480/I_Basalt_02.png","response":"l","trial_type":"image-keyboard-response","trial_index":139,"plugin_version":"2.1.0","time_elapsed":333869,"subject_id":"92415","group":"Group2","condition":"1_Rep","full_date":"2026-02-23T20:11:20.992Z","date":"2026-02-23","time":"20:11:20","cor_ans":false},{"trial_type":"html-keyboard-response","rt":null,"stimulus":"<p style=\"color: red; font-size: 50px; font-weight: bold;\">Incorrect</p>","response":null,"trial_index":140,"plugin_version":"2.1.0","time_elapsed":334371,"subject_id":"92415","group":"Group2","condition":"1_Rep","full_date":"2026-02-23T20:11:20.992Z","date":"2026-02-23","time":"20:11:20"},{"correct_response":"a","task":"test_phase","broad_category":"S","image_png":"S_Breccia_11.png","image_id":347,"category_name":"Breccia","category":22,"distinct_rating":6.7,"distinct_type":"Top","item_type":"Foil","rt":4780,"stimulus":"Stimuli_Rocks480/S_Breccia_11.png","response":"a","trial_type":"image-keyboard-response","trial_index":141,"plugin_version":"2.1.0","time_elapsed":339153,"subject_id":"92415","group":"Group2","condition":"1_Rep","full_date":"2026-02-23T20:11:20.992Z","date":"2026-02-23","time":"20:11:20","cor_ans":true},{"trial_type":"html-keyboard-response","rt":null,"stimulus":"<p style=\"color: green; font-size: 50px; font-weight: bold;\">Correct</p>","response":null,"trial_index":142,"plugin_version":"2.1.0","time_elapsed":339655,"subject_id":"92415","group":"Group2","condition":"1_Rep","full_date":"2026-02-23T20:11:20.992Z","date":"2026-02-23","time":"20:11:20"},{"correct_response":"a","task":"test_phase","broad_category":"M","image_png":"M_Marble_06.png","image_id":230,"category_name":"Marble","category":15,"distinct_rating":3.4,"distinct_type":"Bottom","item_type":"Foil","rt":12050,"stimulus":"Stimuli_Rocks480/M_Marble_06.png","response":"a","trial_type":"image-keyboard-response","trial_index":143,"plugin_version":"2.1.0","time_elapsed":351706,"subject_id":"92415","group":"Group2","condition":"1_Rep","full_date":"2026-02-23T20:11:20.992Z","date":"2026-02-23","time":"20:11:20","cor_ans":true},{"trial_type":"html-keyboard-response","rt":null,"stimulus":"<p style=\"color: green; font-size: 50px; font-weight: bold;\">Correct</p>","response":null,"trial_index":144,"plugin_version":"2.1.0","time_elapsed":352208,"subject_id":"92415","group":"Group2","condition":"1_Rep","full_date":"2026-02-23T20:11:20.992Z","date":"2026-02-23","time":"20:11:20"},{"correct_response":"a","task":"test_phase","broad_category":"S","image_png":"S_Dolomite_14.png","image_id":398,"category_name":"Dolomite","category":25,"distinct_rating":1.43,"distinct_type":"Bottom","item_type":"Foil","rt":13539,"stimulus":"Stimuli_Rocks480/S_Dolomite_14.png","response":"a","trial_type":"image-keyboard-response","trial_index":145,"plugin_version":"2.1.0","time_elapsed":365750,"subject_id":"92415","group":"Group2","condition":"1_Rep","full_date":"2026-02-23T20:11:20.992Z","date":"2026-02-23","time":"20:11:20","cor_ans":true},{"trial_type":"html-keyboard-response","rt":null,"stimulus":"<p style=\"color: green; font-size: 50px; font-weight: bold;\">Correct</p>","response":null,"trial_index":146,"plugin_version":"2.1.0","time_elapsed":366251,"subject_id":"92415","group":"Group2","condition":"1_Rep","full_date":"2026-02-23T20:11:20.992Z","date":"2026-02-23","time":"20:11:20"},{"correct_response":"a","task":"test_phase","broad_category":"M","image_png":"M_Quartzite_05.png","image_id":277,"category_name":"Quartzite","category":18,"distinct_rating":2.23,"distinct_type":"Bottom","item_type":"Foil","rt":12525,"stimulus":"Stimuli_Rocks480/M_Quartzite_05.png","response":"a","trial_type":"image-keyboard-response","trial_index":147,"plugin_version":"2.1.0","time_elapsed":378778,"subject_id":"92415","group":"Group2","condition":"1_Rep","full_date":"2026-02-23T20:11:20.992Z","date":"2026-02-23","time":"20:11:20","cor_ans":true},{"trial_type":"html-keyboard-response","rt":null,"stimulus":"<p style=\"color: green; font-size: 50px; font-weight: bold;\">Correct</p>","response":null,"trial_index":148,"plugin_version":"2.1.0","time_elapsed":379278,"subject_id":"92415","group":"Group2","condition":"1_Rep","full_date":"2026-02-23T20:11:20.992Z","date":"2026-02-23","time":"20:11:20"},{"correct_response":"a","task":"test_phase","broad_category":"S","image_png":"S_Chert_10.png","image_id":362,"category_name":"Chert","category":23,"distinct_rating":7.17,"distinct_type":"Top","item_type":"Foil","rt":4975,"stimulus":"Stimuli_Rocks480/S_Chert_10.png","response":"a","trial_type":"image-keyboard-response","trial_index":149,"plugin_version":"2.1.0","time_elapsed":384255,"subject_id":"92415","group":"Group2","condition":"1_Rep","full_date":"2026-02-23T20:11:20.992Z","date":"2026-02-23","time":"20:11:20","cor_ans":true},{"trial_type":"html-keyboard-response","rt":null,"stimulus":"<p style=\"color: green; font-size: 50px; font-weight: bold;\">Correct</p>","response":null,"trial_index":150,"plugin_version":"2.1.0","time_elapsed":384756,"subject_id":"92415","group":"Group2","condition":"1_Rep","full_date":"2026-02-23T20:11:20.992Z","date":"2026-02-23","time":"20:11:20"},{"correct_response":"l","task":"test_phase","broad_category":"I","image_png":"I_Andesite_03.png","image_id":3,"category_name":"Andesite","category":1,"distinct_rating":3.17,"distinct_type":"Bottom","item_type":"Target","rt":4757,"stimulus":"Stimuli_Rocks480/I_Andesite_03.png","response":"l","trial_type":"image-keyboard-response","trial_index":151,"plugin_version":"2.1.0","time_elapsed":389515,"subject_id":"92415","group":"Group2","condition":"1_Rep","full_date":"2026-02-23T20:11:20.992Z","date":"2026-02-23","time":"20:11:20","cor_ans":true},{"trial_type":"html-keyboard-response","rt":null,"stimulus":"<p style=\"color: green; font-size: 50px; font-weight: bold;\">Correct</p>","response":null,"trial_index":152,"plugin_version":"2.1.0","time_elapsed":390017,"subject_id":"92415","group":"Group2","condition":"1_Rep","full_date":"2026-02-23T20:11:20.992Z","date":"2026-02-23","time":"20:11:20"},{"correct_response":"a","task":"test_phase","broad_category":"M","image_png":"M_Marble_16.png","image_id":240,"category_name":"Marble","category":15,"distinct_rating":2.57,"distinct_type":"Bottom","item_type":"Foil","rt":5740,"stimulus":"Stimuli_Rocks480/M_Marble_16.png","response":"l","trial_type":"image-keyboard-response","trial_index":153,"plugin_version":"2.1.0","time_elapsed":395759,"subject_id":"92415","group":"Group2","condition":"1_Rep","full_date":"2026-02-23T20:11:20.992Z","date":"2026-02-23","time":"20:11:20","cor_ans":false},{"trial_type":"html-keyboard-response","rt":null,"stimulus":"<p style=\"color: red; font-size: 50px; font-weight: bold;\">Incorrect</p>","response":null,"trial_index":154,"plugin_version":"2.1.0","time_elapsed":396260,"subject_id":"92415","group":"Group2","condition":"1_Rep","full_date":"2026-02-23T20:11:20.992Z","date":"2026-02-23","time":"20:11:20"},{"correct_response":"a","task":"test_phase","broad_category":"I","image_png":"I_Obsidian_05.png","image_id":85,"category_name":"Obsidian","category":6,"distinct_rating":7.32,"distinct_type":"Top","item_type":"Foil","rt":2092,"stimulus":"Stimuli_Rocks480/I_Obsidian_05.png","response":"a","trial_type":"image-keyboard-response","trial_index":155,"plugin_version":"2.1.0","time_elapsed":398355,"subject_id":"92415","group":"Group2","condition":"1_Rep","full_date":"2026-02-23T20:11:20.992Z","date":"2026-02-23","time":"20:11:20","cor_ans":true},{"trial_type":"html-keyboard-response","rt":null,"stimulus":"<p style=\"color: green; font-size: 50px; font-weight: bold;\">Correct</p>","response":null,"trial_index":156,"plugin_version":"2.1.0","time_elapsed":398857,"subject_id":"92415","group":"Group2","condition":"1_Rep","full_date":"2026-02-23T20:11:20.992Z","date":"2026-02-23","time":"20:11:20"},{"correct_response":"a","task":"test_phase","broad_category":"I","image_png":"I_Gabbro_16.png","image_id":64,"category_name":"Gabbro","category":4,"distinct_rating":2.52,"distinct_type":"Bottom","item_type":"Foil","rt":6173,"stimulus":"Stimuli_Rocks480/I_Gabbro_16.png","response":"a","trial_type":"image-keyboard-response","trial_index":157,"plugin_version":"2.1.0","time_elapsed":405031,"subject_id":"92415","group":"Group2","condition":"1_Rep","full_date":"2026-02-23T20:11:20.992Z","date":"2026-02-23","time":"20:11:20","cor_ans":true},{"trial_type":"html-keyboard-response","rt":null,"stimulus":"<p style=\"color: green; font-size: 50px; font-weight: bold;\">Correct</p>","response":null,"trial_index":158,"plugin_version":"2.1.0","time_elapsed":405533,"subject_id":"92415","group":"Group2","condition":"1_Rep","full_date":"2026-02-23T20:11:20.992Z","date":"2026-02-23","time":"20:11:20"},{"correct_response":"l","task":"test_phase","broad_category":"S","image_png":"S_Shale_02.png","image_id":466,"category_name":"Shale","category":30,"distinct_rating":2.9,"distinct_type":"Bottom","item_type":"Target","rt":6332,"stimulus":"Stimuli_Rocks480/S_Shale_02.png","response":"a","trial_type":"image-keyboard-response","trial_index":159,"plugin_version":"2.1.0","time_elapsed":411866,"subject_id":"92415","group":"Group2","condition":"1_Rep","full_date":"2026-02-23T20:11:20.992Z","date":"2026-02-23","time":"20:11:20","cor_ans":false},{"trial_type":"html-keyboard-response","rt":null,"stimulus":"<p style=\"color: red; font-size: 50px; font-weight: bold;\">Incorrect</p>","response":null,"trial_index":160,"plugin_version":"2.1.0","time_elapsed":412368,"subject_id":"92415","group":"Group2","condition":"1_Rep","full_date":"2026-02-23T20:11:20.992Z","date":"2026-02-23","time":"20:11:20"},{"correct_response":"l","task":"test_phase","broad_category":"I","image_png":"I_Pegmatite_11.png","image_id":107,"category_name":"Pegmatite","category":7,"distinct_rating":7.11,"distinct_type":"Top","item_type":"Target","rt":4043,"stimulus":"Stimuli_Rocks480/I_Pegmatite_11.png","response":"l","trial_type":"image-keyboard-response","trial_index":161,"plugin_version":"2.1.0","time_elapsed":416413,"subject_id":"92415","group":"Group2","condition":"1_Rep","full_date":"2026-02-23T20:11:20.992Z","date":"2026-02-23","time":"20:11:20","cor_ans":true},{"trial_type":"html-keyboard-response","rt":null,"stimulus":"<p style=\"color: green; font-size: 50px; font-weight: bold;\">Correct</p>","response":null,"trial_index":162,"plugin_version":"2.1.0","time_elapsed":416914,"subject_id":"92415","group":"Group2","condition":"1_Rep","full_date":"2026-02-23T20:11:20.992Z","date":"2026-02-23","time":"20:11:20"},{"correct_response":"a","task":"test_phase","broad_category":"I","image_png":"I_Andesite_10.png","image_id":10,"category_name":"Andesite","category":1,"distinct_rating":3.15,"distinct_type":"Bottom","item_type":"Foil","rt":4241,"stimulus":"Stimuli_Rocks480/I_Andesite_10.png","response":"a","trial_type":"image-keyboard-response","trial_index":163,"plugin_version":"2.1.0","time_elapsed":421158,"subject_id":"92415","group":"Group2","condition":"1_Rep","full_date":"2026-02-23T20:11:20.992Z","date":"2026-02-23","time":"20:11:20","cor_ans":true},{"trial_type":"html-keyboard-response","rt":null,"stimulus":"<p style=\"color: green; font-size: 50px; font-weight: bold;\">Correct</p>","response":null,"trial_index":164,"plugin_version":"2.1.0","time_elapsed":421659,"subject_id":"92415","group":"Group2","condition":"1_Rep","full_date":"2026-02-23T20:11:20.992Z","date":"2026-02-23","time":"20:11:20"},{"correct_response":"l","task":"test_phase","broad_category":"M","image_png":"M_Marble_14.png","image_id":238,"category_name":"Marble","category":15,"distinct_rating":3.31,"distinct_type":"Bottom","item_type":"Target","rt":8075,"stimulus":"Stimuli_Rocks480/M_Marble_14.png","response":"l","trial_type":"image-keyboard-response","trial_index":165,"plugin_version":"2.1.0","time_elapsed":429736,"subject_id":"92415","group":"Group2","condition":"1_Rep","full_date":"2026-02-23T20:11:20.992Z","date":"2026-02-23","time":"20:11:20","cor_ans":true},{"trial_type":"html-keyboard-response","rt":null,"stimulus":"<p style=\"color: green; font-size: 50px; font-weight: bold;\">Correct</p>","response":null,"trial_index":166,"plugin_version":"2.1.0","time_elapsed":430238,"subject_id":"92415","group":"Group2","condition":"1_Rep","full_date":"2026-02-23T20:11:20.992Z","date":"2026-02-23","time":"20:11:20"},{"correct_response":"l","task":"test_phase","broad_category":"I","image_png":"I_Basalt_10.png","image_id":26,"category_name":"Basalt","category":2,"distinct_rating":2.76,"distinct_type":"Bottom","item_type":"Target","rt":1377,"stimulus":"Stimuli_Rocks480/I_Basalt_10.png","response":"l","trial_type":"image-keyboard-response","trial_index":167,"plugin_version":"2.1.0","time_elapsed":431617,"subject_id":"92415","group":"Group2","condition":"1_Rep","full_date":"2026-02-23T20:11:20.992Z","date":"2026-02-23","time":"20:11:20","cor_ans":true},{"trial_type":"html-keyboard-response","rt":null,"stimulus":"<p style=\"color: green; font-size: 50px; font-weight: bold;\">Correct</p>","response":null,"trial_index":168,"plugin_version":"2.1.0","time_elapsed":432118,"subject_id":"92415","group":"Group2","condition":"1_Rep","full_date":"2026-02-23T20:11:20.992Z","date":"2026-02-23","time":"20:11:20"},{"correct_response":"a","task":"test_phase","broad_category":"S","image_png":"S_Conglomerate_05.png","image_id":373,"category_name":"Conglomerate","category":24,"distinct_rating":7.32,"distinct_type":"Top","item_type":"Foil","rt":1610,"stimulus":"Stimuli_Rocks480/S_Conglomerate_05.png","response":"a","trial_type":"image-keyboard-response","trial_index":169,"plugin_version":"2.1.0","time_elapsed":433729,"subject_id":"92415","group":"Group2","condition":"1_Rep","full_date":"2026-02-23T20:11:20.992Z","date":"2026-02-23","time":"20:11:20","cor_ans":true},{"trial_type":"html-keyboard-response","rt":null,"stimulus":"<p style=\"color: green; font-size: 50px; font-weight: bold;\">Correct</p>","response":null,"trial_index":170,"plugin_version":"2.1.0","time_elapsed":434231,"subject_id":"92415","group":"Group2","condition":"1_Rep","full_date":"2026-02-23T20:11:20.992Z","date":"2026-02-23","time":"20:11:20"},{"correct_response":"l","task":"test_phase","broad_category":"I","image_png":"I_Gabbro_14.png","image_id":62,"category_name":"Gabbro","category":4,"distinct_rating":2.95,"distinct_type":"Bottom","item_type":"Target","rt":3697,"stimulus":"Stimuli_Rocks480/I_Gabbro_14.png","response":"l","trial_type":"image-keyboard-response","trial_index":171,"plugin_version":"2.1.0","time_elapsed":437930,"subject_id":"92415","group":"Group2","condition":"1_Rep","full_date":"2026-02-23T20:11:20.992Z","date":"2026-02-23","time":"20:11:20","cor_ans":true},{"trial_type":"html-keyboard-response","rt":null,"stimulus":"<p style=\"color: green; font-size: 50px; font-weight: bold;\">Correct</p>","response":null,"trial_index":172,"plugin_version":"2.1.0","time_elapsed":438432,"subject_id":"92415","group":"Group2","condition":"1_Rep","full_date":"2026-02-23T20:11:20.992Z","date":"2026-02-23","time":"20:11:20"},{"correct_response":"l","task":"test_phase","broad_category":"I","image_png":"I_Diorite_01.png","image_id":33,"category_name":"Diorite","category":3,"distinct_rating":2.97,"distinct_type":"Bottom","item_type":"Target","rt":1012,"stimulus":"Stimuli_Rocks480/I_Diorite_01.png","response":"l","trial_type":"image-keyboard-response","trial_index":173,"plugin_version":"2.1.0","time_elapsed":439446,"subject_id":"92415","group":"Group2","condition":"1_Rep","full_date":"2026-02-23T20:11:20.992Z","date":"2026-02-23","time":"20:11:20","cor_ans":true},{"trial_type":"html-keyboard-response","rt":null,"stimulus":"<p style=\"color: green; font-size: 50px; font-weight: bold;\">Correct</p>","response":null,"trial_index":174,"plugin_version":"2.1.0","time_elapsed":439947,"subject_id":"92415","group":"Group2","condition":"1_Rep","full_date":"2026-02-23T20:11:20.992Z","date":"2026-02-23","time":"20:11:20"},{"correct_response":"l","task":"test_phase","broad_category":"I","image_png":"I_Pegmatite_03.png","image_id":99,"category_name":"Pegmatite","category":7,"distinct_rating":7.24,"distinct_type":"Top","item_type":"Target","rt":1416,"stimulus":"Stimuli_Rocks480/I_Pegmatite_03.png","response":"a","trial_type":"image-keyboard-response","trial_index":175,"plugin_version":"2.1.0","time_elapsed":441365,"subject_id":"92415","group":"Group2","condition":"1_Rep","full_date":"2026-02-23T20:11:20.992Z","date":"2026-02-23","time":"20:11:20","cor_ans":false},{"trial_type":"html-keyboard-response","rt":null,"stimulus":"<p style=\"color: red; font-size: 50px; font-weight: bold;\">Incorrect</p>","response":null,"trial_index":176,"plugin_version":"2.1.0","time_elapsed":441867,"subject_id":"92415","group":"Group2","condition":"1_Rep","full_date":"2026-02-23T20:11:20.992Z","date":"2026-02-23","time":"20:11:20"},{"correct_response":"l","task":"test_phase","broad_category":"M","image_png":"M_Phyllite_13.png","image_id":269,"category_name":"Phyllite","category":17,"distinct_rating":2.8,"distinct_type":"Bottom","item_type":"Target","rt":12793,"stimulus":"Stimuli_Rocks480/M_Phyllite_13.png","response":"l","trial_type":"image-keyboard-response","trial_index":177,"plugin_version":"2.1.0","time_elapsed":454662,"subject_id":"92415","group":"Group2","condition":"1_Rep","full_date":"2026-02-23T20:11:20.992Z","date":"2026-02-23","time":"20:11:20","cor_ans":true},{"trial_type":"html-keyboard-response","rt":null,"stimulus":"<p style=\"color: green; font-size: 50px; font-weight: bold;\">Correct</p>","response":null,"trial_index":178,"plugin_version":"2.1.0","time_elapsed":455163,"subject_id":"92415","group":"Group2","condition":"1_Rep","full_date":"2026-02-23T20:11:20.992Z","date":"2026-02-23","time":"20:11:20"},{"correct_response":"l","task":"test_phase","broad_category":"I","image_png":"I_Basalt_08.png","image_id":24,"category_name":"Basalt","category":2,"distinct_rating":2.31,"distinct_type":"Bottom","item_type":"Target","rt":4616,"stimulus":"Stimuli_Rocks480/I_Basalt_08.png","response":"l","trial_type":"image-keyboard-response","trial_index":179,"plugin_version":"2.1.0","time_elapsed":459781,"subject_id":"92415","group":"Group2","condition":"1_Rep","full_date":"2026-02-23T20:11:20.992Z","date":"2026-02-23","time":"20:11:20","cor_ans":true},{"trial_type":"html-keyboard-response","rt":null,"stimulus":"<p style=\"color: green; font-size: 50px; font-weight: bold;\">Correct</p>","response":null,"trial_index":180,"plugin_version":"2.1.0","time_elapsed":460283,"subject_id":"92415","group":"Group2","condition":"1_Rep","full_date":"2026-02-23T20:11:20.992Z","date":"2026-02-23","time":"20:11:20"},{"correct_response":"l","task":"test_phase","broad_category":"I","image_png":"I_Andesite_09.png","image_id":9,"category_name":"Andesite","category":1,"distinct_rating":2.49,"distinct_type":"Bottom","item_type":"Target","rt":4792,"stimulus":"Stimuli_Rocks480/I_Andesite_09.png","response":"l","trial_type":"image-keyboard-response","trial_index":181,"plugin_version":"2.1.0","time_elapsed":465076,"subject_id":"92415","group":"Group2","condition":"1_Rep","full_date":"2026-02-23T20:11:20.992Z","date":"2026-02-23","time":"20:11:20","cor_ans":true},{"trial_type":"html-keyboard-response","rt":null,"stimulus":"<p style=\"color: green; font-size: 50px; font-weight: bold;\">Correct</p>","response":null,"trial_index":182,"plugin_version":"2.1.0","time_elapsed":465578,"subject_id":"92415","group":"Group2","condition":"1_Rep","full_date":"2026-02-23T20:11:20.992Z","date":"2026-02-23","time":"20:11:20"},{"correct_response":"a","task":"test_phase","broad_category":"I","image_png":"I_Andesite_06.png","image_id":6,"category_name":"Andesite","category":1,"distinct_rating":3.17,"distinct_type":"Bottom","item_type":"Foil","rt":6493,"stimulus":"Stimuli_Rocks480/I_Andesite_06.png","response":"a","trial_type":"image-keyboard-response","trial_index":183,"plugin_version":"2.1.0","time_elapsed":472073,"subject_id":"92415","group":"Group2","condition":"1_Rep","full_date":"2026-02-23T20:11:20.992Z","date":"2026-02-23","time":"20:11:20","cor_ans":true},{"trial_type":"html-keyboard-response","rt":null,"stimulus":"<p style=\"color: green; font-size: 50px; font-weight: bold;\">Correct</p>","response":null,"trial_index":184,"plugin_version":"2.1.0","time_elapsed":472574,"subject_id":"92415","group":"Group2","condition":"1_Rep","full_date":"2026-02-23T20:11:20.992Z","date":"2026-02-23","time":"20:11:20"},{"correct_response":"a","task":"test_phase","broad_category":"S","image_png":"S_Dolomite_12.png","image_id":396,"category_name":"Dolomite","category":25,"distinct_rating":1.85,"distinct_type":"Bottom","item_type":"Foil","rt":12237,"stimulus":"Stimuli_Rocks480/S_Dolomite_12.png","response":"a","trial_type":"image-keyboard-response","trial_index":185,"plugin_version":"2.1.0","time_elapsed":484813,"subject_id":"92415","group":"Group2","condition":"1_Rep","full_date":"2026-02-23T20:11:20.992Z","date":"2026-02-23","time":"20:11:20","cor_ans":true},{"trial_type":"html-keyboard-response","rt":null,"stimulus":"<p style=\"color: green; font-size: 50px; font-weight: bold;\">Correct</p>","response":null,"trial_index":186,"plugin_version":"2.1.0","time_elapsed":485315,"subject_id":"92415","group":"Group2","condition":"1_Rep","full_date":"2026-02-23T20:11:20.992Z","date":"2026-02-23","time":"20:11:20"},{"correct_response":"l","task":"test_phase","broad_category":"M","image_png":"M_Slate_04.png","image_id":308,"category_name":"Slate","category":20,"distinct_rating":2.2,"distinct_type":"Bottom","item_type":"Target","rt":2206,"stimulus":"Stimuli_Rocks480/M_Slate_04.png","response":"l","trial_type":"image-keyboard-response","trial_index":187,"plugin_version":"2.1.0","time_elapsed":487522,"subject_id":"92415","group":"Group2","condition":"1_Rep","full_date":"2026-02-23T20:11:20.992Z","date":"2026-02-23","time":"20:11:20","cor_ans":true},{"trial_type":"html-keyboard-response","rt":null,"stimulus":"<p style=\"color: green; font-size: 50px; font-weight: bold;\">Correct</p>","response":null,"trial_index":188,"plugin_version":"2.1.0","time_elapsed":488024,"subject_id":"92415","group":"Group2","condition":"1_Rep","full_date":"2026-02-23T20:11:20.992Z","date":"2026-02-23","time":"20:11:20"},{"correct_response":"l","task":"test_phase","broad_category":"I","image_png":"I_Diorite_10.png","image_id":42,"category_name":"Diorite","category":3,"distinct_rating":2.84,"distinct_type":"Bottom","item_type":"Target","rt":1743,"stimulus":"Stimuli_Rocks480/I_Diorite_10.png","response":"l","trial_type":"image-keyboard-response","trial_index":189,"plugin_version":"2.1.0","time_elapsed":489768,"subject_id":"92415","group":"Group2","condition":"1_Rep","full_date":"2026-02-23T20:11:20.992Z","date":"2026-02-23","time":"20:11:20","cor_ans":true},{"trial_type":"html-keyboard-response","rt":null,"stimulus":"<p style=\"color: green; font-size: 50px; font-weight: bold;\">Correct</p>","response":null,"trial_index":190,"plugin_version":"2.1.0","time_elapsed":490269,"subject_id":"92415","group":"Group2","condition":"1_Rep","full_date":"2026-02-23T20:11:20.992Z","date":"2026-02-23","time":"20:11:20"},{"correct_response":"a","task":"test_phase","broad_category":"S","image_png":"S_Rock Gypsum_04.png","image_id":420,"category_name":"Rock Gypsum","category":27,"distinct_rating":7.61,"distinct_type":"Top","item_type":"Foil","rt":2296,"stimulus":"Stimuli_Rocks480/S_Rock Gypsum_04.png","response":"a","trial_type":"image-keyboard-response","trial_index":191,"plugin_version":"2.1.0","time_elapsed":492567,"subject_id":"92415","group":"Group2","condition":"1_Rep","full_date":"2026-02-23T20:11:20.992Z","date":"2026-02-23","time":"20:11:20","cor_ans":true},{"trial_type":"html-keyboard-response","rt":null,"stimulus":"<p style=\"color: green; font-size: 50px; font-weight: bold;\">Correct</p>","response":null,"trial_index":192,"plugin_version":"2.1.0","time_elapsed":493069,"subject_id":"92415","group":"Group2","condition":"1_Rep","full_date":"2026-02-23T20:11:20.992Z","date":"2026-02-23","time":"20:11:20"},{"correct_response":"a","task":"test_phase","broad_category":"M","image_png":"M_Slate_15.png","image_id":319,"category_name":"Slate","category":20,"distinct_rating":2.13,"distinct_type":"Bottom","item_type":"Foil","rt":5587,"stimulus":"Stimuli_Rocks480/M_Slate_15.png","response":"a","trial_type":"image-keyboard-response","trial_index":193,"plugin_version":"2.1.0","time_elapsed":498658,"subject_id":"92415","group":"Group2","condition":"1_Rep","full_date":"2026-02-23T20:11:20.992Z","date":"2026-02-23","time":"20:11:20","cor_ans":true},{"trial_type":"html-keyboard-response","rt":null,"stimulus":"<p style=\"color: green; font-size: 50px; font-weight: bold;\">Correct</p>","response":null,"trial_index":194,"plugin_version":"2.1.0","time_elapsed":499159,"subject_id":"92415","group":"Group2","condition":"1_Rep","full_date":"2026-02-23T20:11:20.992Z","date":"2026-02-23","time":"20:11:20"},{"correct_response":"l","task":"test_phase","broad_category":"S","image_png":"S_Conglomerate_14.png","image_id":382,"category_name":"Conglomerate","category":24,"distinct_rating":6.86,"distinct_type":"Top","item_type":"Target","rt":1357,"stimulus":"Stimuli_Rocks480/S_Conglomerate_14.png","response":"a","trial_type":"image-keyboard-response","trial_index":195,"plugin_version":"2.1.0","time_elapsed":500518,"subject_id":"92415","group":"Group2","condition":"1_Rep","full_date":"2026-02-23T20:11:20.992Z","date":"2026-02-23","time":"20:11:20","cor_ans":false},{"trial_type":"html-keyboard-response","rt":null,"stimulus":"<p style=\"color: red; font-size: 50px; font-weight: bold;\">Incorrect</p>","response":null,"trial_index":196,"plugin_version":"2.1.0","time_elapsed":501020,"subject_id":"92415","group":"Group2","condition":"1_Rep","full_date":"2026-02-23T20:11:20.992Z","date":"2026-02-23","time":"20:11:20"},{"correct_response":"l","task":"test_phase","broad_category":"I","image_png":"I_Obsidian_06.png","image_id":86,"category_name":"Obsidian","category":6,"distinct_rating":8.01,"distinct_type":"Top","item_type":"Target","rt":1124,"stimulus":"Stimuli_Rocks480/I_Obsidian_06.png","response":"l","trial_type":"image-keyboard-response","trial_index":197,"plugin_version":"2.1.0","time_elapsed":502152,"subject_id":"92415","group":"Group2","condition":"1_Rep","full_date":"2026-02-23T20:11:20.992Z","date":"2026-02-23","time":"20:11:20","cor_ans":true},{"trial_type":"html-keyboard-response","rt":null,"stimulus":"<p style=\"color: green; font-size: 50px; font-weight: bold;\">Correct</p>","response":null,"trial_index":198,"plugin_version":"2.1.0","time_elapsed":502653,"subject_id":"92415","group":"Group2","condition":"1_Rep","full_date":"2026-02-23T20:11:20.992Z","date":"2026-02-23","time":"20:11:20"},{"correct_response":"a","task":"test_phase","broad_category":"S","image_png":"S_Sandstone_03.png","image_id":451,"category_name":"Sandstone","category":29,"distinct_rating":1.86,"distinct_type":"Bottom","item_type":"Foil","rt":9649,"stimulus":"Stimuli_Rocks480/S_Sandstone_03.png","response":"a","trial_type":"image-keyboard-response","trial_index":199,"plugin_version":"2.1.0","time_elapsed":512304,"subject_id":"92415","group":"Group2","condition":"1_Rep","full_date":"2026-02-23T20:11:20.992Z","date":"2026-02-23","time":"20:11:20","cor_ans":true},{"trial_type":"html-keyboard-response","rt":null,"stimulus":"<p style=\"color: green; font-size: 50px; font-weight: bold;\">Correct</p>","response":null,"trial_index":200,"plugin_version":"2.1.0","time_elapsed":512805,"subject_id":"92415","group":"Group2","condition":"1_Rep","full_date":"2026-02-23T20:11:20.992Z","date":"2026-02-23","time":"20:11:20"},{"correct_response":"l","task":"test_phase","broad_category":"M","image_png":"M_Phyllite_02.png","image_id":258,"category_name":"Phyllite","category":17,"distinct_rating":2.89,"distinct_type":"Bottom","item_type":"Target","rt":5847,"stimulus":"Stimuli_Rocks480/M_Phyllite_02.png","response":"l","trial_type":"image-keyboard-response","trial_index":201,"plugin_version":"2.1.0","time_elapsed":518654,"subject_id":"92415","group":"Group2","condition":"1_Rep","full_date":"2026-02-23T20:11:20.992Z","date":"2026-02-23","time":"20:11:20","cor_ans":true},{"trial_type":"html-keyboard-response","rt":null,"stimulus":"<p style=\"color: green; font-size: 50px; font-weight: bold;\">Correct</p>","response":null,"trial_index":202,"plugin_version":"2.1.0","time_elapsed":519156,"subject_id":"92415","group":"Group2","condition":"1_Rep","full_date":"2026-02-23T20:11:20.992Z","date":"2026-02-23","time":"20:11:20"},{"correct_response":"l","task":"test_phase","broad_category":"I","image_png":"I_Pumice_13.png","image_id":141,"category_name":"Pumice","category":9,"distinct_rating":3.12,"distinct_type":"Bottom","item_type":"Target","rt":3539,"stimulus":"Stimuli_Rocks480/I_Pumice_13.png","response":"l","trial_type":"image-keyboard-response","trial_index":203,"plugin_version":"2.1.0","time_elapsed":522697,"subject_id":"92415","group":"Group2","condition":"1_Rep","full_date":"2026-02-23T20:11:20.992Z","date":"2026-02-23","time":"20:11:20","cor_ans":true},{"trial_type":"html-keyboard-response","rt":null,"stimulus":"<p style=\"color: green; font-size: 50px; font-weight: bold;\">Correct</p>","response":null,"trial_index":204,"plugin_version":"2.1.0","time_elapsed":523198,"subject_id":"92415","group":"Group2","condition":"1_Rep","full_date":"2026-02-23T20:11:20.992Z","date":"2026-02-23","time":"20:11:20"},{"correct_response":"a","task":"test_phase","broad_category":"I","image_png":"I_Diorite_04.png","image_id":36,"category_name":"Diorite","category":3,"distinct_rating":2.98,"distinct_type":"Bottom","item_type":"Foil","rt":9343,"stimulus":"Stimuli_Rocks480/I_Diorite_04.png","response":"a","trial_type":"image-keyboard-response","trial_index":205,"plugin_version":"2.1.0","time_elapsed":532543,"subject_id":"92415","group":"Group2","condition":"1_Rep","full_date":"2026-02-23T20:11:20.992Z","date":"2026-02-23","time":"20:11:20","cor_ans":true},{"trial_type":"html-keyboard-response","rt":null,"stimulus":"<p style=\"color: green; font-size: 50px; font-weight: bold;\">Correct</p>","response":null,"trial_index":206,"plugin_version":"2.1.0","time_elapsed":533045,"subject_id":"92415","group":"Group2","condition":"1_Rep","full_date":"2026-02-23T20:11:20.992Z","date":"2026-02-23","time":"20:11:20"},{"correct_response":"a","task":"test_phase","broad_category":"I","image_png":"I_Rhyolite_16.png","image_id":160,"category_name":"Rhyolite","category":10,"distinct_rating":2.19,"distinct_type":"Bottom","item_type":"Foil","rt":9882,"stimulus":"Stimuli_Rocks480/I_Rhyolite_16.png","response":"a","trial_type":"image-keyboard-response","trial_index":207,"plugin_version":"2.1.0","time_elapsed":542929,"subject_id":"92415","group":"Group2","condition":"1_Rep","full_date":"2026-02-23T20:11:20.992Z","date":"2026-02-23","time":"20:11:20","cor_ans":true},{"trial_type":"html-keyboard-response","rt":null,"stimulus":"<p style=\"color: green; font-size: 50px; font-weight: bold;\">Correct</p>","response":null,"trial_index":208,"plugin_version":"2.1.0","time_elapsed":543431,"subject_id":"92415","group":"Group2","condition":"1_Rep","full_date":"2026-02-23T20:11:20.992Z","date":"2026-02-23","time":"20:11:20"},{"correct_response":"a","task":"test_phase","broad_category":"M","image_png":"M_Marble_04.png","image_id":228,"category_name":"Marble","category":15,"distinct_rating":3.15,"distinct_type":"Bottom","item_type":"Foil","rt":1512,"stimulus":"Stimuli_Rocks480/M_Marble_04.png","response":"a","trial_type":"image-keyboard-response","trial_index":209,"plugin_version":"2.1.0","time_elapsed":544945,"subject_id":"92415","group":"Group2","condition":"1_Rep","full_date":"2026-02-23T20:11:20.992Z","date":"2026-02-23","time":"20:11:20","cor_ans":true},{"trial_type":"html-keyboard-response","rt":null,"stimulus":"<p style=\"color: green; font-size: 50px; font-weight: bold;\">Correct</p>","response":null,"trial_index":210,"plugin_version":"2.1.0","time_elapsed":545446,"subject_id":"92415","group":"Group2","condition":"1_Rep","full_date":"2026-02-23T20:11:20.992Z","date":"2026-02-23","time":"20:11:20"},{"correct_response":"l","task":"test_phase","broad_category":"M","image_png":"M_Slate_14.png","image_id":318,"category_name":"Slate","category":20,"distinct_rating":2.58,"distinct_type":"Bottom","item_type":"Target","rt":3120,"stimulus":"Stimuli_Rocks480/M_Slate_14.png","response":"l","trial_type":"image-keyboard-response","trial_index":211,"plugin_version":"2.1.0","time_elapsed":548569,"subject_id":"92415","group":"Group2","condition":"1_Rep","full_date":"2026-02-23T20:11:20.992Z","date":"2026-02-23","time":"20:11:20","cor_ans":true},{"trial_type":"html-keyboard-response","rt":null,"stimulus":"<p style=\"color: green; font-size: 50px; font-weight: bold;\">Correct</p>","response":null,"trial_index":212,"plugin_version":"2.1.0","time_elapsed":549071,"subject_id":"92415","group":"Group2","condition":"1_Rep","full_date":"2026-02-23T20:11:20.992Z","date":"2026-02-23","time":"20:11:20"},{"correct_response":"a","task":"test_phase","broad_category":"S","image_png":"S_Dolomite_13.png","image_id":397,"category_name":"Dolomite","category":25,"distinct_rating":1.77,"distinct_type":"Bottom","item_type":"Foil","rt":8149,"stimulus":"Stimuli_Rocks480/S_Dolomite_13.png","response":"a","trial_type":"image-keyboard-response","trial_index":213,"plugin_version":"2.1.0","time_elapsed":557222,"subject_id":"92415","group":"Group2","condition":"1_Rep","full_date":"2026-02-23T20:11:20.992Z","date":"2026-02-23","time":"20:11:20","cor_ans":true},{"trial_type":"html-keyboard-response","rt":null,"stimulus":"<p style=\"color: green; font-size: 50px; font-weight: bold;\">Correct</p>","response":null,"trial_index":214,"plugin_version":"2.1.0","time_elapsed":557723,"subject_id":"92415","group":"Group2","condition":"1_Rep","full_date":"2026-02-23T20:11:20.992Z","date":"2026-02-23","time":"20:11:20"},{"correct_response":"l","task":"test_phase","broad_category":"S","image_png":"S_Dolomite_01.png","image_id":385,"category_name":"Dolomite","category":25,"distinct_rating":1.43,"distinct_type":"Bottom","item_type":"Target","rt":2985,"stimulus":"Stimuli_Rocks480/S_Dolomite_01.png","response":"l","trial_type":"image-keyboard-response","trial_index":215,"plugin_version":"2.1.0","time_elapsed":560710,"subject_id":"92415","group":"Group2","condition":"1_Rep","full_date":"2026-02-23T20:11:20.992Z","date":"2026-02-23","time":"20:11:20","cor_ans":true},{"trial_type":"html-keyboard-response","rt":null,"stimulus":"<p style=\"color: green; font-size: 50px; font-weight: bold;\">Correct</p>","response":null,"trial_index":216,"plugin_version":"2.1.0","time_elapsed":561211,"subject_id":"92415","group":"Group2","condition":"1_Rep","full_date":"2026-02-23T20:11:20.992Z","date":"2026-02-23","time":"20:11:20"},{"correct_response":"a","task":"test_phase","broad_category":"I","image_png":"I_Pegmatite_16.png","image_id":112,"category_name":"Pegmatite","category":7,"distinct_rating":7.03,"distinct_type":"Top","item_type":"Foil","rt":1473,"stimulus":"Stimuli_Rocks480/I_Pegmatite_16.png","response":"a","trial_type":"image-keyboard-response","trial_index":217,"plugin_version":"2.1.0","time_elapsed":562686,"subject_id":"92415","group":"Group2","condition":"1_Rep","full_date":"2026-02-23T20:11:20.992Z","date":"2026-02-23","time":"20:11:20","cor_ans":true},{"trial_type":"html-keyboard-response","rt":null,"stimulus":"<p style=\"color: green; font-size: 50px; font-weight: bold;\">Correct</p>","response":null,"trial_index":218,"plugin_version":"2.1.0","time_elapsed":563187,"subject_id":"92415","group":"Group2","condition":"1_Rep","full_date":"2026-02-23T20:11:20.992Z","date":"2026-02-23","time":"20:11:20"},{"correct_response":"a","task":"test_phase","broad_category":"M","image_png":"M_Quartzite_13.png","image_id":285,"category_name":"Quartzite","category":18,"distinct_rating":2.27,"distinct_type":"Bottom","item_type":"Foil","rt":7546,"stimulus":"Stimuli_Rocks480/M_Quartzite_13.png","response":"a","trial_type":"image-keyboard-response","trial_index":219,"plugin_version":"2.1.0","time_elapsed":570735,"subject_id":"92415","group":"Group2","condition":"1_Rep","full_date":"2026-02-23T20:11:20.992Z","date":"2026-02-23","time":"20:11:20","cor_ans":true},{"trial_type":"html-keyboard-response","rt":null,"stimulus":"<p style=\"color: green; font-size: 50px; font-weight: bold;\">Correct</p>","response":null,"trial_index":220,"plugin_version":"2.1.0","time_elapsed":571236,"subject_id":"92415","group":"Group2","condition":"1_Rep","full_date":"2026-02-23T20:11:20.992Z","date":"2026-02-23","time":"20:11:20"},{"correct_response":"a","task":"test_phase","broad_category":"I","image_png":"I_Diorite_03.png","image_id":35,"category_name":"Diorite","category":3,"distinct_rating":3.14,"distinct_type":"Bottom","item_type":"Foil","rt":1408,"stimulus":"Stimuli_Rocks480/I_Diorite_03.png","response":"l","trial_type":"image-keyboard-response","trial_index":221,"plugin_version":"2.1.0","time_elapsed":572645,"subject_id":"92415","group":"Group2","condition":"1_Rep","full_date":"2026-02-23T20:11:20.992Z","date":"2026-02-23","time":"20:11:20","cor_ans":false},{"trial_type":"html-keyboard-response","rt":null,"stimulus":"<p style=\"color: red; font-size: 50px; font-weight: bold;\">Incorrect</p>","response":null,"trial_index":222,"plugin_version":"2.1.0","time_elapsed":573146,"subject_id":"92415","group":"Group2","condition":"1_Rep","full_date":"2026-02-23T20:11:20.992Z","date":"2026-02-23","time":"20:11:20"},{"correct_response":"a","task":"test_phase","broad_category":"S","image_png":"S_Sandstone_16.png","image_id":464,"category_name":"Sandstone","category":29,"distinct_rating":1.93,"distinct_type":"Bottom","item_type":"Foil","rt":4947,"stimulus":"Stimuli_Rocks480/S_Sandstone_16.png","response":"a","trial_type":"image-keyboard-response","trial_index":223,"plugin_version":"2.1.0","time_elapsed":578096,"subject_id":"92415","group":"Group2","condition":"1_Rep","full_date":"2026-02-23T20:11:20.992Z","date":"2026-02-23","time":"20:11:20","cor_ans":true},{"trial_type":"html-keyboard-response","rt":null,"stimulus":"<p style=\"color: green; font-size: 50px; font-weight: bold;\">Correct</p>","response":null,"trial_index":224,"plugin_version":"2.1.0","time_elapsed":578597,"subject_id":"92415","group":"Group2","condition":"1_Rep","full_date":"2026-02-23T20:11:20.992Z","date":"2026-02-23","time":"20:11:20"},{"correct_response":"a","task":"test_phase","broad_cat