[{"width":1469,"height":750,"webaudio":true,"browser":"chrome","browser_version":"144.0.0","mobile":false,"os":"Mac OS","fullscreen":true,"vsync_rate":60.54,"webcam":true,"microphone":true,"trial_type":"browser-check","trial_index":0,"plugin_version":"2.1.0","time_elapsed":1006,"subject_id":"90916","group":"Group1","condition":"3_Rep","full_date":"2026-02-02T18:20:18.969Z","date":"2026-02-02","time":"18:20:18"},{"success":true,"timeout":false,"failed_images":[],"failed_audio":[],"failed_video":[],"trial_type":"preload","trial_index":1,"plugin_version":"2.1.0","time_elapsed":2464,"subject_id":"90916","group":"Group1","condition":"3_Rep","full_date":"2026-02-02T18:20:18.969Z","date":"2026-02-02","time":"18:20:18"},{"rt":32586,"url":"SONA_consent_memorability.html","trial_type":"external-html","trial_index":2,"plugin_version":"2.1.0","time_elapsed":35098,"subject_id":"90916","group":"Group1","condition":"3_Rep","full_date":"2026-02-02T18:20:18.969Z","date":"2026-02-02","time":"18:20:18"},{"success":true,"rt":2463,"trial_type":"fullscreen","trial_index":3,"plugin_version":"2.1.0","time_elapsed":38565,"subject_id":"90916","group":"Group1","condition":"3_Rep","full_date":"2026-02-02T18:20:18.969Z","date":"2026-02-02","time":"18:20:18"},{"rt":25628,"stimulus":"<div style=\"max-width: 760px; margin: auto; font-size: 20px; line-height: 1.5;\">\n      <h1 style=\"text-align:center; font-size: 30px;\">Instructions</h1>\n      <p>\n        Welcome to the study on <b>visual memory</b>. This experiment consists of <b>two phases</b>: \n        a <b>study phase</b> and a <b>test phase</b>.\n      </p>\n      <p>\n        In the study phase, you will see a series of rock images along with their category labels.\n        The images will appear one at a time.\n        <b>Your task</b> is to learn the categories to which the rock images belong \n        and to remember each image as accurately as possible.\n      </p> \n      <p>\n        Note that we will repeat the study phase <b>3 times</b>, \n             so you will have multiple opportunities to see and remember each image.\n      </p>\n      <p>\n        After the study phase, <b>your memory will be tested</b>. \n        Additional instructions for the test phase will be provided at that time.\n      </p>\n      <p>\n        If your computer has multiple <b>language settings</b> (e.g., English and another language),\n        please make sure it is set to English before starting.\n      </p>\n      <p>\n        You can track your progress using the <b>completion bar</b> at the top of the screen. \n        Please note that the bar will refresh when the test phase begins \n        to give you an accurate sense of your progress in both phases.\n      </p> \n      <p>\n        Press the button below when you are ready to begin.\n      </p>\n    </div>","response":0,"trial_type":"html-button-response","trial_index":4,"plugin_version":"2.1.0","time_elapsed":64197,"subject_id":"90916","group":"Group1","condition":"3_Rep","full_date":"2026-02-02T18:20:18.969Z","date":"2026-02-02","time":"18:20:18"},{"rt":null,"stimulus":"<p style=\"font-size: 50px; margin: 0; text-align: center;\">+</p>","response":null,"trial_type":"html-keyboard-response","trial_index":5,"plugin_version":"2.1.0","time_elapsed":65203,"subject_id":"90916","group":"Group1","condition":"3_Rep","full_date":"2026-02-02T18:20:18.969Z","date":"2026-02-02","time":"18:20:18"},{"task":"memory_phase","broad_category":"S","image_png":"S_Shale_12.png","image_id":476,"category_name":"Shale","category":30,"distinct_rating":2.48,"distinct_type":"Bottom","rt":null,"stimulus":"Stimuli_Rocks480/S_Shale_12.png","response":null,"trial_type":"image-keyboard-response","trial_index":6,"plugin_version":"2.1.0","time_elapsed":67711,"subject_id":"90916","group":"Group1","condition":"3_Rep","full_date":"2026-02-02T18:20:18.969Z","date":"2026-02-02","time":"18:20:18"},{"rt":null,"stimulus":"<p style=\"font-size: 50px; margin: 0; text-align: center;\">+</p>","response":null,"trial_type":"html-keyboard-response","trial_index":7,"plugin_version":"2.1.0","time_elapsed":68714,"subject_id":"90916","group":"Group1","condition":"3_Rep","full_date":"2026-02-02T18:20:18.969Z","date":"2026-02-02","time":"18:20:18"},{"task":"memory_phase","broad_category":"M","image_png":"M_Gneiss_05.png","image_id":197,"category_name":"Gneiss","category":13,"distinct_rating":2.97,"distinct_type":"Bottom","rt":null,"stimulus":"Stimuli_Rocks480/M_Gneiss_05.png","response":null,"trial_type":"image-keyboard-response","trial_index":8,"plugin_version":"2.1.0","time_elapsed":71218,"subject_id":"90916","group":"Group1","condition":"3_Rep","full_date":"2026-02-02T18:20:18.969Z","date":"2026-02-02","time":"18:20:18"},{"rt":null,"stimulus":"<p style=\"font-size: 50px; margin: 0; text-align: center;\">+</p>","response":null,"trial_type":"html-keyboard-response","trial_index":9,"plugin_version":"2.1.0","time_elapsed":72221,"subject_id":"90916","group":"Group1","condition":"3_Rep","full_date":"2026-02-02T18:20:18.969Z","date":"2026-02-02","time":"18:20:18"},{"task":"memory_phase","broad_category":"I","image_png":"I_Diorite_04.png","image_id":36,"category_name":"Diorite","category":3,"distinct_rating":2.98,"distinct_type":"Bottom","rt":null,"stimulus":"Stimuli_Rocks480/I_Diorite_04.png","response":null,"trial_type":"image-keyboard-response","trial_index":10,"plugin_version":"2.1.0","time_elapsed":74726,"subject_id":"90916","group":"Group1","condition":"3_Rep","full_date":"2026-02-02T18:20:18.969Z","date":"2026-02-02","time":"18:20:18"},{"rt":null,"stimulus":"<p style=\"font-size: 50px; margin: 0; text-align: center;\">+</p>","response":null,"trial_type":"html-keyboard-response","trial_index":11,"plugin_version":"2.1.0","time_elapsed":75729,"subject_id":"90916","group":"Group1","condition":"3_Rep","full_date":"2026-02-02T18:20:18.969Z","date":"2026-02-02","time":"18:20:18"},{"task":"memory_phase","broad_category":"S","image_png":"S_Conglomerate_05.png","image_id":373,"category_name":"Conglomerate","category":24,"distinct_rating":7.32,"distinct_type":"Top","rt":null,"stimulus":"Stimuli_Rocks480/S_Conglomerate_05.png","response":null,"trial_type":"image-keyboard-response","trial_index":12,"plugin_version":"2.1.0","time_elapsed":78234,"subject_id":"90916","group":"Group1","condition":"3_Rep","full_date":"2026-02-02T18:20:18.969Z","date":"2026-02-02","time":"18:20:18"},{"rt":null,"stimulus":"<p style=\"font-size: 50px; margin: 0; text-align: center;\">+</p>","response":null,"trial_type":"html-keyboard-response","trial_index":13,"plugin_version":"2.1.0","time_elapsed":79236,"subject_id":"90916","group":"Group1","condition":"3_Rep","full_date":"2026-02-02T18:20:18.969Z","date":"2026-02-02","time":"18:20:18"},{"task":"memory_phase","broad_category":"M","image_png":"M_Quartzite_13.png","image_id":285,"category_name":"Quartzite","category":18,"distinct_rating":2.27,"distinct_type":"Bottom","rt":null,"stimulus":"Stimuli_Rocks480/M_Quartzite_13.png","response":null,"trial_type":"image-keyboard-response","trial_index":14,"plugin_version":"2.1.0","time_elapsed":81741,"subject_id":"90916","group":"Group1","condition":"3_Rep","full_date":"2026-02-02T18:20:18.969Z","date":"2026-02-02","time":"18:20:18"},{"rt":null,"stimulus":"<p style=\"font-size: 50px; margin: 0; text-align: center;\">+</p>","response":null,"trial_type":"html-keyboard-response","trial_index":15,"plugin_version":"2.1.0","time_elapsed":82743,"subject_id":"90916","group":"Group1","condition":"3_Rep","full_date":"2026-02-02T18:20:18.969Z","date":"2026-02-02","time":"18:20:18"},{"task":"memory_phase","broad_category":"I","image_png":"I_Rhyolite_14.png","image_id":158,"category_name":"Rhyolite","category":10,"distinct_rating":2.59,"distinct_type":"Bottom","rt":null,"stimulus":"Stimuli_Rocks480/I_Rhyolite_14.png","response":null,"trial_type":"image-keyboard-response","trial_index":16,"plugin_version":"2.1.0","time_elapsed":85248,"subject_id":"90916","group":"Group1","condition":"3_Rep","full_date":"2026-02-02T18:20:18.969Z","date":"2026-02-02","time":"18:20:18"},{"rt":null,"stimulus":"<p style=\"font-size: 50px; margin: 0; text-align: center;\">+</p>","response":null,"trial_type":"html-keyboard-response","trial_index":17,"plugin_version":"2.1.0","time_elapsed":86251,"subject_id":"90916","group":"Group1","condition":"3_Rep","full_date":"2026-02-02T18:20:18.969Z","date":"2026-02-02","time":"18:20:18"},{"task":"memory_phase","broad_category":"M","image_png":"M_Slate_15.png","image_id":319,"category_name":"Slate","category":20,"distinct_rating":2.13,"distinct_type":"Bottom","rt":null,"stimulus":"Stimuli_Rocks480/M_Slate_15.png","response":null,"trial_type":"image-keyboard-response","trial_index":18,"plugin_version":"2.1.0","time_elapsed":88755,"subject_id":"90916","group":"Group1","condition":"3_Rep","full_date":"2026-02-02T18:20:18.969Z","date":"2026-02-02","time":"18:20:18"},{"rt":null,"stimulus":"<p style=\"font-size: 50px; margin: 0; text-align: center;\">+</p>","response":null,"trial_type":"html-keyboard-response","trial_index":19,"plugin_version":"2.1.0","time_elapsed":89758,"subject_id":"90916","group":"Group1","condition":"3_Rep","full_date":"2026-02-02T18:20:18.969Z","date":"2026-02-02","time":"18:20:18"},{"task":"memory_phase","broad_category":"I","image_png":"I_Rhyolite_11.png","image_id":155,"category_name":"Rhyolite","category":10,"distinct_rating":1.73,"distinct_type":"Bottom","rt":null,"stimulus":"Stimuli_Rocks480/I_Rhyolite_11.png","response":null,"trial_type":"image-keyboard-response","trial_index":20,"plugin_version":"2.1.0","time_elapsed":92262,"subject_id":"90916","group":"Group1","condition":"3_Rep","full_date":"2026-02-02T18:20:18.969Z","date":"2026-02-02","time":"18:20:18"},{"rt":null,"stimulus":"<p style=\"font-size: 50px; margin: 0; text-align: center;\">+</p>","response":null,"trial_type":"html-keyboard-response","trial_index":21,"plugin_version":"2.1.0","time_elapsed":93265,"subject_id":"90916","group":"Group1","condition":"3_Rep","full_date":"2026-02-02T18:20:18.969Z","date":"2026-02-02","time":"18:20:18"},{"task":"memory_phase","broad_category":"I","image_png":"I_Pumice_11.png","image_id":139,"category_name":"Pumice","category":9,"distinct_rating":1.74,"distinct_type":"Bottom","rt":null,"stimulus":"Stimuli_Rocks480/I_Pumice_11.png","response":null,"trial_type":"image-keyboard-response","trial_index":22,"plugin_version":"2.1.0","time_elapsed":95769,"subject_id":"90916","group":"Group1","condition":"3_Rep","full_date":"2026-02-02T18:20:18.969Z","date":"2026-02-02","time":"18:20:18"},{"rt":null,"stimulus":"<p style=\"font-size: 50px; margin: 0; text-align: center;\">+</p>","response":null,"trial_type":"html-keyboard-response","trial_index":23,"plugin_version":"2.1.0","time_elapsed":96771,"subject_id":"90916","group":"Group1","condition":"3_Rep","full_date":"2026-02-02T18:20:18.969Z","date":"2026-02-02","time":"18:20:18"},{"task":"memory_phase","broad_category":"S","image_png":"S_Breccia_11.png","image_id":347,"category_name":"Breccia","category":22,"distinct_rating":6.7,"distinct_type":"Top","rt":null,"stimulus":"Stimuli_Rocks480/S_Breccia_11.png","response":null,"trial_type":"image-keyboard-response","trial_index":24,"plugin_version":"2.1.0","time_elapsed":99274,"subject_id":"90916","group":"Group1","condition":"3_Rep","full_date":"2026-02-02T18:20:18.969Z","date":"2026-02-02","time":"18:20:18"},{"rt":null,"stimulus":"<p style=\"font-size: 50px; margin: 0; text-align: center;\">+</p>","response":null,"trial_type":"html-keyboard-response","trial_index":25,"plugin_version":"2.1.0","time_elapsed":100277,"subject_id":"90916","group":"Group1","condition":"3_Rep","full_date":"2026-02-02T18:20:18.969Z","date":"2026-02-02","time":"18:20:18"},{"task":"memory_phase","broad_category":"M","image_png":"M_Slate_11.png","image_id":315,"category_name":"Slate","category":20,"distinct_rating":2.75,"distinct_type":"Bottom","rt":null,"stimulus":"Stimuli_Rocks480/M_Slate_11.png","response":null,"trial_type":"image-keyboard-response","trial_index":26,"plugin_version":"2.1.0","time_elapsed":102780,"subject_id":"90916","group":"Group1","condition":"3_Rep","full_date":"2026-02-02T18:20:18.969Z","date":"2026-02-02","time":"18:20:18"},{"rt":null,"stimulus":"<p style=\"font-size: 50px; margin: 0; text-align: center;\">+</p>","response":null,"trial_type":"html-keyboard-response","trial_index":27,"plugin_version":"2.1.0","time_elapsed":103782,"subject_id":"90916","group":"Group1","condition":"3_Rep","full_date":"2026-02-02T18:20:18.969Z","date":"2026-02-02","time":"18:20:18"},{"task":"memory_phase","broad_category":"M","image_png":"M_Marble_04.png","image_id":228,"category_name":"Marble","category":15,"distinct_rating":3.15,"distinct_type":"Bottom","rt":null,"stimulus":"Stimuli_Rocks480/M_Marble_04.png","response":null,"trial_type":"image-keyboard-response","trial_index":28,"plugin_version":"2.1.0","time_elapsed":106286,"subject_id":"90916","group":"Group1","condition":"3_Rep","full_date":"2026-02-02T18:20:18.969Z","date":"2026-02-02","time":"18:20:18"},{"rt":null,"stimulus":"<p style=\"font-size: 50px; margin: 0; text-align: center;\">+</p>","response":null,"trial_type":"html-keyboard-response","trial_index":29,"plugin_version":"2.1.0","time_elapsed":107289,"subject_id":"90916","group":"Group1","condition":"3_Rep","full_date":"2026-02-02T18:20:18.969Z","date":"2026-02-02","time":"18:20:18"},{"task":"memory_phase","broad_category":"I","image_png":"I_Pegmatite_10.png","image_id":106,"category_name":"Pegmatite","category":7,"distinct_rating":7.66,"distinct_type":"Top","rt":null,"stimulus":"Stimuli_Rocks480/I_Pegmatite_10.png","response":null,"trial_type":"image-keyboard-response","trial_index":30,"plugin_version":"2.1.0","time_elapsed":109793,"subject_id":"90916","group":"Group1","condition":"3_Rep","full_date":"2026-02-02T18:20:18.969Z","date":"2026-02-02","time":"18:20:18"},{"rt":null,"stimulus":"<p style=\"font-size: 50px; margin: 0; text-align: center;\">+</p>","response":null,"trial_type":"html-keyboard-response","trial_index":31,"plugin_version":"2.1.0","time_elapsed":110796,"subject_id":"90916","group":"Group1","condition":"3_Rep","full_date":"2026-02-02T18:20:18.969Z","date":"2026-02-02","time":"18:20:18"},{"task":"memory_phase","broad_category":"M","image_png":"M_Quartzite_08.png","image_id":280,"category_name":"Quartzite","category":18,"distinct_rating":2.15,"distinct_type":"Bottom","rt":null,"stimulus":"Stimuli_Rocks480/M_Quartzite_08.png","response":null,"trial_type":"image-keyboard-response","trial_index":32,"plugin_version":"2.1.0","time_elapsed":113300,"subject_id":"90916","group":"Group1","condition":"3_Rep","full_date":"2026-02-02T18:20:18.969Z","date":"2026-02-02","time":"18:20:18"},{"rt":null,"stimulus":"<p style=\"font-size: 50px; margin: 0; text-align: center;\">+</p>","response":null,"trial_type":"html-keyboard-response","trial_index":33,"plugin_version":"2.1.0","time_elapsed":114303,"subject_id":"90916","group":"Group1","condition":"3_Rep","full_date":"2026-02-02T18:20:18.969Z","date":"2026-02-02","time":"18:20:18"},{"task":"memory_phase","broad_category":"M","image_png":"M_Slate_03.png","image_id":307,"category_name":"Slate","category":20,"distinct_rating":1.87,"distinct_type":"Bottom","rt":null,"stimulus":"Stimuli_Rocks480/M_Slate_03.png","response":null,"trial_type":"image-keyboard-response","trial_index":34,"plugin_version":"2.1.0","time_elapsed":116807,"subject_id":"90916","group":"Group1","condition":"3_Rep","full_date":"2026-02-02T18:20:18.969Z","date":"2026-02-02","time":"18:20:18"},{"rt":null,"stimulus":"<p style=\"font-size: 50px; margin: 0; text-align: center;\">+</p>","response":null,"trial_type":"html-keyboard-response","trial_index":35,"plugin_version":"2.1.0","time_elapsed":117810,"subject_id":"90916","group":"Group1","condition":"3_Rep","full_date":"2026-02-02T18:20:18.969Z","date":"2026-02-02","time":"18:20:18"},{"task":"memory_phase","broad_category":"M","image_png":"M_Phyllite_07.png","image_id":263,"category_name":"Phyllite","category":17,"distinct_rating":2.59,"distinct_type":"Bottom","rt":null,"stimulus":"Stimuli_Rocks480/M_Phyllite_07.png","response":null,"trial_type":"image-keyboard-response","trial_index":36,"plugin_version":"2.1.0","time_elapsed":120314,"subject_id":"90916","group":"Group1","condition":"3_Rep","full_date":"2026-02-02T18:20:18.969Z","date":"2026-02-02","time":"18:20:18"},{"rt":null,"stimulus":"<p style=\"font-size: 50px; margin: 0; text-align: center;\">+</p>","response":null,"trial_type":"html-keyboard-response","trial_index":37,"plugin_version":"2.1.0","time_elapsed":121316,"subject_id":"90916","group":"Group1","condition":"3_Rep","full_date":"2026-02-02T18:20:18.969Z","date":"2026-02-02","time":"18:20:18"},{"task":"memory_phase","broad_category":"I","image_png":"I_Basalt_02.png","image_id":18,"category_name":"Basalt","category":2,"distinct_rating":1.84,"distinct_type":"Bottom","rt":null,"stimulus":"Stimuli_Rocks480/I_Basalt_02.png","response":null,"trial_type":"image-keyboard-response","trial_index":38,"plugin_version":"2.1.0","time_elapsed":123819,"subject_id":"90916","group":"Group1","condition":"3_Rep","full_date":"2026-02-02T18:20:18.969Z","date":"2026-02-02","time":"18:20:18"},{"rt":null,"stimulus":"<p style=\"font-size: 50px; margin: 0; text-align: center;\">+</p>","response":null,"trial_type":"html-keyboard-response","trial_index":39,"plugin_version":"2.1.0","time_elapsed":124822,"subject_id":"90916","group":"Group1","condition":"3_Rep","full_date":"2026-02-02T18:20:18.969Z","date":"2026-02-02","time":"18:20:18"},{"task":"memory_phase","broad_category":"S","image_png":"S_Dolomite_14.png","image_id":398,"category_name":"Dolomite","category":25,"distinct_rating":1.43,"distinct_type":"Bottom","rt":null,"stimulus":"Stimuli_Rocks480/S_Dolomite_14.png","response":null,"trial_type":"image-keyboard-response","trial_index":40,"plugin_version":"2.1.0","time_elapsed":127326,"subject_id":"90916","group":"Group1","condition":"3_Rep","full_date":"2026-02-02T18:20:18.969Z","date":"2026-02-02","time":"18:20:18"},{"rt":null,"stimulus":"<p style=\"font-size: 50px; margin: 0; text-align: center;\">+</p>","response":null,"trial_type":"html-keyboard-response","trial_index":41,"plugin_version":"2.1.0","time_elapsed":128328,"subject_id":"90916","group":"Group1","condition":"3_Rep","full_date":"2026-02-02T18:20:18.969Z","date":"2026-02-02","time":"18:20:18"},{"task":"memory_phase","broad_category":"S","image_png":"S_Shale_01.png","image_id":465,"category_name":"Shale","category":30,"distinct_rating":2.7,"distinct_type":"Bottom","rt":null,"stimulus":"Stimuli_Rocks480/S_Shale_01.png","response":null,"trial_type":"image-keyboard-response","trial_index":42,"plugin_version":"2.1.0","time_elapsed":130832,"subject_id":"90916","group":"Group1","condition":"3_Rep","full_date":"2026-02-02T18:20:18.969Z","date":"2026-02-02","time":"18:20:18"},{"rt":null,"stimulus":"<p style=\"font-size: 50px; margin: 0; text-align: center;\">+</p>","response":null,"trial_type":"html-keyboard-response","trial_index":43,"plugin_version":"2.1.0","time_elapsed":131835,"subject_id":"90916","group":"Group1","condition":"3_Rep","full_date":"2026-02-02T18:20:18.969Z","date":"2026-02-02","time":"18:20:18"},{"task":"memory_phase","broad_category":"S","image_png":"S_Dolomite_12.png","image_id":396,"category_name":"Dolomite","category":25,"distinct_rating":1.85,"distinct_type":"Bottom","rt":null,"stimulus":"Stimuli_Rocks480/S_Dolomite_12.png","response":null,"trial_type":"image-keyboard-response","trial_index":44,"plugin_version":"2.1.0","time_elapsed":134338,"subject_id":"90916","group":"Group1","condition":"3_Rep","full_date":"2026-02-02T18:20:18.969Z","date":"2026-02-02","time":"18:20:18"},{"rt":null,"stimulus":"<p style=\"font-size: 50px; margin: 0; text-align: center;\">+</p>","response":null,"trial_type":"html-keyboard-response","trial_index":45,"plugin_version":"2.1.0","time_elapsed":135341,"subject_id":"90916","group":"Group1","condition":"3_Rep","full_date":"2026-02-02T18:20:18.969Z","date":"2026-02-02","time":"18:20:18"},{"task":"memory_phase","broad_category":"S","image_png":"S_Sandstone_03.png","image_id":451,"category_name":"Sandstone","category":29,"distinct_rating":1.86,"distinct_type":"Bottom","rt":null,"stimulus":"Stimuli_Rocks480/S_Sandstone_03.png","response":null,"trial_type":"image-keyboard-response","trial_index":46,"plugin_version":"2.1.0","time_elapsed":137844,"subject_id":"90916","group":"Group1","condition":"3_Rep","full_date":"2026-02-02T18:20:18.969Z","date":"2026-02-02","time":"18:20:18"},{"rt":null,"stimulus":"<p style=\"font-size: 50px; margin: 0; text-align: center;\">+</p>","response":null,"trial_type":"html-keyboard-response","trial_index":47,"plugin_version":"2.1.0","time_elapsed":138847,"subject_id":"90916","group":"Group1","condition":"3_Rep","full_date":"2026-02-02T18:20:18.969Z","date":"2026-02-02","time":"18:20:18"},{"task":"memory_phase","broad_category":"I","image_png":"I_Gabbro_11.png","image_id":59,"category_name":"Gabbro","category":4,"distinct_rating":1.99,"distinct_type":"Bottom","rt":null,"stimulus":"Stimuli_Rocks480/I_Gabbro_11.png","response":null,"trial_type":"image-keyboard-response","trial_index":48,"plugin_version":"2.1.0","time_elapsed":141351,"subject_id":"90916","group":"Group1","condition":"3_Rep","full_date":"2026-02-02T18:20:18.969Z","date":"2026-02-02","time":"18:20:18"},{"rt":null,"stimulus":"<p style=\"font-size: 50px; margin: 0; text-align: center;\">+</p>","response":null,"trial_type":"html-keyboard-response","trial_index":49,"plugin_version":"2.1.0","time_elapsed":142354,"subject_id":"90916","group":"Group1","condition":"3_Rep","full_date":"2026-02-02T18:20:18.969Z","date":"2026-02-02","time":"18:20:18"},{"task":"memory_phase","broad_category":"S","image_png":"S_Sandstone_16.png","image_id":464,"category_name":"Sandstone","category":29,"distinct_rating":1.93,"distinct_type":"Bottom","rt":null,"stimulus":"Stimuli_Rocks480/S_Sandstone_16.png","response":null,"trial_type":"image-keyboard-response","trial_index":50,"plugin_version":"2.1.0","time_elapsed":144858,"subject_id":"90916","group":"Group1","condition":"3_Rep","full_date":"2026-02-02T18:20:18.969Z","date":"2026-02-02","time":"18:20:18"},{"rt":null,"stimulus":"<p style=\"font-size: 50px; margin: 0; text-align: center;\">+</p>","response":null,"trial_type":"html-keyboard-response","trial_index":51,"plugin_version":"2.1.0","time_elapsed":145860,"subject_id":"90916","group":"Group1","condition":"3_Rep","full_date":"2026-02-02T18:20:18.969Z","date":"2026-02-02","time":"18:20:18"},{"task":"memory_phase","broad_category":"M","image_png":"M_Phyllite_03.png","image_id":259,"category_name":"Phyllite","category":17,"distinct_rating":2.5,"distinct_type":"Bottom","rt":null,"stimulus":"Stimuli_Rocks480/M_Phyllite_03.png","response":null,"trial_type":"image-keyboard-response","trial_index":52,"plugin_version":"2.1.0","time_elapsed":148364,"subject_id":"90916","group":"Group1","condition":"3_Rep","full_date":"2026-02-02T18:20:18.969Z","date":"2026-02-02","time":"18:20:18"},{"rt":null,"stimulus":"<p style=\"font-size: 50px; margin: 0; text-align: center;\">+</p>","response":null,"trial_type":"html-keyboard-response","trial_index":53,"plugin_version":"2.1.0","time_elapsed":149366,"subject_id":"90916","group":"Group1","condition":"3_Rep","full_date":"2026-02-02T18:20:18.969Z","date":"2026-02-02","time":"18:20:18"},{"task":"memory_phase","broad_category":"S","image_png":"S_Chert_10.png","image_id":362,"category_name":"Chert","category":23,"distinct_rating":7.17,"distinct_type":"Top","rt":null,"stimulus":"Stimuli_Rocks480/S_Chert_10.png","response":null,"trial_type":"image-keyboard-response","trial_index":54,"plugin_version":"2.1.0","time_elapsed":151869,"subject_id":"90916","group":"Group1","condition":"3_Rep","full_date":"2026-02-02T18:20:18.969Z","date":"2026-02-02","time":"18:20:18"},{"rt":2143,"stimulus":"<p style=\"max-width: 760px; margin: auto; font-size: 35px; line-height: 1.5;\">\n                Press SPACE to continue study phase\n              </p>","response":" ","trial_type":"html-keyboard-response","trial_index":55,"plugin_version":"2.1.0","time_elapsed":154014,"subject_id":"90916","group":"Group1","condition":"3_Rep","full_date":"2026-02-02T18:20:18.969Z","date":"2026-02-02","time":"18:20:18"},{"rt":null,"stimulus":"<p style=\"font-size: 50px; margin: 0; text-align: center;\">+</p>","response":null,"trial_type":"html-keyboard-response","trial_index":56,"plugin_version":"2.1.0","time_elapsed":155016,"subject_id":"90916","group":"Group1","condition":"3_Rep","full_date":"2026-02-02T18:20:18.969Z","date":"2026-02-02","time":"18:20:18"},{"task":"memory_phase","broad_category":"S","image_png":"S_Rock Gypsum_04.png","image_id":420,"category_name":"Rock Gypsum","category":27,"distinct_rating":7.61,"distinct_type":"Top","rt":null,"stimulus":"Stimuli_Rocks480/S_Rock Gypsum_04.png","response":null,"trial_type":"image-keyboard-response","trial_index":57,"plugin_version":"2.1.0","time_elapsed":157520,"subject_id":"90916","group":"Group1","condition":"3_Rep","full_date":"2026-02-02T18:20:18.969Z","date":"2026-02-02","time":"18:20:18"},{"rt":null,"stimulus":"<p style=\"font-size: 50px; margin: 0; text-align: center;\">+</p>","response":null,"trial_type":"html-keyboard-response","trial_index":58,"plugin_version":"2.1.0","time_elapsed":158523,"subject_id":"90916","group":"Group1","condition":"3_Rep","full_date":"2026-02-02T18:20:18.969Z","date":"2026-02-02","time":"18:20:18"},{"task":"memory_phase","broad_category":"S","image_png":"S_Dolomite_13.png","image_id":397,"category_name":"Dolomite","category":25,"distinct_rating":1.77,"distinct_type":"Bottom","rt":null,"stimulus":"Stimuli_Rocks480/S_Dolomite_13.png","response":null,"trial_type":"image-keyboard-response","trial_index":59,"plugin_version":"2.1.0","time_elapsed":161027,"subject_id":"90916","group":"Group1","condition":"3_Rep","full_date":"2026-02-02T18:20:18.969Z","date":"2026-02-02","time":"18:20:18"},{"rt":null,"stimulus":"<p style=\"font-size: 50px; margin: 0; text-align: center;\">+</p>","response":null,"trial_type":"html-keyboard-response","trial_index":60,"plugin_version":"2.1.0","time_elapsed":162030,"subject_id":"90916","group":"Group1","condition":"3_Rep","full_date":"2026-02-02T18:20:18.969Z","date":"2026-02-02","time":"18:20:18"},{"task":"memory_phase","broad_category":"S","image_png":"S_Shale_08.png","image_id":472,"category_name":"Shale","category":30,"distinct_rating":2.55,"distinct_type":"Bottom","rt":null,"stimulus":"Stimuli_Rocks480/S_Shale_08.png","response":null,"trial_type":"image-keyboard-response","trial_index":61,"plugin_version":"2.1.0","time_elapsed":164534,"subject_id":"90916","group":"Group1","condition":"3_Rep","full_date":"2026-02-02T18:20:18.969Z","date":"2026-02-02","time":"18:20:18"},{"rt":null,"stimulus":"<p style=\"font-size: 50px; margin: 0; text-align: center;\">+</p>","response":null,"trial_type":"html-keyboard-response","trial_index":62,"plugin_version":"2.1.0","time_elapsed":165537,"subject_id":"90916","group":"Group1","condition":"3_Rep","full_date":"2026-02-02T18:20:18.969Z","date":"2026-02-02","time":"18:20:18"},{"task":"memory_phase","broad_category":"I","image_png":"I_Gabbro_08.png","image_id":56,"category_name":"Gabbro","category":4,"distinct_rating":3.02,"distinct_type":"Bottom","rt":null,"stimulus":"Stimuli_Rocks480/I_Gabbro_08.png","response":null,"trial_type":"image-keyboard-response","trial_index":63,"plugin_version":"2.1.0","time_elapsed":168041,"subject_id":"90916","group":"Group1","condition":"3_Rep","full_date":"2026-02-02T18:20:18.969Z","date":"2026-02-02","time":"18:20:18"},{"rt":null,"stimulus":"<p style=\"font-size: 50px; margin: 0; text-align: center;\">+</p>","response":null,"trial_type":"html-keyboard-response","trial_index":64,"plugin_version":"2.1.0","time_elapsed":169044,"subject_id":"90916","group":"Group1","condition":"3_Rep","full_date":"2026-02-02T18:20:18.969Z","date":"2026-02-02","time":"18:20:18"},{"task":"memory_phase","broad_category":"S","image_png":"S_Sandstone_15.png","image_id":463,"category_name":"Sandstone","category":29,"distinct_rating":2,"distinct_type":"Bottom","rt":null,"stimulus":"Stimuli_Rocks480/S_Sandstone_15.png","response":null,"trial_type":"image-keyboard-response","trial_index":65,"plugin_version":"2.1.0","time_elapsed":171548,"subject_id":"90916","group":"Group1","condition":"3_Rep","full_date":"2026-02-02T18:20:18.969Z","date":"2026-02-02","time":"18:20:18"},{"rt":null,"stimulus":"<p style=\"font-size: 50px; margin: 0; text-align: center;\">+</p>","response":null,"trial_type":"html-keyboard-response","trial_index":66,"plugin_version":"2.1.0","time_elapsed":172550,"subject_id":"90916","group":"Group1","condition":"3_Rep","full_date":"2026-02-02T18:20:18.969Z","date":"2026-02-02","time":"18:20:18"},{"task":"memory_phase","broad_category":"I","image_png":"I_Obsidian_05.png","image_id":85,"category_name":"Obsidian","category":6,"distinct_rating":7.32,"distinct_type":"Top","rt":null,"stimulus":"Stimuli_Rocks480/I_Obsidian_05.png","response":null,"trial_type":"image-keyboard-response","trial_index":67,"plugin_version":"2.1.0","time_elapsed":175055,"subject_id":"90916","group":"Group1","condition":"3_Rep","full_date":"2026-02-02T18:20:18.969Z","date":"2026-02-02","time":"18:20:18"},{"rt":null,"stimulus":"<p style=\"font-size: 50px; margin: 0; text-align: center;\">+</p>","response":null,"trial_type":"html-keyboard-response","trial_index":68,"plugin_version":"2.1.0","time_elapsed":176057,"subject_id":"90916","group":"Group1","condition":"3_Rep","full_date":"2026-02-02T18:20:18.969Z","date":"2026-02-02","time":"18:20:18"},{"task":"memory_phase","broad_category":"I","image_png":"I_Pumice_12.png","image_id":140,"category_name":"Pumice","category":9,"distinct_rating":2.97,"distinct_type":"Bottom","rt":null,"stimulus":"Stimuli_Rocks480/I_Pumice_12.png","response":null,"trial_type":"image-keyboard-response","trial_index":69,"plugin_version":"2.1.0","time_elapsed":178562,"subject_id":"90916","group":"Group1","condition":"3_Rep","full_date":"2026-02-02T18:20:18.969Z","date":"2026-02-02","time":"18:20:18"},{"rt":null,"stimulus":"<p style=\"font-size: 50px; margin: 0; text-align: center;\">+</p>","response":null,"trial_type":"html-keyboard-response","trial_index":70,"plugin_version":"2.1.0","time_elapsed":179564,"subject_id":"90916","group":"Group1","condition":"3_Rep","full_date":"2026-02-02T18:20:18.969Z","date":"2026-02-02","time":"18:20:18"},{"task":"memory_phase","broad_category":"I","image_png":"I_Andesite_06.png","image_id":6,"category_name":"Andesite","category":1,"distinct_rating":3.17,"distinct_type":"Bottom","rt":null,"stimulus":"Stimuli_Rocks480/I_Andesite_06.png","response":null,"trial_type":"image-keyboard-response","trial_index":71,"plugin_version":"2.1.0","time_elapsed":182068,"subject_id":"90916","group":"Group1","condition":"3_Rep","full_date":"2026-02-02T18:20:18.969Z","date":"2026-02-02","time":"18:20:18"},{"rt":null,"stimulus":"<p style=\"font-size: 50px; margin: 0; text-align: center;\">+</p>","response":null,"trial_type":"html-keyboard-response","trial_index":72,"plugin_version":"2.1.0","time_elapsed":183071,"subject_id":"90916","group":"Group1","condition":"3_Rep","full_date":"2026-02-02T18:20:18.969Z","date":"2026-02-02","time":"18:20:18"},{"task":"memory_phase","broad_category":"I","image_png":"I_Pumice_08.png","image_id":136,"category_name":"Pumice","category":9,"distinct_rating":3.1,"distinct_type":"Bottom","rt":null,"stimulus":"Stimuli_Rocks480/I_Pumice_08.png","response":null,"trial_type":"image-keyboard-response","trial_index":73,"plugin_version":"2.1.0","time_elapsed":185574,"subject_id":"90916","group":"Group1","condition":"3_Rep","full_date":"2026-02-02T18:20:18.969Z","date":"2026-02-02","time":"18:20:18"},{"rt":null,"stimulus":"<p style=\"font-size: 50px; margin: 0; text-align: center;\">+</p>","response":null,"trial_type":"html-keyboard-response","trial_index":74,"plugin_version":"2.1.0","time_elapsed":186577,"subject_id":"90916","group":"Group1","condition":"3_Rep","full_date":"2026-02-02T18:20:18.969Z","date":"2026-02-02","time":"18:20:18"},{"task":"memory_phase","broad_category":"M","image_png":"M_Gneiss_06.png","image_id":198,"category_name":"Gneiss","category":13,"distinct_rating":2.65,"distinct_type":"Bottom","rt":null,"stimulus":"Stimuli_Rocks480/M_Gneiss_06.png","response":null,"trial_type":"image-keyboard-response","trial_index":75,"plugin_version":"2.1.0","time_elapsed":189081,"subject_id":"90916","group":"Group1","condition":"3_Rep","full_date":"2026-02-02T18:20:18.969Z","date":"2026-02-02","time":"18:20:18"},{"rt":null,"stimulus":"<p style=\"font-size: 50px; margin: 0; text-align: center;\">+</p>","response":null,"trial_type":"html-keyboard-response","trial_index":76,"plugin_version":"2.1.0","time_elapsed":190084,"subject_id":"90916","group":"Group1","condition":"3_Rep","full_date":"2026-02-02T18:20:18.969Z","date":"2026-02-02","time":"18:20:18"},{"task":"memory_phase","broad_category":"I","image_png":"I_Diorite_05.png","image_id":37,"category_name":"Diorite","category":3,"distinct_rating":3.08,"distinct_type":"Bottom","rt":null,"stimulus":"Stimuli_Rocks480/I_Diorite_05.png","response":null,"trial_type":"image-keyboard-response","trial_index":77,"plugin_version":"2.1.0","time_elapsed":192588,"subject_id":"90916","group":"Group1","condition":"3_Rep","full_date":"2026-02-02T18:20:18.969Z","date":"2026-02-02","time":"18:20:18"},{"rt":null,"stimulus":"<p style=\"font-size: 50px; margin: 0; text-align: center;\">+</p>","response":null,"trial_type":"html-keyboard-response","trial_index":78,"plugin_version":"2.1.0","time_elapsed":193590,"subject_id":"90916","group":"Group1","condition":"3_Rep","full_date":"2026-02-02T18:20:18.969Z","date":"2026-02-02","time":"18:20:18"},{"task":"memory_phase","broad_category":"M","image_png":"M_Marble_06.png","image_id":230,"category_name":"Marble","category":15,"distinct_rating":3.4,"distinct_type":"Bottom","rt":null,"stimulus":"Stimuli_Rocks480/M_Marble_06.png","response":null,"trial_type":"image-keyboard-response","trial_index":79,"plugin_version":"2.1.0","time_elapsed":196095,"subject_id":"90916","group":"Group1","condition":"3_Rep","full_date":"2026-02-02T18:20:18.969Z","date":"2026-02-02","time":"18:20:18"},{"rt":null,"stimulus":"<p style=\"font-size: 50px; margin: 0; text-align: center;\">+</p>","response":null,"trial_type":"html-keyboard-response","trial_index":80,"plugin_version":"2.1.0","time_elapsed":197097,"subject_id":"90916","group":"Group1","condition":"3_Rep","full_date":"2026-02-02T18:20:18.969Z","date":"2026-02-02","time":"18:20:18"},{"task":"memory_phase","broad_category":"I","image_png":"I_Diorite_03.png","image_id":35,"category_name":"Diorite","category":3,"distinct_rating":3.14,"distinct_type":"Bottom","rt":null,"stimulus":"Stimuli_Rocks480/I_Diorite_03.png","response":null,"trial_type":"image-keyboard-response","trial_index":81,"plugin_version":"2.1.0","time_elapsed":199601,"subject_id":"90916","group":"Group1","condition":"3_Rep","full_date":"2026-02-02T18:20:18.969Z","date":"2026-02-02","time":"18:20:18"},{"rt":null,"stimulus":"<p style=\"font-size: 50px; margin: 0; text-align: center;\">+</p>","response":null,"trial_type":"html-keyboard-response","trial_index":82,"plugin_version":"2.1.0","time_elapsed":200604,"subject_id":"90916","group":"Group1","condition":"3_Rep","full_date":"2026-02-02T18:20:18.969Z","date":"2026-02-02","time":"18:20:18"},{"task":"memory_phase","broad_category":"M","image_png":"M_Phyllite_10.png","image_id":266,"category_name":"Phyllite","category":17,"distinct_rating":2.6,"distinct_type":"Bottom","rt":null,"stimulus":"Stimuli_Rocks480/M_Phyllite_10.png","response":null,"trial_type":"image-keyboard-response","trial_index":83,"plugin_version":"2.1.0","time_elapsed":203109,"subject_id":"90916","group":"Group1","condition":"3_Rep","full_date":"2026-02-02T18:20:18.969Z","date":"2026-02-02","time":"18:20:18"},{"rt":null,"stimulus":"<p style=\"font-size: 50px; margin: 0; text-align: center;\">+</p>","response":null,"trial_type":"html-keyboard-response","trial_index":84,"plugin_version":"2.1.0","time_elapsed":204111,"subject_id":"90916","group":"Group1","condition":"3_Rep","full_date":"2026-02-02T18:20:18.969Z","date":"2026-02-02","time":"18:20:18"},{"task":"memory_phase","broad_category":"I","image_png":"I_Andesite_08.png","image_id":8,"category_name":"Andesite","category":1,"distinct_rating":1.95,"distinct_type":"Bottom","rt":null,"stimulus":"Stimuli_Rocks480/I_Andesite_08.png","response":null,"trial_type":"image-keyboard-response","trial_index":85,"plugin_version":"2.1.0","time_elapsed":206615,"subject_id":"90916","group":"Group1","condition":"3_Rep","full_date":"2026-02-02T18:20:18.969Z","date":"2026-02-02","time":"18:20:18"},{"rt":null,"stimulus":"<p style=\"font-size: 50px; margin: 0; text-align: center;\">+</p>","response":null,"trial_type":"html-keyboard-response","trial_index":86,"plugin_version":"2.1.0","time_elapsed":207618,"subject_id":"90916","group":"Group1","condition":"3_Rep","full_date":"2026-02-02T18:20:18.969Z","date":"2026-02-02","time":"18:20:18"},{"task":"memory_phase","broad_category":"I","image_png":"I_Pegmatite_16.png","image_id":112,"category_name":"Pegmatite","category":7,"distinct_rating":7.03,"distinct_type":"Top","rt":null,"stimulus":"Stimuli_Rocks480/I_Pegmatite_16.png","response":null,"trial_type":"image-keyboard-response","trial_index":87,"plugin_version":"2.1.0","time_elapsed":210121,"subject_id":"90916","group":"Group1","condition":"3_Rep","full_date":"2026-02-02T18:20:18.969Z","date":"2026-02-02","time":"18:20:18"},{"rt":null,"stimulus":"<p style=\"font-size: 50px; margin: 0; text-align: center;\">+</p>","response":null,"trial_type":"html-keyboard-response","trial_index":88,"plugin_version":"2.1.0","time_elapsed":211124,"subject_id":"90916","group":"Group1","condition":"3_Rep","full_date":"2026-02-02T18:20:18.969Z","date":"2026-02-02","time":"18:20:18"},{"task":"memory_phase","broad_category":"M","image_png":"M_Gneiss_13.png","image_id":205,"category_name":"Gneiss","category":13,"distinct_rating":3.26,"distinct_type":"Bottom","rt":null,"stimulus":"Stimuli_Rocks480/M_Gneiss_13.png","response":null,"trial_type":"image-keyboard-response","trial_index":89,"plugin_version":"2.1.0","time_elapsed":213628,"subject_id":"90916","group":"Group1","condition":"3_Rep","full_date":"2026-02-02T18:20:18.969Z","date":"2026-02-02","time":"18:20:18"},{"rt":null,"stimulus":"<p style=\"font-size: 50px; margin: 0; text-align: center;\">+</p>","response":null,"trial_type":"html-keyboard-response","trial_index":90,"plugin_version":"2.1.0","time_elapsed":214630,"subject_id":"90916","group":"Group1","condition":"3_Rep","full_date":"2026-02-02T18:20:18.969Z","date":"2026-02-02","time":"18:20:18"},{"task":"memory_phase","broad_category":"I","image_png":"I_Rhyolite_16.png","image_id":160,"category_name":"Rhyolite","category":10,"distinct_rating":2.19,"distinct_type":"Bottom","rt":null,"stimulus":"Stimuli_Rocks480/I_Rhyolite_16.png","response":null,"trial_type":"image-keyboard-response","trial_index":91,"plugin_version":"2.1.0","time_elapsed":217135,"subject_id":"90916","group":"Group1","condition":"3_Rep","full_date":"2026-02-02T18:20:18.969Z","date":"2026-02-02","time":"18:20:18"},{"rt":null,"stimulus":"<p style=\"font-size: 50px; margin: 0; text-align: center;\">+</p>","response":null,"trial_type":"html-keyboard-response","trial_index":92,"plugin_version":"2.1.0","time_elapsed":218137,"subject_id":"90916","group":"Group1","condition":"3_Rep","full_date":"2026-02-02T18:20:18.969Z","date":"2026-02-02","time":"18:20:18"},{"task":"memory_phase","broad_category":"I","image_png":"I_Basalt_01.png","image_id":17,"category_name":"Basalt","category":2,"distinct_rating":1.92,"distinct_type":"Bottom","rt":null,"stimulus":"Stimuli_Rocks480/I_Basalt_01.png","response":null,"trial_type":"image-keyboard-response","trial_index":93,"plugin_version":"2.1.0","time_elapsed":220641,"subject_id":"90916","group":"Group1","condition":"3_Rep","full_date":"2026-02-02T18:20:18.969Z","date":"2026-02-02","time":"18:20:18"},{"rt":null,"stimulus":"<p style=\"font-size: 50px; margin: 0; text-align: center;\">+</p>","response":null,"trial_type":"html-keyboard-response","trial_index":94,"plugin_version":"2.1.0","time_elapsed":221643,"subject_id":"90916","group":"Group1","condition":"3_Rep","full_date":"2026-02-02T18:20:18.969Z","date":"2026-02-02","time":"18:20:18"},{"task":"memory_phase","broad_category":"S","image_png":"S_Rock Salt_01.png","image_id":433,"category_name":"Rock Salt","category":28,"distinct_rating":7.18,"distinct_type":"Top","rt":null,"stimulus":"Stimuli_Rocks480/S_Rock Salt_01.png","response":null,"trial_type":"image-keyboard-response","trial_index":95,"plugin_version":"2.1.0","time_elapsed":224147,"subject_id":"90916","group":"Group1","condition":"3_Rep","full_date":"2026-02-02T18:20:18.969Z","date":"2026-02-02","time":"18:20:18"},{"rt":null,"stimulus":"<p style=\"font-size: 50px; margin: 0; text-align: center;\">+</p>","response":null,"trial_type":"html-keyboard-response","trial_index":96,"plugin_version":"2.1.0","time_elapsed":225149,"subject_id":"90916","group":"Group1","condition":"3_Rep","full_date":"2026-02-02T18:20:18.969Z","date":"2026-02-02","time":"18:20:18"},{"task":"memory_phase","broad_category":"I","image_png":"I_Andesite_10.png","image_id":10,"category_name":"Andesite","category":1,"distinct_rating":3.15,"distinct_type":"Bottom","rt":null,"stimulus":"Stimuli_Rocks480/I_Andesite_10.png","response":null,"trial_type":"image-keyboard-response","trial_index":97,"plugin_version":"2.1.0","time_elapsed":227653,"subject_id":"90916","group":"Group1","condition":"3_Rep","full_date":"2026-02-02T18:20:18.969Z","date":"2026-02-02","time":"18:20:18"},{"rt":null,"stimulus":"<p style=\"font-size: 50px; margin: 0; text-align: center;\">+</p>","response":null,"trial_type":"html-keyboard-response","trial_index":98,"plugin_version":"2.1.0","time_elapsed":228655,"subject_id":"90916","group":"Group1","condition":"3_Rep","full_date":"2026-02-02T18:20:18.969Z","date":"2026-02-02","time":"18:20:18"},{"task":"memory_phase","broad_category":"I","image_png":"I_Gabbro_16.png","image_id":64,"category_name":"Gabbro","category":4,"distinct_rating":2.52,"distinct_type":"Bottom","rt":null,"stimulus":"Stimuli_Rocks480/I_Gabbro_16.png","response":null,"trial_type":"image-keyboard-response","trial_index":99,"plugin_version":"2.1.0","time_elapsed":231159,"subject_id":"90916","group":"Group1","condition":"3_Rep","full_date":"2026-02-02T18:20:18.969Z","date":"2026-02-02","time":"18:20:18"},{"rt":null,"stimulus":"<p style=\"font-size: 50px; margin: 0; text-align: center;\">+</p>","response":null,"trial_type":"html-keyboard-response","trial_index":100,"plugin_version":"2.1.0","time_elapsed":232161,"subject_id":"90916","group":"Group1","condition":"3_Rep","full_date":"2026-02-02T18:20:18.969Z","date":"2026-02-02","time":"18:20:18"},{"task":"memory_phase","broad_category":"I","image_png":"I_Basalt_09.png","image_id":25,"category_name":"Basalt","category":2,"distinct_rating":1.89,"distinct_type":"Bottom","rt":null,"stimulus":"Stimuli_Rocks480/I_Basalt_09.png","response":null,"trial_type":"image-keyboard-response","trial_index":101,"plugin_version":"2.1.0","time_elapsed":234665,"subject_id":"90916","group":"Group1","condition":"3_Rep","full_date":"2026-02-02T18:20:18.969Z","date":"2026-02-02","time":"18:20:18"},{"rt":null,"stimulus":"<p style=\"font-size: 50px; margin: 0; text-align: center;\">+</p>","response":null,"trial_type":"html-keyboard-response","trial_index":102,"plugin_version":"2.1.0","time_elapsed":235668,"subject_id":"90916","group":"Group1","condition":"3_Rep","full_date":"2026-02-02T18:20:18.969Z","date":"2026-02-02","time":"18:20:18"},{"task":"memory_phase","broad_category":"M","image_png":"M_Marble_16.png","image_id":240,"category_name":"Marble","category":15,"distinct_rating":2.57,"distinct_type":"Bottom","rt":null,"stimulus":"Stimuli_Rocks480/M_Marble_16.png","response":null,"trial_type":"image-keyboard-response","trial_index":103,"plugin_version":"2.1.0","time_elapsed":238171,"subject_id":"90916","group":"Group1","condition":"3_Rep","full_date":"2026-02-02T18:20:18.969Z","date":"2026-02-02","time":"18:20:18"},{"rt":null,"stimulus":"<p style=\"font-size: 50px; margin: 0; text-align: center;\">+</p>","response":null,"trial_type":"html-keyboard-response","trial_index":104,"plugin_version":"2.1.0","time_elapsed":239173,"subject_id":"90916","group":"Group1","condition":"3_Rep","full_date":"2026-02-02T18:20:18.969Z","date":"2026-02-02","time":"18:20:18"},{"task":"memory_phase","broad_category":"M","image_png":"M_Quartzite_05.png","image_id":277,"category_name":"Quartzite","category":18,"distinct_rating":2.23,"distinct_type":"Bottom","rt":null,"stimulus":"Stimuli_Rocks480/M_Quartzite_05.png","response":null,"trial_type":"image-keyboard-response","trial_index":105,"plugin_version":"2.1.0","time_elapsed":241677,"subject_id":"90916","group":"Group1","condition":"3_Rep","full_date":"2026-02-02T18:20:18.969Z","date":"2026-02-02","time":"18:20:18"},{"rt":4794,"stimulus":"<p style=\"max-width: 760px; margin: auto; font-size: 35px; line-height: 1.5;\">\n                You have completed 1 study phase. \n                Now, we'll show you all the images again 2 more times.\n                <br><br>Press SPACE to continue\n              </p>","response":" ","trial_type":"html-keyboard-response","trial_index":106,"plugin_version":"2.1.0","time_elapsed":246472,"subject_id":"90916","group":"Group1","condition":"3_Rep","full_date":"2026-02-02T18:20:18.969Z","date":"2026-02-02","time":"18:20:18"},{"rt":null,"stimulus":"<p style=\"font-size: 50px; margin: 0; text-align: center;\">+</p>","response":null,"trial_type":"html-keyboard-response","trial_index":107,"plugin_version":"2.1.0","time_elapsed":247474,"subject_id":"90916","group":"Group1","condition":"3_Rep","full_date":"2026-02-02T18:20:18.969Z","date":"2026-02-02","time":"18:20:18"},{"task":"memory_phase","broad_category":"M","image_png":"M_Slate_15.png","image_id":319,"category_name":"Slate","category":20,"distinct_rating":2.13,"distinct_type":"Bottom","rt":null,"stimulus":"Stimuli_Rocks480/M_Slate_15.png","response":null,"trial_type":"image-keyboard-response","trial_index":108,"plugin_version":"2.1.0","time_elapsed":249979,"subject_id":"90916","group":"Group1","condition":"3_Rep","full_date":"2026-02-02T18:20:18.969Z","date":"2026-02-02","time":"18:20:18"},{"rt":null,"stimulus":"<p style=\"font-size: 50px; margin: 0; text-align: center;\">+</p>","response":null,"trial_type":"html-keyboard-response","trial_index":109,"plugin_version":"2.1.0","time_elapsed":250981,"subject_id":"90916","group":"Group1","condition":"3_Rep","full_date":"2026-02-02T18:20:18.969Z","date":"2026-02-02","time":"18:20:18"},{"task":"memory_phase","broad_category":"M","image_png":"M_Phyllite_10.png","image_id":266,"category_name":"Phyllite","category":17,"distinct_rating":2.6,"distinct_type":"Bottom","rt":null,"stimulus":"Stimuli_Rocks480/M_Phyllite_10.png","response":null,"trial_type":"image-keyboard-response","trial_index":110,"plugin_version":"2.1.0","time_elapsed":253484,"subject_id":"90916","group":"Group1","condition":"3_Rep","full_date":"2026-02-02T18:20:18.969Z","date":"2026-02-02","time":"18:20:18"},{"rt":null,"stimulus":"<p style=\"font-size: 50px; margin: 0; text-align: center;\">+</p>","response":null,"trial_type":"html-keyboard-response","trial_index":111,"plugin_version":"2.1.0","time_elapsed":254487,"subject_id":"90916","group":"Group1","condition":"3_Rep","full_date":"2026-02-02T18:20:18.969Z","date":"2026-02-02","time":"18:20:18"},{"task":"memory_phase","broad_category":"S","image_png":"S_Rock Gypsum_04.png","image_id":420,"category_name":"Rock Gypsum","category":27,"distinct_rating":7.61,"distinct_type":"Top","rt":null,"stimulus":"Stimuli_Rocks480/S_Rock Gypsum_04.png","response":null,"trial_type":"image-keyboard-response","trial_index":112,"plugin_version":"2.1.0","time_elapsed":256990,"subject_id":"90916","group":"Group1","condition":"3_Rep","full_date":"2026-02-02T18:20:18.969Z","date":"2026-02-02","time":"18:20:18"},{"rt":null,"stimulus":"<p style=\"font-size: 50px; margin: 0; text-align: center;\">+</p>","response":null,"trial_type":"html-keyboard-response","trial_index":113,"plugin_version":"2.1.0","time_elapsed":257992,"subject_id":"90916","group":"Group1","condition":"3_Rep","full_date":"2026-02-02T18:20:18.969Z","date":"2026-02-02","time":"18:20:18"},{"task":"memory_phase","broad_category":"M","image_png":"M_Slate_03.png","image_id":307,"category_name":"Slate","category":20,"distinct_rating":1.87,"distinct_type":"Bottom","rt":null,"stimulus":"Stimuli_Rocks480/M_Slate_03.png","response":null,"trial_type":"image-keyboard-response","trial_index":114,"plugin_version":"2.1.0","time_elapsed":260495,"subject_id":"90916","group":"Group1","condition":"3_Rep","full_date":"2026-02-02T18:20:18.969Z","date":"2026-02-02","time":"18:20:18"},{"rt":null,"stimulus":"<p style=\"font-size: 50px; margin: 0; text-align: center;\">+</p>","response":null,"trial_type":"html-keyboard-response","trial_index":115,"plugin_version":"2.1.0","time_elapsed":261497,"subject_id":"90916","group":"Group1","condition":"3_Rep","full_date":"2026-02-02T18:20:18.969Z","date":"2026-02-02","time":"18:20:18"},{"task":"memory_phase","broad_category":"M","image_png":"M_Gneiss_06.png","image_id":198,"category_name":"Gneiss","category":13,"distinct_rating":2.65,"distinct_type":"Bottom","rt":null,"stimulus":"Stimuli_Rocks480/M_Gneiss_06.png","response":null,"trial_type":"image-keyboard-response","trial_index":116,"plugin_version":"2.1.0","time_elapsed":264001,"subject_id":"90916","group":"Group1","condition":"3_Rep","full_date":"2026-02-02T18:20:18.969Z","date":"2026-02-02","time":"18:20:18"},{"rt":null,"stimulus":"<p style=\"font-size: 50px; margin: 0; text-align: center;\">+</p>","response":null,"trial_type":"html-keyboard-response","trial_index":117,"plugin_version":"2.1.0","time_elapsed":265003,"subject_id":"90916","group":"Group1","condition":"3_Rep","full_date":"2026-02-02T18:20:18.969Z","date":"2026-02-02","time":"18:20:18"},{"task":"memory_phase","broad_category":"I","image_png":"I_Pumice_11.png","image_id":139,"category_name":"Pumice","category":9,"distinct_rating":1.74,"distinct_type":"Bottom","rt":null,"stimulus":"Stimuli_Rocks480/I_Pumice_11.png","response":null,"trial_type":"image-keyboard-response","trial_index":118,"plugin_version":"2.1.0","time_elapsed":267507,"subject_id":"90916","group":"Group1","condition":"3_Rep","full_date":"2026-02-02T18:20:18.969Z","date":"2026-02-02","time":"18:20:18"},{"rt":null,"stimulus":"<p style=\"font-size: 50px; margin: 0; text-align: center;\">+</p>","response":null,"trial_type":"html-keyboard-response","trial_index":119,"plugin_version":"2.1.0","time_elapsed":268510,"subject_id":"90916","group":"Group1","condition":"3_Rep","full_date":"2026-02-02T18:20:18.969Z","date":"2026-02-02","time":"18:20:18"},{"task":"memory_phase","broad_category":"I","image_png":"I_Pumice_08.png","image_id":136,"category_name":"Pumice","category":9,"distinct_rating":3.1,"distinct_type":"Bottom","rt":null,"stimulus":"Stimuli_Rocks480/I_Pumice_08.png","response":null,"trial_type":"image-keyboard-response","trial_index":120,"plugin_version":"2.1.0","time_elapsed":271014,"subject_id":"90916","group":"Group1","condition":"3_Rep","full_date":"2026-02-02T18:20:18.969Z","date":"2026-02-02","time":"18:20:18"},{"rt":null,"stimulus":"<p style=\"font-size: 50px; margin: 0; text-align: center;\">+</p>","response":null,"trial_type":"html-keyboard-response","trial_index":121,"plugin_version":"2.1.0","time_elapsed":272017,"subject_id":"90916","group":"Group1","condition":"3_Rep","full_date":"2026-02-02T18:20:18.969Z","date":"2026-02-02","time":"18:20:18"},{"task":"memory_phase","broad_category":"I","image_png":"I_Rhyolite_11.png","image_id":155,"category_name":"Rhyolite","category":10,"distinct_rating":1.73,"distinct_type":"Bottom","rt":null,"stimulus":"Stimuli_Rocks480/I_Rhyolite_11.png","response":null,"trial_type":"image-keyboard-response","trial_index":122,"plugin_version":"2.1.0","time_elapsed":274521,"subject_id":"90916","group":"Group1","condition":"3_Rep","full_date":"2026-02-02T18:20:18.969Z","date":"2026-02-02","time":"18:20:18"},{"rt":null,"stimulus":"<p style=\"font-size: 50px; margin: 0; text-align: center;\">+</p>","response":null,"trial_type":"html-keyboard-response","trial_index":123,"plugin_version":"2.1.0","time_elapsed":275524,"subject_id":"90916","group":"Group1","condition":"3_Rep","full_date":"2026-02-02T18:20:18.969Z","date":"2026-02-02","time":"18:20:18"},{"task":"memory_phase","broad_category":"I","image_png":"I_Pumice_12.png","image_id":140,"category_name":"Pumice","category":9,"distinct_rating":2.97,"distinct_type":"Bottom","rt":null,"stimulus":"Stimuli_Rocks480/I_Pumice_12.png","response":null,"trial_type":"image-keyboard-response","trial_index":124,"plugin_version":"2.1.0","time_elapsed":278027,"subject_id":"90916","group":"Group1","condition":"3_Rep","full_date":"2026-02-02T18:20:18.969Z","date":"2026-02-02","time":"18:20:18"},{"rt":null,"stimulus":"<p style=\"font-size: 50px; margin: 0; text-align: center;\">+</p>","response":null,"trial_type":"html-keyboard-response","trial_index":125,"plugin_version":"2.1.0","time_elapsed":279030,"subject_id":"90916","group":"Group1","condition":"3_Rep","full_date":"2026-02-02T18:20:18.969Z","date":"2026-02-02","time":"18:20:18"},{"task":"memory_phase","broad_category":"I","image_png":"I_Pegmatite_10.png","image_id":106,"category_name":"Pegmatite","category":7,"distinct_rating":7.66,"distinct_type":"Top","rt":null,"stimulus":"Stimuli_Rocks480/I_Pegmatite_10.png","response":null,"trial_type":"image-keyboard-response","trial_index":126,"plugin_version":"2.1.0","time_elapsed":281533,"subject_id":"90916","group":"Group1","condition":"3_Rep","full_date":"2026-02-02T18:20:18.969Z","date":"2026-02-02","time":"18:20:18"},{"rt":null,"stimulus":"<p style=\"font-size: 50px; margin: 0; text-align: center;\">+</p>","response":null,"trial_type":"html-keyboard-response","trial_index":127,"plugin_version":"2.1.0","time_elapsed":282536,"subject_id":"90916","group":"Group1","condition":"3_Rep","full_date":"2026-02-02T18:20:18.969Z","date":"2026-02-02","time":"18:20:18"},{"task":"memory_phase","broad_category":"I","image_png":"I_Diorite_04.png","image_id":36,"category_name":"Diorite","category":3,"distinct_rating":2.98,"distinct_type":"Bottom","rt":null,"stimulus":"Stimuli_Rocks480/I_Diorite_04.png","response":null,"trial_type":"image-keyboard-response","trial_index":128,"plugin_version":"2.1.0","time_elapsed":285040,"subject_id":"90916","group":"Group1","condition":"3_Rep","full_date":"2026-02-02T18:20:18.969Z","date":"2026-02-02","time":"18:20:18"},{"rt":null,"stimulus":"<p style=\"font-size: 50px; margin: 0; text-align: center;\">+</p>","response":null,"trial_type":"html-keyboard-response","trial_index":129,"plugin_version":"2.1.0","time_elapsed":286042,"subject_id":"90916","group":"Group1","condition":"3_Rep","full_date":"2026-02-02T18:20:18.969Z","date":"2026-02-02","time":"18:20:18"},{"task":"memory_phase","broad_category":"S","image_png":"S_Rock Salt_01.png","image_id":433,"category_name":"Rock Salt","category":28,"distinct_rating":7.18,"distinct_type":"Top","rt":null,"stimulus":"Stimuli_Rocks480/S_Rock Salt_01.png","response":null,"trial_type":"image-keyboard-response","trial_index":130,"plugin_version":"2.1.0","time_elapsed":288546,"subject_id":"90916","group":"Group1","condition":"3_Rep","full_date":"2026-02-02T18:20:18.969Z","date":"2026-02-02","time":"18:20:18"},{"rt":null,"stimulus":"<p style=\"font-size: 50px; margin: 0; text-align: center;\">+</p>","response":null,"trial_type":"html-keyboard-response","trial_index":131,"plugin_version":"2.1.0","time_elapsed":289548,"subject_id":"90916","group":"Group1","condition":"3_Rep","full_date":"2026-02-02T18:20:18.969Z","date":"2026-02-02","time":"18:20:18"},{"task":"memory_phase","broad_category":"M","image_png":"M_Gneiss_05.png","image_id":197,"category_name":"Gneiss","category":13,"distinct_rating":2.97,"distinct_type":"Bottom","rt":null,"stimulus":"Stimuli_Rocks480/M_Gneiss_05.png","response":null,"trial_type":"image-keyboard-response","trial_index":132,"plugin_version":"2.1.0","time_elapsed":292052,"subject_id":"90916","group":"Group1","condition":"3_Rep","full_date":"2026-02-02T18:20:18.969Z","date":"2026-02-02","time":"18:20:18"},{"rt":null,"stimulus":"<p style=\"font-size: 50px; margin: 0; text-align: center;\">+</p>","response":null,"trial_type":"html-keyboard-response","trial_index":133,"plugin_version":"2.1.0","time_elapsed":293055,"subject_id":"90916","group":"Group1","condition":"3_Rep","full_date":"2026-02-02T18:20:18.969Z","date":"2026-02-02","time":"18:20:18"},{"task":"memory_phase","broad_category":"I","image_png":"I_Andesite_10.png","image_id":10,"category_name":"Andesite","category":1,"distinct_rating":3.15,"distinct_type":"Bottom","rt":null,"stimulus":"Stimuli_Rocks480/I_Andesite_10.png","response":null,"trial_type":"image-keyboard-response","trial_index":134,"plugin_version":"2.1.0","time_elapsed":295559,"subject_id":"90916","group":"Group1","condition":"3_Rep","full_date":"2026-02-02T18:20:18.969Z","date":"2026-02-02","time":"18:20:18"},{"rt":null,"stimulus":"<p style=\"font-size: 50px; margin: 0; text-align: center;\">+</p>","response":null,"trial_type":"html-keyboard-response","trial_index":135,"plugin_version":"2.1.0","time_elapsed":296562,"subject_id":"90916","group":"Group1","condition":"3_Rep","full_date":"2026-02-02T18:20:18.969Z","date":"2026-02-02","time":"18:20:18"},{"task":"memory_phase","broad_category":"I","image_png":"I_Gabbro_11.png","image_id":59,"category_name":"Gabbro","category":4,"distinct_rating":1.99,"distinct_type":"Bottom","rt":null,"stimulus":"Stimuli_Rocks480/I_Gabbro_11.png","response":null,"trial_type":"image-keyboard-response","trial_index":136,"plugin_version":"2.1.0","time_elapsed":299065,"subject_id":"90916","group":"Group1","condition":"3_Rep","full_date":"2026-02-02T18:20:18.969Z","date":"2026-02-02","time":"18:20:18"},{"rt":null,"stimulus":"<p style=\"font-size: 50px; margin: 0; text-align: center;\">+</p>","response":null,"trial_type":"html-keyboard-response","trial_index":137,"plugin_version":"2.1.0","time_elapsed":300068,"subject_id":"90916","group":"Group1","condition":"3_Rep","full_date":"2026-02-02T18:20:18.969Z","date":"2026-02-02","time":"18:20:18"},{"task":"memory_phase","broad_category":"M","image_png":"M_Slate_11.png","image_id":315,"category_name":"Slate","category":20,"distinct_rating":2.75,"distinct_type":"Bottom","rt":null,"stimulus":"Stimuli_Rocks480/M_Slate_11.png","response":null,"trial_type":"image-keyboard-response","trial_index":138,"plugin_version":"2.1.0","time_elapsed":302571,"subject_id":"90916","group":"Group1","condition":"3_Rep","full_date":"2026-02-02T18:20:18.969Z","date":"2026-02-02","time":"18:20:18"},{"rt":null,"stimulus":"<p style=\"font-size: 50px; margin: 0; text-align: center;\">+</p>","response":null,"trial_type":"html-keyboard-response","trial_index":139,"plugin_version":"2.1.0","time_elapsed":303573,"subject_id":"90916","group":"Group1","condition":"3_Rep","full_date":"2026-02-02T18:20:18.969Z","date":"2026-02-02","time":"18:20:18"},{"task":"memory_phase","broad_category":"I","image_png":"I_Diorite_03.png","image_id":35,"category_name":"Diorite","category":3,"distinct_rating":3.14,"distinct_type":"Bottom","rt":null,"stimulus":"Stimuli_Rocks480/I_Diorite_03.png","response":null,"trial_type":"image-keyboard-response","trial_index":140,"plugin_version":"2.1.0","time_elapsed":306077,"subject_id":"90916","group":"Group1","condition":"3_Rep","full_date":"2026-02-02T18:20:18.969Z","date":"2026-02-02","time":"18:20:18"},{"rt":null,"stimulus":"<p style=\"font-size: 50px; margin: 0; text-align: center;\">+</p>","response":null,"trial_type":"html-keyboard-response","trial_index":141,"plugin_version":"2.1.0","time_elapsed":307080,"subject_id":"90916","group":"Group1","condition":"3_Rep","full_date":"2026-02-02T18:20:18.969Z","date":"2026-02-02","time":"18:20:18"},{"task":"memory_phase","broad_category":"M","image_png":"M_Marble_16.png","image_id":240,"category_name":"Marble","category":15,"distinct_rating":2.57,"distinct_type":"Bottom","rt":null,"stimulus":"Stimuli_Rocks480/M_Marble_16.png","response":null,"trial_type":"image-keyboard-response","trial_index":142,"plugin_version":"2.1.0","time_elapsed":309583,"subject_id":"90916","group":"Group1","condition":"3_Rep","full_date":"2026-02-02T18:20:18.969Z","date":"2026-02-02","time":"18:20:18"},{"rt":null,"stimulus":"<p style=\"font-size: 50px; margin: 0; text-align: center;\">+</p>","response":null,"trial_type":"html-keyboard-response","trial_index":143,"plugin_version":"2.1.0","time_elapsed":310586,"subject_id":"90916","group":"Group1","condition":"3_Rep","full_date":"2026-02-02T18:20:18.969Z","date":"2026-02-02","time":"18:20:18"},{"task":"memory_phase","broad_category":"I","image_png":"I_Pegmatite_16.png","image_id":112,"category_name":"Pegmatite","category":7,"distinct_rating":7.03,"distinct_type":"Top","rt":null,"stimulus":"Stimuli_Rocks480/I_Pegmatite_16.png","response":null,"trial_type":"image-keyboard-response","trial_index":144,"plugin_version":"2.1.0","time_elapsed":313090,"subject_id":"90916","group":"Group1","condition":"3_Rep","full_date":"2026-02-02T18:20:18.969Z","date":"2026-02-02","time":"18:20:18"},{"rt":null,"stimulus":"<p style=\"font-size: 50px; margin: 0; text-align: center;\">+</p>","response":null,"trial_type":"html-keyboard-response","trial_index":145,"plugin_version":"2.1.0","time_elapsed":314093,"subject_id":"90916","group":"Group1","condition":"3_Rep","full_date":"2026-02-02T18:20:18.969Z","date":"2026-02-02","time":"18:20:18"},{"task":"memory_phase","broad_category":"M","image_png":"M_Quartzite_05.png","image_id":277,"category_name":"Quartzite","category":18,"distinct_rating":2.23,"distinct_type":"Bottom","rt":null,"stimulus":"Stimuli_Rocks480/M_Quartzite_05.png","response":null,"trial_type":"image-keyboard-response","trial_index":146,"plugin_version":"2.1.0","time_elapsed":316596,"subject_id":"90916","group":"Group1","condition":"3_Rep","full_date":"2026-02-02T18:20:18.969Z","date":"2026-02-02","time":"18:20:18"},{"rt":null,"stimulus":"<p style=\"font-size: 50px; margin: 0; text-align: center;\">+</p>","response":null,"trial_type":"html-keyboard-response","trial_index":147,"plugin_version":"2.1.0","time_elapsed":317598,"subject_id":"90916","group":"Group1","condition":"3_Rep","full_date":"2026-02-02T18:20:18.969Z","date":"2026-02-02","time":"18:20:18"},{"task":"memory_phase","broad_category":"M","image_png":"M_Quartzite_13.png","image_id":285,"category_name":"Quartzite","category":18,"distinct_rating":2.27,"distinct_type":"Bottom","rt":null,"stimulus":"Stimuli_Rocks480/M_Quartzite_13.png","response":null,"trial_type":"image-keyboard-response","trial_index":148,"plugin_version":"2.1.0","time_elapsed":320102,"subject_id":"90916","group":"Group1","condition":"3_Rep","full_date":"2026-02-02T18:20:18.969Z","date":"2026-02-02","time":"18:20:18"},{"rt":null,"stimulus":"<p style=\"font-size: 50px; margin: 0; text-align: center;\">+</p>","response":null,"trial_type":"html-keyboard-response","trial_index":149,"plugin_version":"2.1.0","time_elapsed":321105,"subject_id":"90916","group":"Group1","condition":"3_Rep","full_date":"2026-02-02T18:20:18.969Z","date":"2026-02-02","time":"18:20:18"},{"task":"memory_phase","broad_category":"S","image_png":"S_Sandstone_16.png","image_id":464,"category_name":"Sandstone","category":29,"distinct_rating":1.93,"distinct_type":"Bottom","rt":null,"stimulus":"Stimuli_Rocks480/S_Sandstone_16.png","response":null,"trial_type":"image-keyboard-response","trial_index":150,"plugin_version":"2.1.0","time_elapsed":323609,"subject_id":"90916","group":"Group1","condition":"3_Rep","full_date":"2026-02-02T18:20:18.969Z","date":"2026-02-02","time":"18:20:18"},{"rt":null,"stimulus":"<p style=\"font-size: 50px; margin: 0; text-align: center;\">+</p>","response":null,"trial_type":"html-keyboard-response","trial_index":151,"plugin_version":"2.1.0","time_elapsed":324611,"subject_id":"90916","group":"Group1","condition":"3_Rep","full_date":"2026-02-02T18:20:18.969Z","date":"2026-02-02","time":"18:20:18"},{"task":"memory_phase","broad_category":"M","image_png":"M_Marble_06.png","image_id":230,"category_name":"Marble","category":15,"distinct_rating":3.4,"distinct_type":"Bottom","rt":null,"stimulus":"Stimuli_Rocks480/M_Marble_06.png","response":null,"trial_type":"image-keyboard-response","trial_index":152,"plugin_version":"2.1.0","time_elapsed":327115,"subject_id":"90916","group":"Group1","condition":"3_Rep","full_date":"2026-02-02T18:20:18.969Z","date":"2026-02-02","time":"18:20:18"},{"rt":null,"stimulus":"<p style=\"font-size: 50px; margin: 0; text-align: center;\">+</p>","response":null,"trial_type":"html-keyboard-response","trial_index":153,"plugin_version":"2.1.0","time_elapsed":328118,"subject_id":"90916","group":"Group1","condition":"3_Rep","full_date":"2026-02-02T18:20:18.969Z","date":"2026-02-02","time":"18:20:18"},{"task":"memory_phase","broad_category":"S","image_png":"S_Sandstone_03.png","image_id":451,"category_name":"Sandstone","category":29,"distinct_rating":1.86,"distinct_type":"Bottom","rt":null,"stimulus":"Stimuli_Rocks480/S_Sandstone_03.png","response":null,"trial_type":"image-keyboard-response","trial_index":154,"plugin_version":"2.1.0","time_elapsed":330621,"subject_id":"90916","group":"Group1","condition":"3_Rep","full_date":"2026-02-02T18:20:18.969Z","date":"2026-02-02","time":"18:20:18"},{"rt":null,"stimulus":"<p style=\"font-size: 50px; margin: 0; text-align: center;\">+</p>","response":null,"trial_type":"html-keyboard-response","trial_index":155,"plugin_version":"2.1.0","time_elapsed":331624,"subject_id":"90916","group":"Group1","condition":"3_Rep","full_date":"2026-02-02T18:20:18.969Z","date":"2026-02-02","time":"18:20:18"},{"task":"memory_phase","broad_category":"M","image_png":"M_Marble_04.png","image_id":228,"category_name":"Marble","category":15,"distinct_rating":3.15,"distinct_type":"Bottom","rt":null,"stimulus":"Stimuli_Rocks480/M_Marble_04.png","response":null,"trial_type":"image-keyboard-response","trial_index":156,"plugin_version":"2.1.0","time_elapsed":334128,"subject_id":"90916","group":"Group1","condition":"3_Rep","full_date":"2026-02-02T18:20:18.969Z","date":"2026-02-02","time":"18:20:18"},{"rt":1425,"stimulus":"<p style=\"max-width: 760px; margin: auto; font-size: 35px; line-height: 1.5;\">\n                Press SPACE to continue study phase\n              </p>","response":" ","trial_type":"html-keyboard-response","trial_index":157,"plugin_version":"2.1.0","time_elapsed":335554,"subject_id":"90916","group":"Group1","condition":"3_Rep","full_date":"2026-02-02T18:20:18.969Z","date":"2026-02-02","time":"18:20:18"},{"rt":null,"stimulus":"<p style=\"font-size: 50px; margin: 0; text-align: center;\">+</p>","response":null,"trial_type":"html-keyboard-response","trial_index":158,"plugin_version":"2.1.0","time_elapsed":336557,"subject_id":"90916","group":"Group1","condition":"3_Rep","full_date":"2026-02-02T18:20:18.969Z","date":"2026-02-02","time":"18:20:18"},{"task":"memory_phase","broad_category":"M","image_png":"M_Gneiss_13.png","image_id":205,"category_name":"Gneiss","category":13,"distinct_rating":3.26,"distinct_type":"Bottom","rt":null,"stimulus":"Stimuli_Rocks480/M_Gneiss_13.png","response":null,"trial_type":"image-keyboard-response","trial_index":159,"plugin_version":"2.1.0","time_elapsed":339060,"subject_id":"90916","group":"Group1","condition":"3_Rep","full_date":"2026-02-02T18:20:18.969Z","date":"2026-02-02","time":"18:20:18"},{"rt":null,"stimulus":"<p style=\"font-size: 50px; margin: 0; text-align: center;\">+</p>","response":null,"trial_type":"html-keyboard-response","trial_index":160,"plugin_version":"2.1.0","time_elapsed":340063,"subject_id":"90916","group":"Group1","condition":"3_Rep","full_date":"2026-02-02T18:20:18.969Z","date":"2026-02-02","time":"18:20:18"},{"task":"memory_phase","broad_category":"S","image_png":"S_Shale_12.png","image_id":476,"category_name":"Shale","category":30,"distinct_rating":2.48,"distinct_type":"Bottom","rt":null,"stimulus":"Stimuli_Rocks480/S_Shale_12.png","response":null,"trial_type":"image-keyboard-response","trial_index":161,"plugin_version":"2.1.0","time_elapsed":342566,"subject_id":"90916","group":"Group1","condition":"3_Rep","full_date":"2026-02-02T18:20:18.969Z","date":"2026-02-02","time":"18:20:18"},{"rt":null,"stimulus":"<p style=\"font-size: 50px; margin: 0; text-align: center;\">+</p>","response":null,"trial_type":"html-keyboard-response","trial_index":162,"plugin_version":"2.1.0","time_elapsed":343569,"subject_id":"90916","group":"Group1","condition":"3_Rep","full_date":"2026-02-02T18:20:18.969Z","date":"2026-02-02","time":"18:20:18"},{"task":"memory_phase","broad_category":"S","image_png":"S_Shale_08.png","image_id":472,"category_name":"Shale","category":30,"distinct_rating":2.55,"distinct_type":"Bottom","rt":null,"stimulus":"Stimuli_Rocks480/S_Shale_08.png","response":null,"trial_type":"image-keyboard-response","trial_index":163,"plugin_version":"2.1.0","time_elapsed":346072,"subject_id":"90916","group":"Group1","condition":"3_Rep","full_date":"2026-02-02T18:20:18.969Z","date":"2026-02-02","time":"18:20:18"},{"rt":null,"stimulus":"<p style=\"font-size: 50px; margin: 0; text-align: center;\">+</p>","response":null,"trial_type":"html-keyboard-response","trial_index":164,"plugin_version":"2.1.0","time_elapsed":347075,"subject_id":"90916","group":"Group1","condition":"3_Rep","full_date":"2026-02-02T18:20:18.969Z","date":"2026-02-02","time":"18:20:18"},{"task":"memory_phase","broad_category":"I","image_png":"I_Diorite_05.png","image_id":37,"category_name":"Diorite","category":3,"distinct_rating":3.08,"distinct_type":"Bottom","rt":null,"stimulus":"Stimuli_Rocks480/I_Diorite_05.png","response":null,"trial_type":"image-keyboard-response","trial_index":165,"plugin_version":"2.1.0","time_elapsed":349579,"subject_id":"90916","group":"Group1","condition":"3_Rep","full_date":"2026-02-02T18:20:18.969Z","date":"2026-02-02","time":"18:20:18"},{"rt":null,"stimulus":"<p style=\"font-size: 50px; margin: 0; text-align: center;\">+</p>","response":null,"trial_type":"html-keyboard-response","trial_index":166,"plugin_version":"2.1.0","time_elapsed":350582,"subject_id":"90916","group":"Group1","condition":"3_Rep","full_date":"2026-02-02T18:20:18.969Z","date":"2026-02-02","time":"18:20:18"},{"task":"memory_phase","broad_category":"M","image_png":"M_Phyllite_03.png","image_id":259,"category_name":"Phyllite","category":17,"distinct_rating":2.5,"distinct_type":"Bottom","rt":null,"stimulus":"Stimuli_Rocks480/M_Phyllite_03.png","response":null,"trial_type":"image-keyboard-response","trial_index":167,"plugin_version":"2.1.0","time_elapsed":353085,"subject_id":"90916","group":"Group1","condition":"3_Rep","full_date":"2026-02-02T18:20:18.969Z","date":"2026-02-02","time":"18:20:18"},{"rt":null,"stimulus":"<p style=\"font-size: 50px; margin: 0; text-align: center;\">+</p>","response":null,"trial_type":"html-keyboard-response","trial_index":168,"plugin_version":"2.1.0","time_elapsed":354088,"subject_id":"90916","group":"Group1","condition":"3_Rep","full_date":"2026-02-02T18:20:18.969Z","date":"2026-02-02","time":"18:20:18"},{"task":"memory_phase","broad_category":"I","image_png":"I_Obsidian_05.png","image_id":85,"category_name":"Obsidian","category":6,"distinct_rating":7.32,"distinct_type":"Top","rt":null,"stimulus":"Stimuli_Rocks480/I_Obsidian_05.png","response":null,"trial_type":"image-keyboard-response","trial_index":169,"plugin_version":"2.1.0","time_elapsed":356592,"subject_id":"90916","group":"Group1","condition":"3_Rep","full_date":"2026-02-02T18:20:18.969Z","date":"2026-02-02","time":"18:20:18"},{"rt":null,"stimulus":"<p style=\"font-size: 50px; margin: 0; text-align: center;\">+</p>","response":null,"trial_type":"html-keyboard-response","trial_index":170,"plugin_version":"2.1.0","time_elapsed":357594,"subject_id":"90916","group":"Group1","condition":"3_Rep","full_date":"2026-02-02T18:20:18.969Z","date":"2026-02-02","time":"18:20:18"},{"task":"memory_phase","broad_category":"I","image_png":"I_Basalt_01.png","image_id":17,"category_name":"Basalt","category":2,"distinct_rating":1.92,"distinct_type":"Bottom","rt":null,"stimulus":"Stimuli_Rocks480/I_Basalt_01.png","response":null,"trial_type":"image-keyboard-response","trial_index":171,"plugin_version":"2.1.0","time_elapsed":360098,"subject_id":"90916","group":"Group1","condition":"3_Rep","full_date":"2026-02-02T18:20:18.969Z","date":"2026-02-02","time":"18:20:18"},{"rt":null,"stimulus":"<p style=\"font-size: 50px; margin: 0; text-align: center;\">+</p>","response":null,"trial_type":"html-keyboard-response","trial_index":172,"plugin_version":"2.1.0","time_elapsed":361101,"subject_id":"90916","group":"Group1","condition":"3_Rep","full_date":"2026-02-02T18:20:18.969Z","date":"2026-02-02","time":"18:20:18"},{"task":"memory_phase","broad_category":"I","image_png":"I_Basalt_09.png","image_id":25,"category_name":"Basalt","category":2,"distinct_rating":1.89,"distinct_type":"Bottom","rt":null,"stimulus":"Stimuli_Rocks480/I_Basalt_09.png","response":null,"trial_type":"image-keyboard-response","trial_index":173,"plugin_version":"2.1.0","time_elapsed":363604,"subject_id":"90916","group":"Group1","condition":"3_Rep","full_date":"2026-02-02T18:20:18.969Z","date":"2026-02-02","time":"18:20:18"},{"rt":null,"stimulus":"<p style=\"font-size: 50px; margin: 0; text-align: center;\">+</p>","response":null,"trial_type":"html-keyboard-response","trial_index":174,"plugin_version":"2.1.0","time_elapsed":364607,"subject_id":"90916","group":"Group1","condition":"3_Rep","full_date":"2026-02-02T18:20:18.969Z","date":"2026-02-02","time":"18:20:18"},{"task":"memory_phase","broad_category":"S","image_png":"S_Sandstone_15.png","image_id":463,"category_name":"Sandstone","category":29,"distinct_rating":2,"distinct_type":"Bottom","rt":null,"stimulus":"Stimuli_Rocks480/S_Sandstone_15.png","response":null,"trial_type":"image-keyboard-response","trial_index":175,"plugin_version":"2.1.0","time_elapsed":367111,"subject_id":"90916","group":"Group1","condition":"3_Rep","full_date":"2026-02-02T18:20:18.969Z","date":"2026-02-02","time":"18:20:18"},{"rt":null,"stimulus":"<p style=\"font-size: 50px; margin: 0; text-align: center;\">+</p>","response":null,"trial_type":"html-keyboard-response","trial_index":176,"plugin_version":"2.1.0","time_elapsed":368114,"subject_id":"90916","group":"Group1","condition":"3_Rep","full_date":"2026-02-02T18:20:18.969Z","date":"2026-02-02","time":"18:20:18"},{"task":"memory_phase","broad_category":"M","image_png":"M_Quartzite_08.png","image_id":280,"category_name":"Quartzite","category":18,"distinct_rating":2.15,"distinct_type":"Bottom","rt":null,"stimulus":"Stimuli_Rocks480/M_Quartzite_08.png","response":null,"trial_type":"image-keyboard-response","trial_index":177,"plugin_version":"2.1.0","time_elapsed":370617,"subject_id":"90916","group":"Group1","condition":"3_Rep","full_date":"2026-02-02T18:20:18.969Z","date":"2026-02-02","time":"18:20:18"},{"rt":null,"stimulus":"<p style=\"font-size: 50px; margin: 0; text-align: center;\">+</p>","response":null,"trial_type":"html-keyboard-response","trial_index":178,"plugin_version":"2.1.0","time_elapsed":371620,"subject_id":"90916","group":"Group1","condition":"3_Rep","full_date":"2026-02-02T18:20:18.969Z","date":"2026-02-02","time":"18:20:18"},{"task":"memory_phase","broad_category":"S","image_png":"S_Dolomite_13.png","image_id":397,"category_name":"Dolomite","category":25,"distinct_rating":1.77,"distinct_type":"Bottom","rt":null,"stimulus":"Stimuli_Rocks480/S_Dolomite_13.png","response":null,"trial_type":"image-keyboard-response","trial_index":179,"plugin_version":"2.1.0","time_elapsed":374124,"subject_id":"90916","group":"Group1","condition":"3_Rep","full_date":"2026-02-02T18:20:18.969Z","date":"2026-02-02","time":"18:20:18"},{"rt":null,"stimulus":"<p style=\"font-size: 50px; margin: 0; text-align: center;\">+</p>","response":null,"trial_type":"html-keyboard-response","trial_index":180,"plugin_version":"2.1.0","time_elapsed":375126,"subject_id":"90916","group":"Group1","condition":"3_Rep","full_date":"2026-02-02T18:20:18.969Z","date":"2026-02-02","time":"18:20:18"},{"task":"memory_phase","broad_category":"S","image_png":"S_Shale_01.png","image_id":465,"category_name":"Shale","category":30,"distinct_rating":2.7,"distinct_type":"Bottom","rt":null,"stimulus":"Stimuli_Rocks480/S_Shale_01.png","response":null,"trial_type":"image-keyboard-response","trial_index":181,"plugin_version":"2.1.0","time_elapsed":377630,"subject_id":"90916","group":"Group1","condition":"3_Rep","full_date":"2026-02-02T18:20:18.969Z","date":"2026-02-02","time":"18:20:18"},{"rt":null,"stimulus":"<p style=\"font-size: 50px; margin: 0; text-align: center;\">+</p>","response":null,"trial_type":"html-keyboard-response","trial_index":182,"plugin_version":"2.1.0","time_elapsed":378632,"subject_id":"90916","group":"Group1","condition":"3_Rep","full_date":"2026-02-02T18:20:18.969Z","date":"2026-02-02","time":"18:20:18"},{"task":"memory_phase","broad_category":"S","image_png":"S_Conglomerate_05.png","image_id":373,"category_name":"Conglomerate","category":24,"distinct_rating":7.32,"distinct_type":"Top","rt":null,"stimulus":"Stimuli_Rocks480/S_Conglomerate_05.png","response":null,"trial_type":"image-keyboard-response","trial_index":183,"plugin_version":"2.1.0","time_elapsed":381136,"subject_id":"90916","group":"Group1","condition":"3_Rep","full_date":"2026-02-02T18:20:18.969Z","date":"2026-02-02","time":"18:20:18"},{"rt":null,"stimulus":"<p style=\"font-size: 50px; margin: 0; text-align: center;\">+</p>","response":null,"trial_type":"html-keyboard-response","trial_index":184,"plugin_version":"2.1.0","time_elapsed":382139,"subject_id":"90916","group":"Group1","condition":"3_Rep","full_date":"2026-02-02T18:20:18.969Z","date":"2026-02-02","time":"18:20:18"},{"task":"memory_phase","broad_category":"S","image_png":"S_Chert_10.png","image_id":362,"category_name":"Chert","category":23,"distinct_rating":7.17,"distinct_type":"Top","rt":null,"stimulus":"Stimuli_Rocks480/S_Chert_10.png","response":null,"trial_type":"image-keyboard-response","trial_index":185,"plugin_version":"2.1.0","time_elapsed":384642,"subject_id":"90916","group":"Group1","condition":"3_Rep","full_date":"2026-02-02T18:20:18.969Z","date":"2026-02-02","time":"18:20:18"},{"rt":null,"stimulus":"<p style=\"font-size: 50px; margin: 0; text-align: center;\">+</p>","response":null,"trial_type":"html-keyboard-response","trial_index":186,"plugin_version":"2.1.0","time_elapsed":385645,"subject_id":"90916","group":"Group1","condition":"3_Rep","full_date":"2026-02-02T18:20:18.969Z","date":"2026-02-02","time":"18:20:18"},{"task":"memory_phase","broad_category":"I","image_png":"I_Andesite_06.png","image_id":6,"category_name":"Andesite","category":1,"distinct_rating":3.17,"distinct_type":"Bottom","rt":null,"stimulus":"Stimuli_Rocks480/I_Andesite_06.png","response":null,"trial_type":"image-keyboard-response","trial_index":187,"plugin_version":"2.1.0","time_elapsed":388149,"subject_id":"90916","group":"Group1","condition":"3_Rep","full_date":"2026-02-02T18:20:18.969Z","date":"2026-02-02","time":"18:20:18"},{"rt":null,"stimulus":"<p style=\"font-size: 50px; margin: 0; text-align: center;\">+</p>","response":null,"trial_type":"html-keyboard-response","trial_index":188,"plugin_version":"2.1.0","time_elapsed":389151,"subject_id":"90916","group":"Group1","condition":"3_Rep","full_date":"2026-02-02T18:20:18.969Z","date":"2026-02-02","time":"18:20:18"},{"task":"memory_phase","broad_category":"I","image_png":"I_Basalt_02.png","image_id":18,"category_name":"Basalt","category":2,"distinct_rating":1.84,"distinct_type":"Bottom","rt":null,"stimulus":"Stimuli_Rocks480/I_Basalt_02.png","response":null,"trial_type":"image-keyboard-response","trial_index":189,"plugin_version":"2.1.0","time_elapsed":391654,"subject_id":"90916","group":"Group1","condition":"3_Rep","full_date":"2026-02-02T18:20:18.969Z","date":"2026-02-02","time":"18:20:18"},{"rt":null,"stimulus":"<p style=\"font-size: 50px; margin: 0; text-align: center;\">+</p>","response":null,"trial_type":"html-keyboard-response","trial_index":190,"plugin_version":"2.1.0","time_elapsed":392657,"subject_id":"90916","group":"Group1","condition":"3_Rep","full_date":"2026-02-02T18:20:18.969Z","date":"2026-02-02","time":"18:20:18"},{"task":"memory_phase","broad_category":"I","image_png":"I_Gabbro_08.png","image_id":56,"category_name":"Gabbro","category":4,"distinct_rating":3.02,"distinct_type":"Bottom","rt":null,"stimulus":"Stimuli_Rocks480/I_Gabbro_08.png","response":null,"trial_type":"image-keyboard-response","trial_index":191,"plugin_version":"2.1.0","time_elapsed":395160,"subject_id":"90916","group":"Group1","condition":"3_Rep","full_date":"2026-02-02T18:20:18.969Z","date":"2026-02-02","time":"18:20:18"},{"rt":null,"stimulus":"<p style=\"font-size: 50px; margin: 0; text-align: center;\">+</p>","response":null,"trial_type":"html-keyboard-response","trial_index":192,"plugin_version":"2.1.0","time_elapsed":396163,"subject_id":"90916","group":"Group1","condition":"3_Rep","full_date":"2026-02-02T18:20:18.969Z","date":"2026-02-02","time":"18:20:18"},{"task":"memory_phase","broad_category":"M","image_png":"M_Phyllite_07.png","image_id":263,"category_name":"Phyllite","category":17,"distinct_rating":2.59,"distinct_type":"Bottom","rt":null,"stimulus":"Stimuli_Rocks480/M_Phyllite_07.png","response":null,"trial_type":"image-keyboard-response","trial_index":193,"plugin_version":"2.1.0","time_elapsed":398667,"subject_id":"90916","group":"Group1","condition":"3_Rep","full_date":"2026-02-02T18:20:18.969Z","date":"2026-02-02","time":"18:20:18"},{"rt":null,"stimulus":"<p style=\"font-size: 50px; margin: 0; text-align: center;\">+</p>","response":null,"trial_type":"html-keyboard-response","trial_index":194,"plugin_version":"2.1.0","time_elapsed":399670,"subject_id":"90916","group":"Group1","condition":"3_Rep","full_date":"2026-02-02T18:20:18.969Z","date":"2026-02-02","time":"18:20:18"},{"task":"memory_phase","broad_category":"S","image_png":"S_Dolomite_12.png","image_id":396,"category_name":"Dolomite","category":25,"distinct_rating":1.85,"distinct_type":"Bottom","rt":null,"stimulus":"Stimuli_Rocks480/S_Dolomite_12.png","response":null,"trial_type":"image-keyboard-response","trial_index":195,"plugin_version":"2.1.0","time_elapsed":402174,"subject_id":"90916","group":"Group1","condition":"3_Rep","full_date":"2026-02-02T18:20:18.969Z","date":"2026-02-02","time":"18:20:18"},{"rt":null,"stimulus":"<p style=\"font-size: 50px; margin: 0; text-align: center;\">+</p>","response":null,"trial_type":"html-keyboard-response","trial_index":196,"plugin_version":"2.1.0","time_elapsed":403176,"subject_id":"90916","group":"Group1","condition":"3_Rep","full_date":"2026-02-02T18:20:18.969Z","date":"2026-02-02","time":"18:20:18"},{"task":"memory_phase","broad_category":"I","image_png":"I_Rhyolite_14.png","image_id":158,"category_name":"Rhyolite","category":10,"distinct_rating":2.59,"distinct_type":"Bottom","rt":null,"stimulus":"Stimuli_Rocks480/I_Rhyolite_14.png","response":null,"trial_type":"image-keyboard-response","trial_index":197,"plugin_version":"2.1.0","time_elapsed":405680,"subject_id":"90916","group":"Group1","condition":"3_Rep","full_date":"2026-02-02T18:20:18.969Z","date":"2026-02-02","time":"18:20:18"},{"rt":null,"stimulus":"<p style=\"font-size: 50px; margin: 0; text-align: center;\">+</p>","response":null,"trial_type":"html-keyboard-response","trial_index":198,"plugin_version":"2.1.0","time_elapsed":406682,"subject_id":"90916","group":"Group1","condition":"3_Rep","full_date":"2026-02-02T18:20:18.969Z","date":"2026-02-02","time":"18:20:18"},{"task":"memory_phase","broad_category":"I","image_png":"I_Andesite_08.png","image_id":8,"category_name":"Andesite","category":1,"distinct_rating":1.95,"distinct_type":"Bottom","rt":null,"stimulus":"Stimuli_Rocks480/I_Andesite_08.png","response":null,"trial_type":"image-keyboard-response","trial_index":199,"plugin_version":"2.1.0","time_elapsed":409185,"subject_id":"90916","group":"Group1","condition":"3_Rep","full_date":"2026-02-02T18:20:18.969Z","date":"2026-02-02","time":"18:20:18"},{"rt":null,"stimulus":"<p style=\"font-size: 50px; margin: 0; text-align: center;\">+</p>","response":null,"trial_type":"html-keyboard-response","trial_index":200,"plugin_version":"2.1.0","time_elapsed":410188,"subject_id":"90916","group":"Group1","condition":"3_Rep","full_date":"2026-02-02T18:20:18.969Z","date":"2026-02-02","time":"18:20:18"},{"task":"memory_phase","broad_category":"S","image_png":"S_Breccia_11.png","image_id":347,"category_name":"Breccia","category":22,"distinct_rating":6.7,"distinct_type":"Top","rt":null,"stimulus":"Stimuli_Rocks480/S_Breccia_11.png","response":null,"trial_type":"image-keyboard-response","trial_index":201,"plugin_version":"2.1.0","time_elapsed":412692,"subject_id":"90916","group":"Group1","condition":"3_Rep","full_date":"2026-02-02T18:20:18.969Z","date":"2026-02-02","time":"18:20:18"},{"rt":null,"stimulus":"<p style=\"font-size: 50px; margin: 0; text-align: center;\">+</p>","response":null,"trial_type":"html-keyboard-response","trial_index":202,"plugin_version":"2.1.0","time_elapsed":413695,"subject_id":"90916","group":"Group1","condition":"3_Rep","full_date":"2026-02-02T18:20:18.969Z","date":"2026-02-02","time":"18:20:18"},{"task":"memory_phase","broad_category":"S","image_png":"S_Dolomite_14.png","image_id":398,"category_name":"Dolomite","category":25,"distinct_rating":1.43,"distinct_type":"Bottom","rt":null,"stimulus":"Stimuli_Rocks480/S_Dolomite_14.png","response":null,"trial_type":"image-keyboard-response","trial_index":203,"plugin_version":"2.1.0","time_elapsed":416199,"subject_id":"90916","group":"Group1","condition":"3_Rep","full_date":"2026-02-02T18:20:18.969Z","date":"2026-02-02","time":"18:20:18"},{"rt":null,"stimulus":"<p style=\"font-size: 50px; margin: 0; text-align: center;\">+</p>","response":null,"trial_type":"html-keyboard-response","trial_index":204,"plugin_version":"2.1.0","time_elapsed":417201,"subject_id":"90916","group":"Group1","condition":"3_Rep","full_date":"2026-02-02T18:20:18.969Z","date":"2026-02-02","time":"18:20:18"},{"task":"memory_phase","broad_category":"I","image_png":"I_Gabbro_16.png","image_id":64,"category_name":"Gabbro","category":4,"distinct_rating":2.52,"distinct_type":"Bottom","rt":null,"stimulus":"Stimuli_Rocks480/I_Gabbro_16.png","response":null,"trial_type":"image-keyboard-response","trial_index":205,"plugin_version":"2.1.0","time_elapsed":419705,"subject_id":"90916","group":"Group1","condition":"3_Rep","full_date":"2026-02-02T18:20:18.969Z","date":"2026-02-02","time":"18:20:18"},{"rt":null,"stimulus":"<p style=\"font-size: 50px; margin: 0; text-align: center;\">+</p>","response":null,"trial_type":"html-keyboard-response","trial_index":206,"plugin_version":"2.1.0","time_elapsed":420707,"subject_id":"90916","group":"Group1","condition":"3_Rep","full_date":"2026-02-02T18:20:18.969Z","date":"2026-02-02","time":"18:20:18"},{"task":"memory_phase","broad_category":"I","image_png":"I_Rhyolite_16.png","image_id":160,"category_name":"Rhyolite","category":10,"distinct_rating":2.19,"distinct_type":"Bottom","rt":null,"stimulus":"Stimuli_Rocks480/I_Rhyolite_16.png","response":null,"trial_type":"image-keyboard-response","trial_index":207,"plugin_version":"2.1.0","time_elapsed":423211,"subject_id":"90916","group":"Group1","condition":"3_Rep","full_date":"2026-02-02T18:20:18.969Z","date":"2026-02-02","time":"18:20:18"},{"rt":2979,"stimulus":"<p style=\"max-width: 760px; margin: auto; font-size: 35px; line-height: 1.5;\">\n                You have completed 2 study phases. \n                Now, we'll show you all the images again 1 more time.\n                <br><br>Press SPACE to continue\n              </p>","response":" ","trial_type":"html-keyboard-response","trial_index":208,"plugin_version":"2.1.0","time_elapsed":426191,"subject_id":"90916","group":"Group1","condition":"3_Rep","full_date":"2026-02-02T18:20:18.969Z","date":"2026-02-02","time":"18:20:18"},{"rt":null,"stimulus":"<p style=\"font-size: 50px; margin: 0; text-align: center;\">+</p>","response":null,"trial_type":"html-keyboard-response","trial_index":209,"plugin_version":"2.1.0","time_elapsed":427194,"subject_id":"90916","group":"Group1","condition":"3_Rep","full_date":"2026-02-02T18:20:18.969Z","date":"2026-02-02","time":"18:20:18"},{"task":"memory_phase","broad_category":"I","image_png":"I_Andesite_08.png","image_id":8,"category_name":"Andesite","category":1,"distinct_rating":1.95,"distinct_type":"Bottom","rt":null,"stimulus":"Stimuli_Rocks480/I_Andesite_08.png","response":null,"trial_type":"image-keyboard-response","trial_index":210,"plugin_version":"2.1.0","time_elapsed":429698,"subject_id":"90916","group":"Group1","condition":"3_Rep","full_date":"2026-02-02T18:20:18.969Z","date":"2026-02-02","time":"18:20:18"},{"rt":null,"stimulus":"<p style=\"font-size: 50px; margin: 0; text-align: center;\">+</p>","response":null,"trial_type":"html-keyboard-response","trial_index":211,"plugin_version":"2.1.0","time_elapsed":430702,"subject_id":"90916","group":"Group1","condition":"3_Rep","full_date":"2026-02-02T18:20:18.969Z","date":"2026-02-02","time":"18:20:18"},{"task":"memory_phase","broad_category":"I","image_png":"I_Rhyolite_11.png","image_id":155,"category_name":"Rhyolite","category":10,"distinct_rating":1.73,"distinct_type":"Bottom","rt":null,"stimulus":"Stimuli_Rocks480/I_Rhyolite_11.png","response":null,"trial_type":"image-keyboard-response","trial_index":212,"plugin_version":"2.1.0","time_elapsed":433206,"subject_id":"90916","group":"Group1","condition":"3_Rep","full_date":"2026-02-02T18:20:18.969Z","date":"2026-02-02","time":"18:20:18"},{"rt":null,"stimulus":"<p style=\"font-size: 50px; margin: 0; text-align: center;\">+</p>","response":null,"trial_type":"html-keyboard-response","trial_index":213,"plugin_version":"2.1.0","time_elapsed":434208,"subject_id":"90916","group":"Group1","condition":"3_Rep","full_date":"2026-02-02T18:20:18.969Z","date":"2026-02-02","time":"18:20:18"},{"task":"memory_phase","broad_category":"S","image_png":"S_Chert_10.png","image_id":362,"category_name":"Chert","category":23,"distinct_rating":7.17,"distinct_type":"Top","rt":null,"stimulus":"Stimuli_Rocks480/S_Chert_10.png","response":null,"trial_type":"image-keyboard-response","trial_index":214,"plugin_version":"2.1.0","time_elapsed":436711,"subject_id":"90916","group":"Group1","condition":"3_Rep","full_date":"2026-02-02T18:20:18.969Z","date":"2026-02-02","time":"18:20:18"},{"rt":null,"stimulus":"<p style=\"font-size: 50px; margin: 0; text-align: center;\">+</p>","response":null,"trial_type":"html-keyboard-response","trial_index":215,"plugin_version":"2.1.0","time_elapsed":437714,"subject_id":"90916","group":"Group1","condition":"3_Rep","full_date":"2026-02-02T18:20:18.969Z","date":"2026-02-02","time":"18:20:18"},{"task":"memory_phase","broad_category":"M","image_png":"M_Marble_06.png","image_id":230,"category_name":"Marble","category":15,"distinct_rating":3.4,"distinct_type":"Bottom","rt":null,"stimulus":"Stimuli_Rocks480/M_Marble_06.png","response":null,"trial_type":"image-keyboard-response","trial_index":216,"plugin_version":"2.1.0","time_elapsed":440217,"subject_id":"90916","group":"Group1","condition":"3_Rep","full_date":"2026-02-02T18:20:18.969Z","date":"2026-02-02","time":"18:20:18"},{"rt":null,"stimulus":"<p style=\"font-size: 50px; margin: 0; text-align: center;\">+</p>","response":null,"trial_type":"html-keyboard-response","trial_index":217,"plugin_version":"2.1.0","time_elapsed":441220,"subject_id":"90916","group":"Group1","condition":"3_Rep","full_date":"2026-02-02T18:20:18.969Z","date":"2026-02-02","time":"18:20:18"},{"task":"memory_phase","broad_category":"M","image_png":"M_Slate_11.png","image_id":315,"category_name":"Slate","category":20,"distinct_rating":2.75,"distinct_type":"Bottom","rt":null,"stimulus":"Stimuli_Rocks480/M_Slate_11.png","response":null,"trial_type":"image-keyboard-response","trial_index":218,"plugin_version":"2.1.0","time_elapsed":443724,"subject_id":"90916","group":"Group1","condition":"3_Rep","full_date":"2026-02-02T18:20:18.969Z","date":"2026-02-02","time":"18:20:18"},{"rt":null,"stimulus":"<p style=\"font-size: 50px; margin: 0; text-align: center;\">+</p>","response":null,"trial_type":"html-keyboard-response","trial_index":219,"plugin_version":"2.1.0","time_elapsed":444727,"subject_id":"90916","group":"Group1","condition":"3_Rep","full_date":"2026-02-02T18:20:18.969Z","date":"2026-02-02","time":"18:20:18"},{"task":"memory_phase","broad_category":"M","image_png":"M_Marble_04.png","image_id":228,"category_name":"Marble","category":15,"distinct_rating":3.15,"distinct_type":"Bottom","rt":null,"stimulus":"Stimuli_Rocks480/M_Marble_04.png","response":null,"trial_type":"image-keyboard-response","trial_index":220,"plugin_version":"2.1.0","time_elapsed":447231,"subject_id":"90916","group":"Group1","condition":"3_Rep","full_date":"2026-02-02T18:20:18.969Z","date":"2026-02-02","time":"18:20:18"},{"rt":null,"stimulus":"<p style=\"font-size: 50px; margin: 0; text-align: center;\">+</p>","response":null,"trial_type":"html-keyboard-response","trial_index":221,"plugin_version":"2.1.0","time_elapsed":448234,"subject_id":"90916","group":"Group1","condition":"3_Rep","full_date":"2026-02-02T18:20:18.969Z","date":"2026-02-02","time":"18:20:18"},{"task":"memory_phase","broad_category":"M","image_png":"M_Quartzite_08.png","image_id":280,"category_name":"Quartzite","category":18,"distinct_rating":2.15,"distinct_type":"Bottom","rt":null,"stimulus":"Stimuli_Rocks480/M_Quartzite_08.png","response":null,"trial_type":"image-keyboard-response","trial_index":222,"plugin_version":"2.1.0","time_elapsed":450737,"subject_id":"90916","group":"Group1","condition":"3_Rep","full_date":"2026-02-02T18:20:18.969Z","date":"2026-02-02","time":"18:20:18"},{"rt":null,"stimulus":"<p style=\"font-size: 50px; margin: 0; text-align: center;\">+</p>","response":null,"trial_type":"html-keyboard-response","trial_index":223,"plugin_version":"2.1.0","time_elapsed":451739,"subject_id":"90916","group":"Group1","condition":"3_Rep","full_date":"2026-02-02T18:20:18.969Z","date":"2026-02-02","time":"18:20:18"},{"task":"memory_phase","broad_category":"M","image_png":"M_Gneiss_06.png","image_id":198,"category_name":"Gneiss","category":13,"distinct_rating":2.65,"distinct_type":"Bottom","rt":null,"stimulus":"Stimuli_Rocks480/M_Gneiss_06.png","response":null,"trial_type":"image-keyboard-response","trial_index":224,"plugin_version":"2.1.0","time_elapsed":454242,"subject_id":"90916","group":"Group1","condition":"3_Rep","full_date":"2026-02-02T18:20:18.969Z","date":"2026-02-02","time":"18:20:18"},{"rt":null,"stimulus":"<p style=\"font-size: 50px; margin: 0; text-align: center;\">+</p>","response":null,"trial_type":"html-keyboard-response","trial_index":225,"plugin_version":"2.1.0","time_elapsed":455246,"subject_id":"90916","group":"Group1","condition":"3_Rep","full_date":"2026-02-02T18:20:18.969Z","date":"2026-02-02","time":"18:20:18"},{"task":"memory_phase","broad_category":"I","image_png":"I_Pegmatite_16.png","image_id":112,"category_name":"Pegmatite","category":7,"distinct_rating":7.03,"distinct_type":"Top","rt":null,"stimulus":"Stimuli_Rocks480/I_Pegmatite_16.png","response":null,"trial_type":"image-keyboard-response","trial_index":226,"plugin_version":"2.1.0","time_elapsed":457749,"subject_id":"90916","group":"Group1","condition":"3_Rep","full_date":"2026-02-02T18:20:18.969Z","date":"2026-02-02","time":"18:20:18"},{"rt":null,"stimulus":"<p style=\"font-size: 50px; margin: 0; text-align: center;\">+</p>","response":null,"trial_type":"html-keyboard-response","trial_index":227,"plugin_version":"2.1.0","time_elapsed":458752,"subject_id":"90916","group":"Group1","condition":"3_Rep","full_date":"2026-02-02T18:20:18.969Z","date":"2026-02-02","time":"18:20:18"},{"task":"memory_phase","broad_category":"I","image_png":"I_Diorite_03.png","image_id":35,"category_name":"Diorite","category":3,"distinct_rating":3.14,"distinct_type":"Bottom","rt":null,"stimulus":"Stimuli_Rocks480/I_Diorite_03.png","response":null,"trial_type":"image-keyboard-response","trial_index":228,"plugin_version":"2.1.0","time_elapsed":461255,"subject_id":"90916","group":"Group1","condition":"3_Rep","full_date":"2026-02-02T18:20:18.969Z","date":"2026-02-02","time":"18:20:18"},{"rt":null,"stimulus":"<p style=\"font-size: 50px; margin: 0; text-align: center;\">+</p>","response":null,"trial_type":"html-keyboard-response","trial_index":229,"plugin_version":"2.1.0","time_elapsed":462258,"subject_id":"90916","group":"Group1","condition":"3_Rep","full_date":"2026-02-02T18:20:18.969Z","date":"2026-02-02","time":"18:20:18"},{"task":"memory_phase","broad_category":"M","image_png":"M_Phyllite_10.png","image_id":266,"category_name":"Phyllite","category":17,"distinct_rating":2.6,"distinct_type":"Bottom","rt":null,"stimulus":"Stimuli_Rocks480/M_Phyllite_10.png","response":null,"trial_type":"image-keyboard-response","trial_index":230,"plugin_version":"2.1.0","time_elapsed":464762,"subject_id":"90916","group":"Group1","condition":"3_Rep","full_date":"2026-02-02T18:20:18.969Z","date":"2026-02-02","time":"18:20:18"},{"rt":null,"stimulus":"<p style=\"font-size: 50px; margin: 0; text-align: center;\">+</p>","response":null,"trial_type":"html-keyboard-response","trial_index":231,"plugin_version":"2.1.0","time_elapsed":465765,"subject_id":"90916","group":"Group1","condition":"3_Rep","full_date":"2026-02-02T18:20:18.969Z","date":"2026-02-02","time":"18:20:18"},{"task":"memory_phase","broad_category":"I","image_png":"I_Rhyolite_14.png","image_id":158,"category_name":"Rhyolite","category":10,"distinct_rating":2.59,"distinct_type":"Bottom","rt":null,"stimulus":"Stimuli_Rocks480/I_Rhyolite_14.png","response":null,"trial_type":"image-keyboard-response","trial_index":232,"plugin_version":"2.1.0","time_elapsed":468269,"subject_id":"90916","group":"Group1","condition":"3_Rep","full_date":"2026-02-02T18:20:18.969Z","date":"2026-02-02","time":"18:20:18"},{"rt":null,"stimulus":"<p style=\"font-size: 50px; margin: 0; text-align: center;\">+</p>","response":null,"trial_type":"html-keyboard-response","trial_index":233,"plugin_version":"2.1.0","time_elapsed":469272,"subject_id":"90916","group":"Group1","condition":"3_Rep","full_date":"2026-02-02T18:20:18.969Z","date":"2026-02-02","time":"18:20:18"},{"task":"memory_phase","broad_category":"M","image_png":"M_Phyllite_03.png","image_id":259,"category_name":"Phyllite","category":17,"distinct_rating":2.5,"distinct_type":"Bottom","rt":null,"stimulus":"Stimuli_Rocks480/M_Phyllite_03.png","response":null,"trial_type":"image-keyboard-response","trial_index":234,"plugin_version":"2.1.0","time_elapsed":471776,"subject_id":"90916","group":"Group1","condition":"3_Rep","full_date":"2026-02-02T18:20:18.969Z","date":"2026-02-02","time":"18:20:18"},{"rt":null,"stimulus":"<p style=\"font-size: 50px; margin: 0; text-align: center;\">+</p>","response":null,"trial_type":"html-keyboard-response","trial_index":235,"plugin_version":"2.1.0","time_elapsed":472779,"subject_id":"90916","group":"Group1","condition":"3_Rep","full_date":"2026-02-02T18:20:18.969Z","date":"2026-02-02","time":"18:20:18"},{"task":"memory_phase","broad_category":"I","image_png":"I_Diorite_04.png","image_id":36,"category_name":"Diorite","category":3,"distinct_rating":2.98,"distinct_type":"Bottom","rt":null,"stimulus":"Stimuli_Rocks480/I_