[{"width":2560,"height":1305,"webaudio":true,"browser":"chrome","browser_version":"145.0.0","mobile":false,"os":"Windows 10","fullscreen":true,"vsync_rate":137.71,"webcam":true,"microphone":true,"trial_type":"browser-check","trial_index":0,"plugin_version":"2.1.0","time_elapsed":445,"subject_id":"91454","group":"Group2","condition":"1_Rep","full_date":"2026-02-28T17:57:57.122Z","date":"2026-02-28","time":"17:57:57"},{"success":true,"timeout":false,"failed_images":[],"failed_audio":[],"failed_video":[],"trial_type":"preload","trial_index":1,"plugin_version":"2.1.0","time_elapsed":1255,"subject_id":"91454","group":"Group2","condition":"1_Rep","full_date":"2026-02-28T17:57:57.122Z","date":"2026-02-28","time":"17:57:57"},{"rt":40985,"url":"SONA_consent_memorability.html","trial_type":"external-html","trial_index":2,"plugin_version":"2.1.0","time_elapsed":42284,"subject_id":"91454","group":"Group2","condition":"1_Rep","full_date":"2026-02-28T17:57:57.122Z","date":"2026-02-28","time":"17:57:57"},{"success":true,"rt":8231,"trial_type":"fullscreen","trial_index":3,"plugin_version":"2.1.0","time_elapsed":51531,"subject_id":"91454","group":"Group2","condition":"1_Rep","full_date":"2026-02-28T17:57:57.122Z","date":"2026-02-28","time":"17:57:57"},{"rt":55790,"stimulus":"<div style=\"max-width: 760px; margin: auto; font-size: 20px; line-height: 1.5;\">\n      <h1 style=\"text-align:center; font-size: 30px;\">Instructions</h1>\n      <p>\n        Welcome to the study on <b>visual memory</b>. This experiment consists of <b>two phases</b>: \n        a <b>study phase</b> and a <b>test phase</b>.\n      </p>\n      <p>\n        In the study phase, you will see a series of rock images along with their category labels.\n        The images will appear one at a time.\n        <b>Your task</b> is to learn the categories to which the rock images belong \n        and to remember each image as accurately as possible.\n      </p> \n      <p>\n        Note that you will see each image only <b>once</b> during the study phase. \n          So, please pay close attention and try to remember each image carefully.\n      </p>\n      <p>\n        After the study phase, <b>your memory will be tested</b>. \n        Additional instructions for the test phase will be provided at that time.\n      </p>\n      <p>\n        If your computer has multiple <b>language settings</b> (e.g., English and another language),\n        please make sure it is set to English before starting.\n      </p>\n      <p>\n        You can track your progress using the <b>completion bar</b> at the top of the screen. \n        Please note that the bar will refresh when the test phase begins \n        to give you an accurate sense of your progress in both phases.\n      </p> \n      <p>\n        Press the button below when you are ready to begin.\n      </p>\n    </div>","response":0,"trial_type":"html-button-response","trial_index":4,"plugin_version":"2.1.0","time_elapsed":107323,"subject_id":"91454","group":"Group2","condition":"1_Rep","full_date":"2026-02-28T17:57:57.122Z","date":"2026-02-28","time":"17:57:57"},{"rt":null,"stimulus":"<p style=\"font-size: 50px; margin: 0; text-align: center;\">+</p>","response":null,"trial_type":"html-keyboard-response","trial_index":5,"plugin_version":"2.1.0","time_elapsed":108329,"subject_id":"91454","group":"Group2","condition":"1_Rep","full_date":"2026-02-28T17:57:57.122Z","date":"2026-02-28","time":"17:57:57"},{"task":"memory_phase","broad_category":"S","image_png":"S_Sandstone_11.png","image_id":459,"category_name":"Sandstone","category":29,"distinct_rating":1.82,"distinct_type":"Bottom","rt":null,"stimulus":"Stimuli_Rocks480/S_Sandstone_11.png","response":null,"trial_type":"image-keyboard-response","trial_index":6,"plugin_version":"2.1.0","time_elapsed":110844,"subject_id":"91454","group":"Group2","condition":"1_Rep","full_date":"2026-02-28T17:57:57.122Z","date":"2026-02-28","time":"17:57:57"},{"rt":null,"stimulus":"<p style=\"font-size: 50px; margin: 0; text-align: center;\">+</p>","response":null,"trial_type":"html-keyboard-response","trial_index":7,"plugin_version":"2.1.0","time_elapsed":111858,"subject_id":"91454","group":"Group2","condition":"1_Rep","full_date":"2026-02-28T17:57:57.122Z","date":"2026-02-28","time":"17:57:57"},{"task":"memory_phase","broad_category":"M","image_png":"M_Quartzite_12.png","image_id":284,"category_name":"Quartzite","category":18,"distinct_rating":1.92,"distinct_type":"Bottom","rt":null,"stimulus":"Stimuli_Rocks480/M_Quartzite_12.png","response":null,"trial_type":"image-keyboard-response","trial_index":8,"plugin_version":"2.1.0","time_elapsed":114375,"subject_id":"91454","group":"Group2","condition":"1_Rep","full_date":"2026-02-28T17:57:57.122Z","date":"2026-02-28","time":"17:57:57"},{"rt":null,"stimulus":"<p style=\"font-size: 50px; margin: 0; text-align: center;\">+</p>","response":null,"trial_type":"html-keyboard-response","trial_index":9,"plugin_version":"2.1.0","time_elapsed":115387,"subject_id":"91454","group":"Group2","condition":"1_Rep","full_date":"2026-02-28T17:57:57.122Z","date":"2026-02-28","time":"17:57:57"},{"task":"memory_phase","broad_category":"M","image_png":"M_Slate_10.png","image_id":314,"category_name":"Slate","category":20,"distinct_rating":1.94,"distinct_type":"Bottom","rt":null,"stimulus":"Stimuli_Rocks480/M_Slate_10.png","response":null,"trial_type":"image-keyboard-response","trial_index":10,"plugin_version":"2.1.0","time_elapsed":117900,"subject_id":"91454","group":"Group2","condition":"1_Rep","full_date":"2026-02-28T17:57:57.122Z","date":"2026-02-28","time":"17:57:57"},{"rt":null,"stimulus":"<p style=\"font-size: 50px; margin: 0; text-align: center;\">+</p>","response":null,"trial_type":"html-keyboard-response","trial_index":11,"plugin_version":"2.1.0","time_elapsed":118917,"subject_id":"91454","group":"Group2","condition":"1_Rep","full_date":"2026-02-28T17:57:57.122Z","date":"2026-02-28","time":"17:57:57"},{"task":"memory_phase","broad_category":"M","image_png":"M_Phyllite_13.png","image_id":269,"category_name":"Phyllite","category":17,"distinct_rating":2.8,"distinct_type":"Bottom","rt":null,"stimulus":"Stimuli_Rocks480/M_Phyllite_13.png","response":null,"trial_type":"image-keyboard-response","trial_index":12,"plugin_version":"2.1.0","time_elapsed":121429,"subject_id":"91454","group":"Group2","condition":"1_Rep","full_date":"2026-02-28T17:57:57.122Z","date":"2026-02-28","time":"17:57:57"},{"rt":null,"stimulus":"<p style=\"font-size: 50px; margin: 0; text-align: center;\">+</p>","response":null,"trial_type":"html-keyboard-response","trial_index":13,"plugin_version":"2.1.0","time_elapsed":122444,"subject_id":"91454","group":"Group2","condition":"1_Rep","full_date":"2026-02-28T17:57:57.122Z","date":"2026-02-28","time":"17:57:57"},{"task":"memory_phase","broad_category":"M","image_png":"M_Quartzite_15.png","image_id":287,"category_name":"Quartzite","category":18,"distinct_rating":2.19,"distinct_type":"Bottom","rt":null,"stimulus":"Stimuli_Rocks480/M_Quartzite_15.png","response":null,"trial_type":"image-keyboard-response","trial_index":14,"plugin_version":"2.1.0","time_elapsed":124955,"subject_id":"91454","group":"Group2","condition":"1_Rep","full_date":"2026-02-28T17:57:57.122Z","date":"2026-02-28","time":"17:57:57"},{"rt":null,"stimulus":"<p style=\"font-size: 50px; margin: 0; text-align: center;\">+</p>","response":null,"trial_type":"html-keyboard-response","trial_index":15,"plugin_version":"2.1.0","time_elapsed":125967,"subject_id":"91454","group":"Group2","condition":"1_Rep","full_date":"2026-02-28T17:57:57.122Z","date":"2026-02-28","time":"17:57:57"},{"task":"memory_phase","broad_category":"S","image_png":"S_Sandstone_08.png","image_id":456,"category_name":"Sandstone","category":29,"distinct_rating":1.5,"distinct_type":"Bottom","rt":null,"stimulus":"Stimuli_Rocks480/S_Sandstone_08.png","response":null,"trial_type":"image-keyboard-response","trial_index":16,"plugin_version":"2.1.0","time_elapsed":128476,"subject_id":"91454","group":"Group2","condition":"1_Rep","full_date":"2026-02-28T17:57:57.122Z","date":"2026-02-28","time":"17:57:57"},{"rt":null,"stimulus":"<p style=\"font-size: 50px; margin: 0; text-align: center;\">+</p>","response":null,"trial_type":"html-keyboard-response","trial_index":17,"plugin_version":"2.1.0","time_elapsed":129478,"subject_id":"91454","group":"Group2","condition":"1_Rep","full_date":"2026-02-28T17:57:57.122Z","date":"2026-02-28","time":"17:57:57"},{"task":"memory_phase","broad_category":"I","image_png":"I_Pumice_13.png","image_id":141,"category_name":"Pumice","category":9,"distinct_rating":3.12,"distinct_type":"Bottom","rt":null,"stimulus":"Stimuli_Rocks480/I_Pumice_13.png","response":null,"trial_type":"image-keyboard-response","trial_index":18,"plugin_version":"2.1.0","time_elapsed":131989,"subject_id":"91454","group":"Group2","condition":"1_Rep","full_date":"2026-02-28T17:57:57.122Z","date":"2026-02-28","time":"17:57:57"},{"rt":null,"stimulus":"<p style=\"font-size: 50px; margin: 0; text-align: center;\">+</p>","response":null,"trial_type":"html-keyboard-response","trial_index":19,"plugin_version":"2.1.0","time_elapsed":133005,"subject_id":"91454","group":"Group2","condition":"1_Rep","full_date":"2026-02-28T17:57:57.122Z","date":"2026-02-28","time":"17:57:57"},{"task":"memory_phase","broad_category":"I","image_png":"I_Diorite_15.png","image_id":47,"category_name":"Diorite","category":3,"distinct_rating":3.05,"distinct_type":"Bottom","rt":null,"stimulus":"Stimuli_Rocks480/I_Diorite_15.png","response":null,"trial_type":"image-keyboard-response","trial_index":20,"plugin_version":"2.1.0","time_elapsed":135517,"subject_id":"91454","group":"Group2","condition":"1_Rep","full_date":"2026-02-28T17:57:57.122Z","date":"2026-02-28","time":"17:57:57"},{"rt":null,"stimulus":"<p style=\"font-size: 50px; margin: 0; text-align: center;\">+</p>","response":null,"trial_type":"html-keyboard-response","trial_index":21,"plugin_version":"2.1.0","time_elapsed":136533,"subject_id":"91454","group":"Group2","condition":"1_Rep","full_date":"2026-02-28T17:57:57.122Z","date":"2026-02-28","time":"17:57:57"},{"task":"memory_phase","broad_category":"I","image_png":"I_Pegmatite_11.png","image_id":107,"category_name":"Pegmatite","category":7,"distinct_rating":7.11,"distinct_type":"Top","rt":null,"stimulus":"Stimuli_Rocks480/I_Pegmatite_11.png","response":null,"trial_type":"image-keyboard-response","trial_index":22,"plugin_version":"2.1.0","time_elapsed":139038,"subject_id":"91454","group":"Group2","condition":"1_Rep","full_date":"2026-02-28T17:57:57.122Z","date":"2026-02-28","time":"17:57:57"},{"rt":null,"stimulus":"<p style=\"font-size: 50px; margin: 0; text-align: center;\">+</p>","response":null,"trial_type":"html-keyboard-response","trial_index":23,"plugin_version":"2.1.0","time_elapsed":140041,"subject_id":"91454","group":"Group2","condition":"1_Rep","full_date":"2026-02-28T17:57:57.122Z","date":"2026-02-28","time":"17:57:57"},{"task":"memory_phase","broad_category":"S","image_png":"S_Rock Salt_15.png","image_id":447,"category_name":"Rock Salt","category":28,"distinct_rating":7.79,"distinct_type":"Top","rt":null,"stimulus":"Stimuli_Rocks480/S_Rock Salt_15.png","response":null,"trial_type":"image-keyboard-response","trial_index":24,"plugin_version":"2.1.0","time_elapsed":142559,"subject_id":"91454","group":"Group2","condition":"1_Rep","full_date":"2026-02-28T17:57:57.122Z","date":"2026-02-28","time":"17:57:57"},{"rt":null,"stimulus":"<p style=\"font-size: 50px; margin: 0; text-align: center;\">+</p>","response":null,"trial_type":"html-keyboard-response","trial_index":25,"plugin_version":"2.1.0","time_elapsed":143573,"subject_id":"91454","group":"Group2","condition":"1_Rep","full_date":"2026-02-28T17:57:57.122Z","date":"2026-02-28","time":"17:57:57"},{"task":"memory_phase","broad_category":"I","image_png":"I_Rhyolite_05.png","image_id":149,"category_name":"Rhyolite","category":10,"distinct_rating":3.02,"distinct_type":"Bottom","rt":null,"stimulus":"Stimuli_Rocks480/I_Rhyolite_05.png","response":null,"trial_type":"image-keyboard-response","trial_index":26,"plugin_version":"2.1.0","time_elapsed":146085,"subject_id":"91454","group":"Group2","condition":"1_Rep","full_date":"2026-02-28T17:57:57.122Z","date":"2026-02-28","time":"17:57:57"},{"rt":null,"stimulus":"<p style=\"font-size: 50px; margin: 0; text-align: center;\">+</p>","response":null,"trial_type":"html-keyboard-response","trial_index":27,"plugin_version":"2.1.0","time_elapsed":147100,"subject_id":"91454","group":"Group2","condition":"1_Rep","full_date":"2026-02-28T17:57:57.122Z","date":"2026-02-28","time":"17:57:57"},{"task":"memory_phase","broad_category":"I","image_png":"I_Gabbro_14.png","image_id":62,"category_name":"Gabbro","category":4,"distinct_rating":2.95,"distinct_type":"Bottom","rt":null,"stimulus":"Stimuli_Rocks480/I_Gabbro_14.png","response":null,"trial_type":"image-keyboard-response","trial_index":28,"plugin_version":"2.1.0","time_elapsed":149609,"subject_id":"91454","group":"Group2","condition":"1_Rep","full_date":"2026-02-28T17:57:57.122Z","date":"2026-02-28","time":"17:57:57"},{"rt":null,"stimulus":"<p style=\"font-size: 50px; margin: 0; text-align: center;\">+</p>","response":null,"trial_type":"html-keyboard-response","trial_index":29,"plugin_version":"2.1.0","time_elapsed":150624,"subject_id":"91454","group":"Group2","condition":"1_Rep","full_date":"2026-02-28T17:57:57.122Z","date":"2026-02-28","time":"17:57:57"},{"task":"memory_phase","broad_category":"S","image_png":"S_Chert_13.png","image_id":365,"category_name":"Chert","category":23,"distinct_rating":6.57,"distinct_type":"Top","rt":null,"stimulus":"Stimuli_Rocks480/S_Chert_13.png","response":null,"trial_type":"image-keyboard-response","trial_index":30,"plugin_version":"2.1.0","time_elapsed":153133,"subject_id":"91454","group":"Group2","condition":"1_Rep","full_date":"2026-02-28T17:57:57.122Z","date":"2026-02-28","time":"17:57:57"},{"rt":null,"stimulus":"<p style=\"font-size: 50px; margin: 0; text-align: center;\">+</p>","response":null,"trial_type":"html-keyboard-response","trial_index":31,"plugin_version":"2.1.0","time_elapsed":154135,"subject_id":"91454","group":"Group2","condition":"1_Rep","full_date":"2026-02-28T17:57:57.122Z","date":"2026-02-28","time":"17:57:57"},{"task":"memory_phase","broad_category":"S","image_png":"S_Conglomerate_14.png","image_id":382,"category_name":"Conglomerate","category":24,"distinct_rating":6.86,"distinct_type":"Top","rt":null,"stimulus":"Stimuli_Rocks480/S_Conglomerate_14.png","response":null,"trial_type":"image-keyboard-response","trial_index":32,"plugin_version":"2.1.0","time_elapsed":156651,"subject_id":"91454","group":"Group2","condition":"1_Rep","full_date":"2026-02-28T17:57:57.122Z","date":"2026-02-28","time":"17:57:57"},{"rt":null,"stimulus":"<p style=\"font-size: 50px; margin: 0; text-align: center;\">+</p>","response":null,"trial_type":"html-keyboard-response","trial_index":33,"plugin_version":"2.1.0","time_elapsed":157667,"subject_id":"91454","group":"Group2","condition":"1_Rep","full_date":"2026-02-28T17:57:57.122Z","date":"2026-02-28","time":"17:57:57"},{"task":"memory_phase","broad_category":"M","image_png":"M_Gneiss_10.png","image_id":202,"category_name":"Gneiss","category":13,"distinct_rating":3.09,"distinct_type":"Bottom","rt":null,"stimulus":"Stimuli_Rocks480/M_Gneiss_10.png","response":null,"trial_type":"image-keyboard-response","trial_index":34,"plugin_version":"2.1.0","time_elapsed":160178,"subject_id":"91454","group":"Group2","condition":"1_Rep","full_date":"2026-02-28T17:57:57.122Z","date":"2026-02-28","time":"17:57:57"},{"rt":null,"stimulus":"<p style=\"font-size: 50px; margin: 0; text-align: center;\">+</p>","response":null,"trial_type":"html-keyboard-response","trial_index":35,"plugin_version":"2.1.0","time_elapsed":161190,"subject_id":"91454","group":"Group2","condition":"1_Rep","full_date":"2026-02-28T17:57:57.122Z","date":"2026-02-28","time":"17:57:57"},{"task":"memory_phase","broad_category":"S","image_png":"S_Shale_03.png","image_id":467,"category_name":"Shale","category":30,"distinct_rating":1.95,"distinct_type":"Bottom","rt":null,"stimulus":"Stimuli_Rocks480/S_Shale_03.png","response":null,"trial_type":"image-keyboard-response","trial_index":36,"plugin_version":"2.1.0","time_elapsed":163709,"subject_id":"91454","group":"Group2","condition":"1_Rep","full_date":"2026-02-28T17:57:57.122Z","date":"2026-02-28","time":"17:57:57"},{"rt":null,"stimulus":"<p style=\"font-size: 50px; margin: 0; text-align: center;\">+</p>","response":null,"trial_type":"html-keyboard-response","trial_index":37,"plugin_version":"2.1.0","time_elapsed":164722,"subject_id":"91454","group":"Group2","condition":"1_Rep","full_date":"2026-02-28T17:57:57.122Z","date":"2026-02-28","time":"17:57:57"},{"task":"memory_phase","broad_category":"S","image_png":"S_Sandstone_04.png","image_id":452,"category_name":"Sandstone","category":29,"distinct_rating":1.8,"distinct_type":"Bottom","rt":null,"stimulus":"Stimuli_Rocks480/S_Sandstone_04.png","response":null,"trial_type":"image-keyboard-response","trial_index":38,"plugin_version":"2.1.0","time_elapsed":167234,"subject_id":"91454","group":"Group2","condition":"1_Rep","full_date":"2026-02-28T17:57:57.122Z","date":"2026-02-28","time":"17:57:57"},{"rt":null,"stimulus":"<p style=\"font-size: 50px; margin: 0; text-align: center;\">+</p>","response":null,"trial_type":"html-keyboard-response","trial_index":39,"plugin_version":"2.1.0","time_elapsed":168248,"subject_id":"91454","group":"Group2","condition":"1_Rep","full_date":"2026-02-28T17:57:57.122Z","date":"2026-02-28","time":"17:57:57"},{"task":"memory_phase","broad_category":"I","image_png":"I_Rhyolite_08.png","image_id":152,"category_name":"Rhyolite","category":10,"distinct_rating":1.38,"distinct_type":"Bottom","rt":null,"stimulus":"Stimuli_Rocks480/I_Rhyolite_08.png","response":null,"trial_type":"image-keyboard-response","trial_index":40,"plugin_version":"2.1.0","time_elapsed":170761,"subject_id":"91454","group":"Group2","condition":"1_Rep","full_date":"2026-02-28T17:57:57.122Z","date":"2026-02-28","time":"17:57:57"},{"rt":null,"stimulus":"<p style=\"font-size: 50px; margin: 0; text-align: center;\">+</p>","response":null,"trial_type":"html-keyboard-response","trial_index":41,"plugin_version":"2.1.0","time_elapsed":171774,"subject_id":"91454","group":"Group2","condition":"1_Rep","full_date":"2026-02-28T17:57:57.122Z","date":"2026-02-28","time":"17:57:57"},{"task":"memory_phase","broad_category":"S","image_png":"S_Rock Salt_13.png","image_id":445,"category_name":"Rock Salt","category":28,"distinct_rating":7.58,"distinct_type":"Top","rt":null,"stimulus":"Stimuli_Rocks480/S_Rock Salt_13.png","response":null,"trial_type":"image-keyboard-response","trial_index":42,"plugin_version":"2.1.0","time_elapsed":174286,"subject_id":"91454","group":"Group2","condition":"1_Rep","full_date":"2026-02-28T17:57:57.122Z","date":"2026-02-28","time":"17:57:57"},{"rt":null,"stimulus":"<p style=\"font-size: 50px; margin: 0; text-align: center;\">+</p>","response":null,"trial_type":"html-keyboard-response","trial_index":43,"plugin_version":"2.1.0","time_elapsed":175301,"subject_id":"91454","group":"Group2","condition":"1_Rep","full_date":"2026-02-28T17:57:57.122Z","date":"2026-02-28","time":"17:57:57"},{"task":"memory_phase","broad_category":"I","image_png":"I_Gabbro_02.png","image_id":50,"category_name":"Gabbro","category":4,"distinct_rating":2.73,"distinct_type":"Bottom","rt":null,"stimulus":"Stimuli_Rocks480/I_Gabbro_02.png","response":null,"trial_type":"image-keyboard-response","trial_index":44,"plugin_version":"2.1.0","time_elapsed":177814,"subject_id":"91454","group":"Group2","condition":"1_Rep","full_date":"2026-02-28T17:57:57.122Z","date":"2026-02-28","time":"17:57:57"},{"rt":null,"stimulus":"<p style=\"font-size: 50px; margin: 0; text-align: center;\">+</p>","response":null,"trial_type":"html-keyboard-response","trial_index":45,"plugin_version":"2.1.0","time_elapsed":178827,"subject_id":"91454","group":"Group2","condition":"1_Rep","full_date":"2026-02-28T17:57:57.122Z","date":"2026-02-28","time":"17:57:57"},{"task":"memory_phase","broad_category":"I","image_png":"I_Gabbro_12.png","image_id":60,"category_name":"Gabbro","category":4,"distinct_rating":2.6,"distinct_type":"Bottom","rt":null,"stimulus":"Stimuli_Rocks480/I_Gabbro_12.png","response":null,"trial_type":"image-keyboard-response","trial_index":46,"plugin_version":"2.1.0","time_elapsed":181331,"subject_id":"91454","group":"Group2","condition":"1_Rep","full_date":"2026-02-28T17:57:57.122Z","date":"2026-02-28","time":"17:57:57"},{"rt":null,"stimulus":"<p style=\"font-size: 50px; margin: 0; text-align: center;\">+</p>","response":null,"trial_type":"html-keyboard-response","trial_index":47,"plugin_version":"2.1.0","time_elapsed":182347,"subject_id":"91454","group":"Group2","condition":"1_Rep","full_date":"2026-02-28T17:57:57.122Z","date":"2026-02-28","time":"17:57:57"},{"task":"memory_phase","broad_category":"I","image_png":"I_Obsidian_06.png","image_id":86,"category_name":"Obsidian","category":6,"distinct_rating":8.01,"distinct_type":"Top","rt":null,"stimulus":"Stimuli_Rocks480/I_Obsidian_06.png","response":null,"trial_type":"image-keyboard-response","trial_index":48,"plugin_version":"2.1.0","time_elapsed":184862,"subject_id":"91454","group":"Group2","condition":"1_Rep","full_date":"2026-02-28T17:57:57.122Z","date":"2026-02-28","time":"17:57:57"},{"rt":null,"stimulus":"<p style=\"font-size: 50px; margin: 0; text-align: center;\">+</p>","response":null,"trial_type":"html-keyboard-response","trial_index":49,"plugin_version":"2.1.0","time_elapsed":185877,"subject_id":"91454","group":"Group2","condition":"1_Rep","full_date":"2026-02-28T17:57:57.122Z","date":"2026-02-28","time":"17:57:57"},{"task":"memory_phase","broad_category":"M","image_png":"M_Marble_02.png","image_id":226,"category_name":"Marble","category":15,"distinct_rating":3.2,"distinct_type":"Bottom","rt":null,"stimulus":"Stimuli_Rocks480/M_Marble_02.png","response":null,"trial_type":"image-keyboard-response","trial_index":50,"plugin_version":"2.1.0","time_elapsed":188393,"subject_id":"91454","group":"Group2","condition":"1_Rep","full_date":"2026-02-28T17:57:57.122Z","date":"2026-02-28","time":"17:57:57"},{"rt":null,"stimulus":"<p style=\"font-size: 50px; margin: 0; text-align: center;\">+</p>","response":null,"trial_type":"html-keyboard-response","trial_index":51,"plugin_version":"2.1.0","time_elapsed":189405,"subject_id":"91454","group":"Group2","condition":"1_Rep","full_date":"2026-02-28T17:57:57.122Z","date":"2026-02-28","time":"17:57:57"},{"task":"memory_phase","broad_category":"M","image_png":"M_Marble_03.png","image_id":227,"category_name":"Marble","category":15,"distinct_rating":2.67,"distinct_type":"Bottom","rt":null,"stimulus":"Stimuli_Rocks480/M_Marble_03.png","response":null,"trial_type":"image-keyboard-response","trial_index":52,"plugin_version":"2.1.0","time_elapsed":191919,"subject_id":"91454","group":"Group2","condition":"1_Rep","full_date":"2026-02-28T17:57:57.122Z","date":"2026-02-28","time":"17:57:57"},{"rt":null,"stimulus":"<p style=\"font-size: 50px; margin: 0; text-align: center;\">+</p>","response":null,"trial_type":"html-keyboard-response","trial_index":53,"plugin_version":"2.1.0","time_elapsed":192934,"subject_id":"91454","group":"Group2","condition":"1_Rep","full_date":"2026-02-28T17:57:57.122Z","date":"2026-02-28","time":"17:57:57"},{"task":"memory_phase","broad_category":"I","image_png":"I_Rhyolite_10.png","image_id":154,"category_name":"Rhyolite","category":10,"distinct_rating":2.88,"distinct_type":"Bottom","rt":null,"stimulus":"Stimuli_Rocks480/I_Rhyolite_10.png","response":null,"trial_type":"image-keyboard-response","trial_index":54,"plugin_version":"2.1.0","time_elapsed":195447,"subject_id":"91454","group":"Group2","condition":"1_Rep","full_date":"2026-02-28T17:57:57.122Z","date":"2026-02-28","time":"17:57:57"},{"rt":2202,"stimulus":"<p style=\"max-width: 760px; margin: auto; font-size: 35px; line-height: 1.5;\">\n                Press SPACE to continue study phase\n              </p>","response":" ","trial_type":"html-keyboard-response","trial_index":55,"plugin_version":"2.1.0","time_elapsed":197651,"subject_id":"91454","group":"Group2","condition":"1_Rep","full_date":"2026-02-28T17:57:57.122Z","date":"2026-02-28","time":"17:57:57"},{"rt":null,"stimulus":"<p style=\"font-size: 50px; margin: 0; text-align: center;\">+</p>","response":null,"trial_type":"html-keyboard-response","trial_index":56,"plugin_version":"2.1.0","time_elapsed":198652,"subject_id":"91454","group":"Group2","condition":"1_Rep","full_date":"2026-02-28T17:57:57.122Z","date":"2026-02-28","time":"17:57:57"},{"task":"memory_phase","broad_category":"S","image_png":"S_Dolomite_01.png","image_id":385,"category_name":"Dolomite","category":25,"distinct_rating":1.43,"distinct_type":"Bottom","rt":null,"stimulus":"Stimuli_Rocks480/S_Dolomite_01.png","response":null,"trial_type":"image-keyboard-response","trial_index":57,"plugin_version":"2.1.0","time_elapsed":201164,"subject_id":"91454","group":"Group2","condition":"1_Rep","full_date":"2026-02-28T17:57:57.122Z","date":"2026-02-28","time":"17:57:57"},{"rt":null,"stimulus":"<p style=\"font-size: 50px; margin: 0; text-align: center;\">+</p>","response":null,"trial_type":"html-keyboard-response","trial_index":58,"plugin_version":"2.1.0","time_elapsed":202180,"subject_id":"91454","group":"Group2","condition":"1_Rep","full_date":"2026-02-28T17:57:57.122Z","date":"2026-02-28","time":"17:57:57"},{"task":"memory_phase","broad_category":"I","image_png":"I_Basalt_10.png","image_id":26,"category_name":"Basalt","category":2,"distinct_rating":2.76,"distinct_type":"Bottom","rt":null,"stimulus":"Stimuli_Rocks480/I_Basalt_10.png","response":null,"trial_type":"image-keyboard-response","trial_index":59,"plugin_version":"2.1.0","time_elapsed":204699,"subject_id":"91454","group":"Group2","condition":"1_Rep","full_date":"2026-02-28T17:57:57.122Z","date":"2026-02-28","time":"17:57:57"},{"rt":null,"stimulus":"<p style=\"font-size: 50px; margin: 0; text-align: center;\">+</p>","response":null,"trial_type":"html-keyboard-response","trial_index":60,"plugin_version":"2.1.0","time_elapsed":205712,"subject_id":"91454","group":"Group2","condition":"1_Rep","full_date":"2026-02-28T17:57:57.122Z","date":"2026-02-28","time":"17:57:57"},{"task":"memory_phase","broad_category":"M","image_png":"M_Slate_04.png","image_id":308,"category_name":"Slate","category":20,"distinct_rating":2.2,"distinct_type":"Bottom","rt":null,"stimulus":"Stimuli_Rocks480/M_Slate_04.png","response":null,"trial_type":"image-keyboard-response","trial_index":61,"plugin_version":"2.1.0","time_elapsed":208226,"subject_id":"91454","group":"Group2","condition":"1_Rep","full_date":"2026-02-28T17:57:57.122Z","date":"2026-02-28","time":"17:57:57"},{"rt":null,"stimulus":"<p style=\"font-size: 50px; margin: 0; text-align: center;\">+</p>","response":null,"trial_type":"html-keyboard-response","trial_index":62,"plugin_version":"2.1.0","time_elapsed":209228,"subject_id":"91454","group":"Group2","condition":"1_Rep","full_date":"2026-02-28T17:57:57.122Z","date":"2026-02-28","time":"17:57:57"},{"task":"memory_phase","broad_category":"M","image_png":"M_Marble_14.png","image_id":238,"category_name":"Marble","category":15,"distinct_rating":3.31,"distinct_type":"Bottom","rt":null,"stimulus":"Stimuli_Rocks480/M_Marble_14.png","response":null,"trial_type":"image-keyboard-response","trial_index":63,"plugin_version":"2.1.0","time_elapsed":211737,"subject_id":"91454","group":"Group2","condition":"1_Rep","full_date":"2026-02-28T17:57:57.122Z","date":"2026-02-28","time":"17:57:57"},{"rt":null,"stimulus":"<p style=\"font-size: 50px; margin: 0; text-align: center;\">+</p>","response":null,"trial_type":"html-keyboard-response","trial_index":64,"plugin_version":"2.1.0","time_elapsed":212749,"subject_id":"91454","group":"Group2","condition":"1_Rep","full_date":"2026-02-28T17:57:57.122Z","date":"2026-02-28","time":"17:57:57"},{"task":"memory_phase","broad_category":"I","image_png":"I_Pegmatite_03.png","image_id":99,"category_name":"Pegmatite","category":7,"distinct_rating":7.24,"distinct_type":"Top","rt":null,"stimulus":"Stimuli_Rocks480/I_Pegmatite_03.png","response":null,"trial_type":"image-keyboard-response","trial_index":65,"plugin_version":"2.1.0","time_elapsed":215262,"subject_id":"91454","group":"Group2","condition":"1_Rep","full_date":"2026-02-28T17:57:57.122Z","date":"2026-02-28","time":"17:57:57"},{"rt":null,"stimulus":"<p style=\"font-size: 50px; margin: 0; text-align: center;\">+</p>","response":null,"trial_type":"html-keyboard-response","trial_index":66,"plugin_version":"2.1.0","time_elapsed":216279,"subject_id":"91454","group":"Group2","condition":"1_Rep","full_date":"2026-02-28T17:57:57.122Z","date":"2026-02-28","time":"17:57:57"},{"task":"memory_phase","broad_category":"S","image_png":"S_Dolomite_07.png","image_id":391,"category_name":"Dolomite","category":25,"distinct_rating":1.73,"distinct_type":"Bottom","rt":null,"stimulus":"Stimuli_Rocks480/S_Dolomite_07.png","response":null,"trial_type":"image-keyboard-response","trial_index":67,"plugin_version":"2.1.0","time_elapsed":218789,"subject_id":"91454","group":"Group2","condition":"1_Rep","full_date":"2026-02-28T17:57:57.122Z","date":"2026-02-28","time":"17:57:57"},{"rt":null,"stimulus":"<p style=\"font-size: 50px; margin: 0; text-align: center;\">+</p>","response":null,"trial_type":"html-keyboard-response","trial_index":68,"plugin_version":"2.1.0","time_elapsed":219795,"subject_id":"91454","group":"Group2","condition":"1_Rep","full_date":"2026-02-28T17:57:57.122Z","date":"2026-02-28","time":"17:57:57"},{"task":"memory_phase","broad_category":"I","image_png":"I_Basalt_13.png","image_id":29,"category_name":"Basalt","category":2,"distinct_rating":2.68,"distinct_type":"Bottom","rt":null,"stimulus":"Stimuli_Rocks480/I_Basalt_13.png","response":null,"trial_type":"image-keyboard-response","trial_index":69,"plugin_version":"2.1.0","time_elapsed":222308,"subject_id":"91454","group":"Group2","condition":"1_Rep","full_date":"2026-02-28T17:57:57.122Z","date":"2026-02-28","time":"17:57:57"},{"rt":null,"stimulus":"<p style=\"font-size: 50px; margin: 0; text-align: center;\">+</p>","response":null,"trial_type":"html-keyboard-response","trial_index":70,"plugin_version":"2.1.0","time_elapsed":223321,"subject_id":"91454","group":"Group2","condition":"1_Rep","full_date":"2026-02-28T17:57:57.122Z","date":"2026-02-28","time":"17:57:57"},{"task":"memory_phase","broad_category":"I","image_png":"I_Andesite_09.png","image_id":9,"category_name":"Andesite","category":1,"distinct_rating":2.49,"distinct_type":"Bottom","rt":null,"stimulus":"Stimuli_Rocks480/I_Andesite_09.png","response":null,"trial_type":"image-keyboard-response","trial_index":71,"plugin_version":"2.1.0","time_elapsed":225825,"subject_id":"91454","group":"Group2","condition":"1_Rep","full_date":"2026-02-28T17:57:57.122Z","date":"2026-02-28","time":"17:57:57"},{"rt":null,"stimulus":"<p style=\"font-size: 50px; margin: 0; text-align: center;\">+</p>","response":null,"trial_type":"html-keyboard-response","trial_index":72,"plugin_version":"2.1.0","time_elapsed":226836,"subject_id":"91454","group":"Group2","condition":"1_Rep","full_date":"2026-02-28T17:57:57.122Z","date":"2026-02-28","time":"17:57:57"},{"task":"memory_phase","broad_category":"I","image_png":"I_Diorite_01.png","image_id":33,"category_name":"Diorite","category":3,"distinct_rating":2.97,"distinct_type":"Bottom","rt":null,"stimulus":"Stimuli_Rocks480/I_Diorite_01.png","response":null,"trial_type":"image-keyboard-response","trial_index":73,"plugin_version":"2.1.0","time_elapsed":229345,"subject_id":"91454","group":"Group2","condition":"1_Rep","full_date":"2026-02-28T17:57:57.122Z","date":"2026-02-28","time":"17:57:57"},{"rt":null,"stimulus":"<p style=\"font-size: 50px; margin: 0; text-align: center;\">+</p>","response":null,"trial_type":"html-keyboard-response","trial_index":74,"plugin_version":"2.1.0","time_elapsed":230362,"subject_id":"91454","group":"Group2","condition":"1_Rep","full_date":"2026-02-28T17:57:57.122Z","date":"2026-02-28","time":"17:57:57"},{"task":"memory_phase","broad_category":"I","image_png":"I_Andesite_03.png","image_id":3,"category_name":"Andesite","category":1,"distinct_rating":3.17,"distinct_type":"Bottom","rt":null,"stimulus":"Stimuli_Rocks480/I_Andesite_03.png","response":null,"trial_type":"image-keyboard-response","trial_index":75,"plugin_version":"2.1.0","time_elapsed":232868,"subject_id":"91454","group":"Group2","condition":"1_Rep","full_date":"2026-02-28T17:57:57.122Z","date":"2026-02-28","time":"17:57:57"},{"rt":null,"stimulus":"<p style=\"font-size: 50px; margin: 0; text-align: center;\">+</p>","response":null,"trial_type":"html-keyboard-response","trial_index":76,"plugin_version":"2.1.0","time_elapsed":233882,"subject_id":"91454","group":"Group2","condition":"1_Rep","full_date":"2026-02-28T17:57:57.122Z","date":"2026-02-28","time":"17:57:57"},{"task":"memory_phase","broad_category":"S","image_png":"S_Shale_02.png","image_id":466,"category_name":"Shale","category":30,"distinct_rating":2.9,"distinct_type":"Bottom","rt":null,"stimulus":"Stimuli_Rocks480/S_Shale_02.png","response":null,"trial_type":"image-keyboard-response","trial_index":77,"plugin_version":"2.1.0","time_elapsed":236399,"subject_id":"91454","group":"Group2","condition":"1_Rep","full_date":"2026-02-28T17:57:57.122Z","date":"2026-02-28","time":"17:57:57"},{"rt":null,"stimulus":"<p style=\"font-size: 50px; margin: 0; text-align: center;\">+</p>","response":null,"trial_type":"html-keyboard-response","trial_index":78,"plugin_version":"2.1.0","time_elapsed":237415,"subject_id":"91454","group":"Group2","condition":"1_Rep","full_date":"2026-02-28T17:57:57.122Z","date":"2026-02-28","time":"17:57:57"},{"task":"memory_phase","broad_category":"I","image_png":"I_Pumice_01.png","image_id":129,"category_name":"Pumice","category":9,"distinct_rating":3.25,"distinct_type":"Bottom","rt":null,"stimulus":"Stimuli_Rocks480/I_Pumice_01.png","response":null,"trial_type":"image-keyboard-response","trial_index":79,"plugin_version":"2.1.0","time_elapsed":239921,"subject_id":"91454","group":"Group2","condition":"1_Rep","full_date":"2026-02-28T17:57:57.122Z","date":"2026-02-28","time":"17:57:57"},{"rt":null,"stimulus":"<p style=\"font-size: 50px; margin: 0; text-align: center;\">+</p>","response":null,"trial_type":"html-keyboard-response","trial_index":80,"plugin_version":"2.1.0","time_elapsed":240934,"subject_id":"91454","group":"Group2","condition":"1_Rep","full_date":"2026-02-28T17:57:57.122Z","date":"2026-02-28","time":"17:57:57"},{"task":"memory_phase","broad_category":"I","image_png":"I_Andesite_04.png","image_id":4,"category_name":"Andesite","category":1,"distinct_rating":3.18,"distinct_type":"Bottom","rt":null,"stimulus":"Stimuli_Rocks480/I_Andesite_04.png","response":null,"trial_type":"image-keyboard-response","trial_index":81,"plugin_version":"2.1.0","time_elapsed":243445,"subject_id":"91454","group":"Group2","condition":"1_Rep","full_date":"2026-02-28T17:57:57.122Z","date":"2026-02-28","time":"17:57:57"},{"rt":null,"stimulus":"<p style=\"font-size: 50px; margin: 0; text-align: center;\">+</p>","response":null,"trial_type":"html-keyboard-response","trial_index":82,"plugin_version":"2.1.0","time_elapsed":244462,"subject_id":"91454","group":"Group2","condition":"1_Rep","full_date":"2026-02-28T17:57:57.122Z","date":"2026-02-28","time":"17:57:57"},{"task":"memory_phase","broad_category":"S","image_png":"S_Shale_07.png","image_id":471,"category_name":"Shale","category":30,"distinct_rating":2.73,"distinct_type":"Bottom","rt":null,"stimulus":"Stimuli_Rocks480/S_Shale_07.png","response":null,"trial_type":"image-keyboard-response","trial_index":83,"plugin_version":"2.1.0","time_elapsed":246977,"subject_id":"91454","group":"Group2","condition":"1_Rep","full_date":"2026-02-28T17:57:57.122Z","date":"2026-02-28","time":"17:57:57"},{"rt":null,"stimulus":"<p style=\"font-size: 50px; margin: 0; text-align: center;\">+</p>","response":null,"trial_type":"html-keyboard-response","trial_index":84,"plugin_version":"2.1.0","time_elapsed":247982,"subject_id":"91454","group":"Group2","condition":"1_Rep","full_date":"2026-02-28T17:57:57.122Z","date":"2026-02-28","time":"17:57:57"},{"task":"memory_phase","broad_category":"M","image_png":"M_Phyllite_05.png","image_id":261,"category_name":"Phyllite","category":17,"distinct_rating":2.14,"distinct_type":"Bottom","rt":null,"stimulus":"Stimuli_Rocks480/M_Phyllite_05.png","response":null,"trial_type":"image-keyboard-response","trial_index":85,"plugin_version":"2.1.0","time_elapsed":250490,"subject_id":"91454","group":"Group2","condition":"1_Rep","full_date":"2026-02-28T17:57:57.122Z","date":"2026-02-28","time":"17:57:57"},{"rt":null,"stimulus":"<p style=\"font-size: 50px; margin: 0; text-align: center;\">+</p>","response":null,"trial_type":"html-keyboard-response","trial_index":86,"plugin_version":"2.1.0","time_elapsed":251502,"subject_id":"91454","group":"Group2","condition":"1_Rep","full_date":"2026-02-28T17:57:57.122Z","date":"2026-02-28","time":"17:57:57"},{"task":"memory_phase","broad_category":"I","image_png":"I_Pumice_14.png","image_id":142,"category_name":"Pumice","category":9,"distinct_rating":3.22,"distinct_type":"Bottom","rt":null,"stimulus":"Stimuli_Rocks480/I_Pumice_14.png","response":null,"trial_type":"image-keyboard-response","trial_index":87,"plugin_version":"2.1.0","time_elapsed":254011,"subject_id":"91454","group":"Group2","condition":"1_Rep","full_date":"2026-02-28T17:57:57.122Z","date":"2026-02-28","time":"17:57:57"},{"rt":null,"stimulus":"<p style=\"font-size: 50px; margin: 0; text-align: center;\">+</p>","response":null,"trial_type":"html-keyboard-response","trial_index":88,"plugin_version":"2.1.0","time_elapsed":255025,"subject_id":"91454","group":"Group2","condition":"1_Rep","full_date":"2026-02-28T17:57:57.122Z","date":"2026-02-28","time":"17:57:57"},{"task":"memory_phase","broad_category":"M","image_png":"M_Phyllite_02.png","image_id":258,"category_name":"Phyllite","category":17,"distinct_rating":2.89,"distinct_type":"Bottom","rt":null,"stimulus":"Stimuli_Rocks480/M_Phyllite_02.png","response":null,"trial_type":"image-keyboard-response","trial_index":89,"plugin_version":"2.1.0","time_elapsed":257534,"subject_id":"91454","group":"Group2","condition":"1_Rep","full_date":"2026-02-28T17:57:57.122Z","date":"2026-02-28","time":"17:57:57"},{"rt":null,"stimulus":"<p style=\"font-size: 50px; margin: 0; text-align: center;\">+</p>","response":null,"trial_type":"html-keyboard-response","trial_index":90,"plugin_version":"2.1.0","time_elapsed":258545,"subject_id":"91454","group":"Group2","condition":"1_Rep","full_date":"2026-02-28T17:57:57.122Z","date":"2026-02-28","time":"17:57:57"},{"task":"memory_phase","broad_category":"M","image_png":"M_Slate_14.png","image_id":318,"category_name":"Slate","category":20,"distinct_rating":2.58,"distinct_type":"Bottom","rt":null,"stimulus":"Stimuli_Rocks480/M_Slate_14.png","response":null,"trial_type":"image-keyboard-response","trial_index":91,"plugin_version":"2.1.0","time_elapsed":261050,"subject_id":"91454","group":"Group2","condition":"1_Rep","full_date":"2026-02-28T17:57:57.122Z","date":"2026-02-28","time":"17:57:57"},{"rt":null,"stimulus":"<p style=\"font-size: 50px; margin: 0; text-align: center;\">+</p>","response":null,"trial_type":"html-keyboard-response","trial_index":92,"plugin_version":"2.1.0","time_elapsed":262063,"subject_id":"91454","group":"Group2","condition":"1_Rep","full_date":"2026-02-28T17:57:57.122Z","date":"2026-02-28","time":"17:57:57"},{"task":"memory_phase","broad_category":"M","image_png":"M_Gneiss_14.png","image_id":206,"category_name":"Gneiss","category":13,"distinct_rating":3.41,"distinct_type":"Bottom","rt":null,"stimulus":"Stimuli_Rocks480/M_Gneiss_14.png","response":null,"trial_type":"image-keyboard-response","trial_index":93,"plugin_version":"2.1.0","time_elapsed":264577,"subject_id":"91454","group":"Group2","condition":"1_Rep","full_date":"2026-02-28T17:57:57.122Z","date":"2026-02-28","time":"17:57:57"},{"rt":null,"stimulus":"<p style=\"font-size: 50px; margin: 0; text-align: center;\">+</p>","response":null,"trial_type":"html-keyboard-response","trial_index":94,"plugin_version":"2.1.0","time_elapsed":265581,"subject_id":"91454","group":"Group2","condition":"1_Rep","full_date":"2026-02-28T17:57:57.122Z","date":"2026-02-28","time":"17:57:57"},{"task":"memory_phase","broad_category":"M","image_png":"M_Quartzite_07.png","image_id":279,"category_name":"Quartzite","category":18,"distinct_rating":1.97,"distinct_type":"Bottom","rt":null,"stimulus":"Stimuli_Rocks480/M_Quartzite_07.png","response":null,"trial_type":"image-keyboard-response","trial_index":95,"plugin_version":"2.1.0","time_elapsed":268091,"subject_id":"91454","group":"Group2","condition":"1_Rep","full_date":"2026-02-28T17:57:57.122Z","date":"2026-02-28","time":"17:57:57"},{"rt":null,"stimulus":"<p style=\"font-size: 50px; margin: 0; text-align: center;\">+</p>","response":null,"trial_type":"html-keyboard-response","trial_index":96,"plugin_version":"2.1.0","time_elapsed":269105,"subject_id":"91454","group":"Group2","condition":"1_Rep","full_date":"2026-02-28T17:57:57.122Z","date":"2026-02-28","time":"17:57:57"},{"task":"memory_phase","broad_category":"I","image_png":"I_Peridotite_13.png","image_id":125,"category_name":"Peridotite","category":8,"distinct_rating":7.28,"distinct_type":"Top","rt":null,"stimulus":"Stimuli_Rocks480/I_Peridotite_13.png","response":null,"trial_type":"image-keyboard-response","trial_index":97,"plugin_version":"2.1.0","time_elapsed":271619,"subject_id":"91454","group":"Group2","condition":"1_Rep","full_date":"2026-02-28T17:57:57.122Z","date":"2026-02-28","time":"17:57:57"},{"rt":null,"stimulus":"<p style=\"font-size: 50px; margin: 0; text-align: center;\">+</p>","response":null,"trial_type":"html-keyboard-response","trial_index":98,"plugin_version":"2.1.0","time_elapsed":272630,"subject_id":"91454","group":"Group2","condition":"1_Rep","full_date":"2026-02-28T17:57:57.122Z","date":"2026-02-28","time":"17:57:57"},{"task":"memory_phase","broad_category":"M","image_png":"M_Gneiss_15.png","image_id":207,"category_name":"Gneiss","category":13,"distinct_rating":3.11,"distinct_type":"Bottom","rt":null,"stimulus":"Stimuli_Rocks480/M_Gneiss_15.png","response":null,"trial_type":"image-keyboard-response","trial_index":99,"plugin_version":"2.1.0","time_elapsed":275144,"subject_id":"91454","group":"Group2","condition":"1_Rep","full_date":"2026-02-28T17:57:57.122Z","date":"2026-02-28","time":"17:57:57"},{"rt":null,"stimulus":"<p style=\"font-size: 50px; margin: 0; text-align: center;\">+</p>","response":null,"trial_type":"html-keyboard-response","trial_index":100,"plugin_version":"2.1.0","time_elapsed":276157,"subject_id":"91454","group":"Group2","condition":"1_Rep","full_date":"2026-02-28T17:57:57.122Z","date":"2026-02-28","time":"17:57:57"},{"task":"memory_phase","broad_category":"S","image_png":"S_Dolomite_16.png","image_id":400,"category_name":"Dolomite","category":25,"distinct_rating":1.71,"distinct_type":"Bottom","rt":null,"stimulus":"Stimuli_Rocks480/S_Dolomite_16.png","response":null,"trial_type":"image-keyboard-response","trial_index":101,"plugin_version":"2.1.0","time_elapsed":278676,"subject_id":"91454","group":"Group2","condition":"1_Rep","full_date":"2026-02-28T17:57:57.122Z","date":"2026-02-28","time":"17:57:57"},{"rt":null,"stimulus":"<p style=\"font-size: 50px; margin: 0; text-align: center;\">+</p>","response":null,"trial_type":"html-keyboard-response","trial_index":102,"plugin_version":"2.1.0","time_elapsed":279692,"subject_id":"91454","group":"Group2","condition":"1_Rep","full_date":"2026-02-28T17:57:57.122Z","date":"2026-02-28","time":"17:57:57"},{"task":"memory_phase","broad_category":"I","image_png":"I_Diorite_10.png","image_id":42,"category_name":"Diorite","category":3,"distinct_rating":2.84,"distinct_type":"Bottom","rt":null,"stimulus":"Stimuli_Rocks480/I_Diorite_10.png","response":null,"trial_type":"image-keyboard-response","trial_index":103,"plugin_version":"2.1.0","time_elapsed":282199,"subject_id":"91454","group":"Group2","condition":"1_Rep","full_date":"2026-02-28T17:57:57.122Z","date":"2026-02-28","time":"17:57:57"},{"rt":null,"stimulus":"<p style=\"font-size: 50px; margin: 0; text-align: center;\">+</p>","response":null,"trial_type":"html-keyboard-response","trial_index":104,"plugin_version":"2.1.0","time_elapsed":283216,"subject_id":"91454","group":"Group2","condition":"1_Rep","full_date":"2026-02-28T17:57:57.122Z","date":"2026-02-28","time":"17:57:57"},{"task":"memory_phase","broad_category":"I","image_png":"I_Basalt_08.png","image_id":24,"category_name":"Basalt","category":2,"distinct_rating":2.31,"distinct_type":"Bottom","rt":null,"stimulus":"Stimuli_Rocks480/I_Basalt_08.png","response":null,"trial_type":"image-keyboard-response","trial_index":105,"plugin_version":"2.1.0","time_elapsed":285726,"subject_id":"91454","group":"Group2","condition":"1_Rep","full_date":"2026-02-28T17:57:57.122Z","date":"2026-02-28","time":"17:57:57"},{"rt":41508,"stimulus":"<div style=\"max-width: 760px; margin: auto; font-size: 20px; line-height: 1.5;\">\n      <h1 style=\"text-align:center; font-size: 30px;\">Instructions for the Test Phase</h1>\n      <p>\n        The study phase is now complete.\n      </p>\n      <p>\n        In the test phase, you will again see a series of rock images. \n        Some will be ones you saw before - during the study phase, while others will be new.  \n        <b>Your task</b> is to decide whether you have seen each image before by pressing the corresponding key on your keyboard:<br><br>\n          <b>A</b> - NO (you did not see this image before)<br>\n          <b>L</b> - YES (you saw this image before)<br><br>\n        The test will proceed at your own pace. You will receive feedback after each response.  \n        Please try to respond <b>as accurately as possible</b>.\n      </p>\n      <p>\n        <b>Reminder:</b> If your computer has multiple language settings (e.g., English and another language),\n        please ensure it is set to English during the test phase.\n      </p>\n      <p>\n        You can track your progress using the <b>completion bar</b> at the top of the screen.  \n        Note that it has been refreshed to reflect your progress during this final phase.\n      </p>\n      <p>\n        Press the button below when you are ready to continue.\n      </p>\n    </div>","response":0,"trial_type":"html-button-response","trial_index":106,"plugin_version":"2.1.0","time_elapsed":327237,"subject_id":"91454","group":"Group2","condition":"1_Rep","full_date":"2026-02-28T17:57:57.122Z","date":"2026-02-28","time":"17:57:57"},{"correct_response":"a","task":"test_phase","broad_category":"M","image_png":"M_Slate_11.png","image_id":315,"category_name":"Slate","category":20,"distinct_rating":2.75,"distinct_type":"Bottom","item_type":"Foil","rt":5021,"stimulus":"Stimuli_Rocks480/M_Slate_11.png","response":"a","trial_type":"image-keyboard-response","trial_index":107,"plugin_version":"2.1.0","time_elapsed":332261,"subject_id":"91454","group":"Group2","condition":"1_Rep","full_date":"2026-02-28T17:57:57.122Z","date":"2026-02-28","time":"17:57:57","cor_ans":true},{"trial_type":"html-keyboard-response","rt":null,"stimulus":"<p style=\"color: green; font-size: 50px; font-weight: bold;\">Correct</p>","response":null,"trial_index":108,"plugin_version":"2.1.0","time_elapsed":332772,"subject_id":"91454","group":"Group2","condition":"1_Rep","full_date":"2026-02-28T17:57:57.122Z","date":"2026-02-28","time":"17:57:57"},{"correct_response":"l","task":"test_phase","broad_category":"I","image_png":"I_Gabbro_14.png","image_id":62,"category_name":"Gabbro","category":4,"distinct_rating":2.95,"distinct_type":"Bottom","item_type":"Target","rt":3535,"stimulus":"Stimuli_Rocks480/I_Gabbro_14.png","response":"a","trial_type":"image-keyboard-response","trial_index":109,"plugin_version":"2.1.0","time_elapsed":336310,"subject_id":"91454","group":"Group2","condition":"1_Rep","full_date":"2026-02-28T17:57:57.122Z","date":"2026-02-28","time":"17:57:57","cor_ans":false},{"trial_type":"html-keyboard-response","rt":null,"stimulus":"<p style=\"color: red; font-size: 50px; font-weight: bold;\">Incorrect</p>","response":null,"trial_index":110,"plugin_version":"2.1.0","time_elapsed":336812,"subject_id":"91454","group":"Group2","condition":"1_Rep","full_date":"2026-02-28T17:57:57.122Z","date":"2026-02-28","time":"17:57:57"},{"correct_response":"a","task":"test_phase","broad_category":"S","image_png":"S_Chert_10.png","image_id":362,"category_name":"Chert","category":23,"distinct_rating":7.17,"distinct_type":"Top","item_type":"Foil","rt":1309,"stimulus":"Stimuli_Rocks480/S_Chert_10.png","response":"a","trial_type":"image-keyboard-response","trial_index":111,"plugin_version":"2.1.0","time_elapsed":338123,"subject_id":"91454","group":"Group2","condition":"1_Rep","full_date":"2026-02-28T17:57:57.122Z","date":"2026-02-28","time":"17:57:57","cor_ans":true},{"trial_type":"html-keyboard-response","rt":null,"stimulus":"<p style=\"color: green; font-size: 50px; font-weight: bold;\">Correct</p>","response":null,"trial_index":112,"plugin_version":"2.1.0","time_elapsed":338636,"subject_id":"91454","group":"Group2","condition":"1_Rep","full_date":"2026-02-28T17:57:57.122Z","date":"2026-02-28","time":"17:57:57"},{"correct_response":"a","task":"test_phase","broad_category":"I","image_png":"I_Rhyolite_14.png","image_id":158,"category_name":"Rhyolite","category":10,"distinct_rating":2.59,"distinct_type":"Bottom","item_type":"Foil","rt":2326,"stimulus":"Stimuli_Rocks480/I_Rhyolite_14.png","response":"a","trial_type":"image-keyboard-response","trial_index":113,"plugin_version":"2.1.0","time_elapsed":340964,"subject_id":"91454","group":"Group2","condition":"1_Rep","full_date":"2026-02-28T17:57:57.122Z","date":"2026-02-28","time":"17:57:57","cor_ans":true},{"trial_type":"html-keyboard-response","rt":null,"stimulus":"<p style=\"color: green; font-size: 50px; font-weight: bold;\">Correct</p>","response":null,"trial_index":114,"plugin_version":"2.1.0","time_elapsed":341474,"subject_id":"91454","group":"Group2","condition":"1_Rep","full_date":"2026-02-28T17:57:57.122Z","date":"2026-02-28","time":"17:57:57"},{"correct_response":"a","task":"test_phase","broad_category":"I","image_png":"I_Rhyolite_16.png","image_id":160,"category_name":"Rhyolite","category":10,"distinct_rating":2.19,"distinct_type":"Bottom","item_type":"Foil","rt":2017,"stimulus":"Stimuli_Rocks480/I_Rhyolite_16.png","response":"l","trial_type":"image-keyboard-response","trial_index":115,"plugin_version":"2.1.0","time_elapsed":343494,"subject_id":"91454","group":"Group2","condition":"1_Rep","full_date":"2026-02-28T17:57:57.122Z","date":"2026-02-28","time":"17:57:57","cor_ans":false},{"trial_type":"html-keyboard-response","rt":null,"stimulus":"<p style=\"color: red; font-size: 50px; font-weight: bold;\">Incorrect</p>","response":null,"trial_index":116,"plugin_version":"2.1.0","time_elapsed":343996,"subject_id":"91454","group":"Group2","condition":"1_Rep","full_date":"2026-02-28T17:57:57.122Z","date":"2026-02-28","time":"17:57:57"},{"correct_response":"a","task":"test_phase","broad_category":"I","image_png":"I_Diorite_04.png","image_id":36,"category_name":"Diorite","category":3,"distinct_rating":2.98,"distinct_type":"Bottom","item_type":"Foil","rt":1001,"stimulus":"Stimuli_Rocks480/I_Diorite_04.png","response":"l","trial_type":"image-keyboard-response","trial_index":117,"plugin_version":"2.1.0","time_elapsed":345000,"subject_id":"91454","group":"Group2","condition":"1_Rep","full_date":"2026-02-28T17:57:57.122Z","date":"2026-02-28","time":"17:57:57","cor_ans":false},{"trial_type":"html-keyboard-response","rt":null,"stimulus":"<p style=\"color: red; font-size: 50px; font-weight: bold;\">Incorrect</p>","response":null,"trial_index":118,"plugin_version":"2.1.0","time_elapsed":345506,"subject_id":"91454","group":"Group2","condition":"1_Rep","full_date":"2026-02-28T17:57:57.122Z","date":"2026-02-28","time":"17:57:57"},{"correct_response":"a","task":"test_phase","broad_category":"I","image_png":"I_Andesite_06.png","image_id":6,"category_name":"Andesite","category":1,"distinct_rating":3.17,"distinct_type":"Bottom","item_type":"Foil","rt":3100,"stimulus":"Stimuli_Rocks480/I_Andesite_06.png","response":"l","trial_type":"image-keyboard-response","trial_index":119,"plugin_version":"2.1.0","time_elapsed":348607,"subject_id":"91454","group":"Group2","condition":"1_Rep","full_date":"2026-02-28T17:57:57.122Z","date":"2026-02-28","time":"17:57:57","cor_ans":false},{"trial_type":"html-keyboard-response","rt":null,"stimulus":"<p style=\"color: red; font-size: 50px; font-weight: bold;\">Incorrect</p>","response":null,"trial_index":120,"plugin_version":"2.1.0","time_elapsed":349109,"subject_id":"91454","group":"Group2","condition":"1_Rep","full_date":"2026-02-28T17:57:57.122Z","date":"2026-02-28","time":"17:57:57"},{"correct_response":"l","task":"test_phase","broad_category":"S","image_png":"S_Dolomite_07.png","image_id":391,"category_name":"Dolomite","category":25,"distinct_rating":1.73,"distinct_type":"Bottom","item_type":"Target","rt":1036,"stimulus":"Stimuli_Rocks480/S_Dolomite_07.png","response":"l","trial_type":"image-keyboard-response","trial_index":121,"plugin_version":"2.1.0","time_elapsed":350148,"subject_id":"91454","group":"Group2","condition":"1_Rep","full_date":"2026-02-28T17:57:57.122Z","date":"2026-02-28","time":"17:57:57","cor_ans":true},{"trial_type":"html-keyboard-response","rt":null,"stimulus":"<p style=\"color: green; font-size: 50px; font-weight: bold;\">Correct</p>","response":null,"trial_index":122,"plugin_version":"2.1.0","time_elapsed":350658,"subject_id":"91454","group":"Group2","condition":"1_Rep","full_date":"2026-02-28T17:57:57.122Z","date":"2026-02-28","time":"17:57:57"},{"correct_response":"a","task":"test_phase","broad_category":"M","image_png":"M_Quartzite_13.png","image_id":285,"category_name":"Quartzite","category":18,"distinct_rating":2.27,"distinct_type":"Bottom","item_type":"Foil","rt":2072,"stimulus":"Stimuli_Rocks480/M_Quartzite_13.png","response":"l","trial_type":"image-keyboard-response","trial_index":123,"plugin_version":"2.1.0","time_elapsed":352732,"subject_id":"91454","group":"Group2","condition":"1_Rep","full_date":"2026-02-28T17:57:57.122Z","date":"2026-02-28","time":"17:57:57","cor_ans":false},{"trial_type":"html-keyboard-response","rt":null,"stimulus":"<p style=\"color: red; font-size: 50px; font-weight: bold;\">Incorrect</p>","response":null,"trial_index":124,"plugin_version":"2.1.0","time_elapsed":353247,"subject_id":"91454","group":"Group2","condition":"1_Rep","full_date":"2026-02-28T17:57:57.122Z","date":"2026-02-28","time":"17:57:57"},{"correct_response":"a","task":"test_phase","broad_category":"I","image_png":"I_Basalt_01.png","image_id":17,"category_name":"Basalt","category":2,"distinct_rating":1.92,"distinct_type":"Bottom","item_type":"Foil","rt":977,"stimulus":"Stimuli_Rocks480/I_Basalt_01.png","response":"l","trial_type":"image-keyboard-response","trial_index":125,"plugin_version":"2.1.0","time_elapsed":354227,"subject_id":"91454","group":"Group2","condition":"1_Rep","full_date":"2026-02-28T17:57:57.122Z","date":"2026-02-28","time":"17:57:57","cor_ans":false},{"trial_type":"html-keyboard-response","rt":null,"stimulus":"<p style=\"color: red; font-size: 50px; font-weight: bold;\">Incorrect</p>","response":null,"trial_index":126,"plugin_version":"2.1.0","time_elapsed":354741,"subject_id":"91454","group":"Group2","condition":"1_Rep","full_date":"2026-02-28T17:57:57.122Z","date":"2026-02-28","time":"17:57:57"},{"correct_response":"a","task":"test_phase","broad_category":"S","image_png":"S_Shale_12.png","image_id":476,"category_name":"Shale","category":30,"distinct_rating":2.48,"distinct_type":"Bottom","item_type":"Foil","rt":5002,"stimulus":"Stimuli_Rocks480/S_Shale_12.png","response":"l","trial_type":"image-keyboard-response","trial_index":127,"plugin_version":"2.1.0","time_elapsed":359745,"subject_id":"91454","group":"Group2","condition":"1_Rep","full_date":"2026-02-28T17:57:57.122Z","date":"2026-02-28","time":"17:57:57","cor_ans":false},{"trial_type":"html-keyboard-response","rt":null,"stimulus":"<p style=\"color: red; font-size: 50px; font-weight: bold;\">Incorrect</p>","response":null,"trial_index":128,"plugin_version":"2.1.0","time_elapsed":360248,"subject_id":"91454","group":"Group2","condition":"1_Rep","full_date":"2026-02-28T17:57:57.122Z","date":"2026-02-28","time":"17:57:57"},{"correct_response":"a","task":"test_phase","broad_category":"I","image_png":"I_Gabbro_16.png","image_id":64,"category_name":"Gabbro","category":4,"distinct_rating":2.52,"distinct_type":"Bottom","item_type":"Foil","rt":1328,"stimulus":"Stimuli_Rocks480/I_Gabbro_16.png","response":"l","trial_type":"image-keyboard-response","trial_index":129,"plugin_version":"2.1.0","time_elapsed":361577,"subject_id":"91454","group":"Group2","condition":"1_Rep","full_date":"2026-02-28T17:57:57.122Z","date":"2026-02-28","time":"17:57:57","cor_ans":false},{"trial_type":"html-keyboard-response","rt":null,"stimulus":"<p style=\"color: red; font-size: 50px; font-weight: bold;\">Incorrect</p>","response":null,"trial_index":130,"plugin_version":"2.1.0","time_elapsed":362088,"subject_id":"91454","group":"Group2","condition":"1_Rep","full_date":"2026-02-28T17:57:57.122Z","date":"2026-02-28","time":"17:57:57"},{"correct_response":"l","task":"test_phase","broad_category":"S","image_png":"S_Conglomerate_14.png","image_id":382,"category_name":"Conglomerate","category":24,"distinct_rating":6.86,"distinct_type":"Top","item_type":"Target","rt":1786,"stimulus":"Stimuli_Rocks480/S_Conglomerate_14.png","response":"l","trial_type":"image-keyboard-response","trial_index":131,"plugin_version":"2.1.0","time_elapsed":363876,"subject_id":"91454","group":"Group2","condition":"1_Rep","full_date":"2026-02-28T17:57:57.122Z","date":"2026-02-28","time":"17:57:57","cor_ans":true},{"trial_type":"html-keyboard-response","rt":null,"stimulus":"<p style=\"color: green; font-size: 50px; font-weight: bold;\">Correct</p>","response":null,"trial_index":132,"plugin_version":"2.1.0","time_elapsed":364384,"subject_id":"91454","group":"Group2","condition":"1_Rep","full_date":"2026-02-28T17:57:57.122Z","date":"2026-02-28","time":"17:57:57"},{"correct_response":"a","task":"test_phase","broad_category":"S","image_png":"S_Dolomite_13.png","image_id":397,"category_name":"Dolomite","category":25,"distinct_rating":1.77,"distinct_type":"Bottom","item_type":"Foil","rt":932,"stimulus":"Stimuli_Rocks480/S_Dolomite_13.png","response":"l","trial_type":"image-keyboard-response","trial_index":133,"plugin_version":"2.1.0","time_elapsed":365319,"subject_id":"91454","group":"Group2","condition":"1_Rep","full_date":"2026-02-28T17:57:57.122Z","date":"2026-02-28","time":"17:57:57","cor_ans":false},{"trial_type":"html-keyboard-response","rt":null,"stimulus":"<p style=\"color: red; font-size: 50px; font-weight: bold;\">Incorrect</p>","response":null,"trial_index":134,"plugin_version":"2.1.0","time_elapsed":365835,"subject_id":"91454","group":"Group2","condition":"1_Rep","full_date":"2026-02-28T17:57:57.122Z","date":"2026-02-28","time":"17:57:57"},{"correct_response":"l","task":"test_phase","broad_category":"I","image_png":"I_Andesite_04.png","image_id":4,"category_name":"Andesite","category":1,"distinct_rating":3.18,"distinct_type":"Bottom","item_type":"Target","rt":1076,"stimulus":"Stimuli_Rocks480/I_Andesite_04.png","response":"l","trial_type":"image-keyboard-response","trial_index":135,"plugin_version":"2.1.0","time_elapsed":366914,"subject_id":"91454","group":"Group2","condition":"1_Rep","full_date":"2026-02-28T17:57:57.122Z","date":"2026-02-28","time":"17:57:57","cor_ans":true},{"trial_type":"html-keyboard-response","rt":null,"stimulus":"<p style=\"color: green; font-size: 50px; font-weight: bold;\">Correct</p>","response":null,"trial_index":136,"plugin_version":"2.1.0","time_elapsed":367428,"subject_id":"91454","group":"Group2","condition":"1_Rep","full_date":"2026-02-28T17:57:57.122Z","date":"2026-02-28","time":"17:57:57"},{"correct_response":"a","task":"test_phase","broad_category":"I","image_png":"I_Rhyolite_11.png","image_id":155,"category_name":"Rhyolite","category":10,"distinct_rating":1.73,"distinct_type":"Bottom","item_type":"Foil","rt":1018,"stimulus":"Stimuli_Rocks480/I_Rhyolite_11.png","response":"l","trial_type":"image-keyboard-response","trial_index":137,"plugin_version":"2.1.0","time_elapsed":368449,"subject_id":"91454","group":"Group2","condition":"1_Rep","full_date":"2026-02-28T17:57:57.122Z","date":"2026-02-28","time":"17:57:57","cor_ans":false},{"trial_type":"html-keyboard-response","rt":null,"stimulus":"<p style=\"color: red; font-size: 50px; font-weight: bold;\">Incorrect</p>","response":null,"trial_index":138,"plugin_version":"2.1.0","time_elapsed":368953,"subject_id":"91454","group":"Group2","condition":"1_Rep","full_date":"2026-02-28T17:57:57.122Z","date":"2026-02-28","time":"17:57:57"},{"correct_response":"a","task":"test_phase","broad_category":"M","image_png":"M_Gneiss_05.png","image_id":197,"category_name":"Gneiss","category":13,"distinct_rating":2.97,"distinct_type":"Bottom","item_type":"Foil","rt":916,"stimulus":"Stimuli_Rocks480/M_Gneiss_05.png","response":"l","trial_type":"image-keyboard-response","trial_index":139,"plugin_version":"2.1.0","time_elapsed":369870,"subject_id":"91454","group":"Group2","condition":"1_Rep","full_date":"2026-02-28T17:57:57.122Z","date":"2026-02-28","time":"17:57:57","cor_ans":false},{"trial_type":"html-keyboard-response","rt":null,"stimulus":"<p style=\"color: red; font-size: 50px; font-weight: bold;\">Incorrect</p>","response":null,"trial_index":140,"plugin_version":"2.1.0","time_elapsed":370385,"subject_id":"91454","group":"Group2","condition":"1_Rep","full_date":"2026-02-28T17:57:57.122Z","date":"2026-02-28","time":"17:57:57"},{"correct_response":"l","task":"test_phase","broad_category":"I","image_png":"I_Pegmatite_11.png","image_id":107,"category_name":"Pegmatite","category":7,"distinct_rating":7.11,"distinct_type":"Top","item_type":"Target","rt":807,"stimulus":"Stimuli_Rocks480/I_Pegmatite_11.png","response":"l","trial_type":"image-keyboard-response","trial_index":141,"plugin_version":"2.1.0","time_elapsed":371193,"subject_id":"91454","group":"Group2","condition":"1_Rep","full_date":"2026-02-28T17:57:57.122Z","date":"2026-02-28","time":"17:57:57","cor_ans":true},{"trial_type":"html-keyboard-response","rt":null,"stimulus":"<p style=\"color: green; font-size: 50px; font-weight: bold;\">Correct</p>","response":null,"trial_index":142,"plugin_version":"2.1.0","time_elapsed":371701,"subject_id":"91454","group":"Group2","condition":"1_Rep","full_date":"2026-02-28T17:57:57.122Z","date":"2026-02-28","time":"17:57:57"},{"correct_response":"l","task":"test_phase","broad_category":"I","image_png":"I_Rhyolite_10.png","image_id":154,"category_name":"Rhyolite","category":10,"distinct_rating":2.88,"distinct_type":"Bottom","item_type":"Target","rt":3410,"stimulus":"Stimuli_Rocks480/I_Rhyolite_10.png","response":"a","trial_type":"image-keyboard-response","trial_index":143,"plugin_version":"2.1.0","time_elapsed":375113,"subject_id":"91454","group":"Group2","condition":"1_Rep","full_date":"2026-02-28T17:57:57.122Z","date":"2026-02-28","time":"17:57:57","cor_ans":false},{"trial_type":"html-keyboard-response","rt":null,"stimulus":"<p style=\"color: red; font-size: 50px; font-weight: bold;\">Incorrect</p>","response":null,"trial_index":144,"plugin_version":"2.1.0","time_elapsed":375624,"subject_id":"91454","group":"Group2","condition":"1_Rep","full_date":"2026-02-28T17:57:57.122Z","date":"2026-02-28","time":"17:57:57"},{"correct_response":"a","task":"test_phase","broad_category":"S","image_png":"S_Sandstone_16.png","image_id":464,"category_name":"Sandstone","category":29,"distinct_rating":1.93,"distinct_type":"Bottom","item_type":"Foil","rt":1467,"stimulus":"Stimuli_Rocks480/S_Sandstone_16.png","response":"a","trial_type":"image-keyboard-response","trial_index":145,"plugin_version":"2.1.0","time_elapsed":377093,"subject_id":"91454","group":"Group2","condition":"1_Rep","full_date":"2026-02-28T17:57:57.122Z","date":"2026-02-28","time":"17:57:57","cor_ans":true},{"trial_type":"html-keyboard-response","rt":null,"stimulus":"<p style=\"color: green; font-size: 50px; font-weight: bold;\">Correct</p>","response":null,"trial_index":146,"plugin_version":"2.1.0","time_elapsed":377604,"subject_id":"91454","group":"Group2","condition":"1_Rep","full_date":"2026-02-28T17:57:57.122Z","date":"2026-02-28","time":"17:57:57"},{"correct_response":"l","task":"test_phase","broad_category":"M","image_png":"M_Phyllite_02.png","image_id":258,"category_name":"Phyllite","category":17,"distinct_rating":2.89,"distinct_type":"Bottom","item_type":"Target","rt":1619,"stimulus":"Stimuli_Rocks480/M_Phyllite_02.png","response":"a","trial_type":"image-keyboard-response","trial_index":147,"plugin_version":"2.1.0","time_elapsed":379225,"subject_id":"91454","group":"Group2","condition":"1_Rep","full_date":"2026-02-28T17:57:57.122Z","date":"2026-02-28","time":"17:57:57","cor_ans":false},{"trial_type":"html-keyboard-response","rt":null,"stimulus":"<p style=\"color: red; font-size: 50px; font-weight: bold;\">Incorrect</p>","response":null,"trial_index":148,"plugin_version":"2.1.0","time_elapsed":379734,"subject_id":"91454","group":"Group2","condition":"1_Rep","full_date":"2026-02-28T17:57:57.122Z","date":"2026-02-28","time":"17:57:57"},{"correct_response":"a","task":"test_phase","broad_category":"I","image_png":"I_Obsidian_05.png","image_id":85,"category_name":"Obsidian","category":6,"distinct_rating":7.32,"distinct_type":"Top","item_type":"Foil","rt":1161,"stimulus":"Stimuli_Rocks480/I_Obsidian_05.png","response":"a","trial_type":"image-keyboard-response","trial_index":149,"plugin_version":"2.1.0","time_elapsed":380897,"subject_id":"91454","group":"Group2","condition":"1_Rep","full_date":"2026-02-28T17:57:57.122Z","date":"2026-02-28","time":"17:57:57","cor_ans":true},{"trial_type":"html-keyboard-response","rt":null,"stimulus":"<p style=\"color: green; font-size: 50px; font-weight: bold;\">Correct</p>","response":null,"trial_index":150,"plugin_version":"2.1.0","time_elapsed":381403,"subject_id":"91454","group":"Group2","condition":"1_Rep","full_date":"2026-02-28T17:57:57.122Z","date":"2026-02-28","time":"17:57:57"},{"correct_response":"l","task":"test_phase","broad_category":"I","image_png":"I_Pegmatite_03.png","image_id":99,"category_name":"Pegmatite","category":7,"distinct_rating":7.24,"distinct_type":"Top","item_type":"Target","rt":1371,"stimulus":"Stimuli_Rocks480/I_Pegmatite_03.png","response":"a","trial_type":"image-keyboard-response","trial_index":151,"plugin_version":"2.1.0","time_elapsed":382777,"subject_id":"91454","group":"Group2","condition":"1_Rep","full_date":"2026-02-28T17:57:57.122Z","date":"2026-02-28","time":"17:57:57","cor_ans":false},{"trial_type":"html-keyboard-response","rt":null,"stimulus":"<p style=\"color: red; font-size: 50px; font-weight: bold;\">Incorrect</p>","response":null,"trial_index":152,"plugin_version":"2.1.0","time_elapsed":383291,"subject_id":"91454","group":"Group2","condition":"1_Rep","full_date":"2026-02-28T17:57:57.122Z","date":"2026-02-28","time":"17:57:57"},{"correct_response":"l","task":"test_phase","broad_category":"M","image_png":"M_Slate_10.png","image_id":314,"category_name":"Slate","category":20,"distinct_rating":1.94,"distinct_type":"Bottom","item_type":"Target","rt":1562,"stimulus":"Stimuli_Rocks480/M_Slate_10.png","response":"l","trial_type":"image-keyboard-response","trial_index":153,"plugin_version":"2.1.0","time_elapsed":384856,"subject_id":"91454","group":"Group2","condition":"1_Rep","full_date":"2026-02-28T17:57:57.122Z","date":"2026-02-28","time":"17:57:57","cor_ans":true},{"trial_type":"html-keyboard-response","rt":null,"stimulus":"<p style=\"color: green; font-size: 50px; font-weight: bold;\">Correct</p>","response":null,"trial_index":154,"plugin_version":"2.1.0","time_elapsed":385367,"subject_id":"91454","group":"Group2","condition":"1_Rep","full_date":"2026-02-28T17:57:57.122Z","date":"2026-02-28","time":"17:57:57"},{"correct_response":"a","task":"test_phase","broad_category":"S","image_png":"S_Dolomite_14.png","image_id":398,"category_name":"Dolomite","category":25,"distinct_rating":1.43,"distinct_type":"Bottom","item_type":"Foil","rt":738,"stimulus":"Stimuli_Rocks480/S_Dolomite_14.png","response":"l","trial_type":"image-keyboard-response","trial_index":155,"plugin_version":"2.1.0","time_elapsed":386108,"subject_id":"91454","group":"Group2","condition":"1_Rep","full_date":"2026-02-28T17:57:57.122Z","date":"2026-02-28","time":"17:57:57","cor_ans":false},{"trial_type":"html-keyboard-response","rt":null,"stimulus":"<p style=\"color: red; font-size: 50px; font-weight: bold;\">Incorrect</p>","response":null,"trial_index":156,"plugin_version":"2.1.0","time_elapsed":386612,"subject_id":"91454","group":"Group2","condition":"1_Rep","full_date":"2026-02-28T17:57:57.122Z","date":"2026-02-28","time":"17:57:57"},{"correct_response":"a","task":"test_phase","broad_category":"S","image_png":"S_Rock Salt_01.png","image_id":433,"category_name":"Rock Salt","category":28,"distinct_rating":7.18,"distinct_type":"Top","item_type":"Foil","rt":1379,"stimulus":"Stimuli_Rocks480/S_Rock Salt_01.png","response":"a","trial_type":"image-keyboard-response","trial_index":157,"plugin_version":"2.1.0","time_elapsed":387993,"subject_id":"91454","group":"Group2","condition":"1_Rep","full_date":"2026-02-28T17:57:57.122Z","date":"2026-02-28","time":"17:57:57","cor_ans":true},{"trial_type":"html-keyboard-response","rt":null,"stimulus":"<p style=\"color: green; font-size: 50px; font-weight: bold;\">Correct</p>","response":null,"trial_index":158,"plugin_version":"2.1.0","time_elapsed":388501,"subject_id":"91454","group":"Group2","condition":"1_Rep","full_date":"2026-02-28T17:57:57.122Z","date":"2026-02-28","time":"17:57:57"},{"correct_response":"a","task":"test_phase","broad_category":"M","image_png":"M_Marble_04.png","image_id":228,"category_name":"Marble","category":15,"distinct_rating":3.15,"distinct_type":"Bottom","item_type":"Foil","rt":3988,"stimulus":"Stimuli_Rocks480/M_Marble_04.png","response":"a","trial_type":"image-keyboard-response","trial_index":159,"plugin_version":"2.1.0","time_elapsed":392492,"subject_id":"91454","group":"Group2","condition":"1_Rep","full_date":"2026-02-28T17:57:57.122Z","date":"2026-02-28","time":"17:57:57","cor_ans":true},{"trial_type":"html-keyboard-response","rt":null,"stimulus":"<p style=\"color: green; font-size: 50px; font-weight: bold;\">Correct</p>","response":null,"trial_index":160,"plugin_version":"2.1.0","time_elapsed":393009,"subject_id":"91454","group":"Group2","condition":"1_Rep","full_date":"2026-02-28T17:57:57.122Z","date":"2026-02-28","time":"17:57:57"},{"correct_response":"a","task":"test_phase","broad_category":"M","image_png":"M_Slate_03.png","image_id":307,"category_name":"Slate","category":20,"distinct_rating":1.87,"distinct_type":"Bottom","item_type":"Foil","rt":1122,"stimulus":"Stimuli_Rocks480/M_Slate_03.png","response":"l","trial_type":"image-keyboard-response","trial_index":161,"plugin_version":"2.1.0","time_elapsed":394133,"subject_id":"91454","group":"Group2","condition":"1_Rep","full_date":"2026-02-28T17:57:57.122Z","date":"2026-02-28","time":"17:57:57","cor_ans":false},{"trial_type":"html-keyboard-response","rt":null,"stimulus":"<p style=\"color: red; font-size: 50px; font-weight: bold;\">Incorrect</p>","response":null,"trial_index":162,"plugin_version":"2.1.0","time_elapsed":394649,"subject_id":"91454","group":"Group2","condition":"1_Rep","full_date":"2026-02-28T17:57:57.122Z","date":"2026-02-28","time":"17:57:57"},{"correct_response":"l","task":"test_phase","broad_category":"S","image_png":"S_Dolomite_01.png","image_id":385,"category_name":"Dolomite","category":25,"distinct_rating":1.43,"distinct_type":"Bottom","item_type":"Target","rt":2638,"stimulus":"Stimuli_Rocks480/S_Dolomite_01.png","response":"l","trial_type":"image-keyboard-response","trial_index":163,"plugin_version":"2.1.0","time_elapsed":397290,"subject_id":"91454","group":"Group2","condition":"1_Rep","full_date":"2026-02-28T17:57:57.122Z","date":"2026-02-28","time":"17:57:57","cor_ans":true},{"trial_type":"html-keyboard-response","rt":null,"stimulus":"<p style=\"color: green; font-size: 50px; font-weight: bold;\">Correct</p>","response":null,"trial_index":164,"plugin_version":"2.1.0","time_elapsed":397798,"subject_id":"91454","group":"Group2","condition":"1_Rep","full_date":"2026-02-28T17:57:57.122Z","date":"2026-02-28","time":"17:57:57"},{"correct_response":"l","task":"test_phase","broad_category":"M","image_png":"M_Marble_14.png","image_id":238,"category_name":"Marble","category":15,"distinct_rating":3.31,"distinct_type":"Bottom","item_type":"Target","rt":1396,"stimulus":"Stimuli_Rocks480/M_Marble_14.png","response":"l","trial_type":"image-keyboard-response","trial_index":165,"plugin_version":"2.1.0","time_elapsed":399196,"subject_id":"91454","group":"Group2","condition":"1_Rep","full_date":"2026-02-28T17:57:57.122Z","date":"2026-02-28","time":"17:57:57","cor_ans":true},{"trial_type":"html-keyboard-response","rt":null,"stimulus":"<p style=\"color: green; font-size: 50px; font-weight: bold;\">Correct</p>","response":null,"trial_index":166,"plugin_version":"2.1.0","time_elapsed":399699,"subject_id":"91454","group":"Group2","condition":"1_Rep","full_date":"2026-02-28T17:57:57.122Z","date":"2026-02-28","time":"17:57:57"},{"correct_response":"l","task":"test_phase","broad_category":"M","image_png":"M_Quartzite_07.png","image_id":279,"category_name":"Quartzite","category":18,"distinct_rating":1.97,"distinct_type":"Bottom","item_type":"Target","rt":3860,"stimulus":"Stimuli_Rocks480/M_Quartzite_07.png","response":"a","trial_type":"image-keyboard-response","trial_index":167,"plugin_version":"2.1.0","time_elapsed":403563,"subject_id":"91454","group":"Group2","condition":"1_Rep","full_date":"2026-02-28T17:57:57.122Z","date":"2026-02-28","time":"17:57:57","cor_ans":false},{"trial_type":"html-keyboard-response","rt":null,"stimulus":"<p style=\"color: red; font-size: 50px; font-weight: bold;\">Incorrect</p>","response":null,"trial_index":168,"plugin_version":"2.1.0","time_elapsed":404068,"subject_id":"91454","group":"Group2","condition":"1_Rep","full_date":"2026-02-28T17:57:57.122Z","date":"2026-02-28","time":"17:57:57"},{"correct_response":"a","task":"test_phase","broad_category":"M","image_png":"M_Quartzite_08.png","image_id":280,"category_name":"Quartzite","category":18,"distinct_rating":2.15,"distinct_type":"Bottom","item_type":"Foil","rt":4082,"stimulus":"Stimuli_Rocks480/M_Quartzite_08.png","response":"a","trial_type":"image-keyboard-response","trial_index":169,"plugin_version":"2.1.0","time_elapsed":408153,"subject_id":"91454","group":"Group2","condition":"1_Rep","full_date":"2026-02-28T17:57:57.122Z","date":"2026-02-28","time":"17:57:57","cor_ans":true},{"trial_type":"html-keyboard-response","rt":null,"stimulus":"<p style=\"color: green; font-size: 50px; font-weight: bold;\">Correct</p>","response":null,"trial_index":170,"plugin_version":"2.1.0","time_elapsed":408663,"subject_id":"91454","group":"Group2","condition":"1_Rep","full_date":"2026-02-28T17:57:57.122Z","date":"2026-02-28","time":"17:57:57"},{"correct_response":"a","task":"test_phase","broad_category":"I","image_png":"I_Basalt_02.png","image_id":18,"category_name":"Basalt","category":2,"distinct_rating":1.84,"distinct_type":"Bottom","item_type":"Foil","rt":8988,"stimulus":"Stimuli_Rocks480/I_Basalt_02.png","response":"a","trial_type":"image-keyboard-response","trial_index":171,"plugin_version":"2.1.0","time_elapsed":417653,"subject_id":"91454","group":"Group2","condition":"1_Rep","full_date":"2026-02-28T17:57:57.122Z","date":"2026-02-28","time":"17:57:57","cor_ans":true},{"trial_type":"html-keyboard-response","rt":null,"stimulus":"<p style=\"color: green; font-size: 50px; font-weight: bold;\">Correct</p>","response":null,"trial_index":172,"plugin_version":"2.1.0","time_elapsed":418167,"subject_id":"91454","group":"Group2","condition":"1_Rep","full_date":"2026-02-28T17:57:57.122Z","date":"2026-02-28","time":"17:57:57"},{"correct_response":"a","task":"test_phase","broad_category":"M","image_png":"M_Slate_15.png","image_id":319,"category_name":"Slate","category":20,"distinct_rating":2.13,"distinct_type":"Bottom","item_type":"Foil","rt":1600,"stimulus":"Stimuli_Rocks480/M_Slate_15.png","response":"l","trial_type":"image-keyboard-response","trial_index":173,"plugin_version":"2.1.0","time_elapsed":419770,"subject_id":"91454","group":"Group2","condition":"1_Rep","full_date":"2026-02-28T17:57:57.122Z","date":"2026-02-28","time":"17:57:57","cor_ans":false},{"trial_type":"html-keyboard-response","rt":null,"stimulus":"<p style=\"color: red; font-size: 50px; font-weight: bold;\">Incorrect</p>","response":null,"trial_index":174,"plugin_version":"2.1.0","time_elapsed":420285,"subject_id":"91454","group":"Group2","condition":"1_Rep","full_date":"2026-02-28T17:57:57.122Z","date":"2026-02-28","time":"17:57:57"},{"correct_response":"a","task":"test_phase","broad_category":"S","image_png":"S_Rock Gypsum_04.png","image_id":420,"category_name":"Rock Gypsum","category":27,"distinct_rating":7.61,"distinct_type":"Top","item_type":"Foil","rt":1553,"stimulus":"Stimuli_Rocks480/S_Rock Gypsum_04.png","response":"a","trial_type":"image-keyboard-response","trial_index":175,"plugin_version":"2.1.0","time_elapsed":421839,"subject_id":"91454","group":"Group2","condition":"1_Rep","full_date":"2026-02-28T17:57:57.122Z","date":"2026-02-28","time":"17:57:57","cor_ans":true},{"trial_type":"html-keyboard-response","rt":null,"stimulus":"<p style=\"color: green; font-size: 50px; font-weight: bold;\">Correct</p>","response":null,"trial_index":176,"plugin_version":"2.1.0","time_elapsed":422344,"subject_id":"91454","group":"Group2","condition":"1_Rep","full_date":"2026-02-28T17:57:57.122Z","date":"2026-02-28","time":"17:57:57"},{"correct_response":"l","task":"test_phase","broad_category":"M","image_png":"M_Slate_14.png","image_id":318,"category_name":"Slate","category":20,"distinct_rating":2.58,"distinct_type":"Bottom","item_type":"Target","rt":1216,"stimulus":"Stimuli_Rocks480/M_Slate_14.png","response":"l","trial_type":"image-keyboard-response","trial_index":177,"plugin_version":"2.1.0","time_elapsed":423562,"subject_id":"91454","group":"Group2","condition":"1_Rep","full_date":"2026-02-28T17:57:57.122Z","date":"2026-02-28","time":"17:57:57","cor_ans":true},{"trial_type":"html-keyboard-response","rt":null,"stimulus":"<p style=\"color: green; font-size: 50px; font-weight: bold;\">Correct</p>","response":null,"trial_index":178,"plugin_version":"2.1.0","time_elapsed":424076,"subject_id":"91454","group":"Group2","condition":"1_Rep","full_date":"2026-02-28T17:57:57.122Z","date":"2026-02-28","time":"17:57:57"},{"correct_response":"l","task":"test_phase","broad_category":"M","image_png":"M_Phyllite_05.png","image_id":261,"category_name":"Phyllite","category":17,"distinct_rating":2.14,"distinct_type":"Bottom","item_type":"Target","rt":1147,"stimulus":"Stimuli_Rocks480/M_Phyllite_05.png","response":"l","trial_type":"image-keyboard-response","trial_index":179,"plugin_version":"2.1.0","time_elapsed":425226,"subject_id":"91454","group":"Group2","condition":"1_Rep","full_date":"2026-02-28T17:57:57.122Z","date":"2026-02-28","time":"17:57:57","cor_ans":true},{"trial_type":"html-keyboard-response","rt":null,"stimulus":"<p style=\"color: green; font-size: 50px; font-weight: bold;\">Correct</p>","response":null,"trial_index":180,"plugin_version":"2.1.0","time_elapsed":425731,"subject_id":"91454","group":"Group2","condition":"1_Rep","full_date":"2026-02-28T17:57:57.122Z","date":"2026-02-28","time":"17:57:57"},{"correct_response":"l","task":"test_phase","broad_category":"M","image_png":"M_Phyllite_13.png","image_id":269,"category_name":"Phyllite","category":17,"distinct_rating":2.8,"distinct_type":"Bottom","item_type":"Target","rt":1577,"stimulus":"Stimuli_Rocks480/M_Phyllite_13.png","response":"a","trial_type":"image-keyboard-response","trial_index":181,"plugin_version":"2.1.0","time_elapsed":427310,"subject_id":"91454","group":"Group2","condition":"1_Rep","full_date":"2026-02-28T17:57:57.122Z","date":"2026-02-28","time":"17:57:57","cor_ans":false},{"trial_type":"html-keyboard-response","rt":null,"stimulus":"<p style=\"color: red; font-size: 50px; font-weight: bold;\">Incorrect</p>","response":null,"trial_index":182,"plugin_version":"2.1.0","time_elapsed":427823,"subject_id":"91454","group":"Group2","condition":"1_Rep","full_date":"2026-02-28T17:57:57.122Z","date":"2026-02-28","time":"17:57:57"},{"correct_response":"l","task":"test_phase","broad_category":"S","image_png":"S_Shale_02.png","image_id":466,"category_name":"Shale","category":30,"distinct_rating":2.9,"distinct_type":"Bottom","item_type":"Target","rt":1325,"stimulus":"Stimuli_Rocks480/S_Shale_02.png","response":"l","trial_type":"image-keyboard-response","trial_index":183,"plugin_version":"2.1.0","time_elapsed":429152,"subject_id":"91454","group":"Group2","condition":"1_Rep","full_date":"2026-02-28T17:57:57.122Z","date":"2026-02-28","time":"17:57:57","cor_ans":true},{"trial_type":"html-keyboard-response","rt":null,"stimulus":"<p style=\"color: green; font-size: 50px; font-weight: bold;\">Correct</p>","response":null,"trial_index":184,"plugin_version":"2.1.0","time_elapsed":429654,"subject_id":"91454","group":"Group2","condition":"1_Rep","full_date":"2026-02-28T17:57:57.122Z","date":"2026-02-28","time":"17:57:57"},{"correct_response":"l","task":"test_phase","broad_category":"S","image_png":"S_Dolomite_16.png","image_id":400,"category_name":"Dolomite","category":25,"distinct_rating":1.71,"distinct_type":"Bottom","item_type":"Target","rt":1363,"stimulus":"Stimuli_Rocks480/S_Dolomite_16.png","response":"l","trial_type":"image-keyboard-response","trial_index":185,"plugin_version":"2.1.0","time_elapsed":431019,"subject_id":"91454","group":"Group2","condition":"1_Rep","full_date":"2026-02-28T17:57:57.122Z","date":"2026-02-28","time":"17:57:57","cor_ans":true},{"trial_type":"html-keyboard-response","rt":null,"stimulus":"<p style=\"color: green; font-size: 50px; font-weight: bold;\">Correct</p>","response":null,"trial_index":186,"plugin_version":"2.1.0","time_elapsed":431519,"subject_id":"91454","group":"Group2","condition":"1_Rep","full_date":"2026-02-28T17:57:57.122Z","date":"2026-02-28","time":"17:57:57"},{"correct_response":"a","task":"test_phase","broad_category":"I","image_png":"I_Diorite_05.png","image_id":37,"category_name":"Diorite","category":3,"distinct_rating":3.08,"distinct_type":"Bottom","item_type":"Foil","rt":768,"stimulus":"Stimuli_Rocks480/I_Diorite_05.png","response":"l","trial_type":"image-keyboard-response","trial_index":187,"plugin_version":"2.1.0","time_elapsed":432290,"subject_id":"91454","group":"Group2","condition":"1_Rep","full_date":"2026-02-28T17:57:57.122Z","date":"2026-02-28","time":"17:57:57","cor_ans":false},{"trial_type":"html-keyboard-response","rt":null,"stimulus":"<p style=\"color: red; font-size: 50px; font-weight: bold;\">Incorrect</p>","response":null,"trial_index":188,"plugin_version":"2.1.0","time_elapsed":432802,"subject_id":"91454","group":"Group2","condition":"1_Rep","full_date":"2026-02-28T17:57:57.122Z","date":"2026-02-28","time":"17:57:57"},{"correct_response":"l","task":"test_phase","broad_category":"M","image_png":"M_Slate_04.png","image_id":308,"category_name":"Slate","category":20,"distinct_rating":2.2,"distinct_type":"Bottom","item_type":"Target","rt":5835,"stimulus":"Stimuli_Rocks480/M_Slate_04.png","response":"a","trial_type":"image-keyboard-response","trial_index":189,"plugin_version":"2.1.0","time_elapsed":438639,"subject_id":"91454","group":"Group2","condition":"1_Rep","full_date":"2026-02-28T17:57:57.122Z","date":"2026-02-28","time":"17:57:57","cor_ans":false},{"trial_type":"html-keyboard-response","rt":null,"stimulus":"<p style=\"color: red; font-size: 50px; font-weight: bold;\">Incorrect</p>","response":null,"trial_index":190,"plugin_version":"2.1.0","time_elapsed":439147,"subject_id":"91454","group":"Group2","condition":"1_Rep","full_date":"2026-02-28T17:57:57.122Z","date":"2026-02-28","time":"17:57:57"},{"correct_response":"l","task":"test_phase","broad_category":"M","image_png":"M_Gneiss_15.png","image_id":207,"category_name":"Gneiss","category":13,"distinct_rating":3.11,"distinct_type":"Bottom","item_type":"Target","rt":1194,"stimulus":"Stimuli_Rocks480/M_Gneiss_15.png","response":"a","trial_type":"image-keyboard-response","trial_index":191,"plugin_version":"2.1.0","time_elapsed":440341,"subject_id":"91454","group":"Group2","condition":"1_Rep","full_date":"2026-02-28T17:57:57.122Z","date":"2026-02-28","time":"17:57:57","cor_ans":false},{"trial_type":"html-keyboard-response","rt":null,"stimulus":"<p style=\"color: red; font-size: 50px; font-weight: bold;\">Incorrect</p>","response":null,"trial_index":192,"plugin_version":"2.1.0","time_elapsed":440850,"subject_id":"91454","group":"Group2","condition":"1_Rep","full_date":"2026-02-28T17:57:57.122Z","date":"2026-02-28","time":"17:57:57"},{"correct_response":"l","task":"test_phase","broad_category":"S","image_png":"S_Rock Salt_15.png","image_id":447,"category_name":"Rock Salt","category":28,"distinct_rating":7.79,"distinct_type":"Top","item_type":"Target","rt":884,"stimulus":"Stimuli_Rocks480/S_Rock Salt_15.png","response":"l","trial_type":"image-keyboard-response","trial_index":193,"plugin_version":"2.1.0","time_elapsed":441735,"subject_id":"91454","group":"Group2","condition":"1_Rep","full_date":"2026-02-28T17:57:57.122Z","date":"2026-02-28","time":"17:57:57","cor_ans":true},{"trial_type":"html-keyboard-response","rt":null,"stimulus":"<p style=\"color: green; font-size: 50px; font-weight: bold;\">Correct</p>","response":null,"trial_index":194,"plugin_version":"2.1.0","time_elapsed":442239,"subject_id":"91454","group":"Group2","condition":"1_Rep","full_date":"2026-02-28T17:57:57.122Z","date":"2026-02-28","time":"17:57:57"},{"correct_response":"a","task":"test_phase","broad_category":"M","image_png":"M_Phyllite_10.png","image_id":266,"category_name":"Phyllite","category":17,"distinct_rating":2.6,"distinct_type":"Bottom","item_type":"Foil","rt":3776,"stimulus":"Stimuli_Rocks480/M_Phyllite_10.png","response":"l","trial_type":"image-keyboard-response","trial_index":195,"plugin_version":"2.1.0","time_elapsed":446016,"subject_id":"91454","group":"Group2","condition":"1_Rep","full_date":"2026-02-28T17:57:57.122Z","date":"2026-02-28","time":"17:57:57","cor_ans":false},{"trial_type":"html-keyboard-response","rt":null,"stimulus":"<p style=\"color: red; font-size: 50px; font-weight: bold;\">Incorrect</p>","response":null,"trial_index":196,"plugin_version":"2.1.0","time_elapsed":446529,"subject_id":"91454","group":"Group2","condition":"1_Rep","full_date":"2026-02-28T17:57:57.122Z","date":"2026-02-28","time":"17:57:57"},{"correct_response":"l","task":"test_phase","broad_category":"I","image_png":"I_Diorite_01.png","image_id":33,"category_name":"Diorite","category":3,"distinct_rating":2.97,"distinct_type":"Bottom","item_type":"Target","rt":713,"stimulus":"Stimuli_Rocks480/I_Diorite_01.png","response":"l","trial_type":"image-keyboard-response","trial_index":197,"plugin_version":"2.1.0","time_elapsed":447243,"subject_id":"91454","group":"Group2","condition":"1_Rep","full_date":"2026-02-28T17:57:57.122Z","date":"2026-02-28","time":"17:57:57","cor_ans":true},{"trial_type":"html-keyboard-response","rt":null,"stimulus":"<p style=\"color: green; font-size: 50px; font-weight: bold;\">Correct</p>","response":null,"trial_index":198,"plugin_version":"2.1.0","time_elapsed":447746,"subject_id":"91454","group":"Group2","condition":"1_Rep","full_date":"2026-02-28T17:57:57.122Z","date":"2026-02-28","time":"17:57:57"},{"correct_response":"l","task":"test_phase","broad_category":"I","image_png":"I_Gabbro_12.png","image_id":60,"category_name":"Gabbro","category":4,"distinct_rating":2.6,"distinct_type":"Bottom","item_type":"Target","rt":1052,"stimulus":"Stimuli_Rocks480/I_Gabbro_12.png","response":"l","trial_type":"image-keyboard-response","trial_index":199,"plugin_version":"2.1.0","time_elapsed":448799,"subject_id":"91454","group":"Group2","condition":"1_Rep","full_date":"2026-02-28T17:57:57.122Z","date":"2026-02-28","time":"17:57:57","cor_ans":true},{"trial_type":"html-keyboard-response","rt":null,"stimulus":"<p style=\"color: green; font-size: 50px; font-weight: bold;\">Correct</p>","response":null,"trial_index":200,"plugin_version":"2.1.0","time_elapsed":449307,"subject_id":"91454","group":"Group2","condition":"1_Rep","full_date":"2026-02-28T17:57:57.122Z","date":"2026-02-28","time":"17:57:57"},{"correct_response":"l","task":"test_phase","broad_category":"M","image_png":"M_Gneiss_14.png","image_id":206,"category_name":"Gneiss","category":13,"distinct_rating":3.41,"distinct_type":"Bottom","item_type":"Target","rt":1865,"stimulus":"Stimuli_Rocks480/M_Gneiss_14.png","response":"a","trial_type":"image-keyboard-response","trial_index":201,"plugin_version":"2.1.0","time_elapsed":451173,"subject_id":"91454","group":"Group2","condition":"1_Rep","full_date":"2026-02-28T17:57:57.122Z","date":"2026-02-28","time":"17:57:57","cor_ans":false},{"trial_type":"html-keyboard-response","rt":null,"stimulus":"<p style=\"color: red; font-size: 50px; font-weight: bold;\">Incorrect</p>","response":null,"trial_index":202,"plugin_version":"2.1.0","time_elapsed":451687,"subject_id":"91454","group":"Group2","condition":"1_Rep","full_date":"2026-02-28T17:57:57.122Z","date":"2026-02-28","time":"17:57:57"},{"correct_response":"l","task":"test_phase","broad_category":"I","image_png":"I_Basalt_10.png","image_id":26,"category_name":"Basalt","category":2,"distinct_rating":2.76,"distinct_type":"Bottom","item_type":"Target","rt":2423,"stimulus":"Stimuli_Rocks480/I_Basalt_10.png","response":"l","trial_type":"image-keyboard-response","trial_index":203,"plugin_version":"2.1.0","time_elapsed":454111,"subject_id":"91454","group":"Group2","condition":"1_Rep","full_date":"2026-02-28T17:57:57.122Z","date":"2026-02-28","time":"17:57:57","cor_ans":true},{"trial_type":"html-keyboard-response","rt":null,"stimulus":"<p style=\"color: green; font-size: 50px; font-weight: bold;\">Correct</p>","response":null,"trial_index":204,"plugin_version":"2.1.0","time_elapsed":454618,"subject_id":"91454","group":"Group2","condition":"1_Rep","full_date":"2026-02-28T17:57:57.122Z","date":"2026-02-28","time":"17:57:57"},{"correct_response":"a","task":"test_phase","broad_category":"S","image_png":"S_Conglomerate_05.png","image_id":373,"category_name":"Conglomerate","category":24,"distinct_rating":7.32,"distinct_type":"Top","item_type":"Foil","rt":1009,"stimulus":"Stimuli_Rocks480/S_Conglomerate_05.png","response":"a","trial_type":"image-keyboard-response","trial_index":205,"plugin_version":"2.1.0","time_elapsed":455627,"subject_id":"91454","group":"Group2","condition":"1_Rep","full_date":"2026-02-28T17:57:57.122Z","date":"2026-02-28","time":"17:57:57","cor_ans":true},{"trial_type":"html-keyboard-response","rt":null,"stimulus":"<p style=\"color: green; font-size: 50px; font-weight: bold;\">Correct</p>","response":null,"trial_index":206,"plugin_version":"2.1.0","time_elapsed":456132,"subject_id":"91454","group":"Group2","condition":"1_Rep","full_date":"2026-02-28T17:57:57.122Z","date":"2026-02-28","time":"17:57:57"},{"correct_response":"l","task":"test_phase","broad_category":"M","image_png":"M_Marble_03.png","image_id":227,"category_name":"Marble","category":15,"distinct_rating":2.67,"distinct_type":"Bottom","item_type":"Target","rt":917,"stimulus":"Stimuli_Rocks480/M_Marble_03.png","response":"l","trial_type":"image-keyboard-response","trial_index":207,"plugin_version":"2.1.0","time_elapsed":457051,"subject_id":"91454","group":"Group2","condition":"1_Rep","full_date":"2026-02-28T17:57:57.122Z","date":"2026-02-28","time":"17:57:57","cor_ans":true},{"trial_type":"html-keyboard-response","rt":null,"stimulus":"<p style=\"color: green; font-size: 50px; font-weight: bold;\">Correct</p>","response":null,"trial_index":208,"plugin_version":"2.1.0","time_elapsed":457552,"subject_id":"91454","group":"Group2","condition":"1_Rep","full_date":"2026-02-28T17:57:57.122Z","date":"2026-02-28","time":"17:57:57"},{"correct_response":"a","task":"test_phase","broad_category":"S","image_png":"S_Sandstone_03.png","image_id":451,"category_name":"Sandstone","category":29,"distinct_rating":1.86,"distinct_type":"Bottom","item_type":"Foil","rt":1930,"stimulus":"Stimuli_Rocks480/S_Sandstone_03.png","response":"a","trial_type":"image-keyboard-response","trial_index":209,"plugin_version":"2.1.0","time_elapsed":459485,"subject_id":"91454","group":"Group2","condition":"1_Rep","full_date":"2026-02-28T17:57:57.122Z","date":"2026-02-28","time":"17:57:57","cor_ans":true},{"trial_type":"html-keyboard-response","rt":null,"stimulus":"<p style=\"color: green; font-size: 50px; font-weight: bold;\">Correct</p>","response":null,"trial_index":210,"plugin_version":"2.1.0","time_elapsed":460000,"subject_id":"91454","group":"Group2","condition":"1_Rep","full_date":"2026-02-28T17:57:57.122Z","date":"2026-02-28","time":"17:57:57"},{"correct_response":"l","task":"test_phase","broad_category":"S","image_png":"S_Shale_07.png","image_id":471,"category_name":"Shale","category":30,"distinct_rating":2.73,"distinct_type":"Bottom","item_type":"Target","rt":1226,"stimulus":"Stimuli_Rocks480/S_Shale_07.png","response":"l","trial_type":"image-keyboard-response","trial_index":211,"plugin_version":"2.1.0","time_elapsed":461229,"subject_id":"91454","group":"Group2","condition":"1_Rep","full_date":"2026-02-28T17:57:57.122Z","date":"2026-02-28","time":"17:57:57","cor_ans":true},{"trial_type":"html-keyboard-response","rt":null,"stimulus":"<p style=\"color: green; font-size: 50px; font-weight: bold;\">Correct</p>","response":null,"trial_index":212,"plugin_version":"2.1.0","time_elapsed":461735,"subject_id":"91454","group":"Group2","condition":"1_Rep","full_date":"2026-02-28T17:57:57.122Z","date":"2026-02-28","time":"17:57:57"},{"correct_response":"l","task":"test_phase","broad_category":"S","image_png":"S_Sandstone_08.png","image_id":456,"category_name":"Sandstone","category":29,"distinct_rating":1.5,"distinct_type":"Bottom","item_type":"Target","rt":1283,"stimulus":"Stimuli_Rocks480/S_Sandstone_08.png","response":"l","trial_type":"image-keyboard-response","trial_index":213,"plugin_version":"2.1.0","time_elapsed":463019,"subject_id":"91454","group":"Group2","condition":"1_Rep","full_date":"2026-02-28T17:57:57.122Z","date":"2026-02-28","time":"17:57:57","cor_ans":true},{"trial_type":"html-keyboard-response","rt":null,"stimulus":"<p style=\"color: green; font-size: 50px; font-weight: bold;\">Correct</p>","response":null,"trial_index":214,"plugin_version":"2.1.0","time_elapsed":463526,"subject_id":"91454","group":"Group2","condition":"1_Rep","full_date":"2026-02-28T17:57:57.122Z","date":"2026-02-28","time":"17:57:57"},{"correct_response":"a","task":"test_phase","broad_category":"I","image_png":"I_Andesite_10.png","image_id":10,"category_name":"Andesite","category":1,"distinct_rating":3.15,"distinct_type":"Bottom","item_type":"Foil","rt":1344,"stimulus":"Stimuli_Rocks480/I_Andesite_10.png","response":"a","trial_type":"image-keyboard-response","trial_index":215,"plugin_version":"2.1.0","time_elapsed":464873,"subject_id":"91454","group":"Group2","condition":"1_Rep","full_date":"2026-02-28T17:57:57.122Z","date":"2026-02-28","time":"17:57:57","cor_ans":true},{"trial_type":"html-keyboard-response","rt":null,"stimulus":"<p style=\"color: green; font-size: 50px; font-weight: bold;\">Correct</p>","response":null,"trial_index":216,"plugin_version":"2.1.0","time_elapsed":465389,"subject_id":"91454","group":"Group2","condition":"1_Rep","full_date":"2026-02-28T17:57:57.122Z","date":"2026-02-28","time":"17:57:57"},{"correct_response":"l","task":"test_phase","broad_category":"S","image_png":"S_Chert_13.png","image_id":365,"category_name":"Chert","category":23,"distinct_rating":6.57,"distinct_type":"Top","item_type":"Target","rt":957,"stimulus":"Stimuli_Rocks480/S_Chert_13.png","response":"l","trial_type":"image-keyboard-response","trial_index":217,"plugin_version":"2.1.0","time_elapsed":466348,"subject_id":"91454","group":"Group2","condition":"1_Rep","full_date":"2026-02-28T17:57:57.122Z","date":"2026-02-28","time":"17:57:57","cor_ans":true},{"trial_type":"html-keyboard-response","rt":null,"stimulus":"<p style=\"color: green; font-size: 50px; font-weight: bold;\">Correct</p>","response":null,"trial_index":218,"plugin_version":"2.1.0","time_elapsed":466854,"subject_id":"91454","group":"Group2","condition":"1_Rep","full_date":"2026-02-28T17:57:57.122Z","date":"2026-02-28","time":"17:57:57"},{"correct_response":"l","task":"test_phase","broad_category":"I","image_png":"I_Andesite_09.png","image_id":9,"category_name":"Andesite","category":1,"distinct_rating":2.49,"distinct_type":"Bottom","item_type":"Target","rt":3478,"stimulus":"Stimuli_Rocks480/I_Andesite_09.png","response":"l","trial_type":"image-keyboard-response","trial_index":219,"plugin_version":"2.1.0","time_elapsed":470334,"subject_id":"91454","group":"Group2","condition":"1_Rep","full_date":"2026-02-28T17:57:57.122Z","date":"2026-02-28","time":"17:57:57","cor_ans":true},{"trial_type":"html-keyboard-response","rt":null,"stimulus":"<p style=\"color: green; font-size: 50px; font-weight: bold;\">Correct</p>","response":null,"trial_index":220,"plugin_version":"2.1.0","time_elapsed":470839,"subject_id":"91454","group":"Group2","condition":"1_Rep","full_date":"2026-02-28T17:57:57.122Z","date":"2026-02-28","time":"17:57:57"},{"correct_response":"a","task":"test_phase","broad_category":"S","image_png":"S_Sandstone_15.png","image_id":463,"category_name":"Sandstone","category":29,"distinct_rating":2,"distinct_type":"Bottom","item_type":"Foil","rt":1454,"stimulus":"Stimuli_Rocks480/S_Sandstone_15.png","response":"a","trial_type":"image-keyboard-response","trial_index":221,"plugin_version":"2.1.0","time_elapsed":472296,"subject_id":"91454","group":"Group2","condition":"1_Rep","full_date":"2026-02-28T17:57:57.122Z","date":"2026-02-28","time":"17:57:57","cor_ans":true},{"trial_type":"html-keyboard-response","rt":null,"stimulus":"<p style=\"color: green; font-size: 50px; font-weight: bold;\">Correct</p>","response":null,"trial_index":222,"plugin_version":"2.1.0","time_elapsed":472808,"subject_id":"91454","group":"Group2","condition":"1_Rep","full_date":"2026-02-28T17:57:57.122Z","date":"2026-02-28","time":"17:57:57"},{"correct_response":"a","task":"test_phase","broad_category":"I","image_png":"I_Basalt_09.png","image_id":25,"category_name":"Basalt","category":2,"distinct_rating":1.89,"distinct_type":"Bottom","item_type":"Foil","rt":3004,"stimulus":"Stimuli_Rocks480/I_Basalt_09.png","response":"a","trial_type":"image-keyboard-response","trial_index":223,"plugin_version":"2.1.0","time_elapsed":475814,"subject_id":"91454","group":"Group2","condition":"1_Rep","full_date":"2026-02-28T17:57:57.122Z","date":"2026-02-28","time":"17:57:57","cor_ans":true},{"trial_type":"html-keyboard-response","rt":null,"stimulus":"<p style=\"color: green; font-size: 50px; font-weight: bold;\">Correct</p>","response":null,"trial_index":224,"plugin_version":"2.1.0","time_elapsed":476315,"subject_id":"91454","group":"Group2","condition":"1_Rep","full_date":"2026-02-28T17:57:57.122Z","date":"2026-02-28","time":"17:57:57"}