[{"width":1470,"height":839,"webaudio":true,"browser":"safari","browser_version":"18.5.0","mobile":false,"os":"Mac OS","fullscreen":true,"vsync_rate":60,"webcam":true,"microphone":true,"trial_type":"browser-check","trial_index":0,"plugin_version":"2.1.0","time_elapsed":1010,"subject_id":"92102","group":"Group2","condition":"1_Rep","full_date":"2026-01-24T22:41:38.472Z","date":"2026-01-24","time":"22:41:38"},{"success":true,"timeout":false,"failed_images":[],"failed_audio":[],"failed_video":[],"trial_type":"preload","trial_index":1,"plugin_version":"2.1.0","time_elapsed":17301,"subject_id":"92102","group":"Group2","condition":"1_Rep","full_date":"2026-01-24T22:41:38.472Z","date":"2026-01-24","time":"22:41:38"},{"rt":10797,"url":"SONA_consent_memorability.html","trial_type":"external-html","trial_index":2,"plugin_version":"2.1.0","time_elapsed":28162,"subject_id":"92102","group":"Group2","condition":"1_Rep","full_date":"2026-01-24T22:41:38.472Z","date":"2026-01-24","time":"22:41:38"},{"success":true,"rt":1081,"trial_type":"fullscreen","trial_index":3,"plugin_version":"2.1.0","time_elapsed":30248,"subject_id":"92102","group":"Group2","condition":"1_Rep","full_date":"2026-01-24T22:41:38.472Z","date":"2026-01-24","time":"22:41:38"},{"rt":5394,"stimulus":"<div style=\"max-width: 760px; margin: auto; font-size: 20px; line-height: 1.5;\">\n      <h1 style=\"text-align:center; font-size: 30px;\">Instructions</h1>\n      <p>\n        Welcome to the study on <b>visual memory</b>. This experiment consists of <b>two phases</b>: \n        a <b>study phase</b> and a <b>test phase</b>.\n      </p>\n      <p>\n        In the study phase, you will see a series of rock images along with their category labels.\n        The images will appear one at a time.\n        <b>Your task</b> is to learn the categories to which the rock images belong \n        and to remember each image as accurately as possible.\n      </p> \n      <p>\n        Note that you will see each image only <b>once</b> during the study phase. \n          So, please pay close attention and try to remember each image carefully.\n      </p>\n      <p>\n        After the study phase, <b>your memory will be tested</b>. \n        Additional instructions for the test phase will be provided at that time.\n      </p>\n      <p>\n        If your computer has multiple <b>language settings</b> (e.g., English and another language),\n        please make sure it is set to English before starting.\n      </p>\n      <p>\n        You can track your progress using the <b>completion bar</b> at the top of the screen. \n        Please note that the bar will refresh when the test phase begins \n        to give you an accurate sense of your progress in both phases.\n      </p> \n      <p>\n        Press the button below when you are ready to begin.\n      </p>\n    </div>","response":0,"trial_type":"html-button-response","trial_index":4,"plugin_version":"2.1.0","time_elapsed":35645,"subject_id":"92102","group":"Group2","condition":"1_Rep","full_date":"2026-01-24T22:41:38.472Z","date":"2026-01-24","time":"22:41:38"},{"rt":null,"stimulus":"<p style=\"font-size: 50px; margin: 0; text-align: center;\">+</p>","response":null,"trial_type":"html-keyboard-response","trial_index":5,"plugin_version":"2.1.0","time_elapsed":36649,"subject_id":"92102","group":"Group2","condition":"1_Rep","full_date":"2026-01-24T22:41:38.472Z","date":"2026-01-24","time":"22:41:38"},{"task":"memory_phase","broad_category":"I","image_png":"I_Basalt_10.png","image_id":26,"category_name":"Basalt","category":2,"distinct_rating":2.76,"distinct_type":"Bottom","rt":null,"stimulus":"Stimuli_Rocks480/I_Basalt_10.png","response":null,"trial_type":"image-keyboard-response","trial_index":6,"plugin_version":"2.1.0","time_elapsed":39167,"subject_id":"92102","group":"Group2","condition":"1_Rep","full_date":"2026-01-24T22:41:38.472Z","date":"2026-01-24","time":"22:41:38"},{"rt":null,"stimulus":"<p style=\"font-size: 50px; margin: 0; text-align: center;\">+</p>","response":null,"trial_type":"html-keyboard-response","trial_index":7,"plugin_version":"2.1.0","time_elapsed":40170,"subject_id":"92102","group":"Group2","condition":"1_Rep","full_date":"2026-01-24T22:41:38.472Z","date":"2026-01-24","time":"22:41:38"},{"task":"memory_phase","broad_category":"I","image_png":"I_Diorite_15.png","image_id":47,"category_name":"Diorite","category":3,"distinct_rating":3.05,"distinct_type":"Bottom","rt":null,"stimulus":"Stimuli_Rocks480/I_Diorite_15.png","response":null,"trial_type":"image-keyboard-response","trial_index":8,"plugin_version":"2.1.0","time_elapsed":42683,"subject_id":"92102","group":"Group2","condition":"1_Rep","full_date":"2026-01-24T22:41:38.472Z","date":"2026-01-24","time":"22:41:38"},{"rt":null,"stimulus":"<p style=\"font-size: 50px; margin: 0; text-align: center;\">+</p>","response":null,"trial_type":"html-keyboard-response","trial_index":9,"plugin_version":"2.1.0","time_elapsed":43685,"subject_id":"92102","group":"Group2","condition":"1_Rep","full_date":"2026-01-24T22:41:38.472Z","date":"2026-01-24","time":"22:41:38"},{"task":"memory_phase","broad_category":"I","image_png":"I_Andesite_09.png","image_id":9,"category_name":"Andesite","category":1,"distinct_rating":2.49,"distinct_type":"Bottom","rt":null,"stimulus":"Stimuli_Rocks480/I_Andesite_09.png","response":null,"trial_type":"image-keyboard-response","trial_index":10,"plugin_version":"2.1.0","time_elapsed":46199,"subject_id":"92102","group":"Group2","condition":"1_Rep","full_date":"2026-01-24T22:41:38.472Z","date":"2026-01-24","time":"22:41:38"},{"rt":null,"stimulus":"<p style=\"font-size: 50px; margin: 0; text-align: center;\">+</p>","response":null,"trial_type":"html-keyboard-response","trial_index":11,"plugin_version":"2.1.0","time_elapsed":47201,"subject_id":"92102","group":"Group2","condition":"1_Rep","full_date":"2026-01-24T22:41:38.472Z","date":"2026-01-24","time":"22:41:38"},{"task":"memory_phase","broad_category":"M","image_png":"M_Marble_03.png","image_id":227,"category_name":"Marble","category":15,"distinct_rating":2.67,"distinct_type":"Bottom","rt":null,"stimulus":"Stimuli_Rocks480/M_Marble_03.png","response":null,"trial_type":"image-keyboard-response","trial_index":12,"plugin_version":"2.1.0","time_elapsed":49716,"subject_id":"92102","group":"Group2","condition":"1_Rep","full_date":"2026-01-24T22:41:38.472Z","date":"2026-01-24","time":"22:41:38"},{"rt":null,"stimulus":"<p style=\"font-size: 50px; margin: 0; text-align: center;\">+</p>","response":null,"trial_type":"html-keyboard-response","trial_index":13,"plugin_version":"2.1.0","time_elapsed":50719,"subject_id":"92102","group":"Group2","condition":"1_Rep","full_date":"2026-01-24T22:41:38.472Z","date":"2026-01-24","time":"22:41:38"},{"task":"memory_phase","broad_category":"I","image_png":"I_Basalt_13.png","image_id":29,"category_name":"Basalt","category":2,"distinct_rating":2.68,"distinct_type":"Bottom","rt":null,"stimulus":"Stimuli_Rocks480/I_Basalt_13.png","response":null,"trial_type":"image-keyboard-response","trial_index":14,"plugin_version":"2.1.0","time_elapsed":53233,"subject_id":"92102","group":"Group2","condition":"1_Rep","full_date":"2026-01-24T22:41:38.472Z","date":"2026-01-24","time":"22:41:38"},{"rt":null,"stimulus":"<p style=\"font-size: 50px; margin: 0; text-align: center;\">+</p>","response":null,"trial_type":"html-keyboard-response","trial_index":15,"plugin_version":"2.1.0","time_elapsed":54235,"subject_id":"92102","group":"Group2","condition":"1_Rep","full_date":"2026-01-24T22:41:38.472Z","date":"2026-01-24","time":"22:41:38"},{"task":"memory_phase","broad_category":"I","image_png":"I_Diorite_01.png","image_id":33,"category_name":"Diorite","category":3,"distinct_rating":2.97,"distinct_type":"Bottom","rt":null,"stimulus":"Stimuli_Rocks480/I_Diorite_01.png","response":null,"trial_type":"image-keyboard-response","trial_index":16,"plugin_version":"2.1.0","time_elapsed":56753,"subject_id":"92102","group":"Group2","condition":"1_Rep","full_date":"2026-01-24T22:41:38.472Z","date":"2026-01-24","time":"22:41:38"},{"rt":null,"stimulus":"<p style=\"font-size: 50px; margin: 0; text-align: center;\">+</p>","response":null,"trial_type":"html-keyboard-response","trial_index":17,"plugin_version":"2.1.0","time_elapsed":57755,"subject_id":"92102","group":"Group2","condition":"1_Rep","full_date":"2026-01-24T22:41:38.472Z","date":"2026-01-24","time":"22:41:38"},{"task":"memory_phase","broad_category":"I","image_png":"I_Pegmatite_03.png","image_id":99,"category_name":"Pegmatite","category":7,"distinct_rating":7.24,"distinct_type":"Top","rt":null,"stimulus":"Stimuli_Rocks480/I_Pegmatite_03.png","response":null,"trial_type":"image-keyboard-response","trial_index":18,"plugin_version":"2.1.0","time_elapsed":60269,"subject_id":"92102","group":"Group2","condition":"1_Rep","full_date":"2026-01-24T22:41:38.472Z","date":"2026-01-24","time":"22:41:38"},{"rt":null,"stimulus":"<p style=\"font-size: 50px; margin: 0; text-align: center;\">+</p>","response":null,"trial_type":"html-keyboard-response","trial_index":19,"plugin_version":"2.1.0","time_elapsed":61272,"subject_id":"92102","group":"Group2","condition":"1_Rep","full_date":"2026-01-24T22:41:38.472Z","date":"2026-01-24","time":"22:41:38"},{"task":"memory_phase","broad_category":"M","image_png":"M_Gneiss_10.png","image_id":202,"category_name":"Gneiss","category":13,"distinct_rating":3.09,"distinct_type":"Bottom","rt":null,"stimulus":"Stimuli_Rocks480/M_Gneiss_10.png","response":null,"trial_type":"image-keyboard-response","trial_index":20,"plugin_version":"2.1.0","time_elapsed":63788,"subject_id":"92102","group":"Group2","condition":"1_Rep","full_date":"2026-01-24T22:41:38.472Z","date":"2026-01-24","time":"22:41:38"},{"rt":null,"stimulus":"<p style=\"font-size: 50px; margin: 0; text-align: center;\">+</p>","response":null,"trial_type":"html-keyboard-response","trial_index":21,"plugin_version":"2.1.0","time_elapsed":64790,"subject_id":"92102","group":"Group2","condition":"1_Rep","full_date":"2026-01-24T22:41:38.472Z","date":"2026-01-24","time":"22:41:38"},{"task":"memory_phase","broad_category":"I","image_png":"I_Pumice_14.png","image_id":142,"category_name":"Pumice","category":9,"distinct_rating":3.22,"distinct_type":"Bottom","rt":null,"stimulus":"Stimuli_Rocks480/I_Pumice_14.png","response":null,"trial_type":"image-keyboard-response","trial_index":22,"plugin_version":"2.1.0","time_elapsed":67305,"subject_id":"92102","group":"Group2","condition":"1_Rep","full_date":"2026-01-24T22:41:38.472Z","date":"2026-01-24","time":"22:41:38"},{"rt":null,"stimulus":"<p style=\"font-size: 50px; margin: 0; text-align: center;\">+</p>","response":null,"trial_type":"html-keyboard-response","trial_index":23,"plugin_version":"2.1.0","time_elapsed":68307,"subject_id":"92102","group":"Group2","condition":"1_Rep","full_date":"2026-01-24T22:41:38.472Z","date":"2026-01-24","time":"22:41:38"},{"task":"memory_phase","broad_category":"S","image_png":"S_Sandstone_04.png","image_id":452,"category_name":"Sandstone","category":29,"distinct_rating":1.8,"distinct_type":"Bottom","rt":null,"stimulus":"Stimuli_Rocks480/S_Sandstone_04.png","response":null,"trial_type":"image-keyboard-response","trial_index":24,"plugin_version":"2.1.0","time_elapsed":70823,"subject_id":"92102","group":"Group2","condition":"1_Rep","full_date":"2026-01-24T22:41:38.472Z","date":"2026-01-24","time":"22:41:38"},{"rt":null,"stimulus":"<p style=\"font-size: 50px; margin: 0; text-align: center;\">+</p>","response":null,"trial_type":"html-keyboard-response","trial_index":25,"plugin_version":"2.1.0","time_elapsed":71825,"subject_id":"92102","group":"Group2","condition":"1_Rep","full_date":"2026-01-24T22:41:38.472Z","date":"2026-01-24","time":"22:41:38"},{"task":"memory_phase","broad_category":"I","image_png":"I_Basalt_08.png","image_id":24,"category_name":"Basalt","category":2,"distinct_rating":2.31,"distinct_type":"Bottom","rt":null,"stimulus":"Stimuli_Rocks480/I_Basalt_08.png","response":null,"trial_type":"image-keyboard-response","trial_index":26,"plugin_version":"2.1.0","time_elapsed":74346,"subject_id":"92102","group":"Group2","condition":"1_Rep","full_date":"2026-01-24T22:41:38.472Z","date":"2026-01-24","time":"22:41:38"},{"rt":null,"stimulus":"<p style=\"font-size: 50px; margin: 0; text-align: center;\">+</p>","response":null,"trial_type":"html-keyboard-response","trial_index":27,"plugin_version":"2.1.0","time_elapsed":75348,"subject_id":"92102","group":"Group2","condition":"1_Rep","full_date":"2026-01-24T22:41:38.472Z","date":"2026-01-24","time":"22:41:38"},{"task":"memory_phase","broad_category":"S","image_png":"S_Rock Salt_15.png","image_id":447,"category_name":"Rock Salt","category":28,"distinct_rating":7.79,"distinct_type":"Top","rt":null,"stimulus":"Stimuli_Rocks480/S_Rock Salt_15.png","response":null,"trial_type":"image-keyboard-response","trial_index":28,"plugin_version":"2.1.0","time_elapsed":77863,"subject_id":"92102","group":"Group2","condition":"1_Rep","full_date":"2026-01-24T22:41:38.472Z","date":"2026-01-24","time":"22:41:38"},{"rt":null,"stimulus":"<p style=\"font-size: 50px; margin: 0; text-align: center;\">+</p>","response":null,"trial_type":"html-keyboard-response","trial_index":29,"plugin_version":"2.1.0","time_elapsed":78865,"subject_id":"92102","group":"Group2","condition":"1_Rep","full_date":"2026-01-24T22:41:38.472Z","date":"2026-01-24","time":"22:41:38"},{"task":"memory_phase","broad_category":"M","image_png":"M_Slate_10.png","image_id":314,"category_name":"Slate","category":20,"distinct_rating":1.94,"distinct_type":"Bottom","rt":null,"stimulus":"Stimuli_Rocks480/M_Slate_10.png","response":null,"trial_type":"image-keyboard-response","trial_index":30,"plugin_version":"2.1.0","time_elapsed":81377,"subject_id":"92102","group":"Group2","condition":"1_Rep","full_date":"2026-01-24T22:41:38.472Z","date":"2026-01-24","time":"22:41:38"},{"rt":null,"stimulus":"<p style=\"font-size: 50px; margin: 0; text-align: center;\">+</p>","response":null,"trial_type":"html-keyboard-response","trial_index":31,"plugin_version":"2.1.0","time_elapsed":82379,"subject_id":"92102","group":"Group2","condition":"1_Rep","full_date":"2026-01-24T22:41:38.472Z","date":"2026-01-24","time":"22:41:38"},{"task":"memory_phase","broad_category":"I","image_png":"I_Gabbro_12.png","image_id":60,"category_name":"Gabbro","category":4,"distinct_rating":2.6,"distinct_type":"Bottom","rt":null,"stimulus":"Stimuli_Rocks480/I_Gabbro_12.png","response":null,"trial_type":"image-keyboard-response","trial_index":32,"plugin_version":"2.1.0","time_elapsed":84897,"subject_id":"92102","group":"Group2","condition":"1_Rep","full_date":"2026-01-24T22:41:38.472Z","date":"2026-01-24","time":"22:41:38"},{"rt":null,"stimulus":"<p style=\"font-size: 50px; margin: 0; text-align: center;\">+</p>","response":null,"trial_type":"html-keyboard-response","trial_index":33,"plugin_version":"2.1.0","time_elapsed":85900,"subject_id":"92102","group":"Group2","condition":"1_Rep","full_date":"2026-01-24T22:41:38.472Z","date":"2026-01-24","time":"22:41:38"},{"task":"memory_phase","broad_category":"I","image_png":"I_Andesite_04.png","image_id":4,"category_name":"Andesite","category":1,"distinct_rating":3.18,"distinct_type":"Bottom","rt":null,"stimulus":"Stimuli_Rocks480/I_Andesite_04.png","response":null,"trial_type":"image-keyboard-response","trial_index":34,"plugin_version":"2.1.0","time_elapsed":88414,"subject_id":"92102","group":"Group2","condition":"1_Rep","full_date":"2026-01-24T22:41:38.472Z","date":"2026-01-24","time":"22:41:38"},{"rt":null,"stimulus":"<p style=\"font-size: 50px; margin: 0; text-align: center;\">+</p>","response":null,"trial_type":"html-keyboard-response","trial_index":35,"plugin_version":"2.1.0","time_elapsed":89416,"subject_id":"92102","group":"Group2","condition":"1_Rep","full_date":"2026-01-24T22:41:38.472Z","date":"2026-01-24","time":"22:41:38"},{"task":"memory_phase","broad_category":"I","image_png":"I_Andesite_03.png","image_id":3,"category_name":"Andesite","category":1,"distinct_rating":3.17,"distinct_type":"Bottom","rt":null,"stimulus":"Stimuli_Rocks480/I_Andesite_03.png","response":null,"trial_type":"image-keyboard-response","trial_index":36,"plugin_version":"2.1.0","time_elapsed":91928,"subject_id":"92102","group":"Group2","condition":"1_Rep","full_date":"2026-01-24T22:41:38.472Z","date":"2026-01-24","time":"22:41:38"},{"rt":null,"stimulus":"<p style=\"font-size: 50px; margin: 0; text-align: center;\">+</p>","response":null,"trial_type":"html-keyboard-response","trial_index":37,"plugin_version":"2.1.0","time_elapsed":92929,"subject_id":"92102","group":"Group2","condition":"1_Rep","full_date":"2026-01-24T22:41:38.472Z","date":"2026-01-24","time":"22:41:38"},{"task":"memory_phase","broad_category":"S","image_png":"S_Dolomite_16.png","image_id":400,"category_name":"Dolomite","category":25,"distinct_rating":1.71,"distinct_type":"Bottom","rt":null,"stimulus":"Stimuli_Rocks480/S_Dolomite_16.png","response":null,"trial_type":"image-keyboard-response","trial_index":38,"plugin_version":"2.1.0","time_elapsed":95443,"subject_id":"92102","group":"Group2","condition":"1_Rep","full_date":"2026-01-24T22:41:38.472Z","date":"2026-01-24","time":"22:41:38"},{"rt":null,"stimulus":"<p style=\"font-size: 50px; margin: 0; text-align: center;\">+</p>","response":null,"trial_type":"html-keyboard-response","trial_index":39,"plugin_version":"2.1.0","time_elapsed":96446,"subject_id":"92102","group":"Group2","condition":"1_Rep","full_date":"2026-01-24T22:41:38.472Z","date":"2026-01-24","time":"22:41:38"},{"task":"memory_phase","broad_category":"M","image_png":"M_Quartzite_07.png","image_id":279,"category_name":"Quartzite","category":18,"distinct_rating":1.97,"distinct_type":"Bottom","rt":null,"stimulus":"Stimuli_Rocks480/M_Quartzite_07.png","response":null,"trial_type":"image-keyboard-response","trial_index":40,"plugin_version":"2.1.0","time_elapsed":98963,"subject_id":"92102","group":"Group2","condition":"1_Rep","full_date":"2026-01-24T22:41:38.472Z","date":"2026-01-24","time":"22:41:38"},{"rt":null,"stimulus":"<p style=\"font-size: 50px; margin: 0; text-align: center;\">+</p>","response":null,"trial_type":"html-keyboard-response","trial_index":41,"plugin_version":"2.1.0","time_elapsed":99965,"subject_id":"92102","group":"Group2","condition":"1_Rep","full_date":"2026-01-24T22:41:38.472Z","date":"2026-01-24","time":"22:41:38"},{"task":"memory_phase","broad_category":"I","image_png":"I_Gabbro_02.png","image_id":50,"category_name":"Gabbro","category":4,"distinct_rating":2.73,"distinct_type":"Bottom","rt":null,"stimulus":"Stimuli_Rocks480/I_Gabbro_02.png","response":null,"trial_type":"image-keyboard-response","trial_index":42,"plugin_version":"2.1.0","time_elapsed":102480,"subject_id":"92102","group":"Group2","condition":"1_Rep","full_date":"2026-01-24T22:41:38.472Z","date":"2026-01-24","time":"22:41:38"},{"rt":null,"stimulus":"<p style=\"font-size: 50px; margin: 0; text-align: center;\">+</p>","response":null,"trial_type":"html-keyboard-response","trial_index":43,"plugin_version":"2.1.0","time_elapsed":103483,"subject_id":"92102","group":"Group2","condition":"1_Rep","full_date":"2026-01-24T22:41:38.472Z","date":"2026-01-24","time":"22:41:38"},{"task":"memory_phase","broad_category":"I","image_png":"I_Peridotite_13.png","image_id":125,"category_name":"Peridotite","category":8,"distinct_rating":7.28,"distinct_type":"Top","rt":null,"stimulus":"Stimuli_Rocks480/I_Peridotite_13.png","response":null,"trial_type":"image-keyboard-response","trial_index":44,"plugin_version":"2.1.0","time_elapsed":106002,"subject_id":"92102","group":"Group2","condition":"1_Rep","full_date":"2026-01-24T22:41:38.472Z","date":"2026-01-24","time":"22:41:38"},{"rt":null,"stimulus":"<p style=\"font-size: 50px; margin: 0; text-align: center;\">+</p>","response":null,"trial_type":"html-keyboard-response","trial_index":45,"plugin_version":"2.1.0","time_elapsed":107003,"subject_id":"92102","group":"Group2","condition":"1_Rep","full_date":"2026-01-24T22:41:38.472Z","date":"2026-01-24","time":"22:41:38"},{"task":"memory_phase","broad_category":"S","image_png":"S_Conglomerate_14.png","image_id":382,"category_name":"Conglomerate","category":24,"distinct_rating":6.86,"distinct_type":"Top","rt":null,"stimulus":"Stimuli_Rocks480/S_Conglomerate_14.png","response":null,"trial_type":"image-keyboard-response","trial_index":46,"plugin_version":"2.1.0","time_elapsed":109517,"subject_id":"92102","group":"Group2","condition":"1_Rep","full_date":"2026-01-24T22:41:38.472Z","date":"2026-01-24","time":"22:41:38"},{"rt":null,"stimulus":"<p style=\"font-size: 50px; margin: 0; text-align: center;\">+</p>","response":null,"trial_type":"html-keyboard-response","trial_index":47,"plugin_version":"2.1.0","time_elapsed":110520,"subject_id":"92102","group":"Group2","condition":"1_Rep","full_date":"2026-01-24T22:41:38.472Z","date":"2026-01-24","time":"22:41:38"},{"task":"memory_phase","broad_category":"I","image_png":"I_Rhyolite_10.png","image_id":154,"category_name":"Rhyolite","category":10,"distinct_rating":2.88,"distinct_type":"Bottom","rt":null,"stimulus":"Stimuli_Rocks480/I_Rhyolite_10.png","response":null,"trial_type":"image-keyboard-response","trial_index":48,"plugin_version":"2.1.0","time_elapsed":113040,"subject_id":"92102","group":"Group2","condition":"1_Rep","full_date":"2026-01-24T22:41:38.472Z","date":"2026-01-24","time":"22:41:38"},{"rt":null,"stimulus":"<p style=\"font-size: 50px; margin: 0; text-align: center;\">+</p>","response":null,"trial_type":"html-keyboard-response","trial_index":49,"plugin_version":"2.1.0","time_elapsed":114042,"subject_id":"92102","group":"Group2","condition":"1_Rep","full_date":"2026-01-24T22:41:38.472Z","date":"2026-01-24","time":"22:41:38"},{"task":"memory_phase","broad_category":"M","image_png":"M_Gneiss_14.png","image_id":206,"category_name":"Gneiss","category":13,"distinct_rating":3.41,"distinct_type":"Bottom","rt":null,"stimulus":"Stimuli_Rocks480/M_Gneiss_14.png","response":null,"trial_type":"image-keyboard-response","trial_index":50,"plugin_version":"2.1.0","time_elapsed":116557,"subject_id":"92102","group":"Group2","condition":"1_Rep","full_date":"2026-01-24T22:41:38.472Z","date":"2026-01-24","time":"22:41:38"},{"rt":null,"stimulus":"<p style=\"font-size: 50px; margin: 0; text-align: center;\">+</p>","response":null,"trial_type":"html-keyboard-response","trial_index":51,"plugin_version":"2.1.0","time_elapsed":117560,"subject_id":"92102","group":"Group2","condition":"1_Rep","full_date":"2026-01-24T22:41:38.472Z","date":"2026-01-24","time":"22:41:38"},{"task":"memory_phase","broad_category":"S","image_png":"S_Shale_02.png","image_id":466,"category_name":"Shale","category":30,"distinct_rating":2.9,"distinct_type":"Bottom","rt":null,"stimulus":"Stimuli_Rocks480/S_Shale_02.png","response":null,"trial_type":"image-keyboard-response","trial_index":52,"plugin_version":"2.1.0","time_elapsed":120073,"subject_id":"92102","group":"Group2","condition":"1_Rep","full_date":"2026-01-24T22:41:38.472Z","date":"2026-01-24","time":"22:41:38"},{"rt":null,"stimulus":"<p style=\"font-size: 50px; margin: 0; text-align: center;\">+</p>","response":null,"trial_type":"html-keyboard-response","trial_index":53,"plugin_version":"2.1.0","time_elapsed":121076,"subject_id":"92102","group":"Group2","condition":"1_Rep","full_date":"2026-01-24T22:41:38.472Z","date":"2026-01-24","time":"22:41:38"},{"task":"memory_phase","broad_category":"S","image_png":"S_Shale_07.png","image_id":471,"category_name":"Shale","category":30,"distinct_rating":2.73,"distinct_type":"Bottom","rt":null,"stimulus":"Stimuli_Rocks480/S_Shale_07.png","response":null,"trial_type":"image-keyboard-response","trial_index":54,"plugin_version":"2.1.0","time_elapsed":123589,"subject_id":"92102","group":"Group2","condition":"1_Rep","full_date":"2026-01-24T22:41:38.472Z","date":"2026-01-24","time":"22:41:38"},{"rt":3393,"stimulus":"<p style=\"max-width: 760px; margin: auto; font-size: 35px; line-height: 1.5;\">\n                Press SPACE to continue study phase\n              </p>","response":" ","trial_type":"html-keyboard-response","trial_index":55,"plugin_version":"2.1.0","time_elapsed":126984,"subject_id":"92102","group":"Group2","condition":"1_Rep","full_date":"2026-01-24T22:41:38.472Z","date":"2026-01-24","time":"22:41:38"},{"rt":null,"stimulus":"<p style=\"font-size: 50px; margin: 0; text-align: center;\">+</p>","response":null,"trial_type":"html-keyboard-response","trial_index":56,"plugin_version":"2.1.0","time_elapsed":127985,"subject_id":"92102","group":"Group2","condition":"1_Rep","full_date":"2026-01-24T22:41:38.472Z","date":"2026-01-24","time":"22:41:38"},{"task":"memory_phase","broad_category":"I","image_png":"I_Gabbro_14.png","image_id":62,"category_name":"Gabbro","category":4,"distinct_rating":2.95,"distinct_type":"Bottom","rt":null,"stimulus":"Stimuli_Rocks480/I_Gabbro_14.png","response":null,"trial_type":"image-keyboard-response","trial_index":57,"plugin_version":"2.1.0","time_elapsed":130503,"subject_id":"92102","group":"Group2","condition":"1_Rep","full_date":"2026-01-24T22:41:38.472Z","date":"2026-01-24","time":"22:41:38"},{"rt":null,"stimulus":"<p style=\"font-size: 50px; margin: 0; text-align: center;\">+</p>","response":null,"trial_type":"html-keyboard-response","trial_index":58,"plugin_version":"2.1.0","time_elapsed":131505,"subject_id":"92102","group":"Group2","condition":"1_Rep","full_date":"2026-01-24T22:41:38.472Z","date":"2026-01-24","time":"22:41:38"},{"task":"memory_phase","broad_category":"S","image_png":"S_Chert_13.png","image_id":365,"category_name":"Chert","category":23,"distinct_rating":6.57,"distinct_type":"Top","rt":null,"stimulus":"Stimuli_Rocks480/S_Chert_13.png","response":null,"trial_type":"image-keyboard-response","trial_index":59,"plugin_version":"2.1.0","time_elapsed":134015,"subject_id":"92102","group":"Group2","condition":"1_Rep","full_date":"2026-01-24T22:41:38.472Z","date":"2026-01-24","time":"22:41:38"},{"rt":null,"stimulus":"<p style=\"font-size: 50px; margin: 0; text-align: center;\">+</p>","response":null,"trial_type":"html-keyboard-response","trial_index":60,"plugin_version":"2.1.0","time_elapsed":135017,"subject_id":"92102","group":"Group2","condition":"1_Rep","full_date":"2026-01-24T22:41:38.472Z","date":"2026-01-24","time":"22:41:38"},{"task":"memory_phase","broad_category":"S","image_png":"S_Dolomite_07.png","image_id":391,"category_name":"Dolomite","category":25,"distinct_rating":1.73,"distinct_type":"Bottom","rt":null,"stimulus":"Stimuli_Rocks480/S_Dolomite_07.png","response":null,"trial_type":"image-keyboard-response","trial_index":61,"plugin_version":"2.1.0","time_elapsed":137531,"subject_id":"92102","group":"Group2","condition":"1_Rep","full_date":"2026-01-24T22:41:38.472Z","date":"2026-01-24","time":"22:41:38"},{"rt":null,"stimulus":"<p style=\"font-size: 50px; margin: 0; text-align: center;\">+</p>","response":null,"trial_type":"html-keyboard-response","trial_index":62,"plugin_version":"2.1.0","time_elapsed":138532,"subject_id":"92102","group":"Group2","condition":"1_Rep","full_date":"2026-01-24T22:41:38.472Z","date":"2026-01-24","time":"22:41:38"},{"task":"memory_phase","broad_category":"I","image_png":"I_Pumice_13.png","image_id":141,"category_name":"Pumice","category":9,"distinct_rating":3.12,"distinct_type":"Bottom","rt":null,"stimulus":"Stimuli_Rocks480/I_Pumice_13.png","response":null,"trial_type":"image-keyboard-response","trial_index":63,"plugin_version":"2.1.0","time_elapsed":141049,"subject_id":"92102","group":"Group2","condition":"1_Rep","full_date":"2026-01-24T22:41:38.472Z","date":"2026-01-24","time":"22:41:38"},{"rt":null,"stimulus":"<p style=\"font-size: 50px; margin: 0; text-align: center;\">+</p>","response":null,"trial_type":"html-keyboard-response","trial_index":64,"plugin_version":"2.1.0","time_elapsed":142052,"subject_id":"92102","group":"Group2","condition":"1_Rep","full_date":"2026-01-24T22:41:38.472Z","date":"2026-01-24","time":"22:41:38"},{"task":"memory_phase","broad_category":"I","image_png":"I_Rhyolite_08.png","image_id":152,"category_name":"Rhyolite","category":10,"distinct_rating":1.38,"distinct_type":"Bottom","rt":null,"stimulus":"Stimuli_Rocks480/I_Rhyolite_08.png","response":null,"trial_type":"image-keyboard-response","trial_index":65,"plugin_version":"2.1.0","time_elapsed":144565,"subject_id":"92102","group":"Group2","condition":"1_Rep","full_date":"2026-01-24T22:41:38.472Z","date":"2026-01-24","time":"22:41:38"},{"rt":null,"stimulus":"<p style=\"font-size: 50px; margin: 0; text-align: center;\">+</p>","response":null,"trial_type":"html-keyboard-response","trial_index":66,"plugin_version":"2.1.0","time_elapsed":145567,"subject_id":"92102","group":"Group2","condition":"1_Rep","full_date":"2026-01-24T22:41:38.472Z","date":"2026-01-24","time":"22:41:38"},{"task":"memory_phase","broad_category":"I","image_png":"I_Pumice_01.png","image_id":129,"category_name":"Pumice","category":9,"distinct_rating":3.25,"distinct_type":"Bottom","rt":null,"stimulus":"Stimuli_Rocks480/I_Pumice_01.png","response":null,"trial_type":"image-keyboard-response","trial_index":67,"plugin_version":"2.1.0","time_elapsed":148082,"subject_id":"92102","group":"Group2","condition":"1_Rep","full_date":"2026-01-24T22:41:38.472Z","date":"2026-01-24","time":"22:41:38"},{"rt":null,"stimulus":"<p style=\"font-size: 50px; margin: 0; text-align: center;\">+</p>","response":null,"trial_type":"html-keyboard-response","trial_index":68,"plugin_version":"2.1.0","time_elapsed":149084,"subject_id":"92102","group":"Group2","condition":"1_Rep","full_date":"2026-01-24T22:41:38.472Z","date":"2026-01-24","time":"22:41:38"},{"task":"memory_phase","broad_category":"S","image_png":"S_Sandstone_11.png","image_id":459,"category_name":"Sandstone","category":29,"distinct_rating":1.82,"distinct_type":"Bottom","rt":null,"stimulus":"Stimuli_Rocks480/S_Sandstone_11.png","response":null,"trial_type":"image-keyboard-response","trial_index":69,"plugin_version":"2.1.0","time_elapsed":151603,"subject_id":"92102","group":"Group2","condition":"1_Rep","full_date":"2026-01-24T22:41:38.472Z","date":"2026-01-24","time":"22:41:38"},{"rt":null,"stimulus":"<p style=\"font-size: 50px; margin: 0; text-align: center;\">+</p>","response":null,"trial_type":"html-keyboard-response","trial_index":70,"plugin_version":"2.1.0","time_elapsed":152605,"subject_id":"92102","group":"Group2","condition":"1_Rep","full_date":"2026-01-24T22:41:38.472Z","date":"2026-01-24","time":"22:41:38"},{"task":"memory_phase","broad_category":"I","image_png":"I_Diorite_10.png","image_id":42,"category_name":"Diorite","category":3,"distinct_rating":2.84,"distinct_type":"Bottom","rt":null,"stimulus":"Stimuli_Rocks480/I_Diorite_10.png","response":null,"trial_type":"image-keyboard-response","trial_index":71,"plugin_version":"2.1.0","time_elapsed":155120,"subject_id":"92102","group":"Group2","condition":"1_Rep","full_date":"2026-01-24T22:41:38.472Z","date":"2026-01-24","time":"22:41:38"},{"rt":null,"stimulus":"<p style=\"font-size: 50px; margin: 0; text-align: center;\">+</p>","response":null,"trial_type":"html-keyboard-response","trial_index":72,"plugin_version":"2.1.0","time_elapsed":156122,"subject_id":"92102","group":"Group2","condition":"1_Rep","full_date":"2026-01-24T22:41:38.472Z","date":"2026-01-24","time":"22:41:38"},{"task":"memory_phase","broad_category":"M","image_png":"M_Phyllite_13.png","image_id":269,"category_name":"Phyllite","category":17,"distinct_rating":2.8,"distinct_type":"Bottom","rt":null,"stimulus":"Stimuli_Rocks480/M_Phyllite_13.png","response":null,"trial_type":"image-keyboard-response","trial_index":73,"plugin_version":"2.1.0","time_elapsed":158635,"subject_id":"92102","group":"Group2","condition":"1_Rep","full_date":"2026-01-24T22:41:38.472Z","date":"2026-01-24","time":"22:41:38"},{"rt":null,"stimulus":"<p style=\"font-size: 50px; margin: 0; text-align: center;\">+</p>","response":null,"trial_type":"html-keyboard-response","trial_index":74,"plugin_version":"2.1.0","time_elapsed":159638,"subject_id":"92102","group":"Group2","condition":"1_Rep","full_date":"2026-01-24T22:41:38.472Z","date":"2026-01-24","time":"22:41:38"},{"task":"memory_phase","broad_category":"S","image_png":"S_Rock Salt_13.png","image_id":445,"category_name":"Rock Salt","category":28,"distinct_rating":7.58,"distinct_type":"Top","rt":null,"stimulus":"Stimuli_Rocks480/S_Rock Salt_13.png","response":null,"trial_type":"image-keyboard-response","trial_index":75,"plugin_version":"2.1.0","time_elapsed":162155,"subject_id":"92102","group":"Group2","condition":"1_Rep","full_date":"2026-01-24T22:41:38.472Z","date":"2026-01-24","time":"22:41:38"},{"rt":null,"stimulus":"<p style=\"font-size: 50px; margin: 0; text-align: center;\">+</p>","response":null,"trial_type":"html-keyboard-response","trial_index":76,"plugin_version":"2.1.0","time_elapsed":163157,"subject_id":"92102","group":"Group2","condition":"1_Rep","full_date":"2026-01-24T22:41:38.472Z","date":"2026-01-24","time":"22:41:38"},{"task":"memory_phase","broad_category":"M","image_png":"M_Marble_14.png","image_id":238,"category_name":"Marble","category":15,"distinct_rating":3.31,"distinct_type":"Bottom","rt":null,"stimulus":"Stimuli_Rocks480/M_Marble_14.png","response":null,"trial_type":"image-keyboard-response","trial_index":77,"plugin_version":"2.1.0","time_elapsed":165671,"subject_id":"92102","group":"Group2","condition":"1_Rep","full_date":"2026-01-24T22:41:38.472Z","date":"2026-01-24","time":"22:41:38"},{"rt":null,"stimulus":"<p style=\"font-size: 50px; margin: 0; text-align: center;\">+</p>","response":null,"trial_type":"html-keyboard-response","trial_index":78,"plugin_version":"2.1.0","time_elapsed":166673,"subject_id":"92102","group":"Group2","condition":"1_Rep","full_date":"2026-01-24T22:41:38.472Z","date":"2026-01-24","time":"22:41:38"},{"task":"memory_phase","broad_category":"S","image_png":"S_Dolomite_01.png","image_id":385,"category_name":"Dolomite","category":25,"distinct_rating":1.43,"distinct_type":"Bottom","rt":null,"stimulus":"Stimuli_Rocks480/S_Dolomite_01.png","response":null,"trial_type":"image-keyboard-response","trial_index":79,"plugin_version":"2.1.0","time_elapsed":169191,"subject_id":"92102","group":"Group2","condition":"1_Rep","full_date":"2026-01-24T22:41:38.472Z","date":"2026-01-24","time":"22:41:38"},{"rt":null,"stimulus":"<p style=\"font-size: 50px; margin: 0; text-align: center;\">+</p>","response":null,"trial_type":"html-keyboard-response","trial_index":80,"plugin_version":"2.1.0","time_elapsed":170193,"subject_id":"92102","group":"Group2","condition":"1_Rep","full_date":"2026-01-24T22:41:38.472Z","date":"2026-01-24","time":"22:41:38"},{"task":"memory_phase","broad_category":"M","image_png":"M_Quartzite_12.png","image_id":284,"category_name":"Quartzite","category":18,"distinct_rating":1.92,"distinct_type":"Bottom","rt":null,"stimulus":"Stimuli_Rocks480/M_Quartzite_12.png","response":null,"trial_type":"image-keyboard-response","trial_index":81,"plugin_version":"2.1.0","time_elapsed":172707,"subject_id":"92102","group":"Group2","condition":"1_Rep","full_date":"2026-01-24T22:41:38.472Z","date":"2026-01-24","time":"22:41:38"},{"rt":null,"stimulus":"<p style=\"font-size: 50px; margin: 0; text-align: center;\">+</p>","response":null,"trial_type":"html-keyboard-response","trial_index":82,"plugin_version":"2.1.0","time_elapsed":173709,"subject_id":"92102","group":"Group2","condition":"1_Rep","full_date":"2026-01-24T22:41:38.472Z","date":"2026-01-24","time":"22:41:38"},{"task":"memory_phase","broad_category":"M","image_png":"M_Gneiss_15.png","image_id":207,"category_name":"Gneiss","category":13,"distinct_rating":3.11,"distinct_type":"Bottom","rt":null,"stimulus":"Stimuli_Rocks480/M_Gneiss_15.png","response":null,"trial_type":"image-keyboard-response","trial_index":83,"plugin_version":"2.1.0","time_elapsed":176220,"subject_id":"92102","group":"Group2","condition":"1_Rep","full_date":"2026-01-24T22:41:38.472Z","date":"2026-01-24","time":"22:41:38"},{"rt":null,"stimulus":"<p style=\"font-size: 50px; margin: 0; text-align: center;\">+</p>","response":null,"trial_type":"html-keyboard-response","trial_index":84,"plugin_version":"2.1.0","time_elapsed":177222,"subject_id":"92102","group":"Group2","condition":"1_Rep","full_date":"2026-01-24T22:41:38.472Z","date":"2026-01-24","time":"22:41:38"},{"task":"memory_phase","broad_category":"M","image_png":"M_Marble_02.png","image_id":226,"category_name":"Marble","category":15,"distinct_rating":3.2,"distinct_type":"Bottom","rt":null,"stimulus":"Stimuli_Rocks480/M_Marble_02.png","response":null,"trial_type":"image-keyboard-response","trial_index":85,"plugin_version":"2.1.0","time_elapsed":179735,"subject_id":"92102","group":"Group2","condition":"1_Rep","full_date":"2026-01-24T22:41:38.472Z","date":"2026-01-24","time":"22:41:38"},{"rt":null,"stimulus":"<p style=\"font-size: 50px; margin: 0; text-align: center;\">+</p>","response":null,"trial_type":"html-keyboard-response","trial_index":86,"plugin_version":"2.1.0","time_elapsed":180737,"subject_id":"92102","group":"Group2","condition":"1_Rep","full_date":"2026-01-24T22:41:38.472Z","date":"2026-01-24","time":"22:41:38"},{"task":"memory_phase","broad_category":"M","image_png":"M_Quartzite_15.png","image_id":287,"category_name":"Quartzite","category":18,"distinct_rating":2.19,"distinct_type":"Bottom","rt":null,"stimulus":"Stimuli_Rocks480/M_Quartzite_15.png","response":null,"trial_type":"image-keyboard-response","trial_index":87,"plugin_version":"2.1.0","time_elapsed":183253,"subject_id":"92102","group":"Group2","condition":"1_Rep","full_date":"2026-01-24T22:41:38.472Z","date":"2026-01-24","time":"22:41:38"},{"rt":null,"stimulus":"<p style=\"font-size: 50px; margin: 0; text-align: center;\">+</p>","response":null,"trial_type":"html-keyboard-response","trial_index":88,"plugin_version":"2.1.0","time_elapsed":184255,"subject_id":"92102","group":"Group2","condition":"1_Rep","full_date":"2026-01-24T22:41:38.472Z","date":"2026-01-24","time":"22:41:38"},{"task":"memory_phase","broad_category":"I","image_png":"I_Rhyolite_05.png","image_id":149,"category_name":"Rhyolite","category":10,"distinct_rating":3.02,"distinct_type":"Bottom","rt":null,"stimulus":"Stimuli_Rocks480/I_Rhyolite_05.png","response":null,"trial_type":"image-keyboard-response","trial_index":89,"plugin_version":"2.1.0","time_elapsed":186772,"subject_id":"92102","group":"Group2","condition":"1_Rep","full_date":"2026-01-24T22:41:38.472Z","date":"2026-01-24","time":"22:41:38"},{"rt":null,"stimulus":"<p style=\"font-size: 50px; margin: 0; text-align: center;\">+</p>","response":null,"trial_type":"html-keyboard-response","trial_index":90,"plugin_version":"2.1.0","time_elapsed":187774,"subject_id":"92102","group":"Group2","condition":"1_Rep","full_date":"2026-01-24T22:41:38.472Z","date":"2026-01-24","time":"22:41:38"},{"task":"memory_phase","broad_category":"S","image_png":"S_Sandstone_08.png","image_id":456,"category_name":"Sandstone","category":29,"distinct_rating":1.5,"distinct_type":"Bottom","rt":null,"stimulus":"Stimuli_Rocks480/S_Sandstone_08.png","response":null,"trial_type":"image-keyboard-response","trial_index":91,"plugin_version":"2.1.0","time_elapsed":190289,"subject_id":"92102","group":"Group2","condition":"1_Rep","full_date":"2026-01-24T22:41:38.472Z","date":"2026-01-24","time":"22:41:38"},{"rt":null,"stimulus":"<p style=\"font-size: 50px; margin: 0; text-align: center;\">+</p>","response":null,"trial_type":"html-keyboard-response","trial_index":92,"plugin_version":"2.1.0","time_elapsed":191292,"subject_id":"92102","group":"Group2","condition":"1_Rep","full_date":"2026-01-24T22:41:38.472Z","date":"2026-01-24","time":"22:41:38"},{"task":"memory_phase","broad_category":"M","image_png":"M_Slate_04.png","image_id":308,"category_name":"Slate","category":20,"distinct_rating":2.2,"distinct_type":"Bottom","rt":null,"stimulus":"Stimuli_Rocks480/M_Slate_04.png","response":null,"trial_type":"image-keyboard-response","trial_index":93,"plugin_version":"2.1.0","time_elapsed":193805,"subject_id":"92102","group":"Group2","condition":"1_Rep","full_date":"2026-01-24T22:41:38.472Z","date":"2026-01-24","time":"22:41:38"},{"rt":null,"stimulus":"<p style=\"font-size: 50px; margin: 0; text-align: center;\">+</p>","response":null,"trial_type":"html-keyboard-response","trial_index":94,"plugin_version":"2.1.0","time_elapsed":194807,"subject_id":"92102","group":"Group2","condition":"1_Rep","full_date":"2026-01-24T22:41:38.472Z","date":"2026-01-24","time":"22:41:38"},{"task":"memory_phase","broad_category":"S","image_png":"S_Shale_03.png","image_id":467,"category_name":"Shale","category":30,"distinct_rating":1.95,"distinct_type":"Bottom","rt":null,"stimulus":"Stimuli_Rocks480/S_Shale_03.png","response":null,"trial_type":"image-keyboard-response","trial_index":95,"plugin_version":"2.1.0","time_elapsed":197325,"subject_id":"92102","group":"Group2","condition":"1_Rep","full_date":"2026-01-24T22:41:38.472Z","date":"2026-01-24","time":"22:41:38"},{"rt":null,"stimulus":"<p style=\"font-size: 50px; margin: 0; text-align: center;\">+</p>","response":null,"trial_type":"html-keyboard-response","trial_index":96,"plugin_version":"2.1.0","time_elapsed":198326,"subject_id":"92102","group":"Group2","condition":"1_Rep","full_date":"2026-01-24T22:41:38.472Z","date":"2026-01-24","time":"22:41:38"},{"task":"memory_phase","broad_category":"I","image_png":"I_Pegmatite_11.png","image_id":107,"category_name":"Pegmatite","category":7,"distinct_rating":7.11,"distinct_type":"Top","rt":null,"stimulus":"Stimuli_Rocks480/I_Pegmatite_11.png","response":null,"trial_type":"image-keyboard-response","trial_index":97,"plugin_version":"2.1.0","time_elapsed":200846,"subject_id":"92102","group":"Group2","condition":"1_Rep","full_date":"2026-01-24T22:41:38.472Z","date":"2026-01-24","time":"22:41:38"},{"rt":null,"stimulus":"<p style=\"font-size: 50px; margin: 0; text-align: center;\">+</p>","response":null,"trial_type":"html-keyboard-response","trial_index":98,"plugin_version":"2.1.0","time_elapsed":201848,"subject_id":"92102","group":"Group2","condition":"1_Rep","full_date":"2026-01-24T22:41:38.472Z","date":"2026-01-24","time":"22:41:38"},{"task":"memory_phase","broad_category":"I","image_png":"I_Obsidian_06.png","image_id":86,"category_name":"Obsidian","category":6,"distinct_rating":8.01,"distinct_type":"Top","rt":null,"stimulus":"Stimuli_Rocks480/I_Obsidian_06.png","response":null,"trial_type":"image-keyboard-response","trial_index":99,"plugin_version":"2.1.0","time_elapsed":204365,"subject_id":"92102","group":"Group2","condition":"1_Rep","full_date":"2026-01-24T22:41:38.472Z","date":"2026-01-24","time":"22:41:38"},{"rt":null,"stimulus":"<p style=\"font-size: 50px; margin: 0; text-align: center;\">+</p>","response":null,"trial_type":"html-keyboard-response","trial_index":100,"plugin_version":"2.1.0","time_elapsed":205366,"subject_id":"92102","group":"Group2","condition":"1_Rep","full_date":"2026-01-24T22:41:38.472Z","date":"2026-01-24","time":"22:41:38"},{"task":"memory_phase","broad_category":"M","image_png":"M_Phyllite_02.png","image_id":258,"category_name":"Phyllite","category":17,"distinct_rating":2.89,"distinct_type":"Bottom","rt":null,"stimulus":"Stimuli_Rocks480/M_Phyllite_02.png","response":null,"trial_type":"image-keyboard-response","trial_index":101,"plugin_version":"2.1.0","time_elapsed":207884,"subject_id":"92102","group":"Group2","condition":"1_Rep","full_date":"2026-01-24T22:41:38.472Z","date":"2026-01-24","time":"22:41:38"},{"rt":null,"stimulus":"<p style=\"font-size: 50px; margin: 0; text-align: center;\">+</p>","response":null,"trial_type":"html-keyboard-response","trial_index":102,"plugin_version":"2.1.0","time_elapsed":208885,"subject_id":"92102","group":"Group2","condition":"1_Rep","full_date":"2026-01-24T22:41:38.472Z","date":"2026-01-24","time":"22:41:38"},{"task":"memory_phase","broad_category":"M","image_png":"M_Slate_14.png","image_id":318,"category_name":"Slate","category":20,"distinct_rating":2.58,"distinct_type":"Bottom","rt":null,"stimulus":"Stimuli_Rocks480/M_Slate_14.png","response":null,"trial_type":"image-keyboard-response","trial_index":103,"plugin_version":"2.1.0","time_elapsed":211397,"subject_id":"92102","group":"Group2","condition":"1_Rep","full_date":"2026-01-24T22:41:38.472Z","date":"2026-01-24","time":"22:41:38"},{"rt":null,"stimulus":"<p style=\"font-size: 50px; margin: 0; text-align: center;\">+</p>","response":null,"trial_type":"html-keyboard-response","trial_index":104,"plugin_version":"2.1.0","time_elapsed":212399,"subject_id":"92102","group":"Group2","condition":"1_Rep","full_date":"2026-01-24T22:41:38.472Z","date":"2026-01-24","time":"22:41:38"},{"task":"memory_phase","broad_category":"M","image_png":"M_Phyllite_05.png","image_id":261,"category_name":"Phyllite","category":17,"distinct_rating":2.14,"distinct_type":"Bottom","rt":null,"stimulus":"Stimuli_Rocks480/M_Phyllite_05.png","response":null,"trial_type":"image-keyboard-response","trial_index":105,"plugin_version":"2.1.0","time_elapsed":214912,"subject_id":"92102","group":"Group2","condition":"1_Rep","full_date":"2026-01-24T22:41:38.472Z","date":"2026-01-24","time":"22:41:38"},{"rt":12830,"stimulus":"<div style=\"max-width: 760px; margin: auto; font-size: 20px; line-height: 1.5;\">\n      <h1 style=\"text-align:center; font-size: 30px;\">Instructions for the Test Phase</h1>\n      <p>\n        The study phase is now complete.\n      </p>\n      <p>\n        In the test phase, you will again see a series of rock images. \n        Some will be ones you saw before - during the study phase, while others will be new.  \n        <b>Your task</b> is to decide whether you have seen each image before by pressing the corresponding key on your keyboard:<br><br>\n          <b>A</b> - NO (you did not see this image before)<br>\n          <b>L</b> - YES (you saw this image before)<br><br>\n        The test will proceed at your own pace. You will receive feedback after each response.  \n        Please try to respond <b>as accurately as possible</b>.\n      </p>\n      <p>\n        <b>Reminder:</b> If your computer has multiple language settings (e.g., English and another language),\n        please ensure it is set to English during the test phase.\n      </p>\n      <p>\n        You can track your progress using the <b>completion bar</b> at the top of the screen.  \n        Note that it has been refreshed to reflect your progress during this final phase.\n      </p>\n      <p>\n        Press the button below when you are ready to continue.\n      </p>\n    </div>","response":0,"trial_type":"html-button-response","trial_index":106,"plugin_version":"2.1.0","time_elapsed":227745,"subject_id":"92102","group":"Group2","condition":"1_Rep","full_date":"2026-01-24T22:41:38.472Z","date":"2026-01-24","time":"22:41:38"},{"correct_response":"a","task":"test_phase","broad_category":"I","image_png":"I_Diorite_05.png","image_id":37,"category_name":"Diorite","category":3,"distinct_rating":3.08,"distinct_type":"Bottom","item_type":"Foil","rt":2934,"stimulus":"Stimuli_Rocks480/I_Diorite_05.png","response":"l","trial_type":"image-keyboard-response","trial_index":107,"plugin_version":"2.1.0","time_elapsed":230694,"subject_id":"92102","group":"Group2","condition":"1_Rep","full_date":"2026-01-24T22:41:38.472Z","date":"2026-01-24","time":"22:41:38","cor_ans":false},{"trial_type":"html-keyboard-response","rt":null,"stimulus":"<p style=\"color: red; font-size: 50px; font-weight: bold;\">Incorrect</p>","response":null,"trial_index":108,"plugin_version":"2.1.0","time_elapsed":231196,"subject_id":"92102","group":"Group2","condition":"1_Rep","full_date":"2026-01-24T22:41:38.472Z","date":"2026-01-24","time":"22:41:38"},{"correct_response":"l","task":"test_phase","broad_category":"I","image_png":"I_Andesite_04.png","image_id":4,"category_name":"Andesite","category":1,"distinct_rating":3.18,"distinct_type":"Bottom","item_type":"Target","rt":1634,"stimulus":"Stimuli_Rocks480/I_Andesite_04.png","response":"l","trial_type":"image-keyboard-response","trial_index":109,"plugin_version":"2.1.0","time_elapsed":232843,"subject_id":"92102","group":"Group2","condition":"1_Rep","full_date":"2026-01-24T22:41:38.472Z","date":"2026-01-24","time":"22:41:38","cor_ans":true},{"trial_type":"html-keyboard-response","rt":null,"stimulus":"<p style=\"color: green; font-size: 50px; font-weight: bold;\">Correct</p>","response":null,"trial_index":110,"plugin_version":"2.1.0","time_elapsed":233345,"subject_id":"92102","group":"Group2","condition":"1_Rep","full_date":"2026-01-24T22:41:38.472Z","date":"2026-01-24","time":"22:41:38"},{"correct_response":"a","task":"test_phase","broad_category":"S","image_png":"S_Sandstone_15.png","image_id":463,"category_name":"Sandstone","category":29,"distinct_rating":2,"distinct_type":"Bottom","item_type":"Foil","rt":2865,"stimulus":"Stimuli_Rocks480/S_Sandstone_15.png","response":"a","trial_type":"image-keyboard-response","trial_index":111,"plugin_version":"2.1.0","time_elapsed":236226,"subject_id":"92102","group":"Group2","condition":"1_Rep","full_date":"2026-01-24T22:41:38.472Z","date":"2026-01-24","time":"22:41:38","cor_ans":true},{"trial_type":"html-keyboard-response","rt":null,"stimulus":"<p style=\"color: green; font-size: 50px; font-weight: bold;\">Correct</p>","response":null,"trial_index":112,"plugin_version":"2.1.0","time_elapsed":236729,"subject_id":"92102","group":"Group2","condition":"1_Rep","full_date":"2026-01-24T22:41:38.472Z","date":"2026-01-24","time":"22:41:38"},{"correct_response":"l","task":"test_phase","broad_category":"I","image_png":"I_Pumice_13.png","image_id":141,"category_name":"Pumice","category":9,"distinct_rating":3.12,"distinct_type":"Bottom","item_type":"Target","rt":1517,"stimulus":"Stimuli_Rocks480/I_Pumice_13.png","response":"l","trial_type":"image-keyboard-response","trial_index":113,"plugin_version":"2.1.0","time_elapsed":238261,"subject_id":"92102","group":"Group2","condition":"1_Rep","full_date":"2026-01-24T22:41:38.472Z","date":"2026-01-24","time":"22:41:38","cor_ans":true},{"trial_type":"html-keyboard-response","rt":null,"stimulus":"<p style=\"color: green; font-size: 50px; font-weight: bold;\">Correct</p>","response":null,"trial_index":114,"plugin_version":"2.1.0","time_elapsed":238764,"subject_id":"92102","group":"Group2","condition":"1_Rep","full_date":"2026-01-24T22:41:38.472Z","date":"2026-01-24","time":"22:41:38"},{"correct_response":"a","task":"test_phase","broad_category":"M","image_png":"M_Slate_03.png","image_id":307,"category_name":"Slate","category":20,"distinct_rating":1.87,"distinct_type":"Bottom","item_type":"Foil","rt":2030,"stimulus":"Stimuli_Rocks480/M_Slate_03.png","response":"l","trial_type":"image-keyboard-response","trial_index":115,"plugin_version":"2.1.0","time_elapsed":240808,"subject_id":"92102","group":"Group2","condition":"1_Rep","full_date":"2026-01-24T22:41:38.472Z","date":"2026-01-24","time":"22:41:38","cor_ans":false},{"trial_type":"html-keyboard-response","rt":null,"stimulus":"<p style=\"color: red; font-size: 50px; font-weight: bold;\">Incorrect</p>","response":null,"trial_index":116,"plugin_version":"2.1.0","time_elapsed":241312,"subject_id":"92102","group":"Group2","condition":"1_Rep","full_date":"2026-01-24T22:41:38.472Z","date":"2026-01-24","time":"22:41:38"},{"correct_response":"l","task":"test_phase","broad_category":"I","image_png":"I_Obsidian_06.png","image_id":86,"category_name":"Obsidian","category":6,"distinct_rating":8.01,"distinct_type":"Top","item_type":"Target","rt":1341,"stimulus":"Stimuli_Rocks480/I_Obsidian_06.png","response":"l","trial_type":"image-keyboard-response","trial_index":117,"plugin_version":"2.1.0","time_elapsed":242655,"subject_id":"92102","group":"Group2","condition":"1_Rep","full_date":"2026-01-24T22:41:38.472Z","date":"2026-01-24","time":"22:41:38","cor_ans":true},{"trial_type":"html-keyboard-response","rt":null,"stimulus":"<p style=\"color: green; font-size: 50px; font-weight: bold;\">Correct</p>","response":null,"trial_index":118,"plugin_version":"2.1.0","time_elapsed":243157,"subject_id":"92102","group":"Group2","condition":"1_Rep","full_date":"2026-01-24T22:41:38.472Z","date":"2026-01-24","time":"22:41:38"},{"correct_response":"a","task":"test_phase","broad_category":"M","image_png":"M_Gneiss_13.png","image_id":205,"category_name":"Gneiss","category":13,"distinct_rating":3.26,"distinct_type":"Bottom","item_type":"Foil","rt":1904,"stimulus":"Stimuli_Rocks480/M_Gneiss_13.png","response":"l","trial_type":"image-keyboard-response","trial_index":119,"plugin_version":"2.1.0","time_elapsed":245075,"subject_id":"92102","group":"Group2","condition":"1_Rep","full_date":"2026-01-24T22:41:38.472Z","date":"2026-01-24","time":"22:41:38","cor_ans":false},{"trial_type":"html-keyboard-response","rt":null,"stimulus":"<p style=\"color: red; font-size: 50px; font-weight: bold;\">Incorrect</p>","response":null,"trial_index":120,"plugin_version":"2.1.0","time_elapsed":245577,"subject_id":"92102","group":"Group2","condition":"1_Rep","full_date":"2026-01-24T22:41:38.472Z","date":"2026-01-24","time":"22:41:38"},{"correct_response":"a","task":"test_phase","broad_category":"I","image_png":"I_Gabbro_11.png","image_id":59,"category_name":"Gabbro","category":4,"distinct_rating":1.99,"distinct_type":"Bottom","item_type":"Foil","rt":1742,"stimulus":"Stimuli_Rocks480/I_Gabbro_11.png","response":"l","trial_type":"image-keyboard-response","trial_index":121,"plugin_version":"2.1.0","time_elapsed":247331,"subject_id":"92102","group":"Group2","condition":"1_Rep","full_date":"2026-01-24T22:41:38.472Z","date":"2026-01-24","time":"22:41:38","cor_ans":false},{"trial_type":"html-keyboard-response","rt":null,"stimulus":"<p style=\"color: red; font-size: 50px; font-weight: bold;\">Incorrect</p>","response":null,"trial_index":122,"plugin_version":"2.1.0","time_elapsed":247833,"subject_id":"92102","group":"Group2","condition":"1_Rep","full_date":"2026-01-24T22:41:38.472Z","date":"2026-01-24","time":"22:41:38"},{"correct_response":"a","task":"test_phase","broad_category":"M","image_png":"M_Phyllite_07.png","image_id":263,"category_name":"Phyllite","category":17,"distinct_rating":2.59,"distinct_type":"Bottom","item_type":"Foil","rt":1021,"stimulus":"Stimuli_Rocks480/M_Phyllite_07.png","response":"l","trial_type":"image-keyboard-response","trial_index":123,"plugin_version":"2.1.0","time_elapsed":248865,"subject_id":"92102","group":"Group2","condition":"1_Rep","full_date":"2026-01-24T22:41:38.472Z","date":"2026-01-24","time":"22:41:38","cor_ans":false},{"trial_type":"html-keyboard-response","rt":null,"stimulus":"<p style=\"color: red; font-size: 50px; font-weight: bold;\">Incorrect</p>","response":null,"trial_index":124,"plugin_version":"2.1.0","time_elapsed":249366,"subject_id":"92102","group":"Group2","condition":"1_Rep","full_date":"2026-01-24T22:41:38.472Z","date":"2026-01-24","time":"22:41:38"},{"correct_response":"a","task":"test_phase","broad_category":"I","image_png":"I_Gabbro_16.png","image_id":64,"category_name":"Gabbro","category":4,"distinct_rating":2.52,"distinct_type":"Bottom","item_type":"Foil","rt":1244,"stimulus":"Stimuli_Rocks480/I_Gabbro_16.png","response":"l","trial_type":"image-keyboard-response","trial_index":125,"plugin_version":"2.1.0","time_elapsed":250623,"subject_id":"92102","group":"Group2","condition":"1_Rep","full_date":"2026-01-24T22:41:38.472Z","date":"2026-01-24","time":"22:41:38","cor_ans":false},{"trial_type":"html-keyboard-response","rt":null,"stimulus":"<p style=\"color: red; font-size: 50px; font-weight: bold;\">Incorrect</p>","response":null,"trial_index":126,"plugin_version":"2.1.0","time_elapsed":251125,"subject_id":"92102","group":"Group2","condition":"1_Rep","full_date":"2026-01-24T22:41:38.472Z","date":"2026-01-24","time":"22:41:38"},{"correct_response":"a","task":"test_phase","broad_category":"S","image_png":"S_Conglomerate_05.png","image_id":373,"category_name":"Conglomerate","category":24,"distinct_rating":7.32,"distinct_type":"Top","item_type":"Foil","rt":1603,"stimulus":"Stimuli_Rocks480/S_Conglomerate_05.png","response":"a","trial_type":"image-keyboard-response","trial_index":127,"plugin_version":"2.1.0","time_elapsed":252743,"subject_id":"92102","group":"Group2","condition":"1_Rep","full_date":"2026-01-24T22:41:38.472Z","date":"2026-01-24","time":"22:41:38","cor_ans":true},{"trial_type":"html-keyboard-response","rt":null,"stimulus":"<p style=\"color: green; font-size: 50px; font-weight: bold;\">Correct</p>","response":null,"trial_index":128,"plugin_version":"2.1.0","time_elapsed":253245,"subject_id":"92102","group":"Group2","condition":"1_Rep","full_date":"2026-01-24T22:41:38.472Z","date":"2026-01-24","time":"22:41:38"},{"correct_response":"l","task":"test_phase","broad_category":"M","image_png":"M_Phyllite_13.png","image_id":269,"category_name":"Phyllite","category":17,"distinct_rating":2.8,"distinct_type":"Bottom","item_type":"Target","rt":1167,"stimulus":"Stimuli_Rocks480/M_Phyllite_13.png","response":"l","trial_type":"image-keyboard-response","trial_index":129,"plugin_version":"2.1.0","time_elapsed":254425,"subject_id":"92102","group":"Group2","condition":"1_Rep","full_date":"2026-01-24T22:41:38.472Z","date":"2026-01-24","time":"22:41:38","cor_ans":true},{"trial_type":"html-keyboard-response","rt":null,"stimulus":"<p style=\"color: green; font-size: 50px; font-weight: bold;\">Correct</p>","response":null,"trial_index":130,"plugin_version":"2.1.0","time_elapsed":254928,"subject_id":"92102","group":"Group2","condition":"1_Rep","full_date":"2026-01-24T22:41:38.472Z","date":"2026-01-24","time":"22:41:38"},{"correct_response":"l","task":"test_phase","broad_category":"M","image_png":"M_Slate_10.png","image_id":314,"category_name":"Slate","category":20,"distinct_rating":1.94,"distinct_type":"Bottom","item_type":"Target","rt":1230,"stimulus":"Stimuli_Rocks480/M_Slate_10.png","response":"l","trial_type":"image-keyboard-response","trial_index":131,"plugin_version":"2.1.0","time_elapsed":256168,"subject_id":"92102","group":"Group2","condition":"1_Rep","full_date":"2026-01-24T22:41:38.472Z","date":"2026-01-24","time":"22:41:38","cor_ans":true},{"trial_type":"html-keyboard-response","rt":null,"stimulus":"<p style=\"color: green; font-size: 50px; font-weight: bold;\">Correct</p>","response":null,"trial_index":132,"plugin_version":"2.1.0","time_elapsed":256670,"subject_id":"92102","group":"Group2","condition":"1_Rep","full_date":"2026-01-24T22:41:38.472Z","date":"2026-01-24","time":"22:41:38"},{"correct_response":"a","task":"test_phase","broad_category":"I","image_png":"I_Diorite_03.png","image_id":35,"category_name":"Diorite","category":3,"distinct_rating":3.14,"distinct_type":"Bottom","item_type":"Foil","rt":947,"stimulus":"Stimuli_Rocks480/I_Diorite_03.png","response":"l","trial_type":"image-keyboard-response","trial_index":133,"plugin_version":"2.1.0","time_elapsed":257634,"subject_id":"92102","group":"Group2","condition":"1_Rep","full_date":"2026-01-24T22:41:38.472Z","date":"2026-01-24","time":"22:41:38","cor_ans":false},{"trial_type":"html-keyboard-response","rt":null,"stimulus":"<p style=\"color: red; font-size: 50px; font-weight: bold;\">Incorrect</p>","response":null,"trial_index":134,"plugin_version":"2.1.0","time_elapsed":258137,"subject_id":"92102","group":"Group2","condition":"1_Rep","full_date":"2026-01-24T22:41:38.472Z","date":"2026-01-24","time":"22:41:38"},{"correct_response":"a","task":"test_phase","broad_category":"M","image_png":"M_Gneiss_05.png","image_id":197,"category_name":"Gneiss","category":13,"distinct_rating":2.97,"distinct_type":"Bottom","item_type":"Foil","rt":790,"stimulus":"Stimuli_Rocks480/M_Gneiss_05.png","response":"l","trial_type":"image-keyboard-response","trial_index":135,"plugin_version":"2.1.0","time_elapsed":258945,"subject_id":"92102","group":"Group2","condition":"1_Rep","full_date":"2026-01-24T22:41:38.472Z","date":"2026-01-24","time":"22:41:38","cor_ans":false},{"trial_type":"html-keyboard-response","rt":null,"stimulus":"<p style=\"color: red; font-size: 50px; font-weight: bold;\">Incorrect</p>","response":null,"trial_index":136,"plugin_version":"2.1.0","time_elapsed":259448,"subject_id":"92102","group":"Group2","condition":"1_Rep","full_date":"2026-01-24T22:41:38.472Z","date":"2026-01-24","time":"22:41:38"},{"correct_response":"l","task":"test_phase","broad_category":"I","image_png":"I_Pegmatite_03.png","image_id":99,"category_name":"Pegmatite","category":7,"distinct_rating":7.24,"distinct_type":"Top","item_type":"Target","rt":799,"stimulus":"Stimuli_Rocks480/I_Pegmatite_03.png","response":"l","trial_type":"image-keyboard-response","trial_index":137,"plugin_version":"2.1.0","time_elapsed":260261,"subject_id":"92102","group":"Group2","condition":"1_Rep","full_date":"2026-01-24T22:41:38.472Z","date":"2026-01-24","time":"22:41:38","cor_ans":true},{"trial_type":"html-keyboard-response","rt":null,"stimulus":"<p style=\"color: green; font-size: 50px; font-weight: bold;\">Correct</p>","response":null,"trial_index":138,"plugin_version":"2.1.0","time_elapsed":260762,"subject_id":"92102","group":"Group2","condition":"1_Rep","full_date":"2026-01-24T22:41:38.472Z","date":"2026-01-24","time":"22:41:38"},{"correct_response":"l","task":"test_phase","broad_category":"I","image_png":"I_Basalt_13.png","image_id":29,"category_name":"Basalt","category":2,"distinct_rating":2.68,"distinct_type":"Bottom","item_type":"Target","rt":949,"stimulus":"Stimuli_Rocks480/I_Basalt_13.png","response":"l","trial_type":"image-keyboard-response","trial_index":139,"plugin_version":"2.1.0","time_elapsed":261725,"subject_id":"92102","group":"Group2","condition":"1_Rep","full_date":"2026-01-24T22:41:38.472Z","date":"2026-01-24","time":"22:41:38","cor_ans":true},{"trial_type":"html-keyboard-response","rt":null,"stimulus":"<p style=\"color: green; font-size: 50px; font-weight: bold;\">Correct</p>","response":null,"trial_index":140,"plugin_version":"2.1.0","time_elapsed":262228,"subject_id":"92102","group":"Group2","condition":"1_Rep","full_date":"2026-01-24T22:41:38.472Z","date":"2026-01-24","time":"22:41:38"},{"correct_response":"l","task":"test_phase","broad_category":"M","image_png":"M_Gneiss_10.png","image_id":202,"category_name":"Gneiss","category":13,"distinct_rating":3.09,"distinct_type":"Bottom","item_type":"Target","rt":852,"stimulus":"Stimuli_Rocks480/M_Gneiss_10.png","response":"l","trial_type":"image-keyboard-response","trial_index":141,"plugin_version":"2.1.0","time_elapsed":263096,"subject_id":"92102","group":"Group2","condition":"1_Rep","full_date":"2026-01-24T22:41:38.472Z","date":"2026-01-24","time":"22:41:38","cor_ans":true},{"trial_type":"html-keyboard-response","rt":null,"stimulus":"<p style=\"color: green; font-size: 50px; font-weight: bold;\">Correct</p>","response":null,"trial_index":142,"plugin_version":"2.1.0","time_elapsed":263597,"subject_id":"92102","group":"Group2","condition":"1_Rep","full_date":"2026-01-24T22:41:38.472Z","date":"2026-01-24","time":"22:41:38"},{"correct_response":"l","task":"test_phase","broad_category":"S","image_png":"S_Shale_03.png","image_id":467,"category_name":"Shale","category":30,"distinct_rating":1.95,"distinct_type":"Bottom","item_type":"Target","rt":1411,"stimulus":"Stimuli_Rocks480/S_Shale_03.png","response":"a","trial_type":"image-keyboard-response","trial_index":143,"plugin_version":"2.1.0","time_elapsed":265012,"subject_id":"92102","group":"Group2","condition":"1_Rep","full_date":"2026-01-24T22:41:38.472Z","date":"2026-01-24","time":"22:41:38","cor_ans":false},{"trial_type":"html-keyboard-response","rt":null,"stimulus":"<p style=\"color: red; font-size: 50px; font-weight: bold;\">Incorrect</p>","response":null,"trial_index":144,"plugin_version":"2.1.0","time_elapsed":265514,"subject_id":"92102","group":"Group2","condition":"1_Rep","full_date":"2026-01-24T22:41:38.472Z","date":"2026-01-24","time":"22:41:38"},{"correct_response":"l","task":"test_phase","broad_category":"M","image_png":"M_Gneiss_15.png","image_id":207,"category_name":"Gneiss","category":13,"distinct_rating":3.11,"distinct_type":"Bottom","item_type":"Target","rt":1194,"stimulus":"Stimuli_Rocks480/M_Gneiss_15.png","response":"l","trial_type":"image-keyboard-response","trial_index":145,"plugin_version":"2.1.0","time_elapsed":266718,"subject_id":"92102","group":"Group2","condition":"1_Rep","full_date":"2026-01-24T22:41:38.472Z","date":"2026-01-24","time":"22:41:38","cor_ans":true},{"trial_type":"html-keyboard-response","rt":null,"stimulus":"<p style=\"color: green; font-size: 50px; font-weight: bold;\">Correct</p>","response":null,"trial_index":146,"plugin_version":"2.1.0","time_elapsed":267221,"subject_id":"92102","group":"Group2","condition":"1_Rep","full_date":"2026-01-24T22:41:38.472Z","date":"2026-01-24","time":"22:41:38"},{"correct_response":"l","task":"test_phase","broad_category":"I","image_png":"I_Diorite_15.png","image_id":47,"category_name":"Diorite","category":3,"distinct_rating":3.05,"distinct_type":"Bottom","item_type":"Target","rt":1096,"stimulus":"Stimuli_Rocks480/I_Diorite_15.png","response":"l","trial_type":"image-keyboard-response","trial_index":147,"plugin_version":"2.1.0","time_elapsed":268329,"subject_id":"92102","group":"Group2","condition":"1_Rep","full_date":"2026-01-24T22:41:38.472Z","date":"2026-01-24","time":"22:41:38","cor_ans":true},{"trial_type":"html-keyboard-response","rt":null,"stimulus":"<p style=\"color: green; font-size: 50px; font-weight: bold;\">Correct</p>","response":null,"trial_index":148,"plugin_version":"2.1.0","time_elapsed":268831,"subject_id":"92102","group":"Group2","condition":"1_Rep","full_date":"2026-01-24T22:41:38.472Z","date":"2026-01-24","time":"22:41:38"},{"correct_response":"l","task":"test_phase","broad_category":"I","image_png":"I_Pumice_01.png","image_id":129,"category_name":"Pumice","category":9,"distinct_rating":3.25,"distinct_type":"Bottom","item_type":"Target","rt":1257,"stimulus":"Stimuli_Rocks480/I_Pumice_01.png","response":"l","trial_type":"image-keyboard-response","trial_index":149,"plugin_version":"2.1.0","time_elapsed":270102,"subject_id":"92102","group":"Group2","condition":"1_Rep","full_date":"2026-01-24T22:41:38.472Z","date":"2026-01-24","time":"22:41:38","cor_ans":true},{"trial_type":"html-keyboard-response","rt":null,"stimulus":"<p style=\"color: green; font-size: 50px; font-weight: bold;\">Correct</p>","response":null,"trial_index":150,"plugin_version":"2.1.0","time_elapsed":270604,"subject_id":"92102","group":"Group2","condition":"1_Rep","full_date":"2026-01-24T22:41:38.472Z","date":"2026-01-24","time":"22:41:38"},{"correct_response":"a","task":"test_phase","broad_category":"I","image_png":"I_Pumice_11.png","image_id":139,"category_name":"Pumice","category":9,"distinct_rating":1.74,"distinct_type":"Bottom","item_type":"Foil","rt":1454,"stimulus":"Stimuli_Rocks480/I_Pumice_11.png","response":"a","trial_type":"image-keyboard-response","trial_index":151,"plugin_version":"2.1.0","time_elapsed":272068,"subject_id":"92102","group":"Group2","condition":"1_Rep","full_date":"2026-01-24T22:41:38.472Z","date":"2026-01-24","time":"22:41:38","cor_ans":true},{"trial_type":"html-keyboard-response","rt":null,"stimulus":"<p style=\"color: green; font-size: 50px; font-weight: bold;\">Correct</p>","response":null,"trial_index":152,"plugin_version":"2.1.0","time_elapsed":272571,"subject_id":"92102","group":"Group2","condition":"1_Rep","full_date":"2026-01-24T22:41:38.472Z","date":"2026-01-24","time":"22:41:38"},{"correct_response":"a","task":"test_phase","broad_category":"M","image_png":"M_Marble_16.png","image_id":240,"category_name":"Marble","category":15,"distinct_rating":2.57,"distinct_type":"Bottom","item_type":"Foil","rt":1552,"stimulus":"Stimuli_Rocks480/M_Marble_16.png","response":"l","trial_type":"image-keyboard-response","trial_index":153,"plugin_version":"2.1.0","time_elapsed":274138,"subject_id":"92102","group":"Group2","condition":"1_Rep","full_date":"2026-01-24T22:41:38.472Z","date":"2026-01-24","time":"22:41:38","cor_ans":false},{"trial_type":"html-keyboard-response","rt":null,"stimulus":"<p style=\"color: red; font-size: 50px; font-weight: bold;\">Incorrect</p>","response":null,"trial_index":154,"plugin_version":"2.1.0","time_elapsed":274639,"subject_id":"92102","group":"Group2","condition":"1_Rep","full_date":"2026-01-24T22:41:38.472Z","date":"2026-01-24","time":"22:41:38"},{"correct_response":"a","task":"test_phase","broad_category":"S","image_png":"S_Sandstone_16.png","image_id":464,"category_name":"Sandstone","category":29,"distinct_rating":1.93,"distinct_type":"Bottom","item_type":"Foil","rt":1322,"stimulus":"Stimuli_Rocks480/S_Sandstone_16.png","response":"a","trial_type":"image-keyboard-response","trial_index":155,"plugin_version":"2.1.0","time_elapsed":275972,"subject_id":"92102","group":"Group2","condition":"1_Rep","full_date":"2026-01-24T22:41:38.472Z","date":"2026-01-24","time":"22:41:38","cor_ans":true},{"trial_type":"html-keyboard-response","rt":null,"stimulus":"<p style=\"color: green; font-size: 50px; font-weight: bold;\">Correct</p>","response":null,"trial_index":156,"plugin_version":"2.1.0","time_elapsed":276474,"subject_id":"92102","group":"Group2","condition":"1_Rep","full_date":"2026-01-24T22:41:38.472Z","date":"2026-01-24","time":"22:41:38"},{"correct_response":"a","task":"test_phase","broad_category":"I","image_png":"I_Rhyolite_16.png","image_id":160,"category_name":"Rhyolite","category":10,"distinct_rating":2.19,"distinct_type":"Bottom","item_type":"Foil","rt":2631,"stimulus":"Stimuli_Rocks480/I_Rhyolite_16.png","response":"a","trial_type":"image-keyboard-response","trial_index":157,"plugin_version":"2.1.0","time_elapsed":279117,"subject_id":"92102","group":"Group2","condition":"1_Rep","full_date":"2026-01-24T22:41:38.472Z","date":"2026-01-24","time":"22:41:38","cor_ans":true},{"trial_type":"html-keyboard-response","rt":null,"stimulus":"<p style=\"color: green; font-size: 50px; font-weight: bold;\">Correct</p>","response":null,"trial_index":158,"plugin_version":"2.1.0","time_elapsed":279620,"subject_id":"92102","group":"Group2","condition":"1_Rep","full_date":"2026-01-24T22:41:38.472Z","date":"2026-01-24","time":"22:41:38"},{"correct_response":"a","task":"test_phase","broad_category":"S","image_png":"S_Dolomite_14.png","image_id":398,"category_name":"Dolomite","category":25,"distinct_rating":1.43,"distinct_type":"Bottom","item_type":"Foil","rt":2127,"stimulus":"Stimuli_Rocks480/S_Dolomite_14.png","response":"a","trial_type":"image-keyboard-response","trial_index":159,"plugin_version":"2.1.0","time_elapsed":281760,"subject_id":"92102","group":"Group2","condition":"1_Rep","full_date":"2026-01-24T22:41:38.472Z","date":"2026-01-24","time":"22:41:38","cor_ans":true},{"trial_type":"html-keyboard-response","rt":null,"stimulus":"<p style=\"color: green; font-size: 50px; font-weight: bold;\">Correct</p>","response":null,"trial_index":160,"plugin_version":"2.1.0","time_elapsed":282262,"subject_id":"92102","group":"Group2","condition":"1_Rep","full_date":"2026-01-24T22:41:38.472Z","date":"2026-01-24","time":"22:41:38"},{"correct_response":"a","task":"test_phase","broad_category":"S","image_png":"S_Dolomite_12.png","image_id":396,"category_name":"Dolomite","category":25,"distinct_rating":1.85,"distinct_type":"Bottom","item_type":"Foil","rt":4189,"stimulus":"Stimuli_Rocks480/S_Dolomite_12.png","response":"l","trial_type":"image-keyboard-response","trial_index":161,"plugin_version":"2.1.0","time_elapsed":286465,"subject_id":"92102","group":"Group2","condition":"1_Rep","full_date":"2026-01-24T22:41:38.472Z","date":"2026-01-24","time":"22:41:38","cor_ans":false},{"trial_type":"html-keyboard-response","rt":null,"stimulus":"<p style=\"color: red; font-size: 50px; font-weight: bold;\">Incorrect</p>","response":null,"trial_index":162,"plugin_version":"2.1.0","time_elapsed":286966,"subject_id":"92102","group":"Group2","condition":"1_Rep","full_date":"2026-01-24T22:41:38.472Z","date":"2026-01-24","time":"22:41:38"},{"correct_response":"a","task":"test_phase","broad_category":"I","image_png":"I_Obsidian_05.png","image_id":85,"category_name":"Obsidian","category":6,"distinct_rating":7.32,"distinct_type":"Top","item_type":"Foil","rt":1509,"stimulus":"Stimuli_Rocks480/I_Obsidian_05.png","response":"a","trial_type":"image-keyboard-response","trial_index":163,"plugin_version":"2.1.0","time_elapsed":288490,"subject_id":"92102","group":"Group2","condition":"1_Rep","full_date":"2026-01-24T22:41:38.472Z","date":"2026-01-24","time":"22:41:38","cor_ans":true},{"trial_type":"html-keyboard-response","rt":null,"stimulus":"<p style=\"color: green; font-size: 50px; font-weight: bold;\">Correct</p>","response":null,"trial_index":164,"plugin_version":"2.1.0","time_elapsed":288993,"subject_id":"92102","group":"Group2","condition":"1_Rep","full_date":"2026-01-24T22:41:38.472Z","date":"2026-01-24","time":"22:41:38"},{"correct_response":"l","task":"test_phase","broad_category":"M","image_png":"M_Slate_04.png","image_id":308,"category_name":"Slate","category":20,"distinct_rating":2.2,"distinct_type":"Bottom","item_type":"Target","rt":1283,"stimulus":"Stimuli_Rocks480/M_Slate_04.png","response":"a","trial_type":"image-keyboard-response","trial_index":165,"plugin_version":"2.1.0","time_elapsed":290286,"subject_id":"92102","group":"Group2","condition":"1_Rep","full_date":"2026-01-24T22:41:38.472Z","date":"2026-01-24","time":"22:41:38","cor_ans":false},{"trial_type":"html-keyboard-response","rt":null,"stimulus":"<p style=\"color: red; font-size: 50px; font-weight: bold;\">Incorrect</p>","response":null,"trial_index":166,"plugin_version":"2.1.0","time_elapsed":290788,"subject_id":"92102","group":"Group2","condition":"1_Rep","full_date":"2026-01-24T22:41:38.472Z","date":"2026-01-24","time":"22:41:38"},{"correct_response":"a","task":"test_phase","broad_category":"M","image_png":"M_Marble_06.png","image_id":230,"category_name":"Marble","category":15,"distinct_rating":3.4,"distinct_type":"Bottom","item_type":"Foil","rt":1849,"stimulus":"Stimuli_Rocks480/M_Marble_06.png","response":"l","trial_type":"image-keyboard-response","trial_index":167,"plugin_version":"2.1.0","time_elapsed":292648,"subject_id":"92102","group":"Group2","condition":"1_Rep","full_date":"2026-01-24T22:41:38.472Z","date":"2026-01-24","time":"22:41:38","cor_ans":false},{"trial_type":"html-keyboard-response","rt":null,"stimulus":"<p style=\"color: red; font-size: 50px; font-weight: bold;\">Incorrect</p>","response":null,"trial_index":168,"plugin_version":"2.1.0","time_elapsed":293150,"subject_id":"92102","group":"Group2","condition":"1_Rep","full_date":"2026-01-24T22:41:38.472Z","date":"2026-01-24","time":"22:41:38"},{"correct_response":"l","task":"test_phase","broad_category":"M","image_png":"M_Marble_03.png","image_id":227,"category_name":"Marble","category":15,"distinct_rating":2.67,"distinct_type":"Bottom","item_type":"Target","rt":1349,"stimulus":"Stimuli_Rocks480/M_Marble_03.png","response":"l","trial_type":"image-keyboard-response","trial_index":169,"plugin_version":"2.1.0","time_elapsed":294512,"subject_id":"92102","group":"Group2","condition":"1_Rep","full_date":"2026-01-24T22:41:38.472Z","date":"2026-01-24","time":"22:41:38","cor_ans":true},{"trial_type":"html-keyboard-response","rt":null,"stimulus":"<p style=\"color: green; font-size: 50px; font-weight: bold;\">Correct</p>","response":null,"trial_index":170,"plugin_version":"2.1.0","time_elapsed":295014,"subject_id":"92102","group":"Group2","condition":"1_Rep","full_date":"2026-01-24T22:41:38.472Z","date":"2026-01-24","time":"22:41:38"},{"correct_response":"l","task":"test_phase","broad_category":"M","image_png":"M_Marble_02.png","image_id":226,"category_name":"Marble","category":15,"distinct_rating":3.2,"distinct_type":"Bottom","item_type":"Target","rt":1115,"stimulus":"Stimuli_Rocks480/M_Marble_02.png","response":"l","trial_type":"image-keyboard-response","trial_index":171,"plugin_version":"2.1.0","time_elapsed":296142,"subject_id":"92102","group":"Group2","condition":"1_Rep","full_date":"2026-01-24T22:41:38.472Z","date":"2026-01-24","time":"22:41:38","cor_ans":true},{"trial_type":"html-keyboard-response","rt":null,"stimulus":"<p style=\"color: green; font-size: 50px; font-weight: bold;\">Correct</p>","response":null,"trial_index":172,"plugin_version":"2.1.0","time_elapsed":296644,"subject_id":"92102","group":"Group2","condition":"1_Rep","full_date":"2026-01-24T22:41:38.472Z","date":"2026-01-24","time":"22:41:38"},{"correct_response":"a","task":"test_phase","broad_category":"S","image_png":"S_Shale_12.png","image_id":476,"category_name":"Shale","category":30,"distinct_rating":2.48,"distinct_type":"Bottom","item_type":"Foil","rt":1261,"stimulus":"Stimuli_Rocks480/S_Shale_12.png","response":"a","trial_type":"image-keyboard-response","trial_index":173,"plugin_version":"2.1.0","time_elapsed":297922,"subject_id":"92102","group":"Group2","condition":"1_Rep","full_date":"2026-01-24T22:41:38.472Z","date":"2026-01-24","time":"22:41:38","cor_ans":true},{"trial_type":"html-keyboard-response","rt":null,"stimulus":"<p style=\"color: green; font-size: 50px; font-weight: bold;\">Correct</p>","response":null,"trial_index":174,"plugin_version":"2.1.0","time_elapsed":298424,"subject_id":"92102","group":"Group2","condition":"1_Rep","full_date":"2026-01-24T22:41:38.472Z","date":"2026-01-24","time":"22:41:38"},{"correct_response":"l","task":"test_phase","broad_category":"I","image_png":"I_Rhyolite_10.png","image_id":154,"category_name":"Rhyolite","category":10,"distinct_rating":2.88,"distinct_type":"Bottom","item_type":"Target","rt":1396,"stimulus":"Stimuli_Rocks480/I_Rhyolite_10.png","response":"l","trial_type":"image-keyboard-response","trial_index":175,"plugin_version":"2.1.0","time_elapsed":299839,"subject_id":"92102","group":"Group2","condition":"1_Rep","full_date":"2026-01-24T22:41:38.472Z","date":"2026-01-24","time":"22:41:38","cor_ans":true},{"trial_type":"html-keyboard-response","rt":null,"stimulus":"<p style=\"color: green; font-size: 50px; font-weight: bold;\">Correct</p>","response":null,"trial_index":176,"plugin_version":"2.1.0","time_elapsed":300341,"subject_id":"92102","group":"Group2","condition":"1_Rep","full_date":"2026-01-24T22:41:38.472Z","date":"2026-01-24","time":"22:41:38"},{"correct_response":"l","task":"test_phase","broad_category":"S","image_png":"S_Conglomerate_14.png","image_id":382,"category_name":"Conglomerate","category":24,"distinct_rating":6.86,"distinct_type":"Top","item_type":"Target","rt":1015,"stimulus":"Stimuli_Rocks480/S_Conglomerate_14.png","response":"l","trial_type":"image-keyboard-response","trial_index":177,"plugin_version":"2.1.0","time_elapsed":301369,"subject_id":"92102","group":"Group2","condition":"1_Rep","full_date":"2026-01-24T22:41:38.472Z","date":"2026-01-24","time":"22:41:38","cor_ans":true},{"trial_type":"html-keyboard-response","rt":null,"stimulus":"<p style=\"color: green; font-size: 50px; font-weight: bold;\">Correct</p>","response":null,"trial_index":178,"plugin_version":"2.1.0","time_elapsed":301871,"subject_id":"92102","group":"Group2","condition":"1_Rep","full_date":"2026-01-24T22:41:38.472Z","date":"2026-01-24","time":"22:41:38"},{"correct_response":"a","task":"test_phase","broad_category":"M","image_png":"M_Quartzite_05.png","image_id":277,"category_name":"Quartzite","category":18,"distinct_rating":2.23,"distinct_type":"Bottom","item_type":"Foil","rt":1485,"stimulus":"Stimuli_Rocks480/M_Quartzite_05.png","response":"a","trial_type":"image-keyboard-response","trial_index":179,"plugin_version":"2.1.0","time_elapsed":303373,"subject_id":"92102","group":"Group2","condition":"1_Rep","full_date":"2026-01-24T22:41:38.472Z","date":"2026-01-24","time":"22:41:38","cor_ans":true},{"trial_type":"html-keyboard-response","rt":null,"stimulus":"<p style=\"color: green; font-size: 50px; font-weight: bold;\">Correct</p>","response":null,"trial_index":180,"plugin_version":"2.1.0","time_elapsed":303875,"subject_id":"92102","group":"Group2","condition":"1_Rep","full_date":"2026-01-24T22:41:38.472Z","date":"2026-01-24","time":"22:41:38"},{"correct_response":"a","task":"test_phase","broad_category":"M","image_png":"M_Phyllite_03.png","image_id":259,"category_name":"Phyllite","category":17,"distinct_rating":2.5,"distinct_type":"Bottom","item_type":"Foil","rt":1443,"stimulus":"Stimuli_Rocks480/M_Phyllite_03.png","response":"l","trial_type":"image-keyboard-response","trial_index":181,"plugin_version":"2.1.0","time_elapsed":305332,"subject_id":"92102","group":"Group2","condition":"1_Rep","full_date":"2026-01-24T22:41:38.472Z","date":"2026-01-24","time":"22:41:38","cor_ans":false},{"trial_type":"html-keyboard-response","rt":null,"stimulus":"<p style=\"color: red; font-size: 50px; font-weight: bold;\">Incorrect</p>","response":null,"trial_index":182,"plugin_version":"2.1.0","time_elapsed":305834,"subject_id":"92102","group":"Group2","condition":"1_Rep","full_date":"2026-01-24T22:41:38.472Z","date":"2026-01-24","time":"22:41:38"},{"correct_response":"l","task":"test_phase","broad_category":"S","image_png":"S_Rock Salt_13.png","image_id":445,"category_name":"Rock Salt","category":28,"distinct_rating":7.58,"distinct_type":"Top","item_type":"Target","rt":992,"stimulus":"Stimuli_Rocks480/S_Rock Salt_13.png","response":"l","trial_type":"image-keyboard-response","trial_index":183,"plugin_version":"2.1.0","time_elapsed":306841,"subject_id":"92102","group":"Group2","condition":"1_Rep","full_date":"2026-01-24T22:41:38.472Z","date":"2026-01-24","time":"22:41:38","cor_ans":true},{"trial_type":"html-keyboard-response","rt":null,"stimulus":"<p style=\"color: green; font-size: 50px; font-weight: bold;\">Correct</p>","response":null,"trial_index":184,"plugin_version":"2.1.0","time_elapsed":307343,"subject_id":"92102","group":"Group2","condition":"1_Rep","full_date":"2026-01-24T22:41:38.472Z","date":"2026-01-24","time":"22:41:38"},{"correct_response":"a","task":"test_phase","broad_category":"S","image_png":"S_Shale_01.png","image_id":465,"category_name":"Shale","category":30,"distinct_rating":2.7,"distinct_type":"Bottom","item_type":"Foil","rt":1203,"stimulus":"Stimuli_Rocks480/S_Shale_01.png","response":"a","trial_type":"image-keyboard-response","trial_index":185,"plugin_version":"2.1.0","time_elapsed":308561,"subject_id":"92102","group":"Group2","condition":"1_Rep","full_date":"2026-01-24T22:41:38.472Z","date":"2026-01-24","time":"22:41:38","cor_ans":true},{"trial_type":"html-keyboard-response","rt":null,"stimulus":"<p style=\"color: green; font-size: 50px; font-weight: bold;\">Correct</p>","response":null,"trial_index":186,"plugin_version":"2.1.0","time_elapsed":309063,"subject_id":"92102","group":"Group2","condition":"1_Rep","full_date":"2026-01-24T22:41:38.472Z","date":"2026-01-24","time":"22:41:38"},{"correct_response":"l","task":"test_phase","broad_category":"I","image_png":"I_Gabbro_02.png","image_id":50,"category_name":"Gabbro","category":4,"distinct_rating":2.73,"distinct_type":"Bottom","item_type":"Target","rt":994,"stimulus":"Stimuli_Rocks480/I_Gabbro_02.png","response":"a","trial_type":"image-keyboard-response","trial_index":187,"plugin_version":"2.1.0","time_elapsed":310072,"subject_id":"92102","group":"Group2","condition":"1_Rep","full_date":"2026-01-24T22:41:38.472Z","date":"2026-01-24","time":"22:41:38","cor_ans":false},{"trial_type":"html-keyboard-response","rt":null,"stimulus":"<p style=\"color: red; font-size: 50px; font-weight: bold;\">Incorrect</p>","response":null,"trial_index":188,"plugin_version":"2.1.0","time_elapsed":310574,"subject_id":"92102","group":"Group2","condition":"1_Rep","full_date":"2026-01-24T22:41:38.472Z","date":"2026-01-24","time":"22:41:38"},{"correct_response":"l","task":"test_phase","broad_category":"S","image_png":"S_Sandstone_11.png","image_id":459,"category_name":"Sandstone","category":29,"distinct_rating":1.82,"distinct_type":"Bottom","item_type":"Target","rt":1151,"stimulus":"Stimuli_Rocks480/S_Sandstone_11.png","response":"a","trial_type":"image-keyboard-response","trial_index":189,"plugin_version":"2.1.0","time_elapsed":311743,"subject_id":"92102","group":"Group2","condition":"1_Rep","full_date":"2026-01-24T22:41:38.472Z","date":"2026-01-24","time":"22:41:38","cor_ans":false},{"trial_type":"html-keyboard-response","rt":null,"stimulus":"<p style=\"color: red; font-size: 50px; font-weight: bold;\">Incorrect</p>","response":null,"trial_index":190,"plugin_version":"2.1.0","time_elapsed":312244,"subject_id":"92102","group":"Group2","condition":"1_Rep","full_date":"2026-01-24T22:41:38.472Z","date":"2026-01-24","time":"22:41:38"},{"correct_response":"a","task":"test_phase","broad_category":"M","image_png":"M_Quartzite_13.png","image_id":285,"category_name":"Quartzite","category":18,"distinct_rating":2.27,"distinct_type":"Bottom","item_type":"Foil","rt":903,"stimulus":"Stimuli_Rocks480/M_Quartzite_13.png","response":"a","trial_type":"image-keyboard-response","trial_index":191,"plugin_version":"2.1.0","time_elapsed":313157,"subject_id":"92102","group":"Group2","condition":"1_Rep","full_date":"2026-01-24T22:41:38.472Z","date":"2026-01-24","time":"22:41:38","cor_ans":true},{"trial_type":"html-keyboard-response","rt":null,"stimulus":"<p style=\"color: green; font-size: 50px; font-weight: bold;\">Correct</p>","response":null,"trial_index":192,"plugin_version":"2.1.0","time_elapsed":313658,"subject_id":"92102","group":"Group2","condition":"1_Rep","full_date":"2026-01-24T22:41:38.472Z","date":"2026-01-24","time":"22:41:38"},{"correct_response":"l","task":"test_phase","broad_category":"S","image_png":"S_Shale_02.png","image_id":466,"category_name":"Shale","category":30,"distinct_rating":2.9,"distinct_type":"Bottom","item_type":"Target","rt":1224,"stimulus":"Stimuli_Rocks480/S_Shale_02.png","response":"a","trial_type":"image-keyboard-response","trial_index":193,"plugin_version":"2.1.0","time_elapsed":314895,"subject_id":"92102","group":"Group2","condition":"1_Rep","full_date":"2026-01-24T22:41:38.472Z","date":"2026-01-24","time":"22:41:38","cor_ans":false},{"trial_type":"html-keyboard-response","rt":null,"stimulus":"<p style=\"color: red; font-size: 50px; font-weight: bold;\">Incorrect</p>","response":null,"trial_index":194,"plugin_version":"2.1.0","time_elapsed":315397,"subject_id":"92102","group":"Group2","condition":"1_Rep","full_date":"2026-01-24T22:41:38.472Z","date":"2026-01-24","time":"22:41:38"},{"correct_response":"a","task":"test_phase","broad_category":"M","image_png":"M_Quartzite_08.png","image_id":280,"category_name":"Quartzite","category":18,"distinct_rating":2.15,"distinct_type":"Bottom","item_type":"Foil","rt":1610,"stimulus":"Stimuli_Rocks480/M_Quartzite_08.png","response":"l","trial_type":"image-keyboard-response","trial_index":195,"plugin_version":"2.1.0","time_elapsed":317021,"subject_id":"92102","group":"Group2","condition":"1_Rep","full_date":"2026-01-24T22:41:38.472Z","date":"2026-01-24","time":"22:41:38","cor_ans":false},{"trial_type":"html-keyboard-response","rt":null,"stimulus":"<p style=\"color: red; font-size: 50px; font-weight: bold;\">Incorrect</p>","response":null,"trial_index":196,"plugin_version":"2.1.0","time_elapsed":317524,"subject_id":"92102","group":"Group2","condition":"1_Rep","full_date":"2026-01-24T22:41:38.472Z","date":"2026-01-24","time":"22:41:38"},{"correct_response":"a","task":"test_phase","broad_category":"S","image_png":"S_Chert_10.png","image_id":362,"category_name":"Chert","category":23,"distinct_rating":7.17,"distinct_type":"Top","item_type":"Foil","rt":1702,"stimulus":"Stimuli_Rocks480/S_Chert_10.png","response":"a","trial_type":"image-keyboard-response","trial_index":197,"plugin_version":"2.1.0","time_elapsed":319240,"subject_id":"92102","group":"Group2","condition":"1_Rep","full_date":"2026-01-24T22:41:38.472Z","date":"2026-01-24","time":"22:41:38","cor_ans":true},{"trial_type":"html-keyboard-response","rt":null,"stimulus":"<p style=\"color: green; font-size: 50px; font-weight: bold;\">Correct</p>","response":null,"trial_index":198,"plugin_version":"2.1.0","time_elapsed":319742,"subject_id":"92102","group":"Group2","condition":"1_Rep","full_date":"2026-01-24T22:41:38.472Z","date":"2026-01-24","time":"22:41:38"},{"correct_response":"l","task":"test_phase","broad_category":"M","image_png":"M_Phyllite_02.png","image_id":258,"category_name":"Phyllite","category":17,"distinct_rating":2.89,"distinct_type":"Bottom","item_type":"Target","rt":3068,"stimulus":"Stimuli_Rocks480/M_Phyllite_02.png","response":"a","trial_type":"image-keyboard-response","trial_index":199,"plugin_version":"2.1.0","time_elapsed":322826,"subject_id":"92102","group":"Group2","condition":"1_Rep","full_date":"2026-01-24T22:41:38.472Z","date":"2026-01-24","time":"22:41:38","cor_ans":false},{"trial_type":"html-keyboard-response","rt":null,"stimulus":"<p style=\"color: red; font-size: 50px; font-weight: bold;\">Incorrect</p>","response":null,"trial_index":200,"plugin_version":"2.1.0","time_elapsed":323328,"subject_id":"92102","group":"Group2","condition":"1_Rep","full_date":"2026-01-24T22:41:38.472Z","date":"2026-01-24","time":"22:41:38"},{"correct_response":"l","task":"test_phase","broad_category":"I","image_png":"I_Gabbro_12.png","image_id":60,"category_name":"Gabbro","category":4,"distinct_rating":2.6,"distinct_type":"Bottom","item_type":"Target","rt":1223,"stimulus":"Stimuli_Rocks480/I_Gabbro_12.png","response":"l","trial_type":"image-keyboard-response","trial_index":201,"plugin_version":"2.1.0","time_elapsed":324568,"subject_id":"92102","group":"Group2","condition":"1_Rep","full_date":"2026-01-24T22:41:38.472Z","date":"2026-01-24","time":"22:41:38","cor_ans":true},{"trial_type":"html-keyboard-response","rt":null,"stimulus":"<p style=\"color: green; font-size: 50px; font-weight: bold;\">Correct</p>","response":null,"trial_index":202,"plugin_version":"2.1.0","time_elapsed":325070,"subject_id":"92102","group":"Group2","condition":"1_Rep","full_date":"2026-01-24T22:41:38.472Z","date":"2026-01-24","time":"22:41:38"},{"correct_response":"l","task":"test_phase","broad_category":"S","image_png":"S_Dolomite_16.png","image_id":400,"category_name":"Dolomite","category":25,"distinct_rating":1.71,"distinct_type":"Bottom","item_type":"Target","rt":630,"stimulus":"Stimuli_Rocks480/S_Dolomite_16.png","response":"l","trial_type":"image-keyboard-response","trial_index":203,"plugin_version":"2.1.0","time_elapsed":325713,"subject_id":"92102","group":"Group2","condition":"1_Rep","full_date":"2026-01-24T22:41:38.472Z","date":"2026-01-24","time":"22:41:38","cor_ans":true},{"trial_type":"html-keyboard-response","rt":null,"stimulus":"<p style=\"color: green; font-size: 50px; font-weight: bold;\">Correct</p>","response":null,"trial_index":204,"plugin_version":"2.1.0","time_elapsed":326215,"subject_id":"92102","group":"Group2","condition":"1_Rep","full_date":"2026-01-24T22:41:38.472Z","date":"2026-01-24","time":"22:41:38"},{"correct_response":"l","task":"test_phase","broad_category":"S","image_png":"S_Dolomite_07.png","image_id":391,"category_name":"Dolomite","category":25,"distinct_rating":1.73,"distinct_type":"Bottom","item_type":"Target","rt":1283,"stimulus":"Stimuli_Rocks480/S_Dolomite_07.png","response":"a","trial_type":"image-keyboard-response","trial_index":205,"plugin_version":"2.1.0","time_elapsed":327512,"subject_id":"92102","group":"Group2","condition":"1_Rep","full_date":"2026-01-24T22:41:38.472Z","date":"2026-01-24","time":"22:41:38","cor_ans":false},{"trial_type":"html-keyboard-response","rt":null,"stimulus":"<p style=\"color: red; font-size: 50px; font-weight: bold;\">Incorrect</p>","response":null,"trial_index":206,"plugin_version":"2.1.0","time_elapsed":328014,"subject_id":"92102","group":"Group2","condition":"1_Rep","full_date":"2026-01-24T22:41:38.472Z","date":"2026-01-24","time":"22:41:38"},{"correct_response":"l","task":"test_phase","broad_category":"M","image_png":"M_Quartzite_12.png","image_id":284,"category_name":"Quartzite","category":18,"distinct_rating":1.92,"distinct_type":"Bottom","item_type":"Target","rt":1159,"stimulus":"Stimuli_Rocks480/M_Quartzite_12.png","response":"l","trial_type":"image-keyboard-response","trial_index":207,"plugin_version":"2.1.0","time_elapsed":329189,"subject_id":"92102","group":"Group2","condition":"1_Rep","full_date":"2026-01-24T22:41:38.472Z","date":"2026-01-24","time":"22:41:38","cor_ans":true},{"trial_type":"html-keyboard-response","rt":null,"stimulus":"<p style=\"color: green; font-size: 50px; font-weight: bold;\">Correct</p>","response":null,"trial_index":208,"plugin_version":"2.1.0","time_elapsed":329694,"subject_id":"92102","group":"Group2","condition":"1_Rep","full_date":"2026-01-24T22:41:38.472Z","date":"2026-01-24","time":"22:41:38"},{"correct_response":"a","task":"test_phase","broad_category":"I","image_png":"I_Basalt_09.png","image_id":25,"category_name":"Basalt","category":2,"distinct_rating":1.89,"distinct_type":"Bottom","item_type":"Foil","rt":1986,"stimulus":"Stimuli_Rocks480/I_Basalt_09.png","response":"l","trial_type":"image-keyboard-response","trial_index":209,"plugin_version":"2.1.0","time_elapsed":331694,"subject_id":"92102","group":"Group2","condition":"1_Rep","full_date":"2026-01-24T22:41:38.472Z","date":"2026-01-24","time":"22:41:38","cor_ans":false},{"trial_type":"html-keyboard-response","rt":null,"stimulus":"<p style=\"color: red; font-size: 50px; font-weight: bold;\">Incorrect</p>","response":null,"trial_index":210,"plugin_version":"2.1.0","time_elapsed":332196,"subject_id":"92102","group":"Group2","condition":"1_Rep","full_date":"2026-01-24T22:41:38.472Z","date":"2026-01-24","time":"22:41:38"},{"correct_response":"a","task":"test_phase","broad_category":"I","image_png":"I_Diorite_04.png","image_id":36,"category_name":"Diorite","category":3,"distinct_rating":2.98,"distinct_type":"Bottom","item_type":"Foil","rt":689,"stimulus":"Stimuli_Rocks480/I_Diorite_04.png","response":"l","trial_type":"image-keyboard-response","trial_index":211,"plugin_version":"2.1.0","time_elapsed":332900,"subject_id":"92102","group":"Group2","condition":"1_Rep","full_date":"2026-01-24T22:41:38.472Z","date":"2026-01-24","time":"22:41:38","cor_ans":false},{"trial_type":"html-keyboard-response","rt":null,"stimulus":"<p style=\"color: red; font-size: 50px; font-weight: bold;\">Incorrect</p>","response":null,"trial_index":212,"plugin_version":"2.1.0","time_elapsed":333402,"subject_id":"92102","group":"Group2","condition":"1_Rep","full_date":"2026-01-24T22:41:38.472Z","date":"2026-01-24","time":"22:41:38"},{"correct_response":"l","task":"test_phase","broad_category":"I","image_png":"I_Andesite_03.png","image_id":3,"category_name":"Andesite","category":1,"distinct_rating":3.17,"distinct_type":"Bottom","item_type":"Target","rt":1271,"stimulus":"Stimuli_Rocks480/I_Andesite_03.png","response":"l","trial_type":"image-keyboard-response","trial_index":213,"plugin_version":"2.1.0","time_elapsed":334683,"subject_id":"92102","group":"Group2","condition":"1_Rep","full_date":"2026-01-24T22:41:38.472Z","date":"2026-01-24","time":"22:41:38","cor_ans":true},{"trial_type":"html-keyboard-response","rt":null,"stimulus":"<p style=\"color: green; font-size: 50px; font-weight: bold;\">Correct</p>","response":null,"trial_index":214,"plugin_version":"2.1.0","time_elapsed":335185,"subject_id":"92102","group":"Group2","condition":"1_Rep","full_date":"2026-01-24T22:41:38.472Z","date":"2026-01-24","time":"22:41:38"},{"correct_response":"a","task":"test_phase","broad_category":"I","image_png":"I_Gabbro_08.png","image_id":56,"category_name":"Gabbro","category":4,"distinct_rating":3.02,"distinct_type":"Bottom","item_type":"Foil","rt":2216,"stimulus":"Stimuli_Rocks480/I_Gabbro_08.png","response":"l","trial_type":"image-keyboard-response","trial_index":215,"plugin_version":"2.1.0","time_elapsed":337413,"subject_id":"92102","group":"Group2","condition":"1_Rep","full_date":"2026-01-24T22:41:38.472Z","date":"2026-01-24","time":"22:41:38","cor_ans":false},{"trial_type":"html-keyboard-response","rt":null,"stimulus":"<p style=\"color: red; font-size: 50px; font-weight: bold;\">Incorrect</p>","response":null,"trial_index":216,"plugin_version":"2.1.0","time_elapsed":337915,"subject_id":"92102","group":"Group2","condition":"1_Rep","full_date":"2026-01-24T22:41:38.472Z","date":"2026-01-24","time":"22:41:38"},{"correct_response":"l","task":"test_phase","broad_category":"M","image_png":"M_Quartzite_07.png","image_id":279,"category_name":"Quartzite","category":18,"distinct_rating":1.97,"distinct_type":"Bottom","item_type":"Target","rt":1017,"stimulus":"Stimuli_Rocks480/M_Quartzite_07.png","response":"l","trial_type":"image-keyboard-response","trial_index":217,"plugin_version":"2.1.0","time_elapsed":338947,"subject_id":"92102","group":"Group2","condition":"1_Rep","full_date":"2026-01-24T22:41:38.472Z","date":"2026-01-24","time":"22:41:38","cor_ans":true},{"trial_type":"html-keyboard-response","rt":null,"stimulus":"<p style=\"color: green; font-size: 50px; font-weight: bold;\">Correct</p>","response":null,"trial_index":218,"plugin_version":"2.1.0","time_elapsed":339449,"subject_id":"92102","group":"Group2","condition":"1_Rep","full_date":"2026-01-24T22:41:38.472Z","date":"2026-01-24","time":"22:41:38"},{"correct_response":"a","task":"test_phase","broad_category":"I","image_png":"I_Pegmatite_10.png","image_id":106,"category_name":"Pegmatite","category":7,"distinct_rating":7.66,"distinct_type":"Top","item_type":"Foil","rt":1512,"stimulus":"Stimuli_Rocks480/I_Pegmatite_10.png","response":"a","trial_type":"image-keyboard-response","trial_index":219,"plugin_version":"2.1.0","time_elapsed":340973,"subject_id":"92102","group":"Group2","condition":"1_Rep","full_date":"2026-01-24T22:41:38.472Z","date":"2026-01-24","time":"22:41:38","cor_ans":true},{"trial_type":"html-keyboard-response","rt":null,"stimulus":"<p style=\"color: green; font-size: 50px; font-weight: bold;\">Correct</p>","response":null,"trial_index":220,"plugin_version":"2.1.0","time_elapsed":341475,"subject_id":"92102","group":"Group2","condition":"1_Rep","full_date":"2026-01-24T22:41:38.472Z","date":"2026-01-24","time":"22:41:38"},{"correct_response":"a","task":"test_phase","broad_category":"M","image_png":"M_Marble_04.png","image_id":228,"category_name":"Marble","category":15,"distinct_rating":3.15,"distinct_type":"Bottom","item_type":"Foil","rt":1314,"stimulus":"Stimuli_Rocks480/M_Marble_04.png","response":"a","trial_type":"image-keyboard-response","trial_index":221,"plugin_version":"2.1.0","time_elapsed":342804,"subject_id":"92102","group":"Group2","condition":"1_Rep","full_date":"2026-01-24T22:41:38.472Z","date":"2026-01-24","time":"22:41:38","cor_ans":true},{"trial_type":"html-keyboard-response","rt":null,"stimulus":"<p style=\"color: green; font-size: 50px; font-weight: bold;\">Correct</p>","response":null,"trial_index":222,"plugin_version":"2.1.0","time_elapsed":343306,"subject_id":"92102","group":"Group2","condition":"1_Rep","full_date":"2026-01-24T22:41:38.472Z","date":"2026-01-24","time":"22:41:38"},{"correct_response":"a","task":"test_phase","broad_category":"S","image_png":"S_Sandstone_03.png","image_id":451,"category_name":"Sandstone","category":29,"distinct_rating":1.86,"distinct_type":"Bottom","item_type":"Foil","rt":694,"stimulus":"Stimuli_Rocks480/S_Sandstone_03.png","response":"a","trial_type":"image-keyboard-response","trial_index":223,"plugin_version":"2.1.0","time_elapsed":344014,"subject_id":"92102","group":"Group2","condition":"1_Rep","full_date":"2026-01-24T22:41:38.472Z","date":"2026-01-24","time":"22:41:38","cor_ans":true},{"trial_type":"html-keyboard-response","rt":null,"stimulus":"<p style=\"color: green; font-size: 50px; font-weight: bold;\">Correct</p>","response":null,"trial_index":224,"plugin_version":"2.1.0","time_elapsed":344516,"subject_id":"92102","group":"Group2","condition":"1_Rep","full_date":"2026-01-24T22:41:38.472Z","date":"2026-01-24","time":"22:41:38"},{"correct_response":"a","task":"test_phase","broad_category":"M","