[{"width":724,"height":768,"webaudio":true,"browser":"safari","browser_version":"26.2.0","mobile":false,"os":"Mac OS","fullscreen":true,"vsync_rate":30.21,"webcam":true,"microphone":true,"trial_type":"browser-check","trial_index":0,"plugin_version":"2.1.0","time_elapsed":1999,"subject_id":"90692","group":"Group2","condition":"1_Rep","full_date":"2026-02-07T04:09:14.819Z","date":"2026-02-07","time":"04:09:14"},{"success":true,"timeout":false,"failed_images":[],"failed_audio":[],"failed_video":[],"trial_type":"preload","trial_index":1,"plugin_version":"2.1.0","time_elapsed":3545,"subject_id":"90692","group":"Group2","condition":"1_Rep","full_date":"2026-02-07T04:09:14.819Z","date":"2026-02-07","time":"04:09:14"},{"rt":57304,"url":"SONA_consent_memorability.html","trial_type":"external-html","trial_index":2,"plugin_version":"2.1.0","time_elapsed":60900,"subject_id":"90692","group":"Group2","condition":"1_Rep","full_date":"2026-02-07T04:09:14.819Z","date":"2026-02-07","time":"04:09:14"},{"success":true,"rt":8316,"trial_type":"fullscreen","trial_index":3,"plugin_version":"2.1.0","time_elapsed":70222,"subject_id":"90692","group":"Group2","condition":"1_Rep","full_date":"2026-02-07T04:09:14.819Z","date":"2026-02-07","time":"04:09:14"},{"rt":5361,"stimulus":"<div style=\"max-width: 760px; margin: auto; font-size: 20px; line-height: 1.5;\">\n      <h1 style=\"text-align:center; font-size: 30px;\">Instructions</h1>\n      <p>\n        Welcome to the study on <b>visual memory</b>. This experiment consists of <b>two phases</b>: \n        a <b>study phase</b> and a <b>test phase</b>.\n      </p>\n      <p>\n        In the study phase, you will see a series of rock images along with their category labels.\n        The images will appear one at a time.\n        <b>Your task</b> is to learn the categories to which the rock images belong \n        and to remember each image as accurately as possible.\n      </p> \n      <p>\n        Note that you will see each image only <b>once</b> during the study phase. \n          So, please pay close attention and try to remember each image carefully.\n      </p>\n      <p>\n        After the study phase, <b>your memory will be tested</b>. \n        Additional instructions for the test phase will be provided at that time.\n      </p>\n      <p>\n        If your computer has multiple <b>language settings</b> (e.g., English and another language),\n        please make sure it is set to English before starting.\n      </p>\n      <p>\n        You can track your progress using the <b>completion bar</b> at the top of the screen. \n        Please note that the bar will refresh when the test phase begins \n        to give you an accurate sense of your progress in both phases.\n      </p> \n      <p>\n        Press the button below when you are ready to begin.\n      </p>\n    </div>","response":0,"trial_type":"html-button-response","trial_index":4,"plugin_version":"2.1.0","time_elapsed":75585,"subject_id":"90692","group":"Group2","condition":"1_Rep","full_date":"2026-02-07T04:09:14.819Z","date":"2026-02-07","time":"04:09:14"},{"rt":null,"stimulus":"<p style=\"font-size: 50px; margin: 0; text-align: center;\">+</p>","response":null,"trial_type":"html-keyboard-response","trial_index":5,"plugin_version":"2.1.0","time_elapsed":76589,"subject_id":"90692","group":"Group2","condition":"1_Rep","full_date":"2026-02-07T04:09:14.819Z","date":"2026-02-07","time":"04:09:14"},{"task":"memory_phase","broad_category":"M","image_png":"M_Gneiss_10.png","image_id":202,"category_name":"Gneiss","category":13,"distinct_rating":3.09,"distinct_type":"Bottom","rt":null,"stimulus":"Stimuli_Rocks480/M_Gneiss_10.png","response":null,"trial_type":"image-keyboard-response","trial_index":6,"plugin_version":"2.1.0","time_elapsed":79106,"subject_id":"90692","group":"Group2","condition":"1_Rep","full_date":"2026-02-07T04:09:14.819Z","date":"2026-02-07","time":"04:09:14"},{"rt":null,"stimulus":"<p style=\"font-size: 50px; margin: 0; text-align: center;\">+</p>","response":null,"trial_type":"html-keyboard-response","trial_index":7,"plugin_version":"2.1.0","time_elapsed":80109,"subject_id":"90692","group":"Group2","condition":"1_Rep","full_date":"2026-02-07T04:09:14.819Z","date":"2026-02-07","time":"04:09:14"},{"task":"memory_phase","broad_category":"I","image_png":"I_Pegmatite_11.png","image_id":107,"category_name":"Pegmatite","category":7,"distinct_rating":7.11,"distinct_type":"Top","rt":null,"stimulus":"Stimuli_Rocks480/I_Pegmatite_11.png","response":null,"trial_type":"image-keyboard-response","trial_index":8,"plugin_version":"2.1.0","time_elapsed":82628,"subject_id":"90692","group":"Group2","condition":"1_Rep","full_date":"2026-02-07T04:09:14.819Z","date":"2026-02-07","time":"04:09:14"},{"rt":null,"stimulus":"<p style=\"font-size: 50px; margin: 0; text-align: center;\">+</p>","response":null,"trial_type":"html-keyboard-response","trial_index":9,"plugin_version":"2.1.0","time_elapsed":83630,"subject_id":"90692","group":"Group2","condition":"1_Rep","full_date":"2026-02-07T04:09:14.819Z","date":"2026-02-07","time":"04:09:14"},{"task":"memory_phase","broad_category":"M","image_png":"M_Marble_02.png","image_id":226,"category_name":"Marble","category":15,"distinct_rating":3.2,"distinct_type":"Bottom","rt":null,"stimulus":"Stimuli_Rocks480/M_Marble_02.png","response":null,"trial_type":"image-keyboard-response","trial_index":10,"plugin_version":"2.1.0","time_elapsed":86145,"subject_id":"90692","group":"Group2","condition":"1_Rep","full_date":"2026-02-07T04:09:14.819Z","date":"2026-02-07","time":"04:09:14"},{"rt":null,"stimulus":"<p style=\"font-size: 50px; margin: 0; text-align: center;\">+</p>","response":null,"trial_type":"html-keyboard-response","trial_index":11,"plugin_version":"2.1.0","time_elapsed":87147,"subject_id":"90692","group":"Group2","condition":"1_Rep","full_date":"2026-02-07T04:09:14.819Z","date":"2026-02-07","time":"04:09:14"},{"task":"memory_phase","broad_category":"S","image_png":"S_Conglomerate_14.png","image_id":382,"category_name":"Conglomerate","category":24,"distinct_rating":6.86,"distinct_type":"Top","rt":null,"stimulus":"Stimuli_Rocks480/S_Conglomerate_14.png","response":null,"trial_type":"image-keyboard-response","trial_index":12,"plugin_version":"2.1.0","time_elapsed":89660,"subject_id":"90692","group":"Group2","condition":"1_Rep","full_date":"2026-02-07T04:09:14.819Z","date":"2026-02-07","time":"04:09:14"},{"rt":null,"stimulus":"<p style=\"font-size: 50px; margin: 0; text-align: center;\">+</p>","response":null,"trial_type":"html-keyboard-response","trial_index":13,"plugin_version":"2.1.0","time_elapsed":90662,"subject_id":"90692","group":"Group2","condition":"1_Rep","full_date":"2026-02-07T04:09:14.819Z","date":"2026-02-07","time":"04:09:14"},{"task":"memory_phase","broad_category":"M","image_png":"M_Phyllite_02.png","image_id":258,"category_name":"Phyllite","category":17,"distinct_rating":2.89,"distinct_type":"Bottom","rt":null,"stimulus":"Stimuli_Rocks480/M_Phyllite_02.png","response":null,"trial_type":"image-keyboard-response","trial_index":14,"plugin_version":"2.1.0","time_elapsed":93179,"subject_id":"90692","group":"Group2","condition":"1_Rep","full_date":"2026-02-07T04:09:14.819Z","date":"2026-02-07","time":"04:09:14"},{"rt":null,"stimulus":"<p style=\"font-size: 50px; margin: 0; text-align: center;\">+</p>","response":null,"trial_type":"html-keyboard-response","trial_index":15,"plugin_version":"2.1.0","time_elapsed":94208,"subject_id":"90692","group":"Group2","condition":"1_Rep","full_date":"2026-02-07T04:09:14.819Z","date":"2026-02-07","time":"04:09:14"},{"task":"memory_phase","broad_category":"I","image_png":"I_Obsidian_06.png","image_id":86,"category_name":"Obsidian","category":6,"distinct_rating":8.01,"distinct_type":"Top","rt":null,"stimulus":"Stimuli_Rocks480/I_Obsidian_06.png","response":null,"trial_type":"image-keyboard-response","trial_index":16,"plugin_version":"2.1.0","time_elapsed":96727,"subject_id":"90692","group":"Group2","condition":"1_Rep","full_date":"2026-02-07T04:09:14.819Z","date":"2026-02-07","time":"04:09:14"},{"rt":null,"stimulus":"<p style=\"font-size: 50px; margin: 0; text-align: center;\">+</p>","response":null,"trial_type":"html-keyboard-response","trial_index":17,"plugin_version":"2.1.0","time_elapsed":97748,"subject_id":"90692","group":"Group2","condition":"1_Rep","full_date":"2026-02-07T04:09:14.819Z","date":"2026-02-07","time":"04:09:14"},{"task":"memory_phase","broad_category":"M","image_png":"M_Phyllite_13.png","image_id":269,"category_name":"Phyllite","category":17,"distinct_rating":2.8,"distinct_type":"Bottom","rt":null,"stimulus":"Stimuli_Rocks480/M_Phyllite_13.png","response":null,"trial_type":"image-keyboard-response","trial_index":18,"plugin_version":"2.1.0","time_elapsed":100268,"subject_id":"90692","group":"Group2","condition":"1_Rep","full_date":"2026-02-07T04:09:14.819Z","date":"2026-02-07","time":"04:09:14"},{"rt":null,"stimulus":"<p style=\"font-size: 50px; margin: 0; text-align: center;\">+</p>","response":null,"trial_type":"html-keyboard-response","trial_index":19,"plugin_version":"2.1.0","time_elapsed":101287,"subject_id":"90692","group":"Group2","condition":"1_Rep","full_date":"2026-02-07T04:09:14.819Z","date":"2026-02-07","time":"04:09:14"},{"task":"memory_phase","broad_category":"M","image_png":"M_Marble_03.png","image_id":227,"category_name":"Marble","category":15,"distinct_rating":2.67,"distinct_type":"Bottom","rt":null,"stimulus":"Stimuli_Rocks480/M_Marble_03.png","response":null,"trial_type":"image-keyboard-response","trial_index":20,"plugin_version":"2.1.0","time_elapsed":103808,"subject_id":"90692","group":"Group2","condition":"1_Rep","full_date":"2026-02-07T04:09:14.819Z","date":"2026-02-07","time":"04:09:14"},{"rt":null,"stimulus":"<p style=\"font-size: 50px; margin: 0; text-align: center;\">+</p>","response":null,"trial_type":"html-keyboard-response","trial_index":21,"plugin_version":"2.1.0","time_elapsed":104828,"subject_id":"90692","group":"Group2","condition":"1_Rep","full_date":"2026-02-07T04:09:14.819Z","date":"2026-02-07","time":"04:09:14"},{"task":"memory_phase","broad_category":"S","image_png":"S_Rock Salt_13.png","image_id":445,"category_name":"Rock Salt","category":28,"distinct_rating":7.58,"distinct_type":"Top","rt":null,"stimulus":"Stimuli_Rocks480/S_Rock Salt_13.png","response":null,"trial_type":"image-keyboard-response","trial_index":22,"plugin_version":"2.1.0","time_elapsed":107348,"subject_id":"90692","group":"Group2","condition":"1_Rep","full_date":"2026-02-07T04:09:14.819Z","date":"2026-02-07","time":"04:09:14"},{"rt":null,"stimulus":"<p style=\"font-size: 50px; margin: 0; text-align: center;\">+</p>","response":null,"trial_type":"html-keyboard-response","trial_index":23,"plugin_version":"2.1.0","time_elapsed":108368,"subject_id":"90692","group":"Group2","condition":"1_Rep","full_date":"2026-02-07T04:09:14.819Z","date":"2026-02-07","time":"04:09:14"},{"task":"memory_phase","broad_category":"M","image_png":"M_Slate_04.png","image_id":308,"category_name":"Slate","category":20,"distinct_rating":2.2,"distinct_type":"Bottom","rt":null,"stimulus":"Stimuli_Rocks480/M_Slate_04.png","response":null,"trial_type":"image-keyboard-response","trial_index":24,"plugin_version":"2.1.0","time_elapsed":110888,"subject_id":"90692","group":"Group2","condition":"1_Rep","full_date":"2026-02-07T04:09:14.819Z","date":"2026-02-07","time":"04:09:14"},{"rt":null,"stimulus":"<p style=\"font-size: 50px; margin: 0; text-align: center;\">+</p>","response":null,"trial_type":"html-keyboard-response","trial_index":25,"plugin_version":"2.1.0","time_elapsed":111908,"subject_id":"90692","group":"Group2","condition":"1_Rep","full_date":"2026-02-07T04:09:14.819Z","date":"2026-02-07","time":"04:09:14"},{"task":"memory_phase","broad_category":"M","image_png":"M_Gneiss_15.png","image_id":207,"category_name":"Gneiss","category":13,"distinct_rating":3.11,"distinct_type":"Bottom","rt":null,"stimulus":"Stimuli_Rocks480/M_Gneiss_15.png","response":null,"trial_type":"image-keyboard-response","trial_index":26,"plugin_version":"2.1.0","time_elapsed":114427,"subject_id":"90692","group":"Group2","condition":"1_Rep","full_date":"2026-02-07T04:09:14.819Z","date":"2026-02-07","time":"04:09:14"},{"rt":null,"stimulus":"<p style=\"font-size: 50px; margin: 0; text-align: center;\">+</p>","response":null,"trial_type":"html-keyboard-response","trial_index":27,"plugin_version":"2.1.0","time_elapsed":115448,"subject_id":"90692","group":"Group2","condition":"1_Rep","full_date":"2026-02-07T04:09:14.819Z","date":"2026-02-07","time":"04:09:14"},{"task":"memory_phase","broad_category":"I","image_png":"I_Gabbro_02.png","image_id":50,"category_name":"Gabbro","category":4,"distinct_rating":2.73,"distinct_type":"Bottom","rt":null,"stimulus":"Stimuli_Rocks480/I_Gabbro_02.png","response":null,"trial_type":"image-keyboard-response","trial_index":28,"plugin_version":"2.1.0","time_elapsed":117968,"subject_id":"90692","group":"Group2","condition":"1_Rep","full_date":"2026-02-07T04:09:14.819Z","date":"2026-02-07","time":"04:09:14"},{"rt":null,"stimulus":"<p style=\"font-size: 50px; margin: 0; text-align: center;\">+</p>","response":null,"trial_type":"html-keyboard-response","trial_index":29,"plugin_version":"2.1.0","time_elapsed":118988,"subject_id":"90692","group":"Group2","condition":"1_Rep","full_date":"2026-02-07T04:09:14.819Z","date":"2026-02-07","time":"04:09:14"},{"task":"memory_phase","broad_category":"S","image_png":"S_Sandstone_11.png","image_id":459,"category_name":"Sandstone","category":29,"distinct_rating":1.82,"distinct_type":"Bottom","rt":null,"stimulus":"Stimuli_Rocks480/S_Sandstone_11.png","response":null,"trial_type":"image-keyboard-response","trial_index":30,"plugin_version":"2.1.0","time_elapsed":121508,"subject_id":"90692","group":"Group2","condition":"1_Rep","full_date":"2026-02-07T04:09:14.819Z","date":"2026-02-07","time":"04:09:14"},{"rt":null,"stimulus":"<p style=\"font-size: 50px; margin: 0; text-align: center;\">+</p>","response":null,"trial_type":"html-keyboard-response","trial_index":31,"plugin_version":"2.1.0","time_elapsed":122527,"subject_id":"90692","group":"Group2","condition":"1_Rep","full_date":"2026-02-07T04:09:14.819Z","date":"2026-02-07","time":"04:09:14"},{"task":"memory_phase","broad_category":"I","image_png":"I_Pumice_13.png","image_id":141,"category_name":"Pumice","category":9,"distinct_rating":3.12,"distinct_type":"Bottom","rt":null,"stimulus":"Stimuli_Rocks480/I_Pumice_13.png","response":null,"trial_type":"image-keyboard-response","trial_index":32,"plugin_version":"2.1.0","time_elapsed":125048,"subject_id":"90692","group":"Group2","condition":"1_Rep","full_date":"2026-02-07T04:09:14.819Z","date":"2026-02-07","time":"04:09:14"},{"rt":null,"stimulus":"<p style=\"font-size: 50px; margin: 0; text-align: center;\">+</p>","response":null,"trial_type":"html-keyboard-response","trial_index":33,"plugin_version":"2.1.0","time_elapsed":126068,"subject_id":"90692","group":"Group2","condition":"1_Rep","full_date":"2026-02-07T04:09:14.819Z","date":"2026-02-07","time":"04:09:14"},{"task":"memory_phase","broad_category":"S","image_png":"S_Dolomite_16.png","image_id":400,"category_name":"Dolomite","category":25,"distinct_rating":1.71,"distinct_type":"Bottom","rt":null,"stimulus":"Stimuli_Rocks480/S_Dolomite_16.png","response":null,"trial_type":"image-keyboard-response","trial_index":34,"plugin_version":"2.1.0","time_elapsed":128588,"subject_id":"90692","group":"Group2","condition":"1_Rep","full_date":"2026-02-07T04:09:14.819Z","date":"2026-02-07","time":"04:09:14"},{"rt":null,"stimulus":"<p style=\"font-size: 50px; margin: 0; text-align: center;\">+</p>","response":null,"trial_type":"html-keyboard-response","trial_index":35,"plugin_version":"2.1.0","time_elapsed":129608,"subject_id":"90692","group":"Group2","condition":"1_Rep","full_date":"2026-02-07T04:09:14.819Z","date":"2026-02-07","time":"04:09:14"},{"task":"memory_phase","broad_category":"I","image_png":"I_Andesite_03.png","image_id":3,"category_name":"Andesite","category":1,"distinct_rating":3.17,"distinct_type":"Bottom","rt":null,"stimulus":"Stimuli_Rocks480/I_Andesite_03.png","response":null,"trial_type":"image-keyboard-response","trial_index":36,"plugin_version":"2.1.0","time_elapsed":132127,"subject_id":"90692","group":"Group2","condition":"1_Rep","full_date":"2026-02-07T04:09:14.819Z","date":"2026-02-07","time":"04:09:14"},{"rt":null,"stimulus":"<p style=\"font-size: 50px; margin: 0; text-align: center;\">+</p>","response":null,"trial_type":"html-keyboard-response","trial_index":37,"plugin_version":"2.1.0","time_elapsed":133148,"subject_id":"90692","group":"Group2","condition":"1_Rep","full_date":"2026-02-07T04:09:14.819Z","date":"2026-02-07","time":"04:09:14"},{"task":"memory_phase","broad_category":"I","image_png":"I_Rhyolite_05.png","image_id":149,"category_name":"Rhyolite","category":10,"distinct_rating":3.02,"distinct_type":"Bottom","rt":null,"stimulus":"Stimuli_Rocks480/I_Rhyolite_05.png","response":null,"trial_type":"image-keyboard-response","trial_index":38,"plugin_version":"2.1.0","time_elapsed":135668,"subject_id":"90692","group":"Group2","condition":"1_Rep","full_date":"2026-02-07T04:09:14.819Z","date":"2026-02-07","time":"04:09:14"},{"rt":null,"stimulus":"<p style=\"font-size: 50px; margin: 0; text-align: center;\">+</p>","response":null,"trial_type":"html-keyboard-response","trial_index":39,"plugin_version":"2.1.0","time_elapsed":136688,"subject_id":"90692","group":"Group2","condition":"1_Rep","full_date":"2026-02-07T04:09:14.819Z","date":"2026-02-07","time":"04:09:14"},{"task":"memory_phase","broad_category":"S","image_png":"S_Shale_03.png","image_id":467,"category_name":"Shale","category":30,"distinct_rating":1.95,"distinct_type":"Bottom","rt":null,"stimulus":"Stimuli_Rocks480/S_Shale_03.png","response":null,"trial_type":"image-keyboard-response","trial_index":40,"plugin_version":"2.1.0","time_elapsed":139208,"subject_id":"90692","group":"Group2","condition":"1_Rep","full_date":"2026-02-07T04:09:14.819Z","date":"2026-02-07","time":"04:09:14"},{"rt":null,"stimulus":"<p style=\"font-size: 50px; margin: 0; text-align: center;\">+</p>","response":null,"trial_type":"html-keyboard-response","trial_index":41,"plugin_version":"2.1.0","time_elapsed":140227,"subject_id":"90692","group":"Group2","condition":"1_Rep","full_date":"2026-02-07T04:09:14.819Z","date":"2026-02-07","time":"04:09:14"},{"task":"memory_phase","broad_category":"I","image_png":"I_Diorite_15.png","image_id":47,"category_name":"Diorite","category":3,"distinct_rating":3.05,"distinct_type":"Bottom","rt":null,"stimulus":"Stimuli_Rocks480/I_Diorite_15.png","response":null,"trial_type":"image-keyboard-response","trial_index":42,"plugin_version":"2.1.0","time_elapsed":142748,"subject_id":"90692","group":"Group2","condition":"1_Rep","full_date":"2026-02-07T04:09:14.819Z","date":"2026-02-07","time":"04:09:14"},{"rt":null,"stimulus":"<p style=\"font-size: 50px; margin: 0; text-align: center;\">+</p>","response":null,"trial_type":"html-keyboard-response","trial_index":43,"plugin_version":"2.1.0","time_elapsed":143768,"subject_id":"90692","group":"Group2","condition":"1_Rep","full_date":"2026-02-07T04:09:14.819Z","date":"2026-02-07","time":"04:09:14"},{"task":"memory_phase","broad_category":"I","image_png":"I_Diorite_10.png","image_id":42,"category_name":"Diorite","category":3,"distinct_rating":2.84,"distinct_type":"Bottom","rt":null,"stimulus":"Stimuli_Rocks480/I_Diorite_10.png","response":null,"trial_type":"image-keyboard-response","trial_index":44,"plugin_version":"2.1.0","time_elapsed":146288,"subject_id":"90692","group":"Group2","condition":"1_Rep","full_date":"2026-02-07T04:09:14.819Z","date":"2026-02-07","time":"04:09:14"},{"rt":null,"stimulus":"<p style=\"font-size: 50px; margin: 0; text-align: center;\">+</p>","response":null,"trial_type":"html-keyboard-response","trial_index":45,"plugin_version":"2.1.0","time_elapsed":147308,"subject_id":"90692","group":"Group2","condition":"1_Rep","full_date":"2026-02-07T04:09:14.819Z","date":"2026-02-07","time":"04:09:14"},{"task":"memory_phase","broad_category":"I","image_png":"I_Gabbro_12.png","image_id":60,"category_name":"Gabbro","category":4,"distinct_rating":2.6,"distinct_type":"Bottom","rt":null,"stimulus":"Stimuli_Rocks480/I_Gabbro_12.png","response":null,"trial_type":"image-keyboard-response","trial_index":46,"plugin_version":"2.1.0","time_elapsed":149827,"subject_id":"90692","group":"Group2","condition":"1_Rep","full_date":"2026-02-07T04:09:14.819Z","date":"2026-02-07","time":"04:09:14"},{"rt":null,"stimulus":"<p style=\"font-size: 50px; margin: 0; text-align: center;\">+</p>","response":null,"trial_type":"html-keyboard-response","trial_index":47,"plugin_version":"2.1.0","time_elapsed":150848,"subject_id":"90692","group":"Group2","condition":"1_Rep","full_date":"2026-02-07T04:09:14.819Z","date":"2026-02-07","time":"04:09:14"},{"task":"memory_phase","broad_category":"I","image_png":"I_Pegmatite_03.png","image_id":99,"category_name":"Pegmatite","category":7,"distinct_rating":7.24,"distinct_type":"Top","rt":null,"stimulus":"Stimuli_Rocks480/I_Pegmatite_03.png","response":null,"trial_type":"image-keyboard-response","trial_index":48,"plugin_version":"2.1.0","time_elapsed":153368,"subject_id":"90692","group":"Group2","condition":"1_Rep","full_date":"2026-02-07T04:09:14.819Z","date":"2026-02-07","time":"04:09:14"},{"rt":null,"stimulus":"<p style=\"font-size: 50px; margin: 0; text-align: center;\">+</p>","response":null,"trial_type":"html-keyboard-response","trial_index":49,"plugin_version":"2.1.0","time_elapsed":154388,"subject_id":"90692","group":"Group2","condition":"1_Rep","full_date":"2026-02-07T04:09:14.819Z","date":"2026-02-07","time":"04:09:14"},{"task":"memory_phase","broad_category":"I","image_png":"I_Rhyolite_10.png","image_id":154,"category_name":"Rhyolite","category":10,"distinct_rating":2.88,"distinct_type":"Bottom","rt":null,"stimulus":"Stimuli_Rocks480/I_Rhyolite_10.png","response":null,"trial_type":"image-keyboard-response","trial_index":50,"plugin_version":"2.1.0","time_elapsed":156908,"subject_id":"90692","group":"Group2","condition":"1_Rep","full_date":"2026-02-07T04:09:14.819Z","date":"2026-02-07","time":"04:09:14"},{"rt":null,"stimulus":"<p style=\"font-size: 50px; margin: 0; text-align: center;\">+</p>","response":null,"trial_type":"html-keyboard-response","trial_index":51,"plugin_version":"2.1.0","time_elapsed":157927,"subject_id":"90692","group":"Group2","condition":"1_Rep","full_date":"2026-02-07T04:09:14.819Z","date":"2026-02-07","time":"04:09:14"},{"task":"memory_phase","broad_category":"I","image_png":"I_Diorite_01.png","image_id":33,"category_name":"Diorite","category":3,"distinct_rating":2.97,"distinct_type":"Bottom","rt":null,"stimulus":"Stimuli_Rocks480/I_Diorite_01.png","response":null,"trial_type":"image-keyboard-response","trial_index":52,"plugin_version":"2.1.0","time_elapsed":160448,"subject_id":"90692","group":"Group2","condition":"1_Rep","full_date":"2026-02-07T04:09:14.819Z","date":"2026-02-07","time":"04:09:14"},{"rt":null,"stimulus":"<p style=\"font-size: 50px; margin: 0; text-align: center;\">+</p>","response":null,"trial_type":"html-keyboard-response","trial_index":53,"plugin_version":"2.1.0","time_elapsed":161468,"subject_id":"90692","group":"Group2","condition":"1_Rep","full_date":"2026-02-07T04:09:14.819Z","date":"2026-02-07","time":"04:09:14"},{"task":"memory_phase","broad_category":"I","image_png":"I_Andesite_04.png","image_id":4,"category_name":"Andesite","category":1,"distinct_rating":3.18,"distinct_type":"Bottom","rt":null,"stimulus":"Stimuli_Rocks480/I_Andesite_04.png","response":null,"trial_type":"image-keyboard-response","trial_index":54,"plugin_version":"2.1.0","time_elapsed":163988,"subject_id":"90692","group":"Group2","condition":"1_Rep","full_date":"2026-02-07T04:09:14.819Z","date":"2026-02-07","time":"04:09:14"},{"rt":2248,"stimulus":"<p style=\"max-width: 760px; margin: auto; font-size: 35px; line-height: 1.5;\">\n                Press SPACE to continue study phase\n              </p>","response":" ","trial_type":"html-keyboard-response","trial_index":55,"plugin_version":"2.1.0","time_elapsed":166238,"subject_id":"90692","group":"Group2","condition":"1_Rep","full_date":"2026-02-07T04:09:14.819Z","date":"2026-02-07","time":"04:09:14"},{"rt":null,"stimulus":"<p style=\"font-size: 50px; margin: 0; text-align: center;\">+</p>","response":null,"trial_type":"html-keyboard-response","trial_index":56,"plugin_version":"2.1.0","time_elapsed":167240,"subject_id":"90692","group":"Group2","condition":"1_Rep","full_date":"2026-02-07T04:09:14.819Z","date":"2026-02-07","time":"04:09:14"},{"task":"memory_phase","broad_category":"S","image_png":"S_Shale_07.png","image_id":471,"category_name":"Shale","category":30,"distinct_rating":2.73,"distinct_type":"Bottom","rt":null,"stimulus":"Stimuli_Rocks480/S_Shale_07.png","response":null,"trial_type":"image-keyboard-response","trial_index":57,"plugin_version":"2.1.0","time_elapsed":169754,"subject_id":"90692","group":"Group2","condition":"1_Rep","full_date":"2026-02-07T04:09:14.819Z","date":"2026-02-07","time":"04:09:14"},{"rt":null,"stimulus":"<p style=\"font-size: 50px; margin: 0; text-align: center;\">+</p>","response":null,"trial_type":"html-keyboard-response","trial_index":58,"plugin_version":"2.1.0","time_elapsed":170756,"subject_id":"90692","group":"Group2","condition":"1_Rep","full_date":"2026-02-07T04:09:14.819Z","date":"2026-02-07","time":"04:09:14"},{"task":"memory_phase","broad_category":"S","image_png":"S_Sandstone_08.png","image_id":456,"category_name":"Sandstone","category":29,"distinct_rating":1.5,"distinct_type":"Bottom","rt":null,"stimulus":"Stimuli_Rocks480/S_Sandstone_08.png","response":null,"trial_type":"image-keyboard-response","trial_index":59,"plugin_version":"2.1.0","time_elapsed":173270,"subject_id":"90692","group":"Group2","condition":"1_Rep","full_date":"2026-02-07T04:09:14.819Z","date":"2026-02-07","time":"04:09:14"},{"rt":null,"stimulus":"<p style=\"font-size: 50px; margin: 0; text-align: center;\">+</p>","response":null,"trial_type":"html-keyboard-response","trial_index":60,"plugin_version":"2.1.0","time_elapsed":174273,"subject_id":"90692","group":"Group2","condition":"1_Rep","full_date":"2026-02-07T04:09:14.819Z","date":"2026-02-07","time":"04:09:14"},{"task":"memory_phase","broad_category":"S","image_png":"S_Dolomite_01.png","image_id":385,"category_name":"Dolomite","category":25,"distinct_rating":1.43,"distinct_type":"Bottom","rt":null,"stimulus":"Stimuli_Rocks480/S_Dolomite_01.png","response":null,"trial_type":"image-keyboard-response","trial_index":61,"plugin_version":"2.1.0","time_elapsed":176793,"subject_id":"90692","group":"Group2","condition":"1_Rep","full_date":"2026-02-07T04:09:14.819Z","date":"2026-02-07","time":"04:09:14"},{"rt":null,"stimulus":"<p style=\"font-size: 50px; margin: 0; text-align: center;\">+</p>","response":null,"trial_type":"html-keyboard-response","trial_index":62,"plugin_version":"2.1.0","time_elapsed":177796,"subject_id":"90692","group":"Group2","condition":"1_Rep","full_date":"2026-02-07T04:09:14.819Z","date":"2026-02-07","time":"04:09:14"},{"task":"memory_phase","broad_category":"M","image_png":"M_Slate_14.png","image_id":318,"category_name":"Slate","category":20,"distinct_rating":2.58,"distinct_type":"Bottom","rt":null,"stimulus":"Stimuli_Rocks480/M_Slate_14.png","response":null,"trial_type":"image-keyboard-response","trial_index":63,"plugin_version":"2.1.0","time_elapsed":180308,"subject_id":"90692","group":"Group2","condition":"1_Rep","full_date":"2026-02-07T04:09:14.819Z","date":"2026-02-07","time":"04:09:14"},{"rt":null,"stimulus":"<p style=\"font-size: 50px; margin: 0; text-align: center;\">+</p>","response":null,"trial_type":"html-keyboard-response","trial_index":64,"plugin_version":"2.1.0","time_elapsed":181310,"subject_id":"90692","group":"Group2","condition":"1_Rep","full_date":"2026-02-07T04:09:14.819Z","date":"2026-02-07","time":"04:09:14"},{"task":"memory_phase","broad_category":"I","image_png":"I_Pumice_01.png","image_id":129,"category_name":"Pumice","category":9,"distinct_rating":3.25,"distinct_type":"Bottom","rt":null,"stimulus":"Stimuli_Rocks480/I_Pumice_01.png","response":null,"trial_type":"image-keyboard-response","trial_index":65,"plugin_version":"2.1.0","time_elapsed":183825,"subject_id":"90692","group":"Group2","condition":"1_Rep","full_date":"2026-02-07T04:09:14.819Z","date":"2026-02-07","time":"04:09:14"},{"rt":null,"stimulus":"<p style=\"font-size: 50px; margin: 0; text-align: center;\">+</p>","response":null,"trial_type":"html-keyboard-response","trial_index":66,"plugin_version":"2.1.0","time_elapsed":184838,"subject_id":"90692","group":"Group2","condition":"1_Rep","full_date":"2026-02-07T04:09:14.819Z","date":"2026-02-07","time":"04:09:14"},{"task":"memory_phase","broad_category":"S","image_png":"S_Shale_02.png","image_id":466,"category_name":"Shale","category":30,"distinct_rating":2.9,"distinct_type":"Bottom","rt":null,"stimulus":"Stimuli_Rocks480/S_Shale_02.png","response":null,"trial_type":"image-keyboard-response","trial_index":67,"plugin_version":"2.1.0","time_elapsed":187358,"subject_id":"90692","group":"Group2","condition":"1_Rep","full_date":"2026-02-07T04:09:14.819Z","date":"2026-02-07","time":"04:09:14"},{"rt":null,"stimulus":"<p style=\"font-size: 50px; margin: 0; text-align: center;\">+</p>","response":null,"trial_type":"html-keyboard-response","trial_index":68,"plugin_version":"2.1.0","time_elapsed":188378,"subject_id":"90692","group":"Group2","condition":"1_Rep","full_date":"2026-02-07T04:09:14.819Z","date":"2026-02-07","time":"04:09:14"},{"task":"memory_phase","broad_category":"M","image_png":"M_Gneiss_14.png","image_id":206,"category_name":"Gneiss","category":13,"distinct_rating":3.41,"distinct_type":"Bottom","rt":null,"stimulus":"Stimuli_Rocks480/M_Gneiss_14.png","response":null,"trial_type":"image-keyboard-response","trial_index":69,"plugin_version":"2.1.0","time_elapsed":190898,"subject_id":"90692","group":"Group2","condition":"1_Rep","full_date":"2026-02-07T04:09:14.819Z","date":"2026-02-07","time":"04:09:14"},{"rt":null,"stimulus":"<p style=\"font-size: 50px; margin: 0; text-align: center;\">+</p>","response":null,"trial_type":"html-keyboard-response","trial_index":70,"plugin_version":"2.1.0","time_elapsed":191918,"subject_id":"90692","group":"Group2","condition":"1_Rep","full_date":"2026-02-07T04:09:14.819Z","date":"2026-02-07","time":"04:09:14"},{"task":"memory_phase","broad_category":"M","image_png":"M_Quartzite_12.png","image_id":284,"category_name":"Quartzite","category":18,"distinct_rating":1.92,"distinct_type":"Bottom","rt":null,"stimulus":"Stimuli_Rocks480/M_Quartzite_12.png","response":null,"trial_type":"image-keyboard-response","trial_index":71,"plugin_version":"2.1.0","time_elapsed":194439,"subject_id":"90692","group":"Group2","condition":"1_Rep","full_date":"2026-02-07T04:09:14.819Z","date":"2026-02-07","time":"04:09:14"},{"rt":null,"stimulus":"<p style=\"font-size: 50px; margin: 0; text-align: center;\">+</p>","response":null,"trial_type":"html-keyboard-response","trial_index":72,"plugin_version":"2.1.0","time_elapsed":195458,"subject_id":"90692","group":"Group2","condition":"1_Rep","full_date":"2026-02-07T04:09:14.819Z","date":"2026-02-07","time":"04:09:14"},{"task":"memory_phase","broad_category":"I","image_png":"I_Basalt_10.png","image_id":26,"category_name":"Basalt","category":2,"distinct_rating":2.76,"distinct_type":"Bottom","rt":null,"stimulus":"Stimuli_Rocks480/I_Basalt_10.png","response":null,"trial_type":"image-keyboard-response","trial_index":73,"plugin_version":"2.1.0","time_elapsed":197977,"subject_id":"90692","group":"Group2","condition":"1_Rep","full_date":"2026-02-07T04:09:14.819Z","date":"2026-02-07","time":"04:09:14"},{"rt":null,"stimulus":"<p style=\"font-size: 50px; margin: 0; text-align: center;\">+</p>","response":null,"trial_type":"html-keyboard-response","trial_index":74,"plugin_version":"2.1.0","time_elapsed":198998,"subject_id":"90692","group":"Group2","condition":"1_Rep","full_date":"2026-02-07T04:09:14.819Z","date":"2026-02-07","time":"04:09:14"},{"task":"memory_phase","broad_category":"M","image_png":"M_Slate_10.png","image_id":314,"category_name":"Slate","category":20,"distinct_rating":1.94,"distinct_type":"Bottom","rt":null,"stimulus":"Stimuli_Rocks480/M_Slate_10.png","response":null,"trial_type":"image-keyboard-response","trial_index":75,"plugin_version":"2.1.0","time_elapsed":201518,"subject_id":"90692","group":"Group2","condition":"1_Rep","full_date":"2026-02-07T04:09:14.819Z","date":"2026-02-07","time":"04:09:14"},{"rt":null,"stimulus":"<p style=\"font-size: 50px; margin: 0; text-align: center;\">+</p>","response":null,"trial_type":"html-keyboard-response","trial_index":76,"plugin_version":"2.1.0","time_elapsed":202538,"subject_id":"90692","group":"Group2","condition":"1_Rep","full_date":"2026-02-07T04:09:14.819Z","date":"2026-02-07","time":"04:09:14"},{"task":"memory_phase","broad_category":"S","image_png":"S_Chert_13.png","image_id":365,"category_name":"Chert","category":23,"distinct_rating":6.57,"distinct_type":"Top","rt":null,"stimulus":"Stimuli_Rocks480/S_Chert_13.png","response":null,"trial_type":"image-keyboard-response","trial_index":77,"plugin_version":"2.1.0","time_elapsed":205058,"subject_id":"90692","group":"Group2","condition":"1_Rep","full_date":"2026-02-07T04:09:14.819Z","date":"2026-02-07","time":"04:09:14"},{"rt":null,"stimulus":"<p style=\"font-size: 50px; margin: 0; text-align: center;\">+</p>","response":null,"trial_type":"html-keyboard-response","trial_index":78,"plugin_version":"2.1.0","time_elapsed":206078,"subject_id":"90692","group":"Group2","condition":"1_Rep","full_date":"2026-02-07T04:09:14.819Z","date":"2026-02-07","time":"04:09:14"},{"task":"memory_phase","broad_category":"I","image_png":"I_Rhyolite_08.png","image_id":152,"category_name":"Rhyolite","category":10,"distinct_rating":1.38,"distinct_type":"Bottom","rt":null,"stimulus":"Stimuli_Rocks480/I_Rhyolite_08.png","response":null,"trial_type":"image-keyboard-response","trial_index":79,"plugin_version":"2.1.0","time_elapsed":208598,"subject_id":"90692","group":"Group2","condition":"1_Rep","full_date":"2026-02-07T04:09:14.819Z","date":"2026-02-07","time":"04:09:14"},{"rt":null,"stimulus":"<p style=\"font-size: 50px; margin: 0; text-align: center;\">+</p>","response":null,"trial_type":"html-keyboard-response","trial_index":80,"plugin_version":"2.1.0","time_elapsed":209618,"subject_id":"90692","group":"Group2","condition":"1_Rep","full_date":"2026-02-07T04:09:14.819Z","date":"2026-02-07","time":"04:09:14"},{"task":"memory_phase","broad_category":"I","image_png":"I_Andesite_09.png","image_id":9,"category_name":"Andesite","category":1,"distinct_rating":2.49,"distinct_type":"Bottom","rt":null,"stimulus":"Stimuli_Rocks480/I_Andesite_09.png","response":null,"trial_type":"image-keyboard-response","trial_index":81,"plugin_version":"2.1.0","time_elapsed":212138,"subject_id":"90692","group":"Group2","condition":"1_Rep","full_date":"2026-02-07T04:09:14.819Z","date":"2026-02-07","time":"04:09:14"},{"rt":null,"stimulus":"<p style=\"font-size: 50px; margin: 0; text-align: center;\">+</p>","response":null,"trial_type":"html-keyboard-response","trial_index":82,"plugin_version":"2.1.0","time_elapsed":213158,"subject_id":"90692","group":"Group2","condition":"1_Rep","full_date":"2026-02-07T04:09:14.819Z","date":"2026-02-07","time":"04:09:14"},{"task":"memory_phase","broad_category":"M","image_png":"M_Marble_14.png","image_id":238,"category_name":"Marble","category":15,"distinct_rating":3.31,"distinct_type":"Bottom","rt":null,"stimulus":"Stimuli_Rocks480/M_Marble_14.png","response":null,"trial_type":"image-keyboard-response","trial_index":83,"plugin_version":"2.1.0","time_elapsed":215678,"subject_id":"90692","group":"Group2","condition":"1_Rep","full_date":"2026-02-07T04:09:14.819Z","date":"2026-02-07","time":"04:09:14"},{"rt":null,"stimulus":"<p style=\"font-size: 50px; margin: 0; text-align: center;\">+</p>","response":null,"trial_type":"html-keyboard-response","trial_index":84,"plugin_version":"2.1.0","time_elapsed":216698,"subject_id":"90692","group":"Group2","condition":"1_Rep","full_date":"2026-02-07T04:09:14.819Z","date":"2026-02-07","time":"04:09:14"},{"task":"memory_phase","broad_category":"I","image_png":"I_Basalt_13.png","image_id":29,"category_name":"Basalt","category":2,"distinct_rating":2.68,"distinct_type":"Bottom","rt":null,"stimulus":"Stimuli_Rocks480/I_Basalt_13.png","response":null,"trial_type":"image-keyboard-response","trial_index":85,"plugin_version":"2.1.0","time_elapsed":219218,"subject_id":"90692","group":"Group2","condition":"1_Rep","full_date":"2026-02-07T04:09:14.819Z","date":"2026-02-07","time":"04:09:14"},{"rt":null,"stimulus":"<p style=\"font-size: 50px; margin: 0; text-align: center;\">+</p>","response":null,"trial_type":"html-keyboard-response","trial_index":86,"plugin_version":"2.1.0","time_elapsed":220238,"subject_id":"90692","group":"Group2","condition":"1_Rep","full_date":"2026-02-07T04:09:14.819Z","date":"2026-02-07","time":"04:09:14"},{"task":"memory_phase","broad_category":"I","image_png":"I_Gabbro_14.png","image_id":62,"category_name":"Gabbro","category":4,"distinct_rating":2.95,"distinct_type":"Bottom","rt":null,"stimulus":"Stimuli_Rocks480/I_Gabbro_14.png","response":null,"trial_type":"image-keyboard-response","trial_index":87,"plugin_version":"2.1.0","time_elapsed":222758,"subject_id":"90692","group":"Group2","condition":"1_Rep","full_date":"2026-02-07T04:09:14.819Z","date":"2026-02-07","time":"04:09:14"},{"rt":null,"stimulus":"<p style=\"font-size: 50px; margin: 0; text-align: center;\">+</p>","response":null,"trial_type":"html-keyboard-response","trial_index":88,"plugin_version":"2.1.0","time_elapsed":223778,"subject_id":"90692","group":"Group2","condition":"1_Rep","full_date":"2026-02-07T04:09:14.819Z","date":"2026-02-07","time":"04:09:14"},{"task":"memory_phase","broad_category":"S","image_png":"S_Rock Salt_15.png","image_id":447,"category_name":"Rock Salt","category":28,"distinct_rating":7.79,"distinct_type":"Top","rt":null,"stimulus":"Stimuli_Rocks480/S_Rock Salt_15.png","response":null,"trial_type":"image-keyboard-response","trial_index":89,"plugin_version":"2.1.0","time_elapsed":226298,"subject_id":"90692","group":"Group2","condition":"1_Rep","full_date":"2026-02-07T04:09:14.819Z","date":"2026-02-07","time":"04:09:14"},{"rt":null,"stimulus":"<p style=\"font-size: 50px; margin: 0; text-align: center;\">+</p>","response":null,"trial_type":"html-keyboard-response","trial_index":90,"plugin_version":"2.1.0","time_elapsed":227318,"subject_id":"90692","group":"Group2","condition":"1_Rep","full_date":"2026-02-07T04:09:14.819Z","date":"2026-02-07","time":"04:09:14"},{"task":"memory_phase","broad_category":"M","image_png":"M_Quartzite_07.png","image_id":279,"category_name":"Quartzite","category":18,"distinct_rating":1.97,"distinct_type":"Bottom","rt":null,"stimulus":"Stimuli_Rocks480/M_Quartzite_07.png","response":null,"trial_type":"image-keyboard-response","trial_index":91,"plugin_version":"2.1.0","time_elapsed":229838,"subject_id":"90692","group":"Group2","condition":"1_Rep","full_date":"2026-02-07T04:09:14.819Z","date":"2026-02-07","time":"04:09:14"},{"rt":null,"stimulus":"<p style=\"font-size: 50px; margin: 0; text-align: center;\">+</p>","response":null,"trial_type":"html-keyboard-response","trial_index":92,"plugin_version":"2.1.0","time_elapsed":230858,"subject_id":"90692","group":"Group2","condition":"1_Rep","full_date":"2026-02-07T04:09:14.819Z","date":"2026-02-07","time":"04:09:14"},{"task":"memory_phase","broad_category":"M","image_png":"M_Quartzite_15.png","image_id":287,"category_name":"Quartzite","category":18,"distinct_rating":2.19,"distinct_type":"Bottom","rt":null,"stimulus":"Stimuli_Rocks480/M_Quartzite_15.png","response":null,"trial_type":"image-keyboard-response","trial_index":93,"plugin_version":"2.1.0","time_elapsed":233378,"subject_id":"90692","group":"Group2","condition":"1_Rep","full_date":"2026-02-07T04:09:14.819Z","date":"2026-02-07","time":"04:09:14"},{"rt":null,"stimulus":"<p style=\"font-size: 50px; margin: 0; text-align: center;\">+</p>","response":null,"trial_type":"html-keyboard-response","trial_index":94,"plugin_version":"2.1.0","time_elapsed":234398,"subject_id":"90692","group":"Group2","condition":"1_Rep","full_date":"2026-02-07T04:09:14.819Z","date":"2026-02-07","time":"04:09:14"},{"task":"memory_phase","broad_category":"M","image_png":"M_Phyllite_05.png","image_id":261,"category_name":"Phyllite","category":17,"distinct_rating":2.14,"distinct_type":"Bottom","rt":null,"stimulus":"Stimuli_Rocks480/M_Phyllite_05.png","response":null,"trial_type":"image-keyboard-response","trial_index":95,"plugin_version":"2.1.0","time_elapsed":236918,"subject_id":"90692","group":"Group2","condition":"1_Rep","full_date":"2026-02-07T04:09:14.819Z","date":"2026-02-07","time":"04:09:14"},{"rt":null,"stimulus":"<p style=\"font-size: 50px; margin: 0; text-align: center;\">+</p>","response":null,"trial_type":"html-keyboard-response","trial_index":96,"plugin_version":"2.1.0","time_elapsed":237938,"subject_id":"90692","group":"Group2","condition":"1_Rep","full_date":"2026-02-07T04:09:14.819Z","date":"2026-02-07","time":"04:09:14"},{"task":"memory_phase","broad_category":"S","image_png":"S_Dolomite_07.png","image_id":391,"category_name":"Dolomite","category":25,"distinct_rating":1.73,"distinct_type":"Bottom","rt":null,"stimulus":"Stimuli_Rocks480/S_Dolomite_07.png","response":null,"trial_type":"image-keyboard-response","trial_index":97,"plugin_version":"2.1.0","time_elapsed":240458,"subject_id":"90692","group":"Group2","condition":"1_Rep","full_date":"2026-02-07T04:09:14.819Z","date":"2026-02-07","time":"04:09:14"},{"rt":null,"stimulus":"<p style=\"font-size: 50px; margin: 0; text-align: center;\">+</p>","response":null,"trial_type":"html-keyboard-response","trial_index":98,"plugin_version":"2.1.0","time_elapsed":241478,"subject_id":"90692","group":"Group2","condition":"1_Rep","full_date":"2026-02-07T04:09:14.819Z","date":"2026-02-07","time":"04:09:14"},{"task":"memory_phase","broad_category":"I","image_png":"I_Pumice_14.png","image_id":142,"category_name":"Pumice","category":9,"distinct_rating":3.22,"distinct_type":"Bottom","rt":null,"stimulus":"Stimuli_Rocks480/I_Pumice_14.png","response":null,"trial_type":"image-keyboard-response","trial_index":99,"plugin_version":"2.1.0","time_elapsed":243998,"subject_id":"90692","group":"Group2","condition":"1_Rep","full_date":"2026-02-07T04:09:14.819Z","date":"2026-02-07","time":"04:09:14"},{"rt":null,"stimulus":"<p style=\"font-size: 50px; margin: 0; text-align: center;\">+</p>","response":null,"trial_type":"html-keyboard-response","trial_index":100,"plugin_version":"2.1.0","time_elapsed":245018,"subject_id":"90692","group":"Group2","condition":"1_Rep","full_date":"2026-02-07T04:09:14.819Z","date":"2026-02-07","time":"04:09:14"},{"task":"memory_phase","broad_category":"I","image_png":"I_Basalt_08.png","image_id":24,"category_name":"Basalt","category":2,"distinct_rating":2.31,"distinct_type":"Bottom","rt":null,"stimulus":"Stimuli_Rocks480/I_Basalt_08.png","response":null,"trial_type":"image-keyboard-response","trial_index":101,"plugin_version":"2.1.0","time_elapsed":247538,"subject_id":"90692","group":"Group2","condition":"1_Rep","full_date":"2026-02-07T04:09:14.819Z","date":"2026-02-07","time":"04:09:14"},{"rt":null,"stimulus":"<p style=\"font-size: 50px; margin: 0; text-align: center;\">+</p>","response":null,"trial_type":"html-keyboard-response","trial_index":102,"plugin_version":"2.1.0","time_elapsed":248558,"subject_id":"90692","group":"Group2","condition":"1_Rep","full_date":"2026-02-07T04:09:14.819Z","date":"2026-02-07","time":"04:09:14"},{"task":"memory_phase","broad_category":"S","image_png":"S_Sandstone_04.png","image_id":452,"category_name":"Sandstone","category":29,"distinct_rating":1.8,"distinct_type":"Bottom","rt":null,"stimulus":"Stimuli_Rocks480/S_Sandstone_04.png","response":null,"trial_type":"image-keyboard-response","trial_index":103,"plugin_version":"2.1.0","time_elapsed":251078,"subject_id":"90692","group":"Group2","condition":"1_Rep","full_date":"2026-02-07T04:09:14.819Z","date":"2026-02-07","time":"04:09:14"},{"rt":null,"stimulus":"<p style=\"font-size: 50px; margin: 0; text-align: center;\">+</p>","response":null,"trial_type":"html-keyboard-response","trial_index":104,"plugin_version":"2.1.0","time_elapsed":252098,"subject_id":"90692","group":"Group2","condition":"1_Rep","full_date":"2026-02-07T04:09:14.819Z","date":"2026-02-07","time":"04:09:14"},{"task":"memory_phase","broad_category":"I","image_png":"I_Peridotite_13.png","image_id":125,"category_name":"Peridotite","category":8,"distinct_rating":7.28,"distinct_type":"Top","rt":null,"stimulus":"Stimuli_Rocks480/I_Peridotite_13.png","response":null,"trial_type":"image-keyboard-response","trial_index":105,"plugin_version":"2.1.0","time_elapsed":254618,"subject_id":"90692","group":"Group2","condition":"1_Rep","full_date":"2026-02-07T04:09:14.819Z","date":"2026-02-07","time":"04:09:14"},{"rt":26378,"stimulus":"<div style=\"max-width: 760px; margin: auto; font-size: 20px; line-height: 1.5;\">\n      <h1 style=\"text-align:center; font-size: 30px;\">Instructions for the Test Phase</h1>\n      <p>\n        The study phase is now complete.\n      </p>\n      <p>\n        In the test phase, you will again see a series of rock images. \n        Some will be ones you saw before - during the study phase, while others will be new.  \n        <b>Your task</b> is to decide whether you have seen each image before by pressing the corresponding key on your keyboard:<br><br>\n          <b>A</b> - NO (you did not see this image before)<br>\n          <b>L</b> - YES (you saw this image before)<br><br>\n        The test will proceed at your own pace. You will receive feedback after each response.  \n        Please try to respond <b>as accurately as possible</b>.\n      </p>\n      <p>\n        <b>Reminder:</b> If your computer has multiple language settings (e.g., English and another language),\n        please ensure it is set to English during the test phase.\n      </p>\n      <p>\n        You can track your progress using the <b>completion bar</b> at the top of the screen.  \n        Note that it has been refreshed to reflect your progress during this final phase.\n      </p>\n      <p>\n        Press the button below when you are ready to continue.\n      </p>\n    </div>","response":0,"trial_type":"html-button-response","trial_index":106,"plugin_version":"2.1.0","time_elapsed":281000,"subject_id":"90692","group":"Group2","condition":"1_Rep","full_date":"2026-02-07T04:09:14.819Z","date":"2026-02-07","time":"04:09:14"},{"correct_response":"l","task":"test_phase","broad_category":"S","image_png":"S_Sandstone_11.png","image_id":459,"category_name":"Sandstone","category":29,"distinct_rating":1.82,"distinct_type":"Bottom","item_type":"Target","rt":3943,"stimulus":"Stimuli_Rocks480/S_Sandstone_11.png","response":"l","trial_type":"image-keyboard-response","trial_index":107,"plugin_version":"2.1.0","time_elapsed":284959,"subject_id":"90692","group":"Group2","condition":"1_Rep","full_date":"2026-02-07T04:09:14.819Z","date":"2026-02-07","time":"04:09:14","cor_ans":true},{"trial_type":"html-keyboard-response","rt":null,"stimulus":"<p style=\"color: green; font-size: 50px; font-weight: bold;\">Correct</p>","response":null,"trial_index":108,"plugin_version":"2.1.0","time_elapsed":285460,"subject_id":"90692","group":"Group2","condition":"1_Rep","full_date":"2026-02-07T04:09:14.819Z","date":"2026-02-07","time":"04:09:14"},{"correct_response":"a","task":"test_phase","broad_category":"S","image_png":"S_Sandstone_15.png","image_id":463,"category_name":"Sandstone","category":29,"distinct_rating":2,"distinct_type":"Bottom","item_type":"Foil","rt":1251,"stimulus":"Stimuli_Rocks480/S_Sandstone_15.png","response":"a","trial_type":"image-keyboard-response","trial_index":109,"plugin_version":"2.1.0","time_elapsed":286728,"subject_id":"90692","group":"Group2","condition":"1_Rep","full_date":"2026-02-07T04:09:14.819Z","date":"2026-02-07","time":"04:09:14","cor_ans":true},{"trial_type":"html-keyboard-response","rt":null,"stimulus":"<p style=\"color: green; font-size: 50px; font-weight: bold;\">Correct</p>","response":null,"trial_index":110,"plugin_version":"2.1.0","time_elapsed":287231,"subject_id":"90692","group":"Group2","condition":"1_Rep","full_date":"2026-02-07T04:09:14.819Z","date":"2026-02-07","time":"04:09:14"},{"correct_response":"l","task":"test_phase","broad_category":"M","image_png":"M_Slate_04.png","image_id":308,"category_name":"Slate","category":20,"distinct_rating":2.2,"distinct_type":"Bottom","item_type":"Target","rt":968,"stimulus":"Stimuli_Rocks480/M_Slate_04.png","response":"l","trial_type":"image-keyboard-response","trial_index":111,"plugin_version":"2.1.0","time_elapsed":288209,"subject_id":"90692","group":"Group2","condition":"1_Rep","full_date":"2026-02-07T04:09:14.819Z","date":"2026-02-07","time":"04:09:14","cor_ans":true},{"trial_type":"html-keyboard-response","rt":null,"stimulus":"<p style=\"color: green; font-size: 50px; font-weight: bold;\">Correct</p>","response":null,"trial_index":112,"plugin_version":"2.1.0","time_elapsed":288710,"subject_id":"90692","group":"Group2","condition":"1_Rep","full_date":"2026-02-07T04:09:14.819Z","date":"2026-02-07","time":"04:09:14"},{"correct_response":"a","task":"test_phase","broad_category":"M","image_png":"M_Gneiss_13.png","image_id":205,"category_name":"Gneiss","category":13,"distinct_rating":3.26,"distinct_type":"Bottom","item_type":"Foil","rt":1038,"stimulus":"Stimuli_Rocks480/M_Gneiss_13.png","response":"l","trial_type":"image-keyboard-response","trial_index":113,"plugin_version":"2.1.0","time_elapsed":289763,"subject_id":"90692","group":"Group2","condition":"1_Rep","full_date":"2026-02-07T04:09:14.819Z","date":"2026-02-07","time":"04:09:14","cor_ans":false},{"trial_type":"html-keyboard-response","rt":null,"stimulus":"<p style=\"color: red; font-size: 50px; font-weight: bold;\">Incorrect</p>","response":null,"trial_index":114,"plugin_version":"2.1.0","time_elapsed":290266,"subject_id":"90692","group":"Group2","condition":"1_Rep","full_date":"2026-02-07T04:09:14.819Z","date":"2026-02-07","time":"04:09:14"},{"correct_response":"l","task":"test_phase","broad_category":"I","image_png":"I_Pumice_01.png","image_id":129,"category_name":"Pumice","category":9,"distinct_rating":3.25,"distinct_type":"Bottom","item_type":"Target","rt":819,"stimulus":"Stimuli_Rocks480/I_Pumice_01.png","response":"l","trial_type":"image-keyboard-response","trial_index":115,"plugin_version":"2.1.0","time_elapsed":291098,"subject_id":"90692","group":"Group2","condition":"1_Rep","full_date":"2026-02-07T04:09:14.819Z","date":"2026-02-07","time":"04:09:14","cor_ans":true},{"trial_type":"html-keyboard-response","rt":null,"stimulus":"<p style=\"color: green; font-size: 50px; font-weight: bold;\">Correct</p>","response":null,"trial_index":116,"plugin_version":"2.1.0","time_elapsed":291601,"subject_id":"90692","group":"Group2","condition":"1_Rep","full_date":"2026-02-07T04:09:14.819Z","date":"2026-02-07","time":"04:09:14"},{"correct_response":"l","task":"test_phase","broad_category":"M","image_png":"M_Slate_14.png","image_id":318,"category_name":"Slate","category":20,"distinct_rating":2.58,"distinct_type":"Bottom","item_type":"Target","rt":732,"stimulus":"Stimuli_Rocks480/M_Slate_14.png","response":"l","trial_type":"image-keyboard-response","trial_index":117,"plugin_version":"2.1.0","time_elapsed":292345,"subject_id":"90692","group":"Group2","condition":"1_Rep","full_date":"2026-02-07T04:09:14.819Z","date":"2026-02-07","time":"04:09:14","cor_ans":true},{"trial_type":"html-keyboard-response","rt":null,"stimulus":"<p style=\"color: green; font-size: 50px; font-weight: bold;\">Correct</p>","response":null,"trial_index":118,"plugin_version":"2.1.0","time_elapsed":292848,"subject_id":"90692","group":"Group2","condition":"1_Rep","full_date":"2026-02-07T04:09:14.819Z","date":"2026-02-07","time":"04:09:14"},{"correct_response":"a","task":"test_phase","broad_category":"I","image_png":"I_Gabbro_11.png","image_id":59,"category_name":"Gabbro","category":4,"distinct_rating":1.99,"distinct_type":"Bottom","item_type":"Foil","rt":942,"stimulus":"Stimuli_Rocks480/I_Gabbro_11.png","response":"a","trial_type":"image-keyboard-response","trial_index":119,"plugin_version":"2.1.0","time_elapsed":293801,"subject_id":"90692","group":"Group2","condition":"1_Rep","full_date":"2026-02-07T04:09:14.819Z","date":"2026-02-07","time":"04:09:14","cor_ans":true},{"trial_type":"html-keyboard-response","rt":null,"stimulus":"<p style=\"color: green; font-size: 50px; font-weight: bold;\">Correct</p>","response":null,"trial_index":120,"plugin_version":"2.1.0","time_elapsed":294304,"subject_id":"90692","group":"Group2","condition":"1_Rep","full_date":"2026-02-07T04:09:14.819Z","date":"2026-02-07","time":"04:09:14"},{"correct_response":"a","task":"test_phase","broad_category":"I","image_png":"I_Obsidian_05.png","image_id":85,"category_name":"Obsidian","category":6,"distinct_rating":7.32,"distinct_type":"Top","item_type":"Foil","rt":894,"stimulus":"Stimuli_Rocks480/I_Obsidian_05.png","response":"a","trial_type":"image-keyboard-response","trial_index":121,"plugin_version":"2.1.0","time_elapsed":295211,"subject_id":"90692","group":"Group2","condition":"1_Rep","full_date":"2026-02-07T04:09:14.819Z","date":"2026-02-07","time":"04:09:14","cor_ans":true},{"trial_type":"html-keyboard-response","rt":null,"stimulus":"<p style=\"color: green; font-size: 50px; font-weight: bold;\">Correct</p>","response":null,"trial_index":122,"plugin_version":"2.1.0","time_elapsed":295714,"subject_id":"90692","group":"Group2","condition":"1_Rep","full_date":"2026-02-07T04:09:14.819Z","date":"2026-02-07","time":"04:09:14"},{"correct_response":"a","task":"test_phase","broad_category":"S","image_png":"S_Rock Gypsum_04.png","image_id":420,"category_name":"Rock Gypsum","category":27,"distinct_rating":7.61,"distinct_type":"Top","item_type":"Foil","rt":1073,"stimulus":"Stimuli_Rocks480/S_Rock Gypsum_04.png","response":"a","trial_type":"image-keyboard-response","trial_index":123,"plugin_version":"2.1.0","time_elapsed":296801,"subject_id":"90692","group":"Group2","condition":"1_Rep","full_date":"2026-02-07T04:09:14.819Z","date":"2026-02-07","time":"04:09:14","cor_ans":true},{"trial_type":"html-keyboard-response","rt":null,"stimulus":"<p style=\"color: green; font-size: 50px; font-weight: bold;\">Correct</p>","response":null,"trial_index":124,"plugin_version":"2.1.0","time_elapsed":297303,"subject_id":"90692","group":"Group2","condition":"1_Rep","full_date":"2026-02-07T04:09:14.819Z","date":"2026-02-07","time":"04:09:14"},{"correct_response":"l","task":"test_phase","broad_category":"I","image_png":"I_Pumice_14.png","image_id":142,"category_name":"Pumice","category":9,"distinct_rating":3.22,"distinct_type":"Bottom","item_type":"Target","rt":885,"stimulus":"Stimuli_Rocks480/I_Pumice_14.png","response":"l","trial_type":"image-keyboard-response","trial_index":125,"plugin_version":"2.1.0","time_elapsed":298190,"subject_id":"90692","group":"Group2","condition":"1_Rep","full_date":"2026-02-07T04:09:14.819Z","date":"2026-02-07","time":"04:09:14","cor_ans":true},{"trial_type":"html-keyboard-response","rt":null,"stimulus":"<p style=\"color: green; font-size: 50px; font-weight: bold;\">Correct</p>","response":null,"trial_index":126,"plugin_version":"2.1.0","time_elapsed":298692,"subject_id":"90692","group":"Group2","condition":"1_Rep","full_date":"2026-02-07T04:09:14.819Z","date":"2026-02-07","time":"04:09:14"},{"correct_response":"a","task":"test_phase","broad_category":"I","image_png":"I_Pumice_11.png","image_id":139,"category_name":"Pumice","category":9,"distinct_rating":1.74,"distinct_type":"Bottom","item_type":"Foil","rt":903,"stimulus":"Stimuli_Rocks480/I_Pumice_11.png","response":"l","trial_type":"image-keyboard-response","trial_index":127,"plugin_version":"2.1.0","time_elapsed":299604,"subject_id":"90692","group":"Group2","condition":"1_Rep","full_date":"2026-02-07T04:09:14.819Z","date":"2026-02-07","time":"04:09:14","cor_ans":false},{"trial_type":"html-keyboard-response","rt":null,"stimulus":"<p style=\"color: red; font-size: 50px; font-weight: bold;\">Incorrect</p>","response":null,"trial_index":128,"plugin_version":"2.1.0","time_elapsed":300106,"subject_id":"90692","group":"Group2","condition":"1_Rep","full_date":"2026-02-07T04:09:14.819Z","date":"2026-02-07","time":"04:09:14"},{"correct_response":"a","task":"test_phase","broad_category":"I","image_png":"I_Basalt_01.png","image_id":17,"category_name":"Basalt","category":2,"distinct_rating":1.92,"distinct_type":"Bottom","item_type":"Foil","rt":692,"stimulus":"Stimuli_Rocks480/I_Basalt_01.png","response":"l","trial_type":"image-keyboard-response","trial_index":129,"plugin_version":"2.1.0","time_elapsed":300814,"subject_id":"90692","group":"Group2","condition":"1_Rep","full_date":"2026-02-07T04:09:14.819Z","date":"2026-02-07","time":"04:09:14","cor_ans":false},{"trial_type":"html-keyboard-response","rt":null,"stimulus":"<p style=\"color: red; font-size: 50px; font-weight: bold;\">Incorrect</p>","response":null,"trial_index":130,"plugin_version":"2.1.0","time_elapsed":301316,"subject_id":"90692","group":"Group2","condition":"1_Rep","full_date":"2026-02-07T04:09:14.819Z","date":"2026-02-07","time":"04:09:14"},{"correct_response":"l","task":"test_phase","broad_category":"I","image_png":"I_Basalt_08.png","image_id":24,"category_name":"Basalt","category":2,"distinct_rating":2.31,"distinct_type":"Bottom","item_type":"Target","rt":700,"stimulus":"Stimuli_Rocks480/I_Basalt_08.png","response":"l","trial_type":"image-keyboard-response","trial_index":131,"plugin_version":"2.1.0","time_elapsed":302019,"subject_id":"90692","group":"Group2","condition":"1_Rep","full_date":"2026-02-07T04:09:14.819Z","date":"2026-02-07","time":"04:09:14","cor_ans":true},{"trial_type":"html-keyboard-response","rt":null,"stimulus":"<p style=\"color: green; font-size: 50px; font-weight: bold;\">Correct</p>","response":null,"trial_index":132,"plugin_version":"2.1.0","time_elapsed":302521,"subject_id":"90692","group":"Group2","condition":"1_Rep","full_date":"2026-02-07T04:09:14.819Z","date":"2026-02-07","time":"04:09:14"},{"correct_response":"a","task":"test_phase","broad_category":"I","image_png":"I_Andesite_08.png","image_id":8,"category_name":"Andesite","category":1,"distinct_rating":1.95,"distinct_type":"Bottom","item_type":"Foil","rt":1005,"stimulus":"Stimuli_Rocks480/I_Andesite_08.png","response":"l","trial_type":"image-keyboard-response","trial_index":133,"plugin_version":"2.1.0","time_elapsed":303540,"subject_id":"90692","group":"Group2","condition":"1_Rep","full_date":"2026-02-07T04:09:14.819Z","date":"2026-02-07","time":"04:09:14","cor_ans":false},{"trial_type":"html-keyboard-response","rt":null,"stimulus":"<p style=\"color: red; font-size: 50px; font-weight: bold;\">Incorrect</p>","response":null,"trial_index":134,"plugin_version":"2.1.0","time_elapsed":304042,"subject_id":"90692","group":"Group2","condition":"1_Rep","full_date":"2026-02-07T04:09:14.819Z","date":"2026-02-07","time":"04:09:14"},{"correct_response":"l","task":"test_phase","broad_category":"M","image_png":"M_Quartzite_07.png","image_id":279,"category_name":"Quartzite","category":18,"distinct_rating":1.97,"distinct_type":"Bottom","item_type":"Target","rt":1004,"stimulus":"Stimuli_Rocks480/M_Quartzite_07.png","response":"l","trial_type":"image-keyboard-response","trial_index":135,"plugin_version":"2.1.0","time_elapsed":305060,"subject_id":"90692","group":"Group2","condition":"1_Rep","full_date":"2026-02-07T04:09:14.819Z","date":"2026-02-07","time":"04:09:14","cor_ans":true},{"trial_type":"html-keyboard-response","rt":null,"stimulus":"<p style=\"color: green; font-size: 50px; font-weight: bold;\">Correct</p>","response":null,"trial_index":136,"plugin_version":"2.1.0","time_elapsed":305562,"subject_id":"90692","group":"Group2","condition":"1_Rep","full_date":"2026-02-07T04:09:14.819Z","date":"2026-02-07","time":"04:09:14"},{"correct_response":"l","task":"test_phase","broad_category":"M","image_png":"M_Phyllite_13.png","image_id":269,"category_name":"Phyllite","category":17,"distinct_rating":2.8,"distinct_type":"Bottom","item_type":"Target","rt":809,"stimulus":"Stimuli_Rocks480/M_Phyllite_13.png","response":"a","trial_type":"image-keyboard-response","trial_index":137,"plugin_version":"2.1.0","time_elapsed":306385,"subject_id":"90692","group":"Group2","condition":"1_Rep","full_date":"2026-02-07T04:09:14.819Z","date":"2026-02-07","time":"04:09:14","cor_ans":false},{"trial_type":"html-keyboard-response","rt":null,"stimulus":"<p style=\"color: red; font-size: 50px; font-weight: bold;\">Incorrect</p>","response":null,"trial_index":138,"plugin_version":"2.1.0","time_elapsed":306887,"subject_id":"90692","group":"Group2","condition":"1_Rep","full_date":"2026-02-07T04:09:14.819Z","date":"2026-02-07","time":"04:09:14"},{"correct_response":"l","task":"test_phase","broad_category":"I","image_png":"I_Rhyolite_10.png","image_id":154,"category_name":"Rhyolite","category":10,"distinct_rating":2.88,"distinct_type":"Bottom","item_type":"Target","rt":839,"stimulus":"Stimuli_Rocks480/I_Rhyolite_10.png","response":"l","trial_type":"image-keyboard-response","trial_index":139,"plugin_version":"2.1.0","time_elapsed":307747,"subject_id":"90692","group":"Group2","condition":"1_Rep","full_date":"2026-02-07T04:09:14.819Z","date":"2026-02-07","time":"04:09:14","cor_ans":true},{"trial_type":"html-keyboard-response","rt":null,"stimulus":"<p style=\"color: green; font-size: 50px; font-weight: bold;\">Correct</p>","response":null,"trial_index":140,"plugin_version":"2.1.0","time_elapsed":308249,"subject_id":"90692","group":"Group2","condition":"1_Rep","full_date":"2026-02-07T04:09:14.819Z","date":"2026-02-07","time":"04:09:14"},{"correct_response":"l","task":"test_phase","broad_category":"M","image_png":"M_Gneiss_10.png","image_id":202,"category_name":"Gneiss","category":13,"distinct_rating":3.09,"distinct_type":"Bottom","item_type":"Target","rt":1179,"stimulus":"Stimuli_Rocks480/M_Gneiss_10.png","response":"a","trial_type":"image-keyboard-response","trial_index":141,"plugin_version":"2.1.0","time_elapsed":309445,"subject_id":"90692","group":"Group2","condition":"1_Rep","full_date":"2026-02-07T04:09:14.819Z","date":"2026-02-07","time":"04:09:14","cor_ans":false},{"trial_type":"html-keyboard-response","rt":null,"stimulus":"<p style=\"color: red; font-size: 50px; font-weight: bold;\">Incorrect</p>","response":null,"trial_index":142,"plugin_version":"2.1.0","time_elapsed":309947,"subject_id":"90692","group":"Group2","condition":"1_Rep","full_date":"2026-02-07T04:09:14.819Z","date":"2026-02-07","time":"04:09:14"},{"correct_response":"a","task":"test_phase","broad_category":"I","image_png":"I_Rhyolite_14.png","image_id":158,"category_name":"Rhyolite","category":10,"distinct_rating":2.59,"distinct_type":"Bottom","item_type":"Foil","rt":1295,"stimulus":"Stimuli_Rocks480/I_Rhyolite_14.png","response":"l","trial_type":"image-keyboard-response","trial_index":143,"plugin_version":"2.1.0","time_elapsed":311255,"subject_id":"90692","group":"Group2","condition":"1_Rep","full_date":"2026-02-07T04:09:14.819Z","date":"2026-02-07","time":"04:09:14","cor_ans":false},{"trial_type":"html-keyboard-response","rt":null,"stimulus":"<p style=\"color: red; font-size: 50px; font-weight: bold;\">Incorrect</p>","response":null,"trial_index":144,"plugin_version":"2.1.0","time_elapsed":311757,"subject_id":"90692","group":"Group2","condition":"1_Rep","full_date":"2026-02-07T04:09:14.819Z","date":"2026-02-07","time":"04:09:14"},{"correct_response":"l","task":"test_phase","broad_category":"I","image_png":"I_Gabbro_02.png","image_id":50,"category_name":"Gabbro","category":4,"distinct_rating":2.73,"distinct_type":"Bottom","item_type":"Target","rt":1114,"stimulus":"Stimuli_Rocks480/I_Gabbro_02.png","response":"a","trial_type":"image-keyboard-response","trial_index":145,"plugin_version":"2.1.0","time_elapsed":312885,"subject_id":"90692","group":"Group2","condition":"1_Rep","full_date":"2026-02-07T04:09:14.819Z","date":"2026-02-07","time":"04:09:14","cor_ans":false},{"trial_type":"html-keyboard-response","rt":null,"stimulus":"<p style=\"color: red; font-size: 50px; font-weight: bold;\">Incorrect</p>","response":null,"trial_index":146,"plugin_version":"2.1.0","time_elapsed":313386,"subject_id":"90692","group":"Group2","condition":"1_Rep","full_date":"2026-02-07T04:09:14.819Z","date":"2026-02-07","time":"04:09:14"},{"correct_response":"a","task":"test_phase","broad_category":"M","image_png":"M_Slate_03.png","image_id":307,"category_name":"Slate","category":20,"distinct_rating":1.87,"distinct_type":"Bottom","item_type":"Foil","rt":906,"stimulus":"Stimuli_Rocks480/M_Slate_03.png","response":"l","trial_type":"image-keyboard-response","trial_index":147,"plugin_version":"2.1.0","time_elapsed":314307,"subject_id":"90692","group":"Group2","condition":"1_Rep","full_date":"2026-02-07T04:09:14.819Z","date":"2026-02-07","time":"04:09:14","cor_ans":false},{"trial_type":"html-keyboard-response","rt":null,"stimulus":"<p style=\"color: red; font-size: 50px; font-weight: bold;\">Incorrect</p>","response":null,"trial_index":148,"plugin_version":"2.1.0","time_elapsed":314809,"subject_id":"90692","group":"Group2","condition":"1_Rep","full_date":"2026-02-07T04:09:14.819Z","date":"2026-02-07","time":"04:09:14"},{"correct_response":"a","task":"test_phase","broad_category":"I","image_png":"I_Andesite_10.png","image_id":10,"category_name":"Andesite","category":1,"distinct_rating":3.15,"distinct_type":"Bottom","item_type":"Foil","rt":534,"stimulus":"Stimuli_Rocks480/I_Andesite_10.png","response":"l","trial_type":"image-keyboard-response","trial_index":149,"plugin_version":"2.1.0","time_elapsed":315353,"subject_id":"90692","group":"Group2","condition":"1_Rep","full_date":"2026-02-07T04:09:14.819Z","date":"2026-02-07","time":"04:09:14","cor_ans":false},{"trial_type":"html-keyboard-response","rt":null,"stimulus":"<p style=\"color: red; font-size: 50px; font-weight: bold;\">Incorrect</p>","response":null,"trial_index":150,"plugin_version":"2.1.0","time_elapsed":315855,"subject_id":"90692","group":"Group2","condition":"1_Rep","full_date":"2026-02-07T04:09:14.819Z","date":"2026-02-07","time":"04:09:14"},{"correct_response":"a","task":"test_phase","broad_category":"S","image_png":"S_Shale_01.png","image_id":465,"category_name":"Shale","category":30,"distinct_rating":2.7,"distinct_type":"Bottom","item_type":"Foil","rt":656,"stimulus":"Stimuli_Rocks480/S_Shale_01.png","response":"l","trial_type":"image-keyboard-response","trial_index":151,"plugin_version":"2.1.0","time_elapsed":316524,"subject_id":"90692","group":"Group2","condition":"1_Rep","full_date":"2026-02-07T04:09:14.819Z","date":"2026-02-07","time":"04:09:14","cor_ans":false},{"trial_type":"html-keyboard-response","rt":null,"stimulus":"<p style=\"color: red; font-size: 50px; font-weight: bold;\">Incorrect</p>","response":null,"trial_index":152,"plugin_version":"2.1.0","time_elapsed":317026,"subject_id":"90692","group":"Group2","condition":"1_Rep","full_date":"2026-02-07T04:09:14.819Z","date":"2026-02-07","time":"04:09:14"},{"correct_response":"a","task":"test_phase","broad_category":"I","image_png":"I_Gabbro_08.png","image_id":56,"category_name":"Gabbro","category":4,"distinct_rating":3.02,"distinct_type":"Bottom","item_type":"Foil","rt":474,"stimulus":"Stimuli_Rocks480/I_Gabbro_08.png","response":"l","trial_type":"image-keyboard-response","trial_index":153,"plugin_version":"2.1.0","time_elapsed":317513,"subject_id":"90692","group":"Group2","condition":"1_Rep","full_date":"2026-02-07T04:09:14.819Z","date":"2026-02-07","time":"04:09:14","cor_ans":false},{"trial_type":"html-keyboard-response","rt":null,"stimulus":"<p style=\"color: red; font-size: 50px; font-weight: bold;\">Incorrect</p>","response":null,"trial_index":154,"plugin_version":"2.1.0","time_elapsed":318015,"subject_id":"90692","group":"Group2","condition":"1_Rep","full_date":"2026-02-07T04:09:14.819Z","date":"2026-02-07","time":"04:09:14"},{"correct_response":"l","task":"test_phase","broad_category":"M","image_png":"M_Gneiss_14.png","image_id":206,"category_name":"Gneiss","category":13,"distinct_rating":3.41,"distinct_type":"Bottom","item_type":"Target","rt":782,"stimulus":"Stimuli_Rocks480/M_Gneiss_14.png","response":"l","trial_type":"image-keyboard-response","trial_index":155,"plugin_version":"2.1.0","time_elapsed":318814,"subject_id":"90692","group":"Group2","condition":"1_Rep","full_date":"2026-02-07T04:09:14.819Z","date":"2026-02-07","time":"04:09:14","cor_ans":true},{"trial_type":"html-keyboard-response","rt":null,"stimulus":"<p style=\"color: green; font-size: 50px; font-weight: bold;\">Correct</p>","response":null,"trial_index":156,"plugin_version":"2.1.0","time_elapsed":319318,"subject_id":"90692","group":"Group2","condition":"1_Rep","full_date":"2026-02-07T04:09:14.819Z","date":"2026-02-07","time":"04:09:14"},{"correct_response":"l","task":"test_phase","broad_category":"I","image_png":"I_Andesite_03.png","image_id":3,"category_name":"Andesite","category":1,"distinct_rating":3.17,"distinct_type":"Bottom","item_type":"Target","rt":820,"stimulus":"Stimuli_Rocks480/I_Andesite_03.png","response":"l","trial_type":"image-keyboard-response","trial_index":157,"plugin_version":"2.1.0","time_elapsed":320149,"subject_id":"90692","group":"Group2","condition":"1_Rep","full_date":"2026-02-07T04:09:14.819Z","date":"2026-02-07","time":"04:09:14","cor_ans":true},{"trial_type":"html-keyboard-response","rt":null,"stimulus":"<p style=\"color: green; font-size: 50px; font-weight: bold;\">Correct</p>","response":null,"trial_index":158,"plugin_version":"2.1.0","time_elapsed":320651,"subject_id":"90692","group":"Group2","condition":"1_Rep","full_date":"2026-02-07T04:09:14.819Z","date":"2026-02-07","time":"04:09:14"},{"correct_response":"l","task":"test_phase","broad_category":"M","image_png":"M_Phyllite_02.png","image_id":258,"category_name":"Phyllite","category":17,"distinct_rating":2.89,"distinct_type":"Bottom","item_type":"Target","rt":612,"stimulus":"Stimuli_Rocks480/M_Phyllite_02.png","response":"a","trial_type":"image-keyboard-response","trial_index":159,"plugin_version":"2.1.0","time_elapsed":321281,"subject_id":"90692","group":"Group2","condition":"1_Rep","full_date":"2026-02-07T04:09:14.819Z","date":"2026-02-07","time":"04:09:14","cor_ans":false},{"trial_type":"html-keyboard-response","rt":null,"stimulus":"<p style=\"color: red; font-size: 50px; font-weight: bold;\">Incorrect</p>","response":null,"trial_index":160,"plugin_version":"2.1.0","time_elapsed":321783,"subject_id":"90692","group":"Group2","condition":"1_Rep","full_date":"2026-02-07T04:09:14.819Z","date":"2026-02-07","time":"04:09:14"},{"correct_response":"a","task":"test_phase","broad_category":"M","image_png":"M_Marble_06.png","image_id":230,"category_name":"Marble","category":15,"distinct_rating":3.4,"distinct_type":"Bottom","item_type":"Foil","rt":872,"stimulus":"Stimuli_Rocks480/M_Marble_06.png","response":"l","trial_type":"image-keyboard-response","trial_index":161,"plugin_version":"2.1.0","time_elapsed":322668,"subject_id":"90692","group":"Group2","condition":"1_Rep","full_date":"2026-02-07T04:09:14.819Z","date":"2026-02-07","time":"04:09:14","cor_ans":false},{"trial_type":"html-keyboard-response","rt":null,"stimulus":"<p style=\"color: red; font-size: 50px; font-weight: bold;\">Incorrect</p>","response":null,"trial_index":162,"plugin_version":"2.1.0","time_elapsed":323170,"subject_id":"90692","group":"Group2","condition":"1_Rep","full_date":"2026-02-07T04:09:14.819Z","date":"2026-02-07","time":"04:09:14"},{"correct_response":"a","task":"test_phase","broad_category":"S","image_png":"S_Sandstone_16.png","image_id":464,"category_name":"Sandstone","category":29,"distinct_rating":1.93,"distinct_type":"Bottom","item_type":"Foil","rt":1051,"stimulus":"Stimuli_Rocks480/S_Sandstone_16.png","response":"a","trial_type":"image-keyboard-response","trial_index":163,"plugin_version":"2.1.0","time_elapsed":324231,"subject_id":"90692","group":"Group2","condition":"1_Rep","full_date":"2026-02-07T04:09:14.819Z","date":"2026-02-07","time":"04:09:14","cor_ans":true},{"trial_type":"html-keyboard-response","rt":null,"stimulus":"<p style=\"color: green; font-size: 50px; font-weight: bold;\">Correct</p>","response":null,"trial_index":164,"plugin_version":"2.1.0","time_elapsed":324733,"subject_id":"90692","group":"Group2","condition":"1_Rep","full_date":"2026-02-07T04:09:14.819Z","date":"2026-02-07","time":"04:09:14"},{"correct_response":"l","task":"test_phase","broad_category":"I","image_png":"I_Peridotite_13.png","image_id":125,"category_name":"Peridotite","category":8,"distinct_rating":7.28,"distinct_type":"Top","item_type":"Target","rt":1294,"stimulus":"Stimuli_Rocks480/I_Peridotite_13.png","response":"l","trial_type":"image-keyboard-response","trial_index":165,"plugin_version":"2.1.0","time_elapsed":326046,"subject_id":"90692","group":"Group2","condition":"1_Rep","full_date":"2026-02-07T04:09:14.819Z","date":"2026-02-07","time":"04:09:14","cor_ans":true},{"trial_type":"html-keyboard-response","rt":null,"stimulus":"<p style=\"color: green; font-size: 50px; font-weight: bold;\">Correct</p>","response":null,"trial_index":166,"plugin_version":"2.1.0","time_elapsed":326549,"subject_id":"90692","group":"Group2","condition":"1_Rep","full_date":"2026-02-07T04:09:14.819Z","date":"2026-02-07","time":"04:09:14"},{"correct_response":"a","task":"test_phase","broad_category":"M","image_png":"M_Phyllite_03.png","image_id":259,"category_name":"Phyllite","category":17,"distinct_rating":2.5,"distinct_type":"Bottom","item_type":"Foil","rt":964,"stimulus":"Stimuli_Rocks480/M_Phyllite_03.png","response":"a","trial_type":"image-keyboard-response","trial_index":167,"plugin_version":"2.1.0","time_elapsed":327526,"subject_id":"90692","group":"Group2","condition":"1_Rep","full_date":"2026-02-07T04:09:14.819Z","date":"2026-02-07","time":"04:09:14","cor_ans":true},{"trial_type":"html-keyboard-response","rt":null,"stimulus":"<p style=\"color: green; font-size: 50px; font-weight: bold;\">Correct</p>","response":null,"trial_index":168,"plugin_version":"2.1.0","time_elapsed":328028,"subject_id":"90692","group":"Group2","condition":"1_Rep","full_date":"2026-02-07T04:09:14.819Z","date":"2026-02-07","time":"04:09:14"},{"correct_response":"a","task":"test_phase","broad_category":"I","image_png":"I_Pegmatite_10.png","image_id":106,"category_name":"Pegmatite","category":7,"distinct_rating":7.66,"distinct_type":"Top","item_type":"Foil","rt":827,"stimulus":"Stimuli_Rocks480/I_Pegmatite_10.png","response":"a","trial_type":"image-keyboard-response","trial_index":169,"plugin_version":"2.1.0","time_elapsed":328867,"subject_id":"90692","group":"Group2","condition":"1_Rep","full_date":"2026-02-07T04:09:14.819Z","date":"2026-02-07","time":"04:09:14","cor_ans":true},{"trial_type":"html-keyboard-response","rt":null,"stimulus":"<p style=\"color: green; font-size: 50px; font-weight: bold;\">Correct</p>","response":null,"trial_index":170,"plugin_version":"2.1.0","time_elapsed":329370,"subject_id":"90692","group":"Group2","condition":"1_Rep","full_date":"2026-02-07T04:09:14.819Z","date":"2026-02-07","time":"04:09:14"},{"correct_response":"l","task":"test_phase","broad_category":"S","image_png":"S_Shale_07.png","image_id":471,"category_name":"Shale","category":30,"distinct_rating":2.73,"distinct_type":"Bottom","item_type":"Target","rt":749,"stimulus":"Stimuli_Rocks480/S_Shale_07.png","response":"l","trial_type":"image-keyboard-response","trial_index":171,"plugin_version":"2.1.0","time_elapsed":330131,"subject_id":"90692","group":"Group2","condition":"1_Rep","full_date":"2026-02-07T04:09:14.819Z","date":"2026-02-07","time":"04:09:14","cor_ans":true},{"trial_type":"html-keyboard-response","rt":null,"stimulus":"<p style=\"color: green; font-size: 50px; font-weight: bold;\">Correct</p>","response":null,"trial_index":172,"plugin_version":"2.1.0","time_elapsed":330634,"subject_id":"90692","group":"Group2","condition":"1_Rep","full_date":"2026-02-07T04:09:14.819Z","date":"2026-02-07","time":"04:09:14"},{"correct_response":"l","task":"test_phase","broad_category":"S","image_png":"S_Dolomite_07.png","image_id":391,"category_name":"Dolomite","category":25,"distinct_rating":1.73,"distinct_type":"Bottom","item_type":"Target","rt":795,"stimulus":"Stimuli_Rocks480/S_Dolomite_07.png","response":"l","trial_type":"image-keyboard-response","trial_index":173,"plugin_version":"2.1.0","time_elapsed":331443,"subject_id":"90692","group":"Group2","condition":"1_Rep","full_date":"2026-02-07T04:09:14.819Z","date":"2026-02-07","time":"04:09:14","cor_ans":true},{"trial_type":"html-keyboard-response","rt":null,"stimulus":"<p style=\"color: green; font-size: 50px; font-weight: bold;\">Correct</p>","response":null,"trial_index":174,"plugin_version":"2.1.0","time_elapsed":331945,"subject_id":"90692","group":"Group2","condition":"1_Rep","full_date":"2026-02-07T04:09:14.819Z","date":"2026-02-07","time":"04:09:14"},{"correct_response":"a","task":"test_phase","broad_category":"M","image_png":"M_Quartzite_08.png","image_id":280,"category_name":"Quartzite","category":18,"distinct_rating":2.15,"distinct_type":"Bottom","item_type":"Foil","rt":981,"stimulus":"Stimuli_Rocks480/M_Quartzite_08.png","response":"a","trial_type":"image-keyboard-response","trial_index":175,"plugin_version":"2.1.0","time_elapsed":332938,"subject_id":"90692","group":"Group2","condition":"1_Rep","full_date":"2026-02-07T04:09:14.819Z","date":"2026-02-07","time":"04:09:14","cor_ans":true},{"trial_type":"html-keyboard-response","rt":null,"stimulus":"<p style=\"color: green; font-size: 50px; font-weight: bold;\">Correct</p>","response":null,"trial_index":176,"plugin_version":"2.1.0","time_elapsed":333441,"subject_id":"90692","group":"Group2","condition":"1_Rep","full_date":"2026-02-07T04:09:14.819Z","date":"2026-02-07","time":"04:09:14"},{"correct_response":"a","task":"test_phase","broad_category":"I","image_png":"I_Rhyolite_16.png","image_id":160,"category_name":"Rhyolite","category":10,"distinct_rating":2.19,"distinct_type":"Bottom","item_type":"Foil","rt":982,"stimulus":"Stimuli_Rocks480/I_Rhyolite_16.png","response":"a","trial_type":"image-keyboard-response","trial_index":177,"plugin_version":"2.1.0","time_elapsed":334434,"subject_id":"90692","group":"Group2","condition":"1_Rep","full_date":"2026-02-07T04:09:14.819Z","date":"2026-02-07","time":"04:09:14","cor_ans":true},{"trial_type":"html-keyboard-response","rt":null,"stimulus":"<p style=\"color: green; font-size: 50px; font-weight: bold;\">Correct</p>","response":null,"trial_index":178,"plugin_version":"2.1.0","time_elapsed":334937,"subject_id":"90692","group":"Group2","condition":"1_Rep","full_date":"2026-02-07T04:09:14.819Z","date":"2026-02-07","time":"04:09:14"},{"correct_response":"a","task":"test_phase","broad_category":"I","image_png":"I_Rhyolite_11.png","image_id":155,"category_name":"Rhyolite","category":10,"distinct_rating":1.73,"distinct_type":"Bottom","item_type":"Foil","rt":657,"stimulus":"Stimuli_Rocks480/I_Rhyolite_11.png","response":"l","trial_type":"image-keyboard-response","trial_index":179,"plugin_version":"2.1.0","time_elapsed":335605,"subject_id":"90692","group":"Group2","condition":"1_Rep","full_date":"2026-02-07T04:09:14.819Z","date":"2026-02-07","time":"04:09:14","cor_ans":false},{"trial_type":"html-keyboard-response","rt":null,"stimulus":"<p style=\"color: red; font-size: 50px; font-weight: bold;\">Incorrect</p>","response":null,"trial_index":180,"plugin_version":"2.1.0","time_elapsed":336108,"subject_id":"90692","group":"Group2","condition":"1_Rep","full_date":"2026-02-07T04:09:14.819Z","date":"2026-02-07","time":"04:09:14"},{"correct_response":"l","task":"test_phase","broad_category":"I","image_png":"I_Pumice_13.png","image_id":141,"category_name":"Pumice","category":9,"distinct_rating":3.12,"distinct_type":"Bottom","item_type":"Target","rt":665,"stimulus":"Stimuli_Rocks480/I_Pumice_13.png","response":"l","trial_type":"image-keyboard-response","trial_index":181,"plugin_version":"2.1.0","time_elapsed":336786,"subject_id":"90692","group":"Group2","condition":"1_Rep","full_date":"2026-02-07T04:09:14.819Z","date":"2026-02-07","time":"04:09:14","cor_ans":true},{"trial_type":"html-keyboard-response","rt":null,"stimulus":"<p style=\"color: green; font-size: 50px; font-weight: bold;\">Correct</p>","response":null,"trial_index":182,"plugin_version":"2.1.0","time_elapsed":337289,"subject_id":"90692","group":"Group2","condition":"1_Rep","full_date":"2026-02-07T04:09:14.819Z","date":"2026-02-07","time":"04:09:14"},{"correct_response":"a","task":"test_phase","broad_category":"I","image_png":"I_Andesite_06.png","image_id":6,"category_name":"Andesite","category":1,"distinct_rating":3.17,"distinct_type":"Bottom","item_type":"Foil","rt":1320,"stimulus":"Stimuli_Rocks480/I_Andesite_06.png","response":"l","trial_type":"image-keyboard-response","trial_index":183,"plugin_version":"2.1.0","time_elapsed":338623,"subject_id":"90692","group":"Group2","condition":"1_Rep","full_date":"2026-02-07T04:09:14.819Z","date":"2026-02-07","time":"04:09:14","cor_ans":false},{"trial_type":"html-keyboard-response","rt":null,"stimulus":"<p style=\"color: red; font-size: 50px; font-weight: bold;\">Incorrect</p>","response":null,"trial_index":184,"plugin_version":"2.1.0","time_elapsed":339125,"subject_id":"90692","group":"Group2","condition":"1_Rep","full_date":"2026-02-07T04:09:14.819Z","date":"2026-02-07","time":"04:09:14"},{"correct_response":"a","task":"test_phase","broad_category":"M","image_png":"M_Marble_04.png","image_id":228,"category_name":"Marble","category":15,"distinct_rating":3.15,"distinct_type":"Bottom","item_type":"Foil","rt":927,"stimulus":"Stimuli_Rocks480/M_Marble_04.png","response":"l","trial_type":"image-keyboard-response","trial_index":185,"plugin_version":"2.1.0","time_elapsed":340066,"subject_id":"90692","group":"Group2","condition":"1_Rep","full_date":"2026-02-07T04:09:14.819Z","date":"2026-02-07","time":"04:09:14","cor_ans":false},{"trial_type":"html-keyboard-response","rt":null,"stimulus":"<p style=\"color: red; font-size: 50px; font-weight: bold;\">Incorrect</p>","response":null,"trial_index":186,"plugin_version":"2.1.0","time_elapsed":340568,"subject_id":"90692","group":"Group2","condition":"1_Rep","full_date":"2026-02-07T04:09:14.819Z","date":"2026-02-07","time":"04:09:14"},{"correct_response":"a","task":"test_phase","broad_category":"S","image_png":"S_Conglomerate_05.png","image_id":373,"category_name":"Conglomerate","category":24,"distinct_rating":7.32,"distinct_type":"Top","item_type":"Foil","rt":687,"stimulus":"Stimuli_Rocks480/S_Conglomerate_05.png","response":"a","trial_type":"image-keyboard-response","trial_index":187,"plugin_version":"2.1.0","time_elapsed":341270,"subject_id":"90692","group":"Group2","condition":"1_Rep","full_date":"2026-02-07T04:09:14.819Z","date":"2026-02-07","time":"04:09:14","cor_ans":true},{"trial_type":"html-keyboard-response","rt":null,"stimulus":"<p style=\"color: green; font-size: 50px; font-weight: bold;\">Correct</p>","response":null,"trial_index":188,"plugin_version":"2.1.0","time_elapsed":341772,"subject_id":"90692","group":"Group2","condition":"1_Rep","full_date":"2026-02-07T04:09:14.819Z","date":"2026-02-07","time":"04:09:14"},{"correct_response":"a","task":"test_phase","broad_category":"I","image_png":"I_Diorite_05.png","image_id":37,"category_name":"Diorite","category":3,"distinct_rating":3.08,"distinct_type":"Bottom","item_type":"Foil","rt":778,"stimulus":"Stimuli_Rocks480/I_Diorite_05.png","response":"l","trial_type":"image-keyboard-response","trial_index":189,"plugin_version":"2.1.0","time_elapsed":342564,"subject_id":"90692","group":"Group2","condition":"1_Rep","full_date":"2026-02-07T04:09:14.819Z","date":"2026-02-07","time":"04:09:14","cor_ans":false},{"trial_type":"html-keyboard-response","rt":null,"stimulus":"<p style=\"color: red; font-size: 50px; font-weight: bold;\">Incorrect</p>","response":null,"trial_index":190,"plugin_version":"2.1.0","time_elapsed":343066,"subject_id":"90692","group":"Group2","condition":"1_Rep","full_date":"2026-02-07T04:09:14.819Z","date":"2026-02-07","time":"04:09:14"},{"correct_response":"l","task":"test_phase","broad_category":"I","image_png":"I_Basalt_13.png","image_id":29,"category_name":"Basalt","category":2,"distinct_rating":2.68,"distinct_type":"Bottom","item_type":"Target","rt":911,"stimulus":"Stimuli_Rocks480/I_Basalt_13.png","response":"l","trial_type":"image-keyboard-response","trial_index":191,"plugin_version":"2.1.0","time_elapsed":343992,"subject_id":"90692","group":"Group2","condition":"1_Rep","full_date":"2026-02-07T04:09:14.819Z","date":"2026-02-07","time":"04:09:14","cor_ans":true},{"trial_type":"html-keyboard-response","rt":null,"stimulus":"<p style=\"color: green; font-size: 50px; font-weight: bold;\">Correct</p>","response":null,"trial_index":192,"plugin_version":"2.1.0","time_elapsed":344493,"subject_id":"90692","group":"Group2","condition":"1_Rep","full_date":"2026-02-07T04:09:14.819Z","date":"2026-02-07","time":"04:09:14"},{"correct_response":"a","task":"test_phase","broad_category":"M","image_png":"M_Marble_16.png","image_id":240,"category_name":"Marble","category":15,"distinct_rating":2.57,"distinct_type":"Bottom","item_type":"Foil","rt":656,"stimulus":"Stimuli_Rocks480/M_Marble_16.png","response":"a","trial_type":"image-keyboard-response","trial_index":193,"plugin_version":"2.1.0","time_elapsed":345163,"subject_id":"90692","group":"Group2","condition":"1_Rep","full_date":"2026-02-07T04:09:14.819Z","date":"2026-02-07","time":"04:09:14","cor_ans":true},{"trial_type":"html-keyboard-response","rt":null,"stimulus":"<p style=\"color: green; font-size: 50px; font-weight: bold;\">Correct</p>","response":null,"trial_index":194,"plugin_version":"2.1.0","time_elapsed":345665,"subject_id":"90692","group":"Group2","condition":"1_Rep","full_date":"2026-02-07T04:09:14.819Z","date":"2026-02-07","time":"04:09:14"},{"correct_response":"a","task":"test_phase","broad_category":"I","image_png":"I_Gabbro_16.png","image_id":64,"category_name":"Gabbro","category":4,"distinct_rating":2.52,"distinct_type":"Bottom","item_type":"Foil","rt":639,"stimulus":"Stimuli_Rocks480/I_Gabbro_16.png","response":"a","trial_type":"image-keyboard-response","trial_index":195,"plugin_version":"2.1.0","time_elapsed":346317,"subject_id":"90692","group":"Group2","condition":"1_Rep","full_date":"2026-02-07T04:09:14.819Z","date":"2026-02-07","time":"04:09:14","cor_ans":true},{"trial_type":"html-keyboard-response","rt":null,"stimulus":"<p style=\"color: green; font-size: 50px; font-weight: bold;\">Correct</p>","response":null,"trial_index":196,"plugin_version":"2.1.0","time_elapsed":346820,"subject_id":"90692","group":"Group2","condition":"1_Rep","full_date":"2026-02-07T04:09:14.819Z","date":"2026-02-07","time":"04:09:14"},{"correct_response":"l","task":"test_phase","broad_category":"M","image_png":"M_Slate_10.png","image_id":314,"category_name":"Slate","category":20,"distinct_rating":1.94,"distinct_type":"Bottom","item_type":"Target","rt":786,"stimulus":"Stimuli_Rocks480/M_Slate_10.png","response":"l","trial_type":"image-keyboard-response","trial_index":197,"plugin_version":"2.1.0","time_elapsed":347619,"subject_id":"90692","group":"Group2","condition":"1_Rep","full_date":"2026-02-07T04:09:14.819Z","date":"2026-02-07","time":"04:09:14","cor_ans":true},{"trial_type":"html-keyboard-response","rt":null,"stimulus":"<p style=\"color: green; font-size: 50px; font-weight: bold;\">Correct</p>","response":null,"trial_index":198,"plugin_version":"2.1.0","time_elapsed":348122,"subject_id":"90692","group":"Group2","condition":"1_Rep","full_date":"2026-02-07T04:09:14.819Z","date":"2026-02-07","time":"04:09:14"},{"correct_response":"l","task":"test_phase","broad_category":"S","image_png":"S_Sandstone_08.png","image_id":456,"category_name":"Sandstone","category":29,"distinct_rating":1.5,"distinct_type":"Bottom","item_type":"Target","rt":960,"stimulus":"Stimuli_Rocks480/S_Sandstone_08.png","response":"l","trial_type":"image-keyboard-response","trial_index":199,"plugin_version":"2.1.0","time_elapsed":349094,"subject_id":"90692","group":"Group2","condition":"1_Rep","full_date":"2026-02-07T04:09:14.819Z","date":"2026-02-07","time":"04:09:14","cor_ans":true},{"trial_type":"html-keyboard-response","rt":null,"stimulus":"<p style=\"color: green; font-size: 50px; font-weight: bold;\">Correct</p>","response":null,"trial_index":200,"plugin_version":"2.1.0","time_elapsed":349596,"subject_id":"90692","group":"Group2","condition":"1_Rep","full_date":"2026-02-07T04:09:14.819Z","date":"2026-02-07","time":"04:09:14"},{"correct_response":"a","task":"test_phase","broad_category":"S","image_png":"S_Chert_10.png","image_id":362,"category_name":"Chert","category":23,"distinct_rating":7.17,"distinct_type":"Top","item_type":"Foil","rt":807,"stimulus":"Stimuli_Rocks480/S_Chert_10.png","response":"a","trial_type":"image-keyboard-response","trial_index":201,"plugin_version":"2.1.0","time_elapsed":350417,"subject_id":"90692","group":"Group2","condition":"1_Rep","full_date":"2026-02-07T04:09:14.819Z","date":"2026-02-07","time":"04:09:14","cor_ans":true},{"trial_type":"html-keyboard-response","rt":null,"stimulus":"<p style=\"color: green; font-size: 50px; font-weight: bold;\">Correct</p>","response":null,"trial_index":202,"plugin_version":"2.1.0","time_elapsed":350919,"subject_id":"90692","group":"Group2","condition":"1_Rep","full_date":"2026-02-07T04:09:14.819Z","date":"2026-02-07","time":"04:09:14"},{"correct_response":"l","task":"test_phase","broad_category":"S","image_png":"S_Shale_02.png","image_id":466,"category_name":"Shale","category":30,"distinct_rating":2.9,"distinct_type":"Bottom","item_type":"Target","rt":1276,"stimulus":"Stimuli_Rocks480/S_Shale_02.png","response":"a","trial_type":"image-keyboard-response","trial_index":203,"plugin_version":"2.1.0","time_elapsed":352208,"subject_id":"90692","group":"Group2","condition":"1_Rep","full_date":"2026-02-07T04:09:14.819Z","date":"2026-02-07","time":"04:09:14","cor_ans":false},{"trial_type":"html-keyboard-response","rt":null,"stimulus":"<p style=\"color: red; font-size: 50px; font-weight: bold;\">Incorrect</p>","response":null,"trial_index":204,"plugin_version":"2.1.0","time_elapsed":352709,"subject_id":"90692","group":"Group2","condition":"1_Rep","full_date":"2026-02-07T04:09:14.819Z","date":"2026-02-07","time":"04:09:14"},{"correct_response":"a","task":"test_phase","broad_category":"S","image_png":"S_Dolomite_12.png","image_id":396,"category_name":"Dolomite","category":25,"distinct_rating":1.85,"distinct_type":"Bottom","item_type":"Foil","rt":1186,"stimulus":"Stimuli_Rocks480/S_Dolomite_12.png","response":"a","trial_type":"image-keyboard-response","trial_index":205,"plugin_version":"2.1.0","time_elapsed":353909,"subject_id":"90692","group":"Group2","condition":"1_Rep","full_date":"2026-02-07T04:09:14.819Z","date":"2026-02-07","time":"04:09:14","cor_ans":true},{"trial_type":"html-keyboard-response","rt":null,"stimulus":"<p style=\"color: green; font-size: 50px; font-weight: bold;\">Correct</p>","response":null,"trial_index":206,"plugin_version":"2.1.0","time_elapsed":354410,"subject_id":"90692","group":"Group2","condition":"1_Rep","full_date":"2026-02-07T04:09:14.819Z","date":"2026-02-07","time":"04:09:14"},{"correct_response":"l","task":"test_phase","broad_category":"M","image_png":"M_Marble_03.png","image_id":227,"category_name":"Marble","category":15,"distinct_rating":2.67,"distinct_type":"Bottom","item_type":"Target","rt":850,"stimulus":"Stimuli_Rocks480/M_Marble_03.png","response":"a","trial_type":"image-keyboard-response","trial_index":207,"plugin_version":"2.1.0","time_elapsed":355273,"subject_id":"90692","group":"Group2","condition":"1_Rep","full_date":"2026-02-07T04:09:14.819Z","date":"2026-02-07","time":"04:09:14","cor_ans":false},{"trial_type":"html-keyboard-response","rt":null,"stimulus":"<p style=\"color: red; font-size: 50px; font-weight: bold;\">Incorrect</p>","response":null,"trial_index":208,"plugin_version":"2.1.0","time_elapsed":355775,"subject_id":"90692","group":"Group2","condition":"1_Rep","full_date":"2026-02-07T04:09:14.819Z","date":"2026-02-07","time":"04:09:14"},{"correct_response":"a","task":"test_phase","broad_category":"M","image_png":"M_Phyllite_10.png","image_id":266,"category_name":"Phyllite","category":17,"distinct_rating":2.6,"distinct_type":"Bottom","item_type":"Foil","rt":800,"stimulus":"Stimuli_Rocks480/M_Phyllite_10.png","response":"a","trial_type":"image-keyboard-response","trial_index":209,"plugin_version":"2.1.0","time_elapsed":356588,"subject_id":"90692","group":"Group2","condition":"1_Rep","full_date":"2026-02-07T04:09:14.819Z","date":"2026-02-07","time":"04:09:14","cor_ans":true},{"trial_type":"html-keyboard-response","rt":null,"stimulus":"<p style=\"color: green; font-size: 50px; font-weight: bold;\">Correct</p>","response":null,"trial_index":210,"plugin_version":"2.1.0","time_elapsed":357090,"subject_id":"90692","group":"Group2","condition":"1_Rep","full_date":"2026-02-07T04:09:14.819Z","date":"2026-02-07","time":"04:09:14"},{"correct_response":"l","task":"test_phase","broad_category":"S","image_png":"S_Dolomite_01.png","image_id":385,"category_name":"Dolomite","category":25,"distinct_rating":1.43,"distinct_type":"Bottom","item_type":"Target","rt":1208,"stimulus":"Stimuli_Rocks480/S_Dolomite_01.png","response":"l","trial_type":"image-keyboard-response","trial_index":211,"plugin_version":"2.1.0","time_elapsed":358315,"subject_id":"90692","group":"Group2","condition":"1_Rep","full_date":"2026-02-07T04:09:14.819Z","date":"2026-02-07","time":"04:09:14","cor_ans":true},{"trial_type":"html-keyboard-response","rt":null,"stimulus":"<p style=\"color: green; font-size: 50px; font-weight: bold;\">Correct</p>","response":null,"trial_index":212,"plugin_version":"2.1.0","time_elapsed":358817,"subject_id":"90692","group":"Group2","condition":"1_Rep","full_date":"2026-02-07T04:09:14.819Z","date":"2026-02-07","time":"04:09:14"},{"correct_response":"l","task":"test_phase","broad_category":"I","image_png":"I_Diorite_15.png","image_id":47,"category_name":"Diorite","category":3,"distinct_rating":3.05,"distinct_type":"Bottom","item_type":"Target","rt":875,"stimulus":"Stimuli_Rocks480/I_Diorite_15.png","response":"a","trial_type":"image-keyboard-response","trial_index":213,"plugin_version":"2.1.0","time_elapsed":359705,"subject_id":"90692","group":"Group2","condition":"1_Rep","full_date":"2026-02-07T04:09:14.819Z","date":"2026-02-07","time":"04:09:14","cor_ans":false},{"trial_type":"html-keyboard-response","rt":null,"stimulus":"<p style=\"color: red; font-size: 50px; font-weight: bold;\">Incorrect</p>","response":null,"trial_index":214,"plugin_version":"2.1.0","time_elapsed":360207,"subject_id":"90692","group":"Group2","condition":"1_Rep","full_date":"2026-02-07T04:09:14.819Z","date":"2026-02-07","time":"04:09:14"},{"correct_response":"a","task":"test_phase","broad_category":"I","image_png":"I_Pegmatite_16.png","image_id":112,"category_name":"Pegmatite","category":7,"distinct_rating":7.03,"distinct_type":"Top","item_type":"Foil","rt":829,"stimulus":"Stimuli_Rocks480/I_Pegmatite_16.png","response":"a","trial_type":"image-keyboard-response","trial_index":215,"plugin_version":"2.1.0","time_elapsed":361050,"subject_id":"90692","group":"Group2","condition":"1_Rep","full_date":"2026-02-07T04:09:14.819Z","date":"2026-02-07","time":"04:09:14","cor_ans":true},{"trial_type":"html-keyboard-response","rt":null,"stimulus":"<p style=\"color: green; font-size: 50px; font-weight: bold;\">Correct</p>","response":null,"trial_index":216,"plugin_version":"2.1.0","time_elapsed":361552,"subject_id":"90692","group":"Group2","condition":"1_Rep","full_date":"2026-02-07T04:09:14.819Z","date":"2026-02-07","time":"04:09:14"},{"correct_response":"l","task":"test_phase","broad_category":"S","image_png":"S_Rock Salt_13.png","image_id":445,"category_name":"Rock Salt","category":28,"distinct_rating":7.58,"distinct_type":"Top","item_type":"Target","rt":998,"stimulus":"Stimuli_Rocks480/S_Rock Salt_13.png","response":"l","trial_type":"image-keyboard-response","trial_index":217,"plugin_version":"2.1.0","time_elapsed":362567,"subject_id":"90692","group":"Group2","condition":"1_Rep","full_date":"2026-02-07T04:09:14.819Z","date":"2026-02-07","time":"04:09:14","cor_ans":true},{"trial_type":"html-keyboard-response","rt":null,"stimulus":"<p style=\"color: green; font-size: 50px; font-weight: bold;\">Correct</p>","response":null,"trial_index":218,"plugin_version":"2.1.0","time_elapsed":363069,"subject_id":"90692","group":"Group2","condition":"1_Rep","full_date":"2026-02-07T04:09:14.819Z","date":"2026-02-07","time":"04:09:14"},{"correct_response":"a","task":"test_phase","broad_category":"S","image_png":"S_Shale_12.png","image_id":476,"category_name":"Shale","category":30,"distinct_rating":2.48,"distinct_type":"Bottom","item_type":"Foil","rt":922,"stimulus":"Stimuli_Rocks480/S_Shale_12.png","response":"a","trial_type":"image-keyboard-response","trial_index":219,"plugin_version":"2.1.0","time_elapsed":364005,"subject_id":"90692","group":"Group2","condition":"1_Rep","full_date":"2026-02-07T04:09:14.819Z","date":"2026-02-07","time":"04:09:14","cor_ans":true},{"trial_type":"html-keyboard-response","rt":null,"stimulus":"<p style=\"color: green; font-size: 50px; font-weight: bold;\">Correct</p>","response":null,"trial_index":220,"plugin_version":"2.1.0","time_elapsed":364508,"subject_id":"90692","group":"Group2","condition":"1_Rep","full_date":"2026-02-07T04:09:14.819Z","date":"2026-02-07","time":"04:09:14"},{"correct_response":"a","task":"test_phase","broad_category":"I","image_png":"I_Pumice_08.png","image_id":136,"category_name":"Pumice","category":9,"distinct_rating":3.1,"distinct_type":"Bottom","item_type":"Foil","rt":907,"stimulus":"Stimuli_Rocks480/I_Pumice_08.png","response":"l","trial_type":"image-keyboard-response","trial_index":221,"plugin_version":"2.1.0","time_elapsed":365429,"subject_id":"90692","group":"Group2","condition":"1_Rep","full_date":"2026-02-07T04:09:14.819Z","date":"2026-02-07","time":"04:09:14","cor_ans":false},{"trial_type":"html-keyboard-response","rt":null,"stimulus":"<p style=\"color: red; font-size: 50px; font-weight: bold;\">Incorrect</p>","response":null,"trial_index":222,"plugin_version":"2.1.0","time_elapsed":365931,"subject_id":"90692","group":"Group2","condition":"1_Rep","full_date":"2026-02-07T04:09:14.819Z","date":"2026-02-07","time":"04:09:14"},{"correct_response":"l","task":"test_phase","broad_category":"I","image_png":"I_Pegmatite_11.png","image_id":107,"category_name":"Pegmatite","category":7,"distinct_rating":7.11,"distinct_type":"Top","item_type":"Target","rt":790,"stimulus":"Stimuli_Rocks480/I_Pegmatite_11.png","response":"a","trial_type":"image-keyboard-response","trial_index":223,"plugin_version":"2.1.0","time_elapsed":366739,"subject_id":"90692","group":"Group2","condition":"1_Rep","full_date":"2026-02-07T04:09:14.819Z","date":"2026-02-07","time":"04:09:14","cor_ans":false},{"trial_type":"html-keyboard-response","rt":null,"stimulus":"<p style=\"color: red; font-size: 50px; font-weight: bold;\">Incorrect</p>","response":null,"trial_index":224,"plugin_version":"2.1.0","time_elapsed":367241,"subject_id":"90692","group":"Group2","condition":"1_Rep","full_date":"2026-02-07T04:09:14.819Z","date":"2026-02-07","time":"04:09:14"},{"correct_response":"a","task":"test_phase","broad_category":"M","image_png":"M_Slate_11