[{"width":1710,"height":989,"webaudio":true,"browser":"safari","browser_version":"18.6.0","mobile":false,"os":"Mac OS","fullscreen":true,"vsync_rate":60.18,"webcam":true,"microphone":true,"trial_type":"browser-check","trial_index":0,"plugin_version":"2.1.0","time_elapsed":1004,"subject_id":"92168","group":"Group2","condition":"1_Rep","full_date":"2026-01-28T16:49:12.386Z","date":"2026-01-28","time":"16:49:12"},{"success":true,"timeout":false,"failed_images":[],"failed_audio":[],"failed_video":[],"trial_type":"preload","trial_index":1,"plugin_version":"2.1.0","time_elapsed":7262,"subject_id":"92168","group":"Group2","condition":"1_Rep","full_date":"2026-01-28T16:49:12.386Z","date":"2026-01-28","time":"16:49:12"},{"rt":6248,"url":"SONA_consent_memorability.html","trial_type":"external-html","trial_index":2,"plugin_version":"2.1.0","time_elapsed":13587,"subject_id":"92168","group":"Group2","condition":"1_Rep","full_date":"2026-01-28T16:49:12.386Z","date":"2026-01-28","time":"16:49:12"},{"success":true,"rt":2001,"trial_type":"fullscreen","trial_index":3,"plugin_version":"2.1.0","time_elapsed":16593,"subject_id":"92168","group":"Group2","condition":"1_Rep","full_date":"2026-01-28T16:49:12.386Z","date":"2026-01-28","time":"16:49:12"},{"rt":1394,"stimulus":"<div style=\"max-width: 760px; margin: auto; font-size: 20px; line-height: 1.5;\">\n      <h1 style=\"text-align:center; font-size: 30px;\">Instructions</h1>\n      <p>\n        Welcome to the study on <b>visual memory</b>. This experiment consists of <b>two phases</b>: \n        a <b>study phase</b> and a <b>test phase</b>.\n      </p>\n      <p>\n        In the study phase, you will see a series of rock images along with their category labels.\n        The images will appear one at a time.\n        <b>Your task</b> is to learn the categories to which the rock images belong \n        and to remember each image as accurately as possible.\n      </p> \n      <p>\n        Note that you will see each image only <b>once</b> during the study phase. \n          So, please pay close attention and try to remember each image carefully.\n      </p>\n      <p>\n        After the study phase, <b>your memory will be tested</b>. \n        Additional instructions for the test phase will be provided at that time.\n      </p>\n      <p>\n        If your computer has multiple <b>language settings</b> (e.g., English and another language),\n        please make sure it is set to English before starting.\n      </p>\n      <p>\n        You can track your progress using the <b>completion bar</b> at the top of the screen. \n        Please note that the bar will refresh when the test phase begins \n        to give you an accurate sense of your progress in both phases.\n      </p> \n      <p>\n        Press the button below when you are ready to begin.\n      </p>\n    </div>","response":0,"trial_type":"html-button-response","trial_index":4,"plugin_version":"2.1.0","time_elapsed":17989,"subject_id":"92168","group":"Group2","condition":"1_Rep","full_date":"2026-01-28T16:49:12.386Z","date":"2026-01-28","time":"16:49:12"},{"rt":null,"stimulus":"<p style=\"font-size: 50px; margin: 0; text-align: center;\">+</p>","response":null,"trial_type":"html-keyboard-response","trial_index":5,"plugin_version":"2.1.0","time_elapsed":18993,"subject_id":"92168","group":"Group2","condition":"1_Rep","full_date":"2026-01-28T16:49:12.386Z","date":"2026-01-28","time":"16:49:12"},{"task":"memory_phase","broad_category":"I","image_png":"I_Diorite_10.png","image_id":42,"category_name":"Diorite","category":3,"distinct_rating":2.84,"distinct_type":"Bottom","rt":null,"stimulus":"Stimuli_Rocks480/I_Diorite_10.png","response":null,"trial_type":"image-keyboard-response","trial_index":6,"plugin_version":"2.1.0","time_elapsed":21508,"subject_id":"92168","group":"Group2","condition":"1_Rep","full_date":"2026-01-28T16:49:12.386Z","date":"2026-01-28","time":"16:49:12"},{"rt":null,"stimulus":"<p style=\"font-size: 50px; margin: 0; text-align: center;\">+</p>","response":null,"trial_type":"html-keyboard-response","trial_index":7,"plugin_version":"2.1.0","time_elapsed":22511,"subject_id":"92168","group":"Group2","condition":"1_Rep","full_date":"2026-01-28T16:49:12.386Z","date":"2026-01-28","time":"16:49:12"},{"task":"memory_phase","broad_category":"I","image_png":"I_Gabbro_12.png","image_id":60,"category_name":"Gabbro","category":4,"distinct_rating":2.6,"distinct_type":"Bottom","rt":null,"stimulus":"Stimuli_Rocks480/I_Gabbro_12.png","response":null,"trial_type":"image-keyboard-response","trial_index":8,"plugin_version":"2.1.0","time_elapsed":25029,"subject_id":"92168","group":"Group2","condition":"1_Rep","full_date":"2026-01-28T16:49:12.386Z","date":"2026-01-28","time":"16:49:12"},{"rt":null,"stimulus":"<p style=\"font-size: 50px; margin: 0; text-align: center;\">+</p>","response":null,"trial_type":"html-keyboard-response","trial_index":9,"plugin_version":"2.1.0","time_elapsed":26032,"subject_id":"92168","group":"Group2","condition":"1_Rep","full_date":"2026-01-28T16:49:12.386Z","date":"2026-01-28","time":"16:49:12"},{"task":"memory_phase","broad_category":"M","image_png":"M_Gneiss_14.png","image_id":206,"category_name":"Gneiss","category":13,"distinct_rating":3.41,"distinct_type":"Bottom","rt":null,"stimulus":"Stimuli_Rocks480/M_Gneiss_14.png","response":null,"trial_type":"image-keyboard-response","trial_index":10,"plugin_version":"2.1.0","time_elapsed":28548,"subject_id":"92168","group":"Group2","condition":"1_Rep","full_date":"2026-01-28T16:49:12.386Z","date":"2026-01-28","time":"16:49:12"},{"rt":null,"stimulus":"<p style=\"font-size: 50px; margin: 0; text-align: center;\">+</p>","response":null,"trial_type":"html-keyboard-response","trial_index":11,"plugin_version":"2.1.0","time_elapsed":29550,"subject_id":"92168","group":"Group2","condition":"1_Rep","full_date":"2026-01-28T16:49:12.386Z","date":"2026-01-28","time":"16:49:12"},{"task":"memory_phase","broad_category":"M","image_png":"M_Phyllite_05.png","image_id":261,"category_name":"Phyllite","category":17,"distinct_rating":2.14,"distinct_type":"Bottom","rt":null,"stimulus":"Stimuli_Rocks480/M_Phyllite_05.png","response":null,"trial_type":"image-keyboard-response","trial_index":12,"plugin_version":"2.1.0","time_elapsed":32065,"subject_id":"92168","group":"Group2","condition":"1_Rep","full_date":"2026-01-28T16:49:12.386Z","date":"2026-01-28","time":"16:49:12"},{"rt":null,"stimulus":"<p style=\"font-size: 50px; margin: 0; text-align: center;\">+</p>","response":null,"trial_type":"html-keyboard-response","trial_index":13,"plugin_version":"2.1.0","time_elapsed":33067,"subject_id":"92168","group":"Group2","condition":"1_Rep","full_date":"2026-01-28T16:49:12.386Z","date":"2026-01-28","time":"16:49:12"},{"task":"memory_phase","broad_category":"I","image_png":"I_Gabbro_02.png","image_id":50,"category_name":"Gabbro","category":4,"distinct_rating":2.73,"distinct_type":"Bottom","rt":null,"stimulus":"Stimuli_Rocks480/I_Gabbro_02.png","response":null,"trial_type":"image-keyboard-response","trial_index":14,"plugin_version":"2.1.0","time_elapsed":35582,"subject_id":"92168","group":"Group2","condition":"1_Rep","full_date":"2026-01-28T16:49:12.386Z","date":"2026-01-28","time":"16:49:12"},{"rt":null,"stimulus":"<p style=\"font-size: 50px; margin: 0; text-align: center;\">+</p>","response":null,"trial_type":"html-keyboard-response","trial_index":15,"plugin_version":"2.1.0","time_elapsed":36584,"subject_id":"92168","group":"Group2","condition":"1_Rep","full_date":"2026-01-28T16:49:12.386Z","date":"2026-01-28","time":"16:49:12"},{"task":"memory_phase","broad_category":"S","image_png":"S_Chert_13.png","image_id":365,"category_name":"Chert","category":23,"distinct_rating":6.57,"distinct_type":"Top","rt":null,"stimulus":"Stimuli_Rocks480/S_Chert_13.png","response":null,"trial_type":"image-keyboard-response","trial_index":16,"plugin_version":"2.1.0","time_elapsed":39095,"subject_id":"92168","group":"Group2","condition":"1_Rep","full_date":"2026-01-28T16:49:12.386Z","date":"2026-01-28","time":"16:49:12"},{"rt":null,"stimulus":"<p style=\"font-size: 50px; margin: 0; text-align: center;\">+</p>","response":null,"trial_type":"html-keyboard-response","trial_index":17,"plugin_version":"2.1.0","time_elapsed":40097,"subject_id":"92168","group":"Group2","condition":"1_Rep","full_date":"2026-01-28T16:49:12.386Z","date":"2026-01-28","time":"16:49:12"},{"task":"memory_phase","broad_category":"S","image_png":"S_Shale_03.png","image_id":467,"category_name":"Shale","category":30,"distinct_rating":1.95,"distinct_type":"Bottom","rt":null,"stimulus":"Stimuli_Rocks480/S_Shale_03.png","response":null,"trial_type":"image-keyboard-response","trial_index":18,"plugin_version":"2.1.0","time_elapsed":42614,"subject_id":"92168","group":"Group2","condition":"1_Rep","full_date":"2026-01-28T16:49:12.386Z","date":"2026-01-28","time":"16:49:12"},{"rt":null,"stimulus":"<p style=\"font-size: 50px; margin: 0; text-align: center;\">+</p>","response":null,"trial_type":"html-keyboard-response","trial_index":19,"plugin_version":"2.1.0","time_elapsed":43616,"subject_id":"92168","group":"Group2","condition":"1_Rep","full_date":"2026-01-28T16:49:12.386Z","date":"2026-01-28","time":"16:49:12"},{"task":"memory_phase","broad_category":"I","image_png":"I_Rhyolite_10.png","image_id":154,"category_name":"Rhyolite","category":10,"distinct_rating":2.88,"distinct_type":"Bottom","rt":null,"stimulus":"Stimuli_Rocks480/I_Rhyolite_10.png","response":null,"trial_type":"image-keyboard-response","trial_index":20,"plugin_version":"2.1.0","time_elapsed":46138,"subject_id":"92168","group":"Group2","condition":"1_Rep","full_date":"2026-01-28T16:49:12.386Z","date":"2026-01-28","time":"16:49:12"},{"rt":null,"stimulus":"<p style=\"font-size: 50px; margin: 0; text-align: center;\">+</p>","response":null,"trial_type":"html-keyboard-response","trial_index":21,"plugin_version":"2.1.0","time_elapsed":47141,"subject_id":"92168","group":"Group2","condition":"1_Rep","full_date":"2026-01-28T16:49:12.386Z","date":"2026-01-28","time":"16:49:12"},{"task":"memory_phase","broad_category":"S","image_png":"S_Conglomerate_14.png","image_id":382,"category_name":"Conglomerate","category":24,"distinct_rating":6.86,"distinct_type":"Top","rt":null,"stimulus":"Stimuli_Rocks480/S_Conglomerate_14.png","response":null,"trial_type":"image-keyboard-response","trial_index":22,"plugin_version":"2.1.0","time_elapsed":49655,"subject_id":"92168","group":"Group2","condition":"1_Rep","full_date":"2026-01-28T16:49:12.386Z","date":"2026-01-28","time":"16:49:12"},{"rt":null,"stimulus":"<p style=\"font-size: 50px; margin: 0; text-align: center;\">+</p>","response":null,"trial_type":"html-keyboard-response","trial_index":23,"plugin_version":"2.1.0","time_elapsed":50657,"subject_id":"92168","group":"Group2","condition":"1_Rep","full_date":"2026-01-28T16:49:12.386Z","date":"2026-01-28","time":"16:49:12"},{"task":"memory_phase","broad_category":"I","image_png":"I_Peridotite_13.png","image_id":125,"category_name":"Peridotite","category":8,"distinct_rating":7.28,"distinct_type":"Top","rt":null,"stimulus":"Stimuli_Rocks480/I_Peridotite_13.png","response":null,"trial_type":"image-keyboard-response","trial_index":24,"plugin_version":"2.1.0","time_elapsed":53179,"subject_id":"92168","group":"Group2","condition":"1_Rep","full_date":"2026-01-28T16:49:12.386Z","date":"2026-01-28","time":"16:49:12"},{"rt":null,"stimulus":"<p style=\"font-size: 50px; margin: 0; text-align: center;\">+</p>","response":null,"trial_type":"html-keyboard-response","trial_index":25,"plugin_version":"2.1.0","time_elapsed":54182,"subject_id":"92168","group":"Group2","condition":"1_Rep","full_date":"2026-01-28T16:49:12.386Z","date":"2026-01-28","time":"16:49:12"},{"task":"memory_phase","broad_category":"I","image_png":"I_Pumice_14.png","image_id":142,"category_name":"Pumice","category":9,"distinct_rating":3.22,"distinct_type":"Bottom","rt":null,"stimulus":"Stimuli_Rocks480/I_Pumice_14.png","response":null,"trial_type":"image-keyboard-response","trial_index":26,"plugin_version":"2.1.0","time_elapsed":56699,"subject_id":"92168","group":"Group2","condition":"1_Rep","full_date":"2026-01-28T16:49:12.386Z","date":"2026-01-28","time":"16:49:12"},{"rt":null,"stimulus":"<p style=\"font-size: 50px; margin: 0; text-align: center;\">+</p>","response":null,"trial_type":"html-keyboard-response","trial_index":27,"plugin_version":"2.1.0","time_elapsed":57701,"subject_id":"92168","group":"Group2","condition":"1_Rep","full_date":"2026-01-28T16:49:12.386Z","date":"2026-01-28","time":"16:49:12"},{"task":"memory_phase","broad_category":"I","image_png":"I_Rhyolite_08.png","image_id":152,"category_name":"Rhyolite","category":10,"distinct_rating":1.38,"distinct_type":"Bottom","rt":null,"stimulus":"Stimuli_Rocks480/I_Rhyolite_08.png","response":null,"trial_type":"image-keyboard-response","trial_index":28,"plugin_version":"2.1.0","time_elapsed":60215,"subject_id":"92168","group":"Group2","condition":"1_Rep","full_date":"2026-01-28T16:49:12.386Z","date":"2026-01-28","time":"16:49:12"},{"rt":null,"stimulus":"<p style=\"font-size: 50px; margin: 0; text-align: center;\">+</p>","response":null,"trial_type":"html-keyboard-response","trial_index":29,"plugin_version":"2.1.0","time_elapsed":61218,"subject_id":"92168","group":"Group2","condition":"1_Rep","full_date":"2026-01-28T16:49:12.386Z","date":"2026-01-28","time":"16:49:12"},{"task":"memory_phase","broad_category":"M","image_png":"M_Quartzite_15.png","image_id":287,"category_name":"Quartzite","category":18,"distinct_rating":2.19,"distinct_type":"Bottom","rt":null,"stimulus":"Stimuli_Rocks480/M_Quartzite_15.png","response":null,"trial_type":"image-keyboard-response","trial_index":30,"plugin_version":"2.1.0","time_elapsed":63735,"subject_id":"92168","group":"Group2","condition":"1_Rep","full_date":"2026-01-28T16:49:12.386Z","date":"2026-01-28","time":"16:49:12"},{"rt":null,"stimulus":"<p style=\"font-size: 50px; margin: 0; text-align: center;\">+</p>","response":null,"trial_type":"html-keyboard-response","trial_index":31,"plugin_version":"2.1.0","time_elapsed":64738,"subject_id":"92168","group":"Group2","condition":"1_Rep","full_date":"2026-01-28T16:49:12.386Z","date":"2026-01-28","time":"16:49:12"},{"task":"memory_phase","broad_category":"I","image_png":"I_Gabbro_14.png","image_id":62,"category_name":"Gabbro","category":4,"distinct_rating":2.95,"distinct_type":"Bottom","rt":null,"stimulus":"Stimuli_Rocks480/I_Gabbro_14.png","response":null,"trial_type":"image-keyboard-response","trial_index":32,"plugin_version":"2.1.0","time_elapsed":67255,"subject_id":"92168","group":"Group2","condition":"1_Rep","full_date":"2026-01-28T16:49:12.386Z","date":"2026-01-28","time":"16:49:12"},{"rt":null,"stimulus":"<p style=\"font-size: 50px; margin: 0; text-align: center;\">+</p>","response":null,"trial_type":"html-keyboard-response","trial_index":33,"plugin_version":"2.1.0","time_elapsed":68258,"subject_id":"92168","group":"Group2","condition":"1_Rep","full_date":"2026-01-28T16:49:12.386Z","date":"2026-01-28","time":"16:49:12"},{"task":"memory_phase","broad_category":"S","image_png":"S_Shale_02.png","image_id":466,"category_name":"Shale","category":30,"distinct_rating":2.9,"distinct_type":"Bottom","rt":null,"stimulus":"Stimuli_Rocks480/S_Shale_02.png","response":null,"trial_type":"image-keyboard-response","trial_index":34,"plugin_version":"2.1.0","time_elapsed":70772,"subject_id":"92168","group":"Group2","condition":"1_Rep","full_date":"2026-01-28T16:49:12.386Z","date":"2026-01-28","time":"16:49:12"},{"rt":null,"stimulus":"<p style=\"font-size: 50px; margin: 0; text-align: center;\">+</p>","response":null,"trial_type":"html-keyboard-response","trial_index":35,"plugin_version":"2.1.0","time_elapsed":71775,"subject_id":"92168","group":"Group2","condition":"1_Rep","full_date":"2026-01-28T16:49:12.386Z","date":"2026-01-28","time":"16:49:12"},{"task":"memory_phase","broad_category":"M","image_png":"M_Slate_04.png","image_id":308,"category_name":"Slate","category":20,"distinct_rating":2.2,"distinct_type":"Bottom","rt":null,"stimulus":"Stimuli_Rocks480/M_Slate_04.png","response":null,"trial_type":"image-keyboard-response","trial_index":36,"plugin_version":"2.1.0","time_elapsed":74289,"subject_id":"92168","group":"Group2","condition":"1_Rep","full_date":"2026-01-28T16:49:12.386Z","date":"2026-01-28","time":"16:49:12"},{"rt":null,"stimulus":"<p style=\"font-size: 50px; margin: 0; text-align: center;\">+</p>","response":null,"trial_type":"html-keyboard-response","trial_index":37,"plugin_version":"2.1.0","time_elapsed":75292,"subject_id":"92168","group":"Group2","condition":"1_Rep","full_date":"2026-01-28T16:49:12.386Z","date":"2026-01-28","time":"16:49:12"},{"task":"memory_phase","broad_category":"M","image_png":"M_Marble_02.png","image_id":226,"category_name":"Marble","category":15,"distinct_rating":3.2,"distinct_type":"Bottom","rt":null,"stimulus":"Stimuli_Rocks480/M_Marble_02.png","response":null,"trial_type":"image-keyboard-response","trial_index":38,"plugin_version":"2.1.0","time_elapsed":77806,"subject_id":"92168","group":"Group2","condition":"1_Rep","full_date":"2026-01-28T16:49:12.386Z","date":"2026-01-28","time":"16:49:12"},{"rt":null,"stimulus":"<p style=\"font-size: 50px; margin: 0; text-align: center;\">+</p>","response":null,"trial_type":"html-keyboard-response","trial_index":39,"plugin_version":"2.1.0","time_elapsed":78809,"subject_id":"92168","group":"Group2","condition":"1_Rep","full_date":"2026-01-28T16:49:12.386Z","date":"2026-01-28","time":"16:49:12"},{"task":"memory_phase","broad_category":"I","image_png":"I_Basalt_08.png","image_id":24,"category_name":"Basalt","category":2,"distinct_rating":2.31,"distinct_type":"Bottom","rt":null,"stimulus":"Stimuli_Rocks480/I_Basalt_08.png","response":null,"trial_type":"image-keyboard-response","trial_index":40,"plugin_version":"2.1.0","time_elapsed":81330,"subject_id":"92168","group":"Group2","condition":"1_Rep","full_date":"2026-01-28T16:49:12.386Z","date":"2026-01-28","time":"16:49:12"},{"rt":null,"stimulus":"<p style=\"font-size: 50px; margin: 0; text-align: center;\">+</p>","response":null,"trial_type":"html-keyboard-response","trial_index":41,"plugin_version":"2.1.0","time_elapsed":82332,"subject_id":"92168","group":"Group2","condition":"1_Rep","full_date":"2026-01-28T16:49:12.386Z","date":"2026-01-28","time":"16:49:12"},{"task":"memory_phase","broad_category":"I","image_png":"I_Obsidian_06.png","image_id":86,"category_name":"Obsidian","category":6,"distinct_rating":8.01,"distinct_type":"Top","rt":null,"stimulus":"Stimuli_Rocks480/I_Obsidian_06.png","response":null,"trial_type":"image-keyboard-response","trial_index":42,"plugin_version":"2.1.0","time_elapsed":84852,"subject_id":"92168","group":"Group2","condition":"1_Rep","full_date":"2026-01-28T16:49:12.386Z","date":"2026-01-28","time":"16:49:12"},{"rt":null,"stimulus":"<p style=\"font-size: 50px; margin: 0; text-align: center;\">+</p>","response":null,"trial_type":"html-keyboard-response","trial_index":43,"plugin_version":"2.1.0","time_elapsed":85854,"subject_id":"92168","group":"Group2","condition":"1_Rep","full_date":"2026-01-28T16:49:12.386Z","date":"2026-01-28","time":"16:49:12"},{"task":"memory_phase","broad_category":"M","image_png":"M_Quartzite_12.png","image_id":284,"category_name":"Quartzite","category":18,"distinct_rating":1.92,"distinct_type":"Bottom","rt":null,"stimulus":"Stimuli_Rocks480/M_Quartzite_12.png","response":null,"trial_type":"image-keyboard-response","trial_index":44,"plugin_version":"2.1.0","time_elapsed":88370,"subject_id":"92168","group":"Group2","condition":"1_Rep","full_date":"2026-01-28T16:49:12.386Z","date":"2026-01-28","time":"16:49:12"},{"rt":null,"stimulus":"<p style=\"font-size: 50px; margin: 0; text-align: center;\">+</p>","response":null,"trial_type":"html-keyboard-response","trial_index":45,"plugin_version":"2.1.0","time_elapsed":89372,"subject_id":"92168","group":"Group2","condition":"1_Rep","full_date":"2026-01-28T16:49:12.386Z","date":"2026-01-28","time":"16:49:12"},{"task":"memory_phase","broad_category":"M","image_png":"M_Marble_14.png","image_id":238,"category_name":"Marble","category":15,"distinct_rating":3.31,"distinct_type":"Bottom","rt":null,"stimulus":"Stimuli_Rocks480/M_Marble_14.png","response":null,"trial_type":"image-keyboard-response","trial_index":46,"plugin_version":"2.1.0","time_elapsed":91887,"subject_id":"92168","group":"Group2","condition":"1_Rep","full_date":"2026-01-28T16:49:12.386Z","date":"2026-01-28","time":"16:49:12"},{"rt":null,"stimulus":"<p style=\"font-size: 50px; margin: 0; text-align: center;\">+</p>","response":null,"trial_type":"html-keyboard-response","trial_index":47,"plugin_version":"2.1.0","time_elapsed":92889,"subject_id":"92168","group":"Group2","condition":"1_Rep","full_date":"2026-01-28T16:49:12.386Z","date":"2026-01-28","time":"16:49:12"},{"task":"memory_phase","broad_category":"S","image_png":"S_Dolomite_16.png","image_id":400,"category_name":"Dolomite","category":25,"distinct_rating":1.71,"distinct_type":"Bottom","rt":null,"stimulus":"Stimuli_Rocks480/S_Dolomite_16.png","response":null,"trial_type":"image-keyboard-response","trial_index":48,"plugin_version":"2.1.0","time_elapsed":95403,"subject_id":"92168","group":"Group2","condition":"1_Rep","full_date":"2026-01-28T16:49:12.386Z","date":"2026-01-28","time":"16:49:12"},{"rt":null,"stimulus":"<p style=\"font-size: 50px; margin: 0; text-align: center;\">+</p>","response":null,"trial_type":"html-keyboard-response","trial_index":49,"plugin_version":"2.1.0","time_elapsed":96405,"subject_id":"92168","group":"Group2","condition":"1_Rep","full_date":"2026-01-28T16:49:12.386Z","date":"2026-01-28","time":"16:49:12"},{"task":"memory_phase","broad_category":"I","image_png":"I_Rhyolite_05.png","image_id":149,"category_name":"Rhyolite","category":10,"distinct_rating":3.02,"distinct_type":"Bottom","rt":null,"stimulus":"Stimuli_Rocks480/I_Rhyolite_05.png","response":null,"trial_type":"image-keyboard-response","trial_index":50,"plugin_version":"2.1.0","time_elapsed":98923,"subject_id":"92168","group":"Group2","condition":"1_Rep","full_date":"2026-01-28T16:49:12.386Z","date":"2026-01-28","time":"16:49:12"},{"rt":null,"stimulus":"<p style=\"font-size: 50px; margin: 0; text-align: center;\">+</p>","response":null,"trial_type":"html-keyboard-response","trial_index":51,"plugin_version":"2.1.0","time_elapsed":99925,"subject_id":"92168","group":"Group2","condition":"1_Rep","full_date":"2026-01-28T16:49:12.386Z","date":"2026-01-28","time":"16:49:12"},{"task":"memory_phase","broad_category":"I","image_png":"I_Andesite_04.png","image_id":4,"category_name":"Andesite","category":1,"distinct_rating":3.18,"distinct_type":"Bottom","rt":null,"stimulus":"Stimuli_Rocks480/I_Andesite_04.png","response":null,"trial_type":"image-keyboard-response","trial_index":52,"plugin_version":"2.1.0","time_elapsed":102440,"subject_id":"92168","group":"Group2","condition":"1_Rep","full_date":"2026-01-28T16:49:12.386Z","date":"2026-01-28","time":"16:49:12"},{"rt":null,"stimulus":"<p style=\"font-size: 50px; margin: 0; text-align: center;\">+</p>","response":null,"trial_type":"html-keyboard-response","trial_index":53,"plugin_version":"2.1.0","time_elapsed":103443,"subject_id":"92168","group":"Group2","condition":"1_Rep","full_date":"2026-01-28T16:49:12.386Z","date":"2026-01-28","time":"16:49:12"},{"task":"memory_phase","broad_category":"S","image_png":"S_Dolomite_07.png","image_id":391,"category_name":"Dolomite","category":25,"distinct_rating":1.73,"distinct_type":"Bottom","rt":null,"stimulus":"Stimuli_Rocks480/S_Dolomite_07.png","response":null,"trial_type":"image-keyboard-response","trial_index":54,"plugin_version":"2.1.0","time_elapsed":105958,"subject_id":"92168","group":"Group2","condition":"1_Rep","full_date":"2026-01-28T16:49:12.386Z","date":"2026-01-28","time":"16:49:12"},{"rt":5476,"stimulus":"<p style=\"max-width: 760px; margin: auto; font-size: 35px; line-height: 1.5;\">\n                Press SPACE to continue study phase\n              </p>","response":" ","trial_type":"html-keyboard-response","trial_index":55,"plugin_version":"2.1.0","time_elapsed":111436,"subject_id":"92168","group":"Group2","condition":"1_Rep","full_date":"2026-01-28T16:49:12.386Z","date":"2026-01-28","time":"16:49:12"},{"rt":null,"stimulus":"<p style=\"font-size: 50px; margin: 0; text-align: center;\">+</p>","response":null,"trial_type":"html-keyboard-response","trial_index":56,"plugin_version":"2.1.0","time_elapsed":112437,"subject_id":"92168","group":"Group2","condition":"1_Rep","full_date":"2026-01-28T16:49:12.386Z","date":"2026-01-28","time":"16:49:12"},{"task":"memory_phase","broad_category":"I","image_png":"I_Pumice_13.png","image_id":141,"category_name":"Pumice","category":9,"distinct_rating":3.12,"distinct_type":"Bottom","rt":null,"stimulus":"Stimuli_Rocks480/I_Pumice_13.png","response":null,"trial_type":"image-keyboard-response","trial_index":57,"plugin_version":"2.1.0","time_elapsed":114952,"subject_id":"92168","group":"Group2","condition":"1_Rep","full_date":"2026-01-28T16:49:12.386Z","date":"2026-01-28","time":"16:49:12"},{"rt":null,"stimulus":"<p style=\"font-size: 50px; margin: 0; text-align: center;\">+</p>","response":null,"trial_type":"html-keyboard-response","trial_index":58,"plugin_version":"2.1.0","time_elapsed":115954,"subject_id":"92168","group":"Group2","condition":"1_Rep","full_date":"2026-01-28T16:49:12.386Z","date":"2026-01-28","time":"16:49:12"},{"task":"memory_phase","broad_category":"I","image_png":"I_Andesite_03.png","image_id":3,"category_name":"Andesite","category":1,"distinct_rating":3.17,"distinct_type":"Bottom","rt":null,"stimulus":"Stimuli_Rocks480/I_Andesite_03.png","response":null,"trial_type":"image-keyboard-response","trial_index":59,"plugin_version":"2.1.0","time_elapsed":118466,"subject_id":"92168","group":"Group2","condition":"1_Rep","full_date":"2026-01-28T16:49:12.386Z","date":"2026-01-28","time":"16:49:12"},{"rt":null,"stimulus":"<p style=\"font-size: 50px; margin: 0; text-align: center;\">+</p>","response":null,"trial_type":"html-keyboard-response","trial_index":60,"plugin_version":"2.1.0","time_elapsed":119469,"subject_id":"92168","group":"Group2","condition":"1_Rep","full_date":"2026-01-28T16:49:12.386Z","date":"2026-01-28","time":"16:49:12"},{"task":"memory_phase","broad_category":"M","image_png":"M_Gneiss_15.png","image_id":207,"category_name":"Gneiss","category":13,"distinct_rating":3.11,"distinct_type":"Bottom","rt":null,"stimulus":"Stimuli_Rocks480/M_Gneiss_15.png","response":null,"trial_type":"image-keyboard-response","trial_index":61,"plugin_version":"2.1.0","time_elapsed":121980,"subject_id":"92168","group":"Group2","condition":"1_Rep","full_date":"2026-01-28T16:49:12.386Z","date":"2026-01-28","time":"16:49:12"},{"rt":null,"stimulus":"<p style=\"font-size: 50px; margin: 0; text-align: center;\">+</p>","response":null,"trial_type":"html-keyboard-response","trial_index":62,"plugin_version":"2.1.0","time_elapsed":122981,"subject_id":"92168","group":"Group2","condition":"1_Rep","full_date":"2026-01-28T16:49:12.386Z","date":"2026-01-28","time":"16:49:12"},{"task":"memory_phase","broad_category":"M","image_png":"M_Gneiss_10.png","image_id":202,"category_name":"Gneiss","category":13,"distinct_rating":3.09,"distinct_type":"Bottom","rt":null,"stimulus":"Stimuli_Rocks480/M_Gneiss_10.png","response":null,"trial_type":"image-keyboard-response","trial_index":63,"plugin_version":"2.1.0","time_elapsed":125497,"subject_id":"92168","group":"Group2","condition":"1_Rep","full_date":"2026-01-28T16:49:12.386Z","date":"2026-01-28","time":"16:49:12"},{"rt":null,"stimulus":"<p style=\"font-size: 50px; margin: 0; text-align: center;\">+</p>","response":null,"trial_type":"html-keyboard-response","trial_index":64,"plugin_version":"2.1.0","time_elapsed":126499,"subject_id":"92168","group":"Group2","condition":"1_Rep","full_date":"2026-01-28T16:49:12.386Z","date":"2026-01-28","time":"16:49:12"},{"task":"memory_phase","broad_category":"I","image_png":"I_Pumice_01.png","image_id":129,"category_name":"Pumice","category":9,"distinct_rating":3.25,"distinct_type":"Bottom","rt":null,"stimulus":"Stimuli_Rocks480/I_Pumice_01.png","response":null,"trial_type":"image-keyboard-response","trial_index":65,"plugin_version":"2.1.0","time_elapsed":129015,"subject_id":"92168","group":"Group2","condition":"1_Rep","full_date":"2026-01-28T16:49:12.386Z","date":"2026-01-28","time":"16:49:12"},{"rt":null,"stimulus":"<p style=\"font-size: 50px; margin: 0; text-align: center;\">+</p>","response":null,"trial_type":"html-keyboard-response","trial_index":66,"plugin_version":"2.1.0","time_elapsed":130017,"subject_id":"92168","group":"Group2","condition":"1_Rep","full_date":"2026-01-28T16:49:12.386Z","date":"2026-01-28","time":"16:49:12"},{"task":"memory_phase","broad_category":"M","image_png":"M_Quartzite_07.png","image_id":279,"category_name":"Quartzite","category":18,"distinct_rating":1.97,"distinct_type":"Bottom","rt":null,"stimulus":"Stimuli_Rocks480/M_Quartzite_07.png","response":null,"trial_type":"image-keyboard-response","trial_index":67,"plugin_version":"2.1.0","time_elapsed":132535,"subject_id":"92168","group":"Group2","condition":"1_Rep","full_date":"2026-01-28T16:49:12.386Z","date":"2026-01-28","time":"16:49:12"},{"rt":null,"stimulus":"<p style=\"font-size: 50px; margin: 0; text-align: center;\">+</p>","response":null,"trial_type":"html-keyboard-response","trial_index":68,"plugin_version":"2.1.0","time_elapsed":133537,"subject_id":"92168","group":"Group2","condition":"1_Rep","full_date":"2026-01-28T16:49:12.386Z","date":"2026-01-28","time":"16:49:12"},{"task":"memory_phase","broad_category":"S","image_png":"S_Rock Salt_15.png","image_id":447,"category_name":"Rock Salt","category":28,"distinct_rating":7.79,"distinct_type":"Top","rt":null,"stimulus":"Stimuli_Rocks480/S_Rock Salt_15.png","response":null,"trial_type":"image-keyboard-response","trial_index":69,"plugin_version":"2.1.0","time_elapsed":136051,"subject_id":"92168","group":"Group2","condition":"1_Rep","full_date":"2026-01-28T16:49:12.386Z","date":"2026-01-28","time":"16:49:12"},{"rt":null,"stimulus":"<p style=\"font-size: 50px; margin: 0; text-align: center;\">+</p>","response":null,"trial_type":"html-keyboard-response","trial_index":70,"plugin_version":"2.1.0","time_elapsed":137054,"subject_id":"92168","group":"Group2","condition":"1_Rep","full_date":"2026-01-28T16:49:12.386Z","date":"2026-01-28","time":"16:49:12"},{"task":"memory_phase","broad_category":"S","image_png":"S_Sandstone_11.png","image_id":459,"category_name":"Sandstone","category":29,"distinct_rating":1.82,"distinct_type":"Bottom","rt":null,"stimulus":"Stimuli_Rocks480/S_Sandstone_11.png","response":null,"trial_type":"image-keyboard-response","trial_index":71,"plugin_version":"2.1.0","time_elapsed":139573,"subject_id":"92168","group":"Group2","condition":"1_Rep","full_date":"2026-01-28T16:49:12.386Z","date":"2026-01-28","time":"16:49:12"},{"rt":null,"stimulus":"<p style=\"font-size: 50px; margin: 0; text-align: center;\">+</p>","response":null,"trial_type":"html-keyboard-response","trial_index":72,"plugin_version":"2.1.0","time_elapsed":140575,"subject_id":"92168","group":"Group2","condition":"1_Rep","full_date":"2026-01-28T16:49:12.386Z","date":"2026-01-28","time":"16:49:12"},{"task":"memory_phase","broad_category":"S","image_png":"S_Sandstone_04.png","image_id":452,"category_name":"Sandstone","category":29,"distinct_rating":1.8,"distinct_type":"Bottom","rt":null,"stimulus":"Stimuli_Rocks480/S_Sandstone_04.png","response":null,"trial_type":"image-keyboard-response","trial_index":73,"plugin_version":"2.1.0","time_elapsed":143093,"subject_id":"92168","group":"Group2","condition":"1_Rep","full_date":"2026-01-28T16:49:12.386Z","date":"2026-01-28","time":"16:49:12"},{"rt":null,"stimulus":"<p style=\"font-size: 50px; margin: 0; text-align: center;\">+</p>","response":null,"trial_type":"html-keyboard-response","trial_index":74,"plugin_version":"2.1.0","time_elapsed":144095,"subject_id":"92168","group":"Group2","condition":"1_Rep","full_date":"2026-01-28T16:49:12.386Z","date":"2026-01-28","time":"16:49:12"},{"task":"memory_phase","broad_category":"S","image_png":"S_Sandstone_08.png","image_id":456,"category_name":"Sandstone","category":29,"distinct_rating":1.5,"distinct_type":"Bottom","rt":null,"stimulus":"Stimuli_Rocks480/S_Sandstone_08.png","response":null,"trial_type":"image-keyboard-response","trial_index":75,"plugin_version":"2.1.0","time_elapsed":146609,"subject_id":"92168","group":"Group2","condition":"1_Rep","full_date":"2026-01-28T16:49:12.386Z","date":"2026-01-28","time":"16:49:12"},{"rt":null,"stimulus":"<p style=\"font-size: 50px; margin: 0; text-align: center;\">+</p>","response":null,"trial_type":"html-keyboard-response","trial_index":76,"plugin_version":"2.1.0","time_elapsed":147611,"subject_id":"92168","group":"Group2","condition":"1_Rep","full_date":"2026-01-28T16:49:12.386Z","date":"2026-01-28","time":"16:49:12"},{"task":"memory_phase","broad_category":"I","image_png":"I_Basalt_10.png","image_id":26,"category_name":"Basalt","category":2,"distinct_rating":2.76,"distinct_type":"Bottom","rt":null,"stimulus":"Stimuli_Rocks480/I_Basalt_10.png","response":null,"trial_type":"image-keyboard-response","trial_index":77,"plugin_version":"2.1.0","time_elapsed":150126,"subject_id":"92168","group":"Group2","condition":"1_Rep","full_date":"2026-01-28T16:49:12.386Z","date":"2026-01-28","time":"16:49:12"},{"rt":null,"stimulus":"<p style=\"font-size: 50px; margin: 0; text-align: center;\">+</p>","response":null,"trial_type":"html-keyboard-response","trial_index":78,"plugin_version":"2.1.0","time_elapsed":151128,"subject_id":"92168","group":"Group2","condition":"1_Rep","full_date":"2026-01-28T16:49:12.386Z","date":"2026-01-28","time":"16:49:12"},{"task":"memory_phase","broad_category":"S","image_png":"S_Rock Salt_13.png","image_id":445,"category_name":"Rock Salt","category":28,"distinct_rating":7.58,"distinct_type":"Top","rt":null,"stimulus":"Stimuli_Rocks480/S_Rock Salt_13.png","response":null,"trial_type":"image-keyboard-response","trial_index":79,"plugin_version":"2.1.0","time_elapsed":153646,"subject_id":"92168","group":"Group2","condition":"1_Rep","full_date":"2026-01-28T16:49:12.386Z","date":"2026-01-28","time":"16:49:12"},{"rt":null,"stimulus":"<p style=\"font-size: 50px; margin: 0; text-align: center;\">+</p>","response":null,"trial_type":"html-keyboard-response","trial_index":80,"plugin_version":"2.1.0","time_elapsed":154649,"subject_id":"92168","group":"Group2","condition":"1_Rep","full_date":"2026-01-28T16:49:12.386Z","date":"2026-01-28","time":"16:49:12"},{"task":"memory_phase","broad_category":"S","image_png":"S_Dolomite_01.png","image_id":385,"category_name":"Dolomite","category":25,"distinct_rating":1.43,"distinct_type":"Bottom","rt":null,"stimulus":"Stimuli_Rocks480/S_Dolomite_01.png","response":null,"trial_type":"image-keyboard-response","trial_index":81,"plugin_version":"2.1.0","time_elapsed":157167,"subject_id":"92168","group":"Group2","condition":"1_Rep","full_date":"2026-01-28T16:49:12.386Z","date":"2026-01-28","time":"16:49:12"},{"rt":null,"stimulus":"<p style=\"font-size: 50px; margin: 0; text-align: center;\">+</p>","response":null,"trial_type":"html-keyboard-response","trial_index":82,"plugin_version":"2.1.0","time_elapsed":158169,"subject_id":"92168","group":"Group2","condition":"1_Rep","full_date":"2026-01-28T16:49:12.386Z","date":"2026-01-28","time":"16:49:12"},{"task":"memory_phase","broad_category":"M","image_png":"M_Slate_10.png","image_id":314,"category_name":"Slate","category":20,"distinct_rating":1.94,"distinct_type":"Bottom","rt":null,"stimulus":"Stimuli_Rocks480/M_Slate_10.png","response":null,"trial_type":"image-keyboard-response","trial_index":83,"plugin_version":"2.1.0","time_elapsed":160682,"subject_id":"92168","group":"Group2","condition":"1_Rep","full_date":"2026-01-28T16:49:12.386Z","date":"2026-01-28","time":"16:49:12"},{"rt":null,"stimulus":"<p style=\"font-size: 50px; margin: 0; text-align: center;\">+</p>","response":null,"trial_type":"html-keyboard-response","trial_index":84,"plugin_version":"2.1.0","time_elapsed":161684,"subject_id":"92168","group":"Group2","condition":"1_Rep","full_date":"2026-01-28T16:49:12.386Z","date":"2026-01-28","time":"16:49:12"},{"task":"memory_phase","broad_category":"M","image_png":"M_Marble_03.png","image_id":227,"category_name":"Marble","category":15,"distinct_rating":2.67,"distinct_type":"Bottom","rt":null,"stimulus":"Stimuli_Rocks480/M_Marble_03.png","response":null,"trial_type":"image-keyboard-response","trial_index":85,"plugin_version":"2.1.0","time_elapsed":164198,"subject_id":"92168","group":"Group2","condition":"1_Rep","full_date":"2026-01-28T16:49:12.386Z","date":"2026-01-28","time":"16:49:12"},{"rt":null,"stimulus":"<p style=\"font-size: 50px; margin: 0; text-align: center;\">+</p>","response":null,"trial_type":"html-keyboard-response","trial_index":86,"plugin_version":"2.1.0","time_elapsed":165201,"subject_id":"92168","group":"Group2","condition":"1_Rep","full_date":"2026-01-28T16:49:12.386Z","date":"2026-01-28","time":"16:49:12"},{"task":"memory_phase","broad_category":"I","image_png":"I_Diorite_01.png","image_id":33,"category_name":"Diorite","category":3,"distinct_rating":2.97,"distinct_type":"Bottom","rt":null,"stimulus":"Stimuli_Rocks480/I_Diorite_01.png","response":null,"trial_type":"image-keyboard-response","trial_index":87,"plugin_version":"2.1.0","time_elapsed":167721,"subject_id":"92168","group":"Group2","condition":"1_Rep","full_date":"2026-01-28T16:49:12.386Z","date":"2026-01-28","time":"16:49:12"},{"rt":null,"stimulus":"<p style=\"font-size: 50px; margin: 0; text-align: center;\">+</p>","response":null,"trial_type":"html-keyboard-response","trial_index":88,"plugin_version":"2.1.0","time_elapsed":168724,"subject_id":"92168","group":"Group2","condition":"1_Rep","full_date":"2026-01-28T16:49:12.386Z","date":"2026-01-28","time":"16:49:12"},{"task":"memory_phase","broad_category":"I","image_png":"I_Andesite_09.png","image_id":9,"category_name":"Andesite","category":1,"distinct_rating":2.49,"distinct_type":"Bottom","rt":null,"stimulus":"Stimuli_Rocks480/I_Andesite_09.png","response":null,"trial_type":"image-keyboard-response","trial_index":89,"plugin_version":"2.1.0","time_elapsed":171238,"subject_id":"92168","group":"Group2","condition":"1_Rep","full_date":"2026-01-28T16:49:12.386Z","date":"2026-01-28","time":"16:49:12"},{"rt":null,"stimulus":"<p style=\"font-size: 50px; margin: 0; text-align: center;\">+</p>","response":null,"trial_type":"html-keyboard-response","trial_index":90,"plugin_version":"2.1.0","time_elapsed":172240,"subject_id":"92168","group":"Group2","condition":"1_Rep","full_date":"2026-01-28T16:49:12.386Z","date":"2026-01-28","time":"16:49:12"},{"task":"memory_phase","broad_category":"M","image_png":"M_Phyllite_13.png","image_id":269,"category_name":"Phyllite","category":17,"distinct_rating":2.8,"distinct_type":"Bottom","rt":null,"stimulus":"Stimuli_Rocks480/M_Phyllite_13.png","response":null,"trial_type":"image-keyboard-response","trial_index":91,"plugin_version":"2.1.0","time_elapsed":174755,"subject_id":"92168","group":"Group2","condition":"1_Rep","full_date":"2026-01-28T16:49:12.386Z","date":"2026-01-28","time":"16:49:12"},{"rt":null,"stimulus":"<p style=\"font-size: 50px; margin: 0; text-align: center;\">+</p>","response":null,"trial_type":"html-keyboard-response","trial_index":92,"plugin_version":"2.1.0","time_elapsed":175757,"subject_id":"92168","group":"Group2","condition":"1_Rep","full_date":"2026-01-28T16:49:12.386Z","date":"2026-01-28","time":"16:49:12"},{"task":"memory_phase","broad_category":"I","image_png":"I_Basalt_13.png","image_id":29,"category_name":"Basalt","category":2,"distinct_rating":2.68,"distinct_type":"Bottom","rt":null,"stimulus":"Stimuli_Rocks480/I_Basalt_13.png","response":null,"trial_type":"image-keyboard-response","trial_index":93,"plugin_version":"2.1.0","time_elapsed":178271,"subject_id":"92168","group":"Group2","condition":"1_Rep","full_date":"2026-01-28T16:49:12.386Z","date":"2026-01-28","time":"16:49:12"},{"rt":null,"stimulus":"<p style=\"font-size: 50px; margin: 0; text-align: center;\">+</p>","response":null,"trial_type":"html-keyboard-response","trial_index":94,"plugin_version":"2.1.0","time_elapsed":179273,"subject_id":"92168","group":"Group2","condition":"1_Rep","full_date":"2026-01-28T16:49:12.386Z","date":"2026-01-28","time":"16:49:12"},{"task":"memory_phase","broad_category":"M","image_png":"M_Slate_14.png","image_id":318,"category_name":"Slate","category":20,"distinct_rating":2.58,"distinct_type":"Bottom","rt":null,"stimulus":"Stimuli_Rocks480/M_Slate_14.png","response":null,"trial_type":"image-keyboard-response","trial_index":95,"plugin_version":"2.1.0","time_elapsed":181784,"subject_id":"92168","group":"Group2","condition":"1_Rep","full_date":"2026-01-28T16:49:12.386Z","date":"2026-01-28","time":"16:49:12"},{"rt":null,"stimulus":"<p style=\"font-size: 50px; margin: 0; text-align: center;\">+</p>","response":null,"trial_type":"html-keyboard-response","trial_index":96,"plugin_version":"2.1.0","time_elapsed":182786,"subject_id":"92168","group":"Group2","condition":"1_Rep","full_date":"2026-01-28T16:49:12.386Z","date":"2026-01-28","time":"16:49:12"},{"task":"memory_phase","broad_category":"M","image_png":"M_Phyllite_02.png","image_id":258,"category_name":"Phyllite","category":17,"distinct_rating":2.89,"distinct_type":"Bottom","rt":null,"stimulus":"Stimuli_Rocks480/M_Phyllite_02.png","response":null,"trial_type":"image-keyboard-response","trial_index":97,"plugin_version":"2.1.0","time_elapsed":185304,"subject_id":"92168","group":"Group2","condition":"1_Rep","full_date":"2026-01-28T16:49:12.386Z","date":"2026-01-28","time":"16:49:12"},{"rt":null,"stimulus":"<p style=\"font-size: 50px; margin: 0; text-align: center;\">+</p>","response":null,"trial_type":"html-keyboard-response","trial_index":98,"plugin_version":"2.1.0","time_elapsed":186306,"subject_id":"92168","group":"Group2","condition":"1_Rep","full_date":"2026-01-28T16:49:12.386Z","date":"2026-01-28","time":"16:49:12"},{"task":"memory_phase","broad_category":"I","image_png":"I_Pegmatite_11.png","image_id":107,"category_name":"Pegmatite","category":7,"distinct_rating":7.11,"distinct_type":"Top","rt":null,"stimulus":"Stimuli_Rocks480/I_Pegmatite_11.png","response":null,"trial_type":"image-keyboard-response","trial_index":99,"plugin_version":"2.1.0","time_elapsed":188825,"subject_id":"92168","group":"Group2","condition":"1_Rep","full_date":"2026-01-28T16:49:12.386Z","date":"2026-01-28","time":"16:49:12"},{"rt":null,"stimulus":"<p style=\"font-size: 50px; margin: 0; text-align: center;\">+</p>","response":null,"trial_type":"html-keyboard-response","trial_index":100,"plugin_version":"2.1.0","time_elapsed":189828,"subject_id":"92168","group":"Group2","condition":"1_Rep","full_date":"2026-01-28T16:49:12.386Z","date":"2026-01-28","time":"16:49:12"},{"task":"memory_phase","broad_category":"I","image_png":"I_Diorite_15.png","image_id":47,"category_name":"Diorite","category":3,"distinct_rating":3.05,"distinct_type":"Bottom","rt":null,"stimulus":"Stimuli_Rocks480/I_Diorite_15.png","response":null,"trial_type":"image-keyboard-response","trial_index":101,"plugin_version":"2.1.0","time_elapsed":192340,"subject_id":"92168","group":"Group2","condition":"1_Rep","full_date":"2026-01-28T16:49:12.386Z","date":"2026-01-28","time":"16:49:12"},{"rt":null,"stimulus":"<p style=\"font-size: 50px; margin: 0; text-align: center;\">+</p>","response":null,"trial_type":"html-keyboard-response","trial_index":102,"plugin_version":"2.1.0","time_elapsed":193343,"subject_id":"92168","group":"Group2","condition":"1_Rep","full_date":"2026-01-28T16:49:12.386Z","date":"2026-01-28","time":"16:49:12"},{"task":"memory_phase","broad_category":"I","image_png":"I_Pegmatite_03.png","image_id":99,"category_name":"Pegmatite","category":7,"distinct_rating":7.24,"distinct_type":"Top","rt":null,"stimulus":"Stimuli_Rocks480/I_Pegmatite_03.png","response":null,"trial_type":"image-keyboard-response","trial_index":103,"plugin_version":"2.1.0","time_elapsed":195857,"subject_id":"92168","group":"Group2","condition":"1_Rep","full_date":"2026-01-28T16:49:12.386Z","date":"2026-01-28","time":"16:49:12"},{"rt":null,"stimulus":"<p style=\"font-size: 50px; margin: 0; text-align: center;\">+</p>","response":null,"trial_type":"html-keyboard-response","trial_index":104,"plugin_version":"2.1.0","time_elapsed":196859,"subject_id":"92168","group":"Group2","condition":"1_Rep","full_date":"2026-01-28T16:49:12.386Z","date":"2026-01-28","time":"16:49:12"},{"task":"memory_phase","broad_category":"S","image_png":"S_Shale_07.png","image_id":471,"category_name":"Shale","category":30,"distinct_rating":2.73,"distinct_type":"Bottom","rt":null,"stimulus":"Stimuli_Rocks480/S_Shale_07.png","response":null,"trial_type":"image-keyboard-response","trial_index":105,"plugin_version":"2.1.0","time_elapsed":199374,"subject_id":"92168","group":"Group2","condition":"1_Rep","full_date":"2026-01-28T16:49:12.386Z","date":"2026-01-28","time":"16:49:12"},{"rt":62327,"stimulus":"<div style=\"max-width: 760px; margin: auto; font-size: 20px; line-height: 1.5;\">\n      <h1 style=\"text-align:center; font-size: 30px;\">Instructions for the Test Phase</h1>\n      <p>\n        The study phase is now complete.\n      </p>\n      <p>\n        In the test phase, you will again see a series of rock images. \n        Some will be ones you saw before - during the study phase, while others will be new.  \n        <b>Your task</b> is to decide whether you have seen each image before by pressing the corresponding key on your keyboard:<br><br>\n          <b>A</b> - NO (you did not see this image before)<br>\n          <b>L</b> - YES (you saw this image before)<br><br>\n        The test will proceed at your own pace. You will receive feedback after each response.  \n        Please try to respond <b>as accurately as possible</b>.\n      </p>\n      <p>\n        <b>Reminder:</b> If your computer has multiple language settings (e.g., English and another language),\n        please ensure it is set to English during the test phase.\n      </p>\n      <p>\n        You can track your progress using the <b>completion bar</b> at the top of the screen.  \n        Note that it has been refreshed to reflect your progress during this final phase.\n      </p>\n      <p>\n        Press the button below when you are ready to continue.\n      </p>\n    </div>","response":0,"trial_type":"html-button-response","trial_index":106,"plugin_version":"2.1.0","time_elapsed":261704,"subject_id":"92168","group":"Group2","condition":"1_Rep","full_date":"2026-01-28T16:49:12.386Z","date":"2026-01-28","time":"16:49:12"},{"correct_response":"l","task":"test_phase","broad_category":"M","image_png":"M_Slate_10.png","image_id":314,"category_name":"Slate","category":20,"distinct_rating":1.94,"distinct_type":"Bottom","item_type":"Target","rt":2310,"stimulus":"Stimuli_Rocks480/M_Slate_10.png","response":"l","trial_type":"image-keyboard-response","trial_index":107,"plugin_version":"2.1.0","time_elapsed":264016,"subject_id":"92168","group":"Group2","condition":"1_Rep","full_date":"2026-01-28T16:49:12.386Z","date":"2026-01-28","time":"16:49:12","cor_ans":true},{"trial_type":"html-keyboard-response","rt":null,"stimulus":"<p style=\"color: green; font-size: 50px; font-weight: bold;\">Correct</p>","response":null,"trial_index":108,"plugin_version":"2.1.0","time_elapsed":264519,"subject_id":"92168","group":"Group2","condition":"1_Rep","full_date":"2026-01-28T16:49:12.386Z","date":"2026-01-28","time":"16:49:12"},{"correct_response":"a","task":"test_phase","broad_category":"S","image_png":"S_Rock Salt_01.png","image_id":433,"category_name":"Rock Salt","category":28,"distinct_rating":7.18,"distinct_type":"Top","item_type":"Foil","rt":1579,"stimulus":"Stimuli_Rocks480/S_Rock Salt_01.png","response":"l","trial_type":"image-keyboard-response","trial_index":109,"plugin_version":"2.1.0","time_elapsed":266115,"subject_id":"92168","group":"Group2","condition":"1_Rep","full_date":"2026-01-28T16:49:12.386Z","date":"2026-01-28","time":"16:49:12","cor_ans":false},{"trial_type":"html-keyboard-response","rt":null,"stimulus":"<p style=\"color: red; font-size: 50px; font-weight: bold;\">Incorrect</p>","response":null,"trial_index":110,"plugin_version":"2.1.0","time_elapsed":266618,"subject_id":"92168","group":"Group2","condition":"1_Rep","full_date":"2026-01-28T16:49:12.386Z","date":"2026-01-28","time":"16:49:12"},{"correct_response":"a","task":"test_phase","broad_category":"I","image_png":"I_Rhyolite_14.png","image_id":158,"category_name":"Rhyolite","category":10,"distinct_rating":2.59,"distinct_type":"Bottom","item_type":"Foil","rt":806,"stimulus":"Stimuli_Rocks480/I_Rhyolite_14.png","response":"l","trial_type":"image-keyboard-response","trial_index":111,"plugin_version":"2.1.0","time_elapsed":267438,"subject_id":"92168","group":"Group2","condition":"1_Rep","full_date":"2026-01-28T16:49:12.386Z","date":"2026-01-28","time":"16:49:12","cor_ans":false},{"trial_type":"html-keyboard-response","rt":null,"stimulus":"<p style=\"color: red; font-size: 50px; font-weight: bold;\">Incorrect</p>","response":null,"trial_index":112,"plugin_version":"2.1.0","time_elapsed":267940,"subject_id":"92168","group":"Group2","condition":"1_Rep","full_date":"2026-01-28T16:49:12.386Z","date":"2026-01-28","time":"16:49:12"},{"correct_response":"l","task":"test_phase","broad_category":"I","image_png":"I_Rhyolite_05.png","image_id":149,"category_name":"Rhyolite","category":10,"distinct_rating":3.02,"distinct_type":"Bottom","item_type":"Target","rt":744,"stimulus":"Stimuli_Rocks480/I_Rhyolite_05.png","response":"l","trial_type":"image-keyboard-response","trial_index":113,"plugin_version":"2.1.0","time_elapsed":268701,"subject_id":"92168","group":"Group2","condition":"1_Rep","full_date":"2026-01-28T16:49:12.386Z","date":"2026-01-28","time":"16:49:12","cor_ans":true},{"trial_type":"html-keyboard-response","rt":null,"stimulus":"<p style=\"color: green; font-size: 50px; font-weight: bold;\">Correct</p>","response":null,"trial_index":114,"plugin_version":"2.1.0","time_elapsed":269203,"subject_id":"92168","group":"Group2","condition":"1_Rep","full_date":"2026-01-28T16:49:12.386Z","date":"2026-01-28","time":"16:49:12"},{"correct_response":"l","task":"test_phase","broad_category":"S","image_png":"S_Shale_07.png","image_id":471,"category_name":"Shale","category":30,"distinct_rating":2.73,"distinct_type":"Bottom","item_type":"Target","rt":1042,"stimulus":"Stimuli_Rocks480/S_Shale_07.png","response":"a","trial_type":"image-keyboard-response","trial_index":115,"plugin_version":"2.1.0","time_elapsed":270247,"subject_id":"92168","group":"Group2","condition":"1_Rep","full_date":"2026-01-28T16:49:12.386Z","date":"2026-01-28","time":"16:49:12","cor_ans":false},{"trial_type":"html-keyboard-response","rt":null,"stimulus":"<p style=\"color: red; font-size: 50px; font-weight: bold;\">Incorrect</p>","response":null,"trial_index":116,"plugin_version":"2.1.0","time_elapsed":270750,"subject_id":"92168","group":"Group2","condition":"1_Rep","full_date":"2026-01-28T16:49:12.386Z","date":"2026-01-28","time":"16:49:12"},{"correct_response":"a","task":"test_phase","broad_category":"S","image_png":"S_Chert_10.png","image_id":362,"category_name":"Chert","category":23,"distinct_rating":7.17,"distinct_type":"Top","item_type":"Foil","rt":859,"stimulus":"Stimuli_Rocks480/S_Chert_10.png","response":"a","trial_type":"image-keyboard-response","trial_index":117,"plugin_version":"2.1.0","time_elapsed":271623,"subject_id":"92168","group":"Group2","condition":"1_Rep","full_date":"2026-01-28T16:49:12.386Z","date":"2026-01-28","time":"16:49:12","cor_ans":true},{"trial_type":"html-keyboard-response","rt":null,"stimulus":"<p style=\"color: green; font-size: 50px; font-weight: bold;\">Correct</p>","response":null,"trial_index":118,"plugin_version":"2.1.0","time_elapsed":272126,"subject_id":"92168","group":"Group2","condition":"1_Rep","full_date":"2026-01-28T16:49:12.386Z","date":"2026-01-28","time":"16:49:12"},{"correct_response":"l","task":"test_phase","broad_category":"S","image_png":"S_Dolomite_07.png","image_id":391,"category_name":"Dolomite","category":25,"distinct_rating":1.73,"distinct_type":"Bottom","item_type":"Target","rt":645,"stimulus":"Stimuli_Rocks480/S_Dolomite_07.png","response":"l","trial_type":"image-keyboard-response","trial_index":119,"plugin_version":"2.1.0","time_elapsed":272784,"subject_id":"92168","group":"Group2","condition":"1_Rep","full_date":"2026-01-28T16:49:12.386Z","date":"2026-01-28","time":"16:49:12","cor_ans":true},{"trial_type":"html-keyboard-response","rt":null,"stimulus":"<p style=\"color: green; font-size: 50px; font-weight: bold;\">Correct</p>","response":null,"trial_index":120,"plugin_version":"2.1.0","time_elapsed":273286,"subject_id":"92168","group":"Group2","condition":"1_Rep","full_date":"2026-01-28T16:49:12.386Z","date":"2026-01-28","time":"16:49:12"},{"correct_response":"a","task":"test_phase","broad_category":"I","image_png":"I_Basalt_09.png","image_id":25,"category_name":"Basalt","category":2,"distinct_rating":1.89,"distinct_type":"Bottom","item_type":"Foil","rt":1260,"stimulus":"Stimuli_Rocks480/I_Basalt_09.png","response":"l","trial_type":"image-keyboard-response","trial_index":121,"plugin_version":"2.1.0","time_elapsed":274557,"subject_id":"92168","group":"Group2","condition":"1_Rep","full_date":"2026-01-28T16:49:12.386Z","date":"2026-01-28","time":"16:49:12","cor_ans":false},{"trial_type":"html-keyboard-response","rt":null,"stimulus":"<p style=\"color: red; font-size: 50px; font-weight: bold;\">Incorrect</p>","response":null,"trial_index":122,"plugin_version":"2.1.0","time_elapsed":275060,"subject_id":"92168","group":"Group2","condition":"1_Rep","full_date":"2026-01-28T16:49:12.386Z","date":"2026-01-28","time":"16:49:12"},{"correct_response":"l","task":"test_phase","broad_category":"I","image_png":"I_Diorite_01.png","image_id":33,"category_name":"Diorite","category":3,"distinct_rating":2.97,"distinct_type":"Bottom","item_type":"Target","rt":1001,"stimulus":"Stimuli_Rocks480/I_Diorite_01.png","response":"a","trial_type":"image-keyboard-response","trial_index":123,"plugin_version":"2.1.0","time_elapsed":276078,"subject_id":"92168","group":"Group2","condition":"1_Rep","full_date":"2026-01-28T16:49:12.386Z","date":"2026-01-28","time":"16:49:12","cor_ans":false},{"trial_type":"html-keyboard-response","rt":null,"stimulus":"<p style=\"color: red; font-size: 50px; font-weight: bold;\">Incorrect</p>","response":null,"trial_index":124,"plugin_version":"2.1.0","time_elapsed":276581,"subject_id":"92168","group":"Group2","condition":"1_Rep","full_date":"2026-01-28T16:49:12.386Z","date":"2026-01-28","time":"16:49:12"},{"correct_response":"l","task":"test_phase","broad_category":"S","image_png":"S_Sandstone_04.png","image_id":452,"category_name":"Sandstone","category":29,"distinct_rating":1.8,"distinct_type":"Bottom","item_type":"Target","rt":751,"stimulus":"Stimuli_Rocks480/S_Sandstone_04.png","response":"l","trial_type":"image-keyboard-response","trial_index":125,"plugin_version":"2.1.0","time_elapsed":277347,"subject_id":"92168","group":"Group2","condition":"1_Rep","full_date":"2026-01-28T16:49:12.386Z","date":"2026-01-28","time":"16:49:12","cor_ans":true},{"trial_type":"html-keyboard-response","rt":null,"stimulus":"<p style=\"color: green; font-size: 50px; font-weight: bold;\">Correct</p>","response":null,"trial_index":126,"plugin_version":"2.1.0","time_elapsed":277850,"subject_id":"92168","group":"Group2","condition":"1_Rep","full_date":"2026-01-28T16:49:12.386Z","date":"2026-01-28","time":"16:49:12"},{"correct_response":"l","task":"test_phase","broad_category":"S","image_png":"S_Sandstone_08.png","image_id":456,"category_name":"Sandstone","category":29,"distinct_rating":1.5,"distinct_type":"Bottom","item_type":"Target","rt":1143,"stimulus":"Stimuli_Rocks480/S_Sandstone_08.png","response":"a","trial_type":"image-keyboard-response","trial_index":127,"plugin_version":"2.1.0","time_elapsed":279007,"subject_id":"92168","group":"Group2","condition":"1_Rep","full_date":"2026-01-28T16:49:12.386Z","date":"2026-01-28","time":"16:49:12","cor_ans":false},{"trial_type":"html-keyboard-response","rt":null,"stimulus":"<p style=\"color: red; font-size: 50px; font-weight: bold;\">Incorrect</p>","response":null,"trial_index":128,"plugin_version":"2.1.0","time_elapsed":279509,"subject_id":"92168","group":"Group2","condition":"1_Rep","full_date":"2026-01-28T16:49:12.386Z","date":"2026-01-28","time":"16:49:12"},{"correct_response":"a","task":"test_phase","broad_category":"I","image_png":"I_Pumice_08.png","image_id":136,"category_name":"Pumice","category":9,"distinct_rating":3.1,"distinct_type":"Bottom","item_type":"Foil","rt":786,"stimulus":"Stimuli_Rocks480/I_Pumice_08.png","response":"l","trial_type":"image-keyboard-response","trial_index":129,"plugin_version":"2.1.0","time_elapsed":280310,"subject_id":"92168","group":"Group2","condition":"1_Rep","full_date":"2026-01-28T16:49:12.386Z","date":"2026-01-28","time":"16:49:12","cor_ans":false},{"trial_type":"html-keyboard-response","rt":null,"stimulus":"<p style=\"color: red; font-size: 50px; font-weight: bold;\">Incorrect</p>","response":null,"trial_index":130,"plugin_version":"2.1.0","time_elapsed":280812,"subject_id":"92168","group":"Group2","condition":"1_Rep","full_date":"2026-01-28T16:49:12.386Z","date":"2026-01-28","time":"16:49:12"},{"correct_response":"a","task":"test_phase","broad_category":"S","image_png":"S_Shale_01.png","image_id":465,"category_name":"Shale","category":30,"distinct_rating":2.7,"distinct_type":"Bottom","item_type":"Foil","rt":583,"stimulus":"Stimuli_Rocks480/S_Shale_01.png","response":"l","trial_type":"image-keyboard-response","trial_index":131,"plugin_version":"2.1.0","time_elapsed":281409,"subject_id":"92168","group":"Group2","condition":"1_Rep","full_date":"2026-01-28T16:49:12.386Z","date":"2026-01-28","time":"16:49:12","cor_ans":false},{"trial_type":"html-keyboard-response","rt":null,"stimulus":"<p style=\"color: red; font-size: 50px; font-weight: bold;\">Incorrect</p>","response":null,"trial_index":132,"plugin_version":"2.1.0","time_elapsed":281911,"subject_id":"92168","group":"Group2","condition":"1_Rep","full_date":"2026-01-28T16:49:12.386Z","date":"2026-01-28","time":"16:49:12"},{"correct_response":"a","task":"test_phase","broad_category":"M","image_png":"M_Quartzite_08.png","image_id":280,"category_name":"Quartzite","category":18,"distinct_rating":2.15,"distinct_type":"Bottom","item_type":"Foil","rt":552,"stimulus":"Stimuli_Rocks480/M_Quartzite_08.png","response":"l","trial_type":"image-keyboard-response","trial_index":133,"plugin_version":"2.1.0","time_elapsed":282477,"subject_id":"92168","group":"Group2","condition":"1_Rep","full_date":"2026-01-28T16:49:12.386Z","date":"2026-01-28","time":"16:49:12","cor_ans":false},{"trial_type":"html-keyboard-response","rt":null,"stimulus":"<p style=\"color: red; font-size: 50px; font-weight: bold;\">Incorrect</p>","response":null,"trial_index":134,"plugin_version":"2.1.0","time_elapsed":282979,"subject_id":"92168","group":"Group2","condition":"1_Rep","full_date":"2026-01-28T16:49:12.386Z","date":"2026-01-28","time":"16:49:12"},{"correct_response":"l","task":"test_phase","broad_category":"M","image_png":"M_Gneiss_15.png","image_id":207,"category_name":"Gneiss","category":13,"distinct_rating":3.11,"distinct_type":"Bottom","item_type":"Target","rt":522,"stimulus":"Stimuli_Rocks480/M_Gneiss_15.png","response":"l","trial_type":"image-keyboard-response","trial_index":135,"plugin_version":"2.1.0","time_elapsed":283513,"subject_id":"92168","group":"Group2","condition":"1_Rep","full_date":"2026-01-28T16:49:12.386Z","date":"2026-01-28","time":"16:49:12","cor_ans":true},{"trial_type":"html-keyboard-response","rt":null,"stimulus":"<p style=\"color: green; font-size: 50px; font-weight: bold;\">Correct</p>","response":null,"trial_index":136,"plugin_version":"2.1.0","time_elapsed":284017,"subject_id":"92168","group":"Group2","condition":"1_Rep","full_date":"2026-01-28T16:49:12.386Z","date":"2026-01-28","time":"16:49:12"},{"correct_response":"l","task":"test_phase","broad_category":"S","image_png":"S_Rock Salt_15.png","image_id":447,"category_name":"Rock Salt","category":28,"distinct_rating":7.79,"distinct_type":"Top","item_type":"Target","rt":1108,"stimulus":"Stimuli_Rocks480/S_Rock Salt_15.png","response":"l","trial_type":"image-keyboard-response","trial_index":137,"plugin_version":"2.1.0","time_elapsed":285139,"subject_id":"92168","group":"Group2","condition":"1_Rep","full_date":"2026-01-28T16:49:12.386Z","date":"2026-01-28","time":"16:49:12","cor_ans":true},{"trial_type":"html-keyboard-response","rt":null,"stimulus":"<p style=\"color: green; font-size: 50px; font-weight: bold;\">Correct</p>","response":null,"trial_index":138,"plugin_version":"2.1.0","time_elapsed":285641,"subject_id":"92168","group":"Group2","condition":"1_Rep","full_date":"2026-01-28T16:49:12.386Z","date":"2026-01-28","time":"16:49:12"},{"correct_response":"l","task":"test_phase","broad_category":"I","image_png":"I_Basalt_13.png","image_id":29,"category_name":"Basalt","category":2,"distinct_rating":2.68,"distinct_type":"Bottom","item_type":"Target","rt":945,"stimulus":"Stimuli_Rocks480/I_Basalt_13.png","response":"a","trial_type":"image-keyboard-response","trial_index":139,"plugin_version":"2.1.0","time_elapsed":286589,"subject_id":"92168","group":"Group2","condition":"1_Rep","full_date":"2026-01-28T16:49:12.386Z","date":"2026-01-28","time":"16:49:12","cor_ans":false},{"trial_type":"html-keyboard-response","rt":null,"stimulus":"<p style=\"color: red; font-size: 50px; font-weight: bold;\">Incorrect</p>","response":null,"trial_index":140,"plugin_version":"2.1.0","time_elapsed":287091,"subject_id":"92168","group":"Group2","condition":"1_Rep","full_date":"2026-01-28T16:49:12.386Z","date":"2026-01-28","time":"16:49:12"},{"correct_response":"a","task":"test_phase","broad_category":"S","image_png":"S_Shale_12.png","image_id":476,"category_name":"Shale","category":30,"distinct_rating":2.48,"distinct_type":"Bottom","item_type":"Foil","rt":1390,"stimulus":"Stimuli_Rocks480/S_Shale_12.png","response":"l","trial_type":"image-keyboard-response","trial_index":141,"plugin_version":"2.1.0","time_elapsed":288497,"subject_id":"92168","group":"Group2","condition":"1_Rep","full_date":"2026-01-28T16:49:12.386Z","date":"2026-01-28","time":"16:49:12","cor_ans":false},{"trial_type":"html-keyboard-response","rt":null,"stimulus":"<p style=\"color: red; font-size: 50px; font-weight: bold;\">Incorrect</p>","response":null,"trial_index":142,"plugin_version":"2.1.0","time_elapsed":289000,"subject_id":"92168","group":"Group2","condition":"1_Rep","full_date":"2026-01-28T16:49:12.386Z","date":"2026-01-28","time":"16:49:12"},{"correct_response":"a","task":"test_phase","broad_category":"M","image_png":"M_Slate_03.png","image_id":307,"category_name":"Slate","category":20,"distinct_rating":1.87,"distinct_type":"Bottom","item_type":"Foil","rt":759,"stimulus":"Stimuli_Rocks480/M_Slate_03.png","response":"a","trial_type":"image-keyboard-response","trial_index":143,"plugin_version":"2.1.0","time_elapsed":289773,"subject_id":"92168","group":"Group2","condition":"1_Rep","full_date":"2026-01-28T16:49:12.386Z","date":"2026-01-28","time":"16:49:12","cor_ans":true},{"trial_type":"html-keyboard-response","rt":null,"stimulus":"<p style=\"color: green; font-size: 50px; font-weight: bold;\">Correct</p>","response":null,"trial_index":144,"plugin_version":"2.1.0","time_elapsed":290275,"subject_id":"92168","group":"Group2","condition":"1_Rep","full_date":"2026-01-28T16:49:12.386Z","date":"2026-01-28","time":"16:49:12"},{"correct_response":"a","task":"test_phase","broad_category":"M","image_png":"M_Phyllite_07.png","image_id":263,"category_name":"Phyllite","category":17,"distinct_rating":2.59,"distinct_type":"Bottom","item_type":"Foil","rt":1455,"stimulus":"Stimuli_Rocks480/M_Phyllite_07.png","response":"a","trial_type":"image-keyboard-response","trial_index":145,"plugin_version":"2.1.0","time_elapsed":291741,"subject_id":"92168","group":"Group2","condition":"1_Rep","full_date":"2026-01-28T16:49:12.386Z","date":"2026-01-28","time":"16:49:12","cor_ans":true},{"trial_type":"html-keyboard-response","rt":null,"stimulus":"<p style=\"color: green; font-size: 50px; font-weight: bold;\">Correct</p>","response":null,"trial_index":146,"plugin_version":"2.1.0","time_elapsed":292244,"subject_id":"92168","group":"Group2","condition":"1_Rep","full_date":"2026-01-28T16:49:12.386Z","date":"2026-01-28","time":"16:49:12"},{"correct_response":"a","task":"test_phase","broad_category":"I","image_png":"I_Diorite_03.png","image_id":35,"category_name":"Diorite","category":3,"distinct_rating":3.14,"distinct_type":"Bottom","item_type":"Foil","rt":672,"stimulus":"Stimuli_Rocks480/I_Diorite_03.png","response":"l","trial_type":"image-keyboard-response","trial_index":147,"plugin_version":"2.1.0","time_elapsed":292932,"subject_id":"92168","group":"Group2","condition":"1_Rep","full_date":"2026-01-28T16:49:12.386Z","date":"2026-01-28","time":"16:49:12","cor_ans":false},{"trial_type":"html-keyboard-response","rt":null,"stimulus":"<p style=\"color: red; font-size: 50px; font-weight: bold;\">Incorrect</p>","response":null,"trial_index":148,"plugin_version":"2.1.0","time_elapsed":293435,"subject_id":"92168","group":"Group2","condition":"1_Rep","full_date":"2026-01-28T16:49:12.386Z","date":"2026-01-28","time":"16:49:12"},{"correct_response":"a","task":"test_phase","broad_category":"I","image_png":"I_Gabbro_11.png","image_id":59,"category_name":"Gabbro","category":4,"distinct_rating":1.99,"distinct_type":"Bottom","item_type":"Foil","rt":520,"stimulus":"Stimuli_Rocks480/I_Gabbro_11.png","response":"a","trial_type":"image-keyboard-response","trial_index":149,"plugin_version":"2.1.0","time_elapsed":293965,"subject_id":"92168","group":"Group2","condition":"1_Rep","full_date":"2026-01-28T16:49:12.386Z","date":"2026-01-28","time":"16:49:12","cor_ans":true},{"trial_type":"html-keyboard-response","rt":null,"stimulus":"<p style=\"color: green; font-size: 50px; font-weight: bold;\">Correct</p>","response":null,"trial_index":150,"plugin_version":"2.1.0","time_elapsed":294467,"subject_id":"92168","group":"Group2","condition":"1_Rep","full_date":"2026-01-28T16:49:12.386Z","date":"2026-01-28","time":"16:49:12"},{"correct_response":"l","task":"test_phase","broad_category":"I","image_png":"I_Rhyolite_08.png","image_id":152,"category_name":"Rhyolite","category":10,"distinct_rating":1.38,"distinct_type":"Bottom","item_type":"Target","rt":1080,"stimulus":"Stimuli_Rocks480/I_Rhyolite_08.png","response":"l","trial_type":"image-keyboard-response","trial_index":151,"plugin_version":"2.1.0","time_elapsed":295561,"subject_id":"92168","group":"Group2","condition":"1_Rep","full_date":"2026-01-28T16:49:12.386Z","date":"2026-01-28","time":"16:49:12","cor_ans":true},{"trial_type":"html-keyboard-response","rt":null,"stimulus":"<p style=\"color: green; font-size: 50px; font-weight: bold;\">Correct</p>","response":null,"trial_index":152,"plugin_version":"2.1.0","time_elapsed":296063,"subject_id":"92168","group":"Group2","condition":"1_Rep","full_date":"2026-01-28T16:49:12.386Z","date":"2026-01-28","time":"16:49:12"},{"correct_response":"l","task":"test_phase","broad_category":"S","image_png":"S_Conglomerate_14.png","image_id":382,"category_name":"Conglomerate","category":24,"distinct_rating":6.86,"distinct_type":"Top","item_type":"Target","rt":906,"stimulus":"Stimuli_Rocks480/S_Conglomerate_14.png","response":"a","trial_type":"image-keyboard-response","trial_index":153,"plugin_version":"2.1.0","time_elapsed":296981,"subject_id":"92168","group":"Group2","condition":"1_Rep","full_date":"2026-01-28T16:49:12.386Z","date":"2026-01-28","time":"16:49:12","cor_ans":false},{"trial_type":"html-keyboard-response","rt":null,"stimulus":"<p style=\"color: red; font-size: 50px; font-weight: bold;\">Incorrect</p>","response":null,"trial_index":154,"plugin_version":"2.1.0","time_elapsed":297483,"subject_id":"92168","group":"Group2","condition":"1_Rep","full_date":"2026-01-28T16:49:12.386Z","date":"2026-01-28","time":"16:49:12"},{"correct_response":"a","task":"test_phase","broad_category":"I","image_png":"I_Gabbro_08.png","image_id":56,"category_name":"Gabbro","category":4,"distinct_rating":3.02,"distinct_type":"Bottom","item_type":"Foil","rt":502,"stimulus":"Stimuli_Rocks480/I_Gabbro_08.png","response":"l","trial_type":"image-keyboard-response","trial_index":155,"plugin_version":"2.1.0","time_elapsed":297997,"subject_id":"92168","group":"Group2","condition":"1_Rep","full_date":"2026-01-28T16:49:12.386Z","date":"2026-01-28","time":"16:49:12","cor_ans":false},{"trial_type":"html-keyboard-response","rt":null,"stimulus":"<p style=\"color: red; font-size: 50px; font-weight: bold;\">Incorrect</p>","response":null,"trial_index":156,"plugin_version":"2.1.0","time_elapsed":298499,"subject_id":"92168","group":"Group2","condition":"1_Rep","full_date":"2026-01-28T16:49:12.386Z","date":"2026-01-28","time":"16:49:12"},{"correct_response":"l","task":"test_phase","broad_category":"S","image_png":"S_Rock Salt_13.png","image_id":445,"category_name":"Rock Salt","category":28,"distinct_rating":7.58,"distinct_type":"Top","item_type":"Target","rt":1070,"stimulus":"Stimuli_Rocks480/S_Rock Salt_13.png","response":"a","trial_type":"image-keyboard-response","trial_index":157,"plugin_version":"2.1.0","time_elapsed":299586,"subject_id":"92168","group":"Group2","condition":"1_Rep","full_date":"2026-01-28T16:49:12.386Z","date":"2026-01-28","time":"16:49:12","cor_ans":false},{"trial_type":"html-keyboard-response","rt":null,"stimulus":"<p style=\"color: red; font-size: 50px; font-weight: bold;\">Incorrect</p>","response":null,"trial_index":158,"plugin_version":"2.1.0","time_elapsed":300089,"subject_id":"92168","group":"Group2","condition":"1_Rep","full_date":"2026-01-28T16:49:12.386Z","date":"2026-01-28","time":"16:49:12"},{"correct_response":"l","task":"test_phase","broad_category":"I","image_png":"I_Andesite_03.png","image_id":3,"category_name":"Andesite","category":1,"distinct_rating":3.17,"distinct_type":"Bottom","item_type":"Target","rt":855,"stimulus":"Stimuli_Rocks480/I_Andesite_03.png","response":"l","trial_type":"image-keyboard-response","trial_index":159,"plugin_version":"2.1.0","time_elapsed":300954,"subject_id":"92168","group":"Group2","condition":"1_Rep","full_date":"2026-01-28T16:49:12.386Z","date":"2026-01-28","time":"16:49:12","cor_ans":true},{"trial_type":"html-keyboard-response","rt":null,"stimulus":"<p style=\"color: green; font-size: 50px; font-weight: bold;\">Correct</p>","response":null,"trial_index":160,"plugin_version":"2.1.0","time_elapsed":301457,"subject_id":"92168","group":"Group2","condition":"1_Rep","full_date":"2026-01-28T16:49:12.386Z","date":"2026-01-28","time":"16:49:12"},{"correct_response":"l","task":"test_phase","broad_category":"I","image_png":"I_Diorite_10.png","image_id":42,"category_name":"Diorite","category":3,"distinct_rating":2.84,"distinct_type":"Bottom","item_type":"Target","rt":741,"stimulus":"Stimuli_Rocks480/I_Diorite_10.png","response":"l","trial_type":"image-keyboard-response","trial_index":161,"plugin_version":"2.1.0","time_elapsed":302213,"subject_id":"92168","group":"Group2","condition":"1_Rep","full_date":"2026-01-28T16:49:12.386Z","date":"2026-01-28","time":"16:49:12","cor_ans":true},{"trial_type":"html-keyboard-response","rt":null,"stimulus":"<p style=\"color: green; font-size: 50px; font-weight: bold;\">Correct</p>","response":null,"trial_index":162,"plugin_version":"2.1.0","time_elapsed":302714,"subject_id":"92168","group":"Group2","condition":"1_Rep","full_date":"2026-01-28T16:49:12.386Z","date":"2026-01-28","time":"16:49:12"},{"correct_response":"a","task":"test_phase","broad_category":"M","image_png":"M_Marble_04.png","image_id":228,"category_name":"Marble","category":15,"distinct_rating":3.15,"distinct_type":"Bottom","item_type":"Foil","rt":788,"stimulus":"Stimuli_Rocks480/M_Marble_04.png","response":"l","trial_type":"image-keyboard-response","trial_index":163,"plugin_version":"2.1.0","time_elapsed":303518,"subject_id":"92168","group":"Group2","condition":"1_Rep","full_date":"2026-01-28T16:49:12.386Z","date":"2026-01-28","time":"16:49:12","cor_ans":false},{"trial_type":"html-keyboard-response","rt":null,"stimulus":"<p style=\"color: red; font-size: 50px; font-weight: bold;\">Incorrect</p>","response":null,"trial_index":164,"plugin_version":"2.1.0","time_elapsed":304020,"subject_id":"92168","group":"Group2","condition":"1_Rep","full_date":"2026-01-28T16:49:12.386Z","date":"2026-01-28","time":"16:49:12"},{"correct_response":"a","task":"test_phase","broad_category":"I","image_png":"I_Pumice_12.png","image_id":140,"category_name":"Pumice","category":9,"distinct_rating":2.97,"distinct_type":"Bottom","item_type":"Foil","rt":1193,"stimulus":"Stimuli_Rocks480/I_Pumice_12.png","response":"a","trial_type":"image-keyboard-response","trial_index":165,"plugin_version":"2.1.0","time_elapsed":305224,"subject_id":"92168","group":"Group2","condition":"1_Rep","full_date":"2026-01-28T16:49:12.386Z","date":"2026-01-28","time":"16:49:12","cor_ans":true},{"trial_type":"html-keyboard-response","rt":null,"stimulus":"<p style=\"color: green; font-size: 50px; font-weight: bold;\">Correct</p>","response":null,"trial_index":166,"plugin_version":"2.1.0","time_elapsed":305727,"subject_id":"92168","group":"Group2","condition":"1_Rep","full_date":"2026-01-28T16:49:12.386Z","date":"2026-01-28","time":"16:49:12"},{"correct_response":"a","task":"test_phase","broad_category":"M","image_png":"M_Marble_06.png","image_id":230,"category_name":"Marble","category":15,"distinct_rating":3.4,"distinct_type":"Bottom","item_type":"Foil","rt":3037,"stimulus":"Stimuli_Rocks480/M_Marble_06.png","response":"l","trial_type":"image-keyboard-response","trial_index":167,"plugin_version":"2.1.0","time_elapsed":308777,"subject_id":"92168","group":"Group2","condition":"1_Rep","full_date":"2026-01-28T16:49:12.386Z","date":"2026-01-28","time":"16:49:12","cor_ans":false},{"trial_type":"html-keyboard-response","rt":null,"stimulus":"<p style=\"color: red; font-size: 50px; font-weight: bold;\">Incorrect</p>","response":null,"trial_index":168,"plugin_version":"2.1.0","time_elapsed":309280,"subject_id":"92168","group":"Group2","condition":"1_Rep","full_date":"2026-01-28T16:49:12.386Z","date":"2026-01-28","time":"16:49:12"},{"correct_response":"l","task":"test_phase","broad_category":"M","image_png":"M_Gneiss_14.png","image_id":206,"category_name":"Gneiss","category":13,"distinct_rating":3.41,"distinct_type":"Bottom","item_type":"Target","rt":650,"stimulus":"Stimuli_Rocks480/M_Gneiss_14.png","response":"l","trial_type":"image-keyboard-response","trial_index":169,"plugin_version":"2.1.0","time_elapsed":309945,"subject_id":"92168","group":"Group2","condition":"1_Rep","full_date":"2026-01-28T16:49:12.386Z","date":"2026-01-28","time":"16:49:12","cor_ans":true},{"trial_type":"html-keyboard-response","rt":null,"stimulus":"<p style=\"color: green; font-size: 50px; font-weight: bold;\">Correct</p>","response":null,"trial_index":170,"plugin_version":"2.1.0","time_elapsed":310447,"subject_id":"92168","group":"Group2","condition":"1_Rep","full_date":"2026-01-28T16:49:12.386Z","date":"2026-01-28","time":"16:49:12"},{"correct_response":"l","task":"test_phase","broad_category":"S","image_png":"S_Dolomite_16.png","image_id":400,"category_name":"Dolomite","category":25,"distinct_rating":1.71,"distinct_type":"Bottom","item_type":"Target","rt":633,"stimulus":"Stimuli_Rocks480/S_Dolomite_16.png","response":"a","trial_type":"image-keyboard-response","trial_index":171,"plugin_version":"2.1.0","time_elapsed":311093,"subject_id":"92168","group":"Group2","condition":"1_Rep","full_date":"2026-01-28T16:49:12.386Z","date":"2026-01-28","time":"16:49:12","cor_ans":false},{"trial_type":"html-keyboard-response","rt":null,"stimulus":"<p style=\"color: red; font-size: 50px; font-weight: bold;\">Incorrect</p>","response":null,"trial_index":172,"plugin_version":"2.1.0","time_elapsed":311594,"subject_id":"92168","group":"Group2","condition":"1_Rep","full_date":"2026-01-28T16:49:12.386Z","date":"2026-01-28","time":"16:49:12"},{"correct_response":"a","task":"test_phase","broad_category":"M","image_png":"M_Phyllite_10.png","image_id":266,"category_name":"Phyllite","category":17,"distinct_rating":2.6,"distinct_type":"Bottom","item_type":"Foil","rt":10758,"stimulus":"Stimuli_Rocks480/M_Phyllite_10.png","response":"l","trial_type":"image-keyboard-response","trial_index":173,"plugin_version":"2.1.0","time_elapsed":322364,"subject_id":"92168","group":"Group2","condition":"1_Rep","full_date":"2026-01-28T16:49:12.386Z","date":"2026-01-28","time":"16:49:12","cor_ans":false},{"trial_type":"html-keyboard-response","rt":null,"stimulus":"<p style=\"color: red; font-size: 50px; font-weight: bold;\">Incorrect</p>","response":null,"trial_index":174,"plugin_version":"2.1.0","time_elapsed":322867,"subject_id":"92168","group":"Group2","condition":"1_Rep","full_date":"2026-01-28T16:49:12.386Z","date":"2026-01-28","time":"16:49:12"},{"correct_response":"l","task":"test_phase","broad_category":"M","image_png":"M_Marble_02.png","image_id":226,"category_name":"Marble","category":15,"distinct_rating":3.2,"distinct_type":"Bottom","item_type":"Target","rt":840,"stimulus":"Stimuli_Rocks480/M_Marble_02.png","response":"l","trial_type":"image-keyboard-response","trial_index":175,"plugin_version":"2.1.0","time_elapsed":323722,"subject_id":"92168","group":"Group2","condition":"1_Rep","full_date":"2026-01-28T16:49:12.386Z","date":"2026-01-28","time":"16:49:12","cor_ans":true},{"trial_type":"html-keyboard-response","rt":null,"stimulus":"<p style=\"color: green; font-size: 50px; font-weight: bold;\">Correct</p>","response":null,"trial_index":176,"plugin_version":"2.1.0","time_elapsed":324224,"subject_id":"92168","group":"Group2","condition":"1_Rep","full_date":"2026-01-28T16:49:12.386Z","date":"2026-01-28","time":"16:49:12"},{"correct_response":"a","task":"test_phase","broad_category":"S","image_png":"S_Sandstone_03.png","image_id":451,"category_name":"Sandstone","category":29,"distinct_rating":1.86,"distinct_type":"Bottom","item_type":"Foil","rt":433,"stimulus":"Stimuli_Rocks480/S_Sandstone_03.png","response":"a","trial_type":"image-keyboard-response","trial_index":177,"plugin_version":"2.1.0","time_elapsed":324674,"subject_id":"92168","group":"Group2","condition":"1_Rep","full_date":"2026-01-28T16:49:12.386Z","date":"2026-01-28","time":"16:49:12","cor_ans":true},{"trial_type":"html-keyboard-response","rt":null,"stimulus":"<p style=\"color: green; font-size: 50px; font-weight: bold;\">Correct</p>","response":null,"trial_index":178,"plugin_version":"2.1.0","time_elapsed":325177,"subject_id":"92168","group":"Group2","condition":"1_Rep","full_date":"2026-01-28T16:49:12.386Z","date":"2026-01-28","time":"16:49:12"},{"correct_response":"l","task":"test_phase","broad_category":"I","image_png":"I_Gabbro_02.png","image_id":50,"category_name":"Gabbro","category":4,"distinct_rating":2.73,"distinct_type":"Bottom","item_type":"Target","rt":1644,"stimulus":"Stimuli_Rocks480/I_Gabbro_02.png","response":"l","trial_type":"image-keyboard-response","trial_index":179,"plugin_version":"2.1.0","time_elapsed":326833,"subject_id":"92168","group":"Group2","condition":"1_Rep","full_date":"2026-01-28T16:49:12.386Z","date":"2026-01-28","time":"16:49:12","cor_ans":true},{"trial_type":"html-keyboard-response","rt":null,"stimulus":"<p style=\"color: green; font-size: 50px; font-weight: bold;\">Correct</p>","response":null,"trial_index":180,"plugin_version":"2.1.0","time_elapsed":327336,"subject_id":"92168","group":"Group2","condition":"1_Rep","full_date":"2026-01-28T16:49:12.386Z","date":"2026-01-28","time":"16:49:12"},{"correct_response":"l","task":"test_phase","broad_category":"I","image_png":"I_Peridotite_13.png","image_id":125,"category_name":"Peridotite","category":8,"distinct_rating":7.28,"distinct_type":"Top","item_type":"Target","rt":1086,"stimulus":"Stimuli_Rocks480/I_Peridotite_13.png","response":"a","trial_type":"image-keyboard-response","trial_index":181,"plugin_version":"2.1.0","time_elapsed":328439,"subject_id":"92168","group":"Group2","condition":"1_Rep","full_date":"2026-01-28T16:49:12.386Z","date":"2026-01-28","time":"16:49:12","cor_ans":false},{"trial_type":"html-keyboard-response","rt":null,"stimulus":"<p style=\"color: red; font-size: 50px; font-weight: bold;\">Incorrect</p>","response":null,"trial_index":182,"plugin_version":"2.1.0","time_elapsed":328942,"subject_id":"92168","group":"Group2","condition":"1_Rep","full_date":"2026-01-28T16:49:12.386Z","date":"2026-01-28","time":"16:49:12"},{"correct_response":"l","task":"test_phase","broad_category":"S","image_png":"S_Sandstone_11.png","image_id":459,"category_name":"Sandstone","category":29,"distinct_rating":1.82,"distinct_type":"Bottom","item_type":"Target","rt":3309,"stimulus":"Stimuli_Rocks480/S_Sandstone_11.png","response":"l","trial_type":"image-keyboard-response","trial_index":183,"plugin_version":"2.1.0","time_elapsed":332270,"subject_id":"92168","group":"Group2","condition":"1_Rep","full_date":"2026-01-28T16:49:12.386Z","date":"2026-01-28","time":"16:49:12","cor_ans":true},{"trial_type":"html-keyboard-response","rt":null,"stimulus":"<p style=\"color: green; font-size: 50px; font-weight: bold;\">Correct</p>","response":null,"trial_index":184,"plugin_version":"2.1.0","time_elapsed":332773,"subject_id":"92168","group":"Group2","condition":"1_Rep","full_date":"2026-01-28T16:49:12.386Z","date":"2026-01-28","time":"16:49:12"},{"correct_response":"l","task":"test_phase","broad_category":"I","image_png":"I_Basalt_08.png","image_id":24,"category_name":"Basalt","category":2,"distinct_rating":2.31,"distinct_type":"Bottom","item_type":"Target","rt":810,"stimulus":"Stimuli_Rocks480/I_Basalt_08.png","response":"l","trial_type":"image-keyboard-response","trial_index":185,"plugin_version":"2.1.0","time_elapsed":333602,"subject_id":"92168","group":"Group2","condition":"1_Rep","full_date":"2026-01-28T16:49:12.386Z","date":"2026-01-28","time":"16:49:12","cor_ans":true},{"trial_type":"html-keyboard-response","rt":null,"stimulus":"<p style=\"color: green; font-size: 50px; font-weight: bold;\">Correct</p>","response":null,"trial_index":186,"plugin_version":"2.1.0","time_elapsed":334104,"subject_id":"92168","group":"Group2","condition":"1_Rep","full_date":"2026-01-28T16:49:12.386Z","date":"2026-01-28","time":"16:49:12"},{"correct_response":"l","task":"test_phase","broad_category":"M","image_png":"M_Slate_04.png","image_id":308,"category_name":"Slate","category":20,"distinct_rating":2.2,"distinct_type":"Bottom","item_type":"Target","rt":654,"stimulus":"Stimuli_Rocks480/M_Slate_04.png","response":"l","trial_type":"image-keyboard-response","trial_index":187,"plugin_version":"2.1.0","time_elapsed":334770,"subject_id":"92168","group":"Group2","condition":"1_Rep","full_date":"2026-01-28T16:49:12.386Z","date":"2026-01-28","time":"16:49:12","cor_ans":true},{"trial_type":"html-keyboard-response","rt":null,"stimulus":"<p style=\"color: green; font-size: 50px; font-weight: bold;\">Correct</p>","response":null,"trial_index":188,"plugin_version":"2.1.0","time_elapsed":335272,"subject_id":"92168","group":"Group2","condition":"1_Rep","full_date":"2026-01-28T16:49:12.386Z","date":"2026-01-28","time":"16:49:12"},{"correct_response":"a","task":"test_phase","broad_category":"I","image_png":"I_Gabbro_16.png","image_id":64,"category_name":"Gabbro","category":4,"distinct_rating":2.52,"distinct_type":"Bottom","item_type":"Foil","rt":681,"stimulus":"Stimuli_Rocks480/I_Gabbro_16.png","response":"a","trial_type":"image-keyboard-response","trial_index":189,"plugin_version":"2.1.0","time_elapsed":335969,"subject_id":"92168","group":"Group2","condition":"1_Rep","full_date":"2026-01-28T16:49:12.386Z","date":"2026-01-28","time":"16:49:12","cor_ans":true},{"trial_type":"html-keyboard-response","rt":null,"stimulus":"<p style=\"color: green; font-size: 50px; font-weight: bold;\">Correct</p>","response":null,"trial_index":190,"plugin_version":"2.1.0","time_elapsed":336472,"subject_id":"92168","group":"Group2","condition":"1_Rep","full_date":"2026-01-28T16:49:12.386Z","date":"2026-01-28","time":"16:49:12"},{"correct_response":"l","task":"test_phase","broad_category":"I","image_png":"I_Rhyolite_10.png","image_id":154,"category_name":"Rhyolite","category":10,"distinct_rating":2.88,"distinct_type":"Bottom","item_type":"Target","rt":1304,"stimulus":"Stimuli_Rocks480/I_Rhyolite_10.png","response":"l","trial_type":"image-keyboard-response","trial_index":191,"plugin_version":"2.1.0","time_elapsed":337797,"subject_id":"92168","group":"Group2","condition":"1_Rep","full_date":"2026-01-28T16:49:12.386Z","date":"2026-01-28","time":"16:49:12","cor_ans":true},{"trial_type":"html-keyboard-response","rt":null,"stimulus":"<p style=\"color: green; font-size: 50px; font-weight: bold;\">Correct</p>","response":null,"trial_index":192,"plugin_version":"2.1.0","time_elapsed":338300,"subject_id":"92168","group":"Group2","condition":"1_Rep","full_date":"2026-01-28T16:49:12.386Z","date":"2026-01-28","time":"16:49:12"},{"correct_response":"l","task":"test_phase","broad_category":"I","image_png":"I_Pumice_01.png","image_id":129,"category_name":"Pumice","category":9,"distinct_rating":3.25,"distinct_type":"Bottom","item_type":"Target","rt":1176,"stimulus":"Stimuli_Rocks480/I_Pumice_01.png","response":"l","trial_type":"image-keyboard-response","trial_index":193,"plugin_version":"2.1.0","time_elapsed":339491,"subject_id":"92168","group":"Group2","condition":"1_Rep","full_date":"2026-01-28T16:49:12.386Z","date":"2026-01-28","time":"16:49:12","cor_ans":true},{"trial_type":"html-keyboard-response","rt":null,"stimulus":"<p style=\"color: green; font-size: 50px; font-weight: bold;\">Correct</p>","response":null,"trial_index":194,"plugin_version":"2.1.0","time_elapsed":339993,"subject_id":"92168","group":"Group2","condition":"1_Rep","full_date":"2026-01-28T16:49:12.386Z","date":"2026-01-28","time":"16:49:12"},{"correct_response":"l","task":"test_phase","broad_category":"I","image_png":"I_Pumice_14.png","image_id":142,"category_name":"Pumice","category":9,"distinct_rating":3.22,"distinct_type":"Bottom","item_type":"Target","rt":673,"stimulus":"Stimuli_Rocks480/I_Pumice_14.png","response":"a","trial_type":"image-keyboard-response","trial_index":195,"plugin_version":"2.1.0","time_elapsed":340679,"subject_id":"92168","group":"Group2","condition":"1_Rep","full_date":"2026-01-28T16:49:12.386Z","date":"2026-01-28","time":"16:49:12","cor_ans":false},{"trial_type":"html-keyboard-response","rt":null,"stimulus":"<p style=\"color: red; font-size: 50px; font-weight: bold;\">Incorrect</p>","response":null,"trial_index":196,"plugin_version":"2.1.0","time_elapsed":341181,"subject_id":"92168","group":"Group2","condition":"1_Rep","full_date":"2026-01-28T16:49:12.386Z","date":"2026-01-28","time":"16:49:12"},{"correct_response":"a","task":"test_phase","broad_category":"M","image_png":"M_Slate_15.png","image_id":319,"category_name":"Slate","category":20,"distinct_rating":2.13,"distinct_type":"Bottom","item_type":"Foil","rt":695,"stimulus":"Stimuli_Rocks480/M_Slate_15.png","response":"l","trial_type":"image-keyboard-response","trial_index":197,"plugin_version":"2.1.0","time_elapsed":341889,"subject_id":"92168","group":"Group2","condition":"1_Rep","full_date":"2026-01-28T16:49:12.386Z","date":"2026-01-28","time":"16:49:12","cor_ans":false},{"trial_type":"html-keyboard-response","rt":null,"stimulus":"<p style=\"color: red; font-size: 50px; font-weight: bold;\">Incorrect</p>","response":null,"trial_index":198,"plugin_version":"2.1.0","time_elapsed":342391,"subject_id":"92168","group":"Group2","condition":"1_Rep","full_date":"2026-01-28T16:49:12.386Z","date":"2026-01-28","time":"16:49:12"},{"correct_response":"a","task":"test_phase","broad_category":"S","image_png":"S_Dolomite_14.png","image_id":398,"category_name":"Dolomite","category":25,"distinct_rating":1.43,"distinct_type":"Bottom","item_type":"Foil","rt":642,"stimulus":"Stimuli_Rocks480/S_Dolomite_14.png","response":"l","trial_type":"image-keyboard-response","trial_index":199,"plugin_version":"2.1.0","time_elapsed":343048,"subject_id":"92168","group":"Group2","condition":"1_Rep","full_date":"2026-01-28T16:49:12.386Z","date":"2026-01-28","time":"16:49:12","cor_ans":false},{"trial_type":"html-keyboard-response","rt":null,"stimulus":"<p style=\"color: red; font-size: 50px; font-weight: bold;\">Incorrect</p>","response":null,"trial_index":200,"plugin_version":"2.1.0","time_elapsed":343551,"subject_id":"92168","group":"Group2","condition":"1_Rep","full_date":"2026-01-28T16:49:12.386Z","date":"2026-01-28","time":"16:49:12"},{"correct_response":"a","task":"test_phase","broad_category":"S","image_png":"S_Breccia_11.png","image_id":347,"category_name":"Breccia","category":22,"distinct_rating":6.7,"distinct_type":"Top","item_type":"Foil","rt":975,"stimulus":"Stimuli_Rocks480/S_Breccia_11.png","response":"a","trial_type":"image-keyboard-response","trial_index":201,"plugin_version":"2.1.0","time_elapsed":344546,"subject_id":"92168","group":"Group2","condition":"1_Rep","full_date":"2026-01-28T16:49:12.386Z","date":"2026-01-28","time":"16:49:12","cor_ans":true},{"trial_type":"html-keyboard-response","rt":null,"stimulus":"<p style=\"color: green; font-size: 50px; font-weight: bold;\">Correct</p>","response":null,"trial_index":202,"plugin_version":"2.1.0","time_elapsed":345048,"subject_id":"92168","group":"Group2","condition":"1_Rep","full_date":"2026-01-28T16:49:12.386Z","date":"2026-01-28","time":"16:49:12"},{"correct_response":"a","task":"test_phase","broad_category":"M","image_png":"M_Marble_16.png","image_id":240,"category_name":"Marble","category":15,"distinct_rating":2.57,"distinct_type":"Bottom","item_type":"Foil","rt":672,"stimulus":"Stimuli_Rocks480/M_Marble_16.png","response":"l","trial_type":"image-keyboard-response","trial_index":203,"plugin_version":"2.1.0","time_elapsed":345737,"subject_id":"92168","group":"Group2","condition":"1_Rep","full_date":"2026-01-28T16:49:12.386Z","date":"2026-01-28","time":"16:49:12","cor_ans":false},{"trial_type":"html-keyboard-response","rt":null,"stimulus":"<p style=\"color: red; font-size: 50px; font-weight: bold;\">Incorrect</p>","response":null,"trial_index":204,"plugin_version":"2.1.0","time_elapsed":346239,"subject_id":"92168","group":"Group2","condition":"1_Rep","full_date":"2026-01-28T16:49:12.386Z","date":"2026-01-28","time":"16:49:12"},{"correct_response":"a","task":"test_phase","broad_category":"I","image_png":"I_Diorite_05.png","image_id":37,"category_name":"Diorite","category":3,"distinct_rating":3.08,"distinct_type":"Bottom","item_type":"Foil","rt":612,"stimulus":"Stimuli_Rocks480/I_Diorite_05.png","response":"l","trial_type":"image-keyboard-response","trial_index":205,"plugin_version":"2.1.0","time_elapsed":346865,"subject_id":"92168","group":"Group2","condition":"1_Rep","full_date":"2026-01-28T16:49:12.386Z","date":"2026-01-28","time":"16:49:12","cor_ans":false},{"trial_type":"html-keyboard-response","rt":null,"stimulus":"<p style=\"color: red; font-size: 50px; font-weight: bold;\">Incorrect</p>","response":null,"trial_index":206,"plugin_version":"2.1.0","time_elapsed":347367,"subject_id":"92168","group":"Group2","condition":"1_Rep","full_date":"2026-01-28T16:49:12.386Z","date":"2026-01-28","time":"16:49:12"},{"correct_response":"l","task":"test_phase","broad_category":"M","image_png":"M_Slate_14.png","image_id":318,"category_name":"Slate","category":20,"distinct_rating":2.58,"distinct_type":"Bottom","item_type":"Target","rt":735,"stimulus":"Stimuli_Rocks480/M_Slate_14.png","response":"l","trial_type":"image-keyboard-response","trial_index":207,"plugin_version":"2.1.0","time_elapsed":348114,"subject_id":"92168","group":"Group2","condition":"1_Rep","full_date":"2026-01-28T16:49:12.386Z","date":"2026-01-28","time":"16:49:12","cor_ans":true},{"trial_type":"html-keyboard-response","rt":null,"stimulus":"<p style=\"color: green; font-size: 50px; font-weight: bold;\">Correct</p>","response":null,"trial_index":208,"plugin_version":"2.1.0","time_elapsed":348617,"subject_id":"92168","group":"Group2","condition":"1_Rep","full_date":"2026-01-28T16:49:12.386Z","date":"2026-01-28","time":"16:49:12"},{"correct_response":"a","task":"test_phase","broad_category":"M","image_png":"M_Gneiss_13.png","image_id":205,"category_name":"Gneiss","category":13,"distinct_rating":3.26,"distinct_type":"Bottom","item_type":"Foil","rt":701,"stimulus":"Stimuli_Rocks480/M_Gneiss_13.png","response":"a","trial_type":"image-keyboard-response","trial_index":209,"plugin_version":"2.1.0","time_elapsed":349331,"subject_id":"92168","group":"Group2","condition":"1_Rep","full_date":"2026-01-28T16:49:12.386Z","date":"2026-01-28","time":"16:49:12","cor_ans":true},{"trial_type":"html-keyboard-response","rt":null,"stimulus":"<p style=\"color: green; font-size: 50px; font-weight: bold;\">Correct</p>","response":null,"trial_index":210,"plugin_version":"2.1.0","time_elapsed":349833,"subject_id":"92168","group":"Group2","condition":"1_Rep","full_date":"2026-01-28T16:49:12.386Z","date":"2026-01-28","time":"16:49:12"},{"correct_response":"l","task":"test_phase","broad_category":"M","image_png":"M_Quartzite_12.png","image_id":284,"category_name":"Quartzite","category":18,"distinct_rating":1.92,"distinct_type":"Bottom","item_type":"Target","rt":841,"stimulus":"Stimuli_Rocks480/M_Quartzite_12.png","response":"l","trial_type":"image-keyboard-response","trial_index":211,"plugin_version":"2.1.0","time_elapsed":350685,"subject_id":"92168","group":"Group2","condition":"1_Rep","full_date":"2026-01-28T16:49:12.386Z","date":"2026-01-28","time":"16:49:12","cor_ans":true},{"trial_type":"html-keyboard-response","rt":null,"stimulus":"<p style=\"color: green; font-size: 50px; font-weight: bold;\">Correct</p>","response":null,"trial_index":212,"plugin_version":"2.1.0","time_elapsed":351188,"subject_id":"92168","group":"Group2","condition":"1_Rep","full_date":"2026-01-28T16:49:12.386Z","date":"2026-01-28","time":"16:49:12"},{"correct_response":"a","task":"test_phase","broad_category":"I","image_png":"I_Pegmatite_16.png","image_id":112,"category_name":"Pegmatite","category":7,"distinct_rating":7.03,"distinct_type":"Top","item_type":"Foil","rt":1038,"stimulus":"Stimuli_Rocks480/I_Pegmatite_16.png","response":"l","trial_type":"image-keyboard-response","trial_index":213,"plugin_version":"2.1.0","time_elapsed":352240,"subject_id":"92168","group":"Group2","condition":"1_Rep","full_date":"2026-01-28T16:49:12.386Z","date":"2026-01-28","time":"16:49:12","cor_ans":false},{"trial_type":"html-keyboard-response","rt":null,"stimulus":"<p style=\"color: red; font-size: 50px; font-weight: bold;\">Incorrect</p>","response":null,"trial_index":214,"plugin_version":"2.1.0","time_elapsed":352742,"subject_id":"92168","group":"Group2","condition":"1_Rep","full_date":"2026-01-28T16:49:12.386Z","date":"2026-01-28","time":"16:49:12"},{"correct_response":"l","task":"test_phase","broad_category":"M","image_png":"M_Marble_03.png","image_id":227,"category_name":"Marble","category":15,"distinct_rating":2.67,"distinct_type":"Bottom","item_type":"Target","rt":14936,"stimulus":"Stimuli_Rocks480/M_Marble_03.png","response":"l","trial_type":"image-keyboard-response","trial_index":215,"plugin_version":"2.1.0","time_elapsed":367693,"subject_id":"92168","group":"Group2","condition":"1_Rep","full_date":"2026-01-28T16:49:12.386Z","date":"2026-01-28","time":"16:49:12","cor_ans":true},{"trial_type":"html-keyboard-response","rt":null,"stimulus":"<p style=\"color: green; font-size: 50px; font-weight: bold;\">Correct</p>","response":null,"trial_index":216,"plugin_version":"2.1.0","time_elapsed":368195,"subject_id":"92168","group":"Group2","condition":"1_Rep","full_date":"2026-01-28T16:49:12.386Z","date":"2026-01-28","time":"16:49:12"},{"correct_response":"a","task":"test_phase","broad_category":"I","image_png":"I_Basalt_01.png","image_id":17,"category_name":"Basalt","category":2,"distinct_rating":1.92,"distinct_type":"Bottom","item_type":"Foil","rt":608,"stimulus":"Stimuli_Rocks480/I_Basalt_01.png","response":"l","trial_type":"image-keyboard-response","trial_index":217,"plugin_version":"2.1.0","time_elapsed":368821,"subject_id":"92168","group":"Group2","condition":"1_Rep","full_date":"2026-01-28T16:49:12.386Z","date":"2026-01-28","time":"16:49:12","cor_ans":false},{"trial_type":"html-keyboard-response","rt":null,"stimulus":"<p style=\"color: red; font-size: 50px; font-weight: bold;\">Incorrect</p>","response":null,"trial_index":218,"plugin_version":"2.1.0","time_elapsed":369324,"subject_id":"92168","group":"Group2","condition":"1_Rep","full_date":"2026-01-28T16:49:12.386Z","date":"2026-01-28","time":"16:49:12"},{"correct_response":"a","task":"test_phase","broad_category":"I","image_png":"I_Diorite_04.png","image_id":36,"category_name":"Diorite","category":3,"distinct_rating":2.98,"distinct_type":"Bottom","item_type":"Foil","rt":488,"stimulus":"Stimuli_Rocks480/I_Diorite_04.png","response":"l","trial_type":"image-keyboard-response","trial_index":219,"plugin_version":"2.1.0","time_elapsed":369828,"subject_id":"92168","group":"Group2","condition":"1_Rep","full_date":"2026-01-28T16:49:12.386Z","date":"2026-01-28","time":"16:49:12","cor_ans":false},{"trial_type":"html-keyboard-response","rt":null,"stimulus":"<p style=\"color: red; font-size: 50px; font-weight: bold;\">Incorrect</p>","response":null,"trial_index":220,"plugin_version":"2.1.0","time_elapsed":370330,"subject_id":"92168","group":"Group2","condition":"1_Rep","full_date":"2026-01-28T16:49:12.386Z","date":"2026-01-28","time":"16:49:12"},{"correct_response":"a","task":"test_phase","broad_category":"M","image_png":"M_Quartzite_13.png","image_id":285,"category_name":"Quartzite","category":18,"distinct_rating":2.27,"distinct_type":"Bottom","item_type":"Foil","rt":5044,"stimulus":"Stimuli_Rocks480/M_Quartzite_13.png","response":"a","trial_type":"image-keyboard-response","trial_index":221,"plugin_version":"2.1.0","time_elapsed":375388,"subject_id":"92168","group":"Group2","condition":"1_Rep","full_date":"2026-01-28T16:49:12.386Z","date":"2026-01-28","time":"16:49:12","cor_ans":true},{"trial_type":"html-keyboard-response","rt":null,"stimulus":"<p style=\"color: green; font-size: 50px; font-weight: bold;\">Correct</p>","response":null,"trial_index":222,"plugin_version":"2.1.0","time_elapsed":375891,"subject_id":"92168","group":"Group2","condition":"1_Rep","full_date":"2026-01-28T16:49:12.386Z","date":"2026-01-28","time":"16:49:12"},{"correct_response":"l","task":"test_phase","broad_category":"S","image_png":"S_Dolomite_01.png","image_id":385,"category_name":"Dolomite","category":25,"distinct_rating":1.43,"distinct_type":"Bottom","item_type":"Target","rt":869,"stimulus":"Stimuli_Rocks480/S_Dolomite_01.png","response":"a","trial_type":"image-keyboard-response","trial_index":223,"plugin_version":"2.1.0","time_elapsed":376777,"subject_id":"92168","group":"Group2","condition":"1_Rep","full_date":"2026-01-28T16:49:12.386Z","date":"2026-01-28","time":"16:49:12","cor_ans":false},{"trial_type":"html-keyboard-response","rt":null,"stimulus":"<p style=\"color: red; font-size: 50px; font-weight: bold;\">Incorrect</p>","response":null,"trial_index":224,"plugin_version":"2.1.0","time_elapsed":377279,"subject_id":"92168","group":"Group2","condition":"1_Rep","full_date":"2026-01-28T16:49:12.386Z","date":"2026-01-28","time":"16:49:12"},{"correct_response":"a","task":"test_phase","broad_category":"I","image_png":"I_Basalt_02.png","image_id":18,"cate