[{"width":1496,"height":848,"webaudio":true,"browser":"safari","browser_version":"26.2.0","mobile":false,"os":"Mac OS","fullscreen":true,"vsync_rate":59.94,"webcam":true,"microphone":true,"trial_type":"browser-check","trial_index":0,"plugin_version":"2.1.0","time_elapsed":1008,"subject_id":"91221","group":"Group2","condition":"1_Rep","full_date":"2026-01-24T22:15:23.890Z","date":"2026-01-24","time":"22:15:23"},{"success":true,"timeout":false,"failed_images":[],"failed_audio":[],"failed_video":[],"trial_type":"preload","trial_index":1,"plugin_version":"2.1.0","time_elapsed":5739,"subject_id":"91221","group":"Group2","condition":"1_Rep","full_date":"2026-01-24T22:15:23.890Z","date":"2026-01-24","time":"22:15:23"},{"rt":12394,"url":"SONA_consent_memorability.html","trial_type":"external-html","trial_index":2,"plugin_version":"2.1.0","time_elapsed":18265,"subject_id":"91221","group":"Group2","condition":"1_Rep","full_date":"2026-01-24T22:15:23.890Z","date":"2026-01-24","time":"22:15:23"},{"success":true,"rt":1510,"trial_type":"fullscreen","trial_index":3,"plugin_version":"2.1.0","time_elapsed":20778,"subject_id":"91221","group":"Group2","condition":"1_Rep","full_date":"2026-01-24T22:15:23.890Z","date":"2026-01-24","time":"22:15:23"},{"rt":22467,"stimulus":"<div style=\"max-width: 760px; margin: auto; font-size: 20px; line-height: 1.5;\">\n      <h1 style=\"text-align:center; font-size: 30px;\">Instructions</h1>\n      <p>\n        Welcome to the study on <b>visual memory</b>. This experiment consists of <b>two phases</b>: \n        a <b>study phase</b> and a <b>test phase</b>.\n      </p>\n      <p>\n        In the study phase, you will see a series of rock images along with their category labels.\n        The images will appear one at a time.\n        <b>Your task</b> is to learn the categories to which the rock images belong \n        and to remember each image as accurately as possible.\n      </p> \n      <p>\n        Note that you will see each image only <b>once</b> during the study phase. \n          So, please pay close attention and try to remember each image carefully.\n      </p>\n      <p>\n        After the study phase, <b>your memory will be tested</b>. \n        Additional instructions for the test phase will be provided at that time.\n      </p>\n      <p>\n        If your computer has multiple <b>language settings</b> (e.g., English and another language),\n        please make sure it is set to English before starting.\n      </p>\n      <p>\n        You can track your progress using the <b>completion bar</b> at the top of the screen. \n        Please note that the bar will refresh when the test phase begins \n        to give you an accurate sense of your progress in both phases.\n      </p> \n      <p>\n        Press the button below when you are ready to begin.\n      </p>\n    </div>","response":0,"trial_type":"html-button-response","trial_index":4,"plugin_version":"2.1.0","time_elapsed":43248,"subject_id":"91221","group":"Group2","condition":"1_Rep","full_date":"2026-01-24T22:15:23.890Z","date":"2026-01-24","time":"22:15:23"},{"rt":null,"stimulus":"<p style=\"font-size: 50px; margin: 0; text-align: center;\">+</p>","response":null,"trial_type":"html-keyboard-response","trial_index":5,"plugin_version":"2.1.0","time_elapsed":44252,"subject_id":"91221","group":"Group2","condition":"1_Rep","full_date":"2026-01-24T22:15:23.890Z","date":"2026-01-24","time":"22:15:23"},{"task":"memory_phase","broad_category":"M","image_png":"M_Marble_14.png","image_id":238,"category_name":"Marble","category":15,"distinct_rating":3.31,"distinct_type":"Bottom","rt":null,"stimulus":"Stimuli_Rocks480/M_Marble_14.png","response":null,"trial_type":"image-keyboard-response","trial_index":6,"plugin_version":"2.1.0","time_elapsed":46767,"subject_id":"91221","group":"Group2","condition":"1_Rep","full_date":"2026-01-24T22:15:23.890Z","date":"2026-01-24","time":"22:15:23"},{"rt":null,"stimulus":"<p style=\"font-size: 50px; margin: 0; text-align: center;\">+</p>","response":null,"trial_type":"html-keyboard-response","trial_index":7,"plugin_version":"2.1.0","time_elapsed":47770,"subject_id":"91221","group":"Group2","condition":"1_Rep","full_date":"2026-01-24T22:15:23.890Z","date":"2026-01-24","time":"22:15:23"},{"task":"memory_phase","broad_category":"I","image_png":"I_Andesite_03.png","image_id":3,"category_name":"Andesite","category":1,"distinct_rating":3.17,"distinct_type":"Bottom","rt":null,"stimulus":"Stimuli_Rocks480/I_Andesite_03.png","response":null,"trial_type":"image-keyboard-response","trial_index":8,"plugin_version":"2.1.0","time_elapsed":50281,"subject_id":"91221","group":"Group2","condition":"1_Rep","full_date":"2026-01-24T22:15:23.890Z","date":"2026-01-24","time":"22:15:23"},{"rt":null,"stimulus":"<p style=\"font-size: 50px; margin: 0; text-align: center;\">+</p>","response":null,"trial_type":"html-keyboard-response","trial_index":9,"plugin_version":"2.1.0","time_elapsed":51283,"subject_id":"91221","group":"Group2","condition":"1_Rep","full_date":"2026-01-24T22:15:23.890Z","date":"2026-01-24","time":"22:15:23"},{"task":"memory_phase","broad_category":"S","image_png":"S_Sandstone_11.png","image_id":459,"category_name":"Sandstone","category":29,"distinct_rating":1.82,"distinct_type":"Bottom","rt":null,"stimulus":"Stimuli_Rocks480/S_Sandstone_11.png","response":null,"trial_type":"image-keyboard-response","trial_index":10,"plugin_version":"2.1.0","time_elapsed":53802,"subject_id":"91221","group":"Group2","condition":"1_Rep","full_date":"2026-01-24T22:15:23.890Z","date":"2026-01-24","time":"22:15:23"},{"rt":null,"stimulus":"<p style=\"font-size: 50px; margin: 0; text-align: center;\">+</p>","response":null,"trial_type":"html-keyboard-response","trial_index":11,"plugin_version":"2.1.0","time_elapsed":54805,"subject_id":"91221","group":"Group2","condition":"1_Rep","full_date":"2026-01-24T22:15:23.890Z","date":"2026-01-24","time":"22:15:23"},{"task":"memory_phase","broad_category":"I","image_png":"I_Gabbro_12.png","image_id":60,"category_name":"Gabbro","category":4,"distinct_rating":2.6,"distinct_type":"Bottom","rt":null,"stimulus":"Stimuli_Rocks480/I_Gabbro_12.png","response":null,"trial_type":"image-keyboard-response","trial_index":12,"plugin_version":"2.1.0","time_elapsed":57323,"subject_id":"91221","group":"Group2","condition":"1_Rep","full_date":"2026-01-24T22:15:23.890Z","date":"2026-01-24","time":"22:15:23"},{"rt":null,"stimulus":"<p style=\"font-size: 50px; margin: 0; text-align: center;\">+</p>","response":null,"trial_type":"html-keyboard-response","trial_index":13,"plugin_version":"2.1.0","time_elapsed":58326,"subject_id":"91221","group":"Group2","condition":"1_Rep","full_date":"2026-01-24T22:15:23.890Z","date":"2026-01-24","time":"22:15:23"},{"task":"memory_phase","broad_category":"M","image_png":"M_Gneiss_10.png","image_id":202,"category_name":"Gneiss","category":13,"distinct_rating":3.09,"distinct_type":"Bottom","rt":null,"stimulus":"Stimuli_Rocks480/M_Gneiss_10.png","response":null,"trial_type":"image-keyboard-response","trial_index":14,"plugin_version":"2.1.0","time_elapsed":60842,"subject_id":"91221","group":"Group2","condition":"1_Rep","full_date":"2026-01-24T22:15:23.890Z","date":"2026-01-24","time":"22:15:23"},{"rt":null,"stimulus":"<p style=\"font-size: 50px; margin: 0; text-align: center;\">+</p>","response":null,"trial_type":"html-keyboard-response","trial_index":15,"plugin_version":"2.1.0","time_elapsed":61845,"subject_id":"91221","group":"Group2","condition":"1_Rep","full_date":"2026-01-24T22:15:23.890Z","date":"2026-01-24","time":"22:15:23"},{"task":"memory_phase","broad_category":"M","image_png":"M_Slate_10.png","image_id":314,"category_name":"Slate","category":20,"distinct_rating":1.94,"distinct_type":"Bottom","rt":null,"stimulus":"Stimuli_Rocks480/M_Slate_10.png","response":null,"trial_type":"image-keyboard-response","trial_index":16,"plugin_version":"2.1.0","time_elapsed":64356,"subject_id":"91221","group":"Group2","condition":"1_Rep","full_date":"2026-01-24T22:15:23.890Z","date":"2026-01-24","time":"22:15:23"},{"rt":null,"stimulus":"<p style=\"font-size: 50px; margin: 0; text-align: center;\">+</p>","response":null,"trial_type":"html-keyboard-response","trial_index":17,"plugin_version":"2.1.0","time_elapsed":65358,"subject_id":"91221","group":"Group2","condition":"1_Rep","full_date":"2026-01-24T22:15:23.890Z","date":"2026-01-24","time":"22:15:23"},{"task":"memory_phase","broad_category":"I","image_png":"I_Basalt_13.png","image_id":29,"category_name":"Basalt","category":2,"distinct_rating":2.68,"distinct_type":"Bottom","rt":null,"stimulus":"Stimuli_Rocks480/I_Basalt_13.png","response":null,"trial_type":"image-keyboard-response","trial_index":18,"plugin_version":"2.1.0","time_elapsed":67872,"subject_id":"91221","group":"Group2","condition":"1_Rep","full_date":"2026-01-24T22:15:23.890Z","date":"2026-01-24","time":"22:15:23"},{"rt":null,"stimulus":"<p style=\"font-size: 50px; margin: 0; text-align: center;\">+</p>","response":null,"trial_type":"html-keyboard-response","trial_index":19,"plugin_version":"2.1.0","time_elapsed":68874,"subject_id":"91221","group":"Group2","condition":"1_Rep","full_date":"2026-01-24T22:15:23.890Z","date":"2026-01-24","time":"22:15:23"},{"task":"memory_phase","broad_category":"M","image_png":"M_Marble_03.png","image_id":227,"category_name":"Marble","category":15,"distinct_rating":2.67,"distinct_type":"Bottom","rt":null,"stimulus":"Stimuli_Rocks480/M_Marble_03.png","response":null,"trial_type":"image-keyboard-response","trial_index":20,"plugin_version":"2.1.0","time_elapsed":71390,"subject_id":"91221","group":"Group2","condition":"1_Rep","full_date":"2026-01-24T22:15:23.890Z","date":"2026-01-24","time":"22:15:23"},{"rt":null,"stimulus":"<p style=\"font-size: 50px; margin: 0; text-align: center;\">+</p>","response":null,"trial_type":"html-keyboard-response","trial_index":21,"plugin_version":"2.1.0","time_elapsed":72392,"subject_id":"91221","group":"Group2","condition":"1_Rep","full_date":"2026-01-24T22:15:23.890Z","date":"2026-01-24","time":"22:15:23"},{"task":"memory_phase","broad_category":"I","image_png":"I_Pumice_13.png","image_id":141,"category_name":"Pumice","category":9,"distinct_rating":3.12,"distinct_type":"Bottom","rt":null,"stimulus":"Stimuli_Rocks480/I_Pumice_13.png","response":null,"trial_type":"image-keyboard-response","trial_index":22,"plugin_version":"2.1.0","time_elapsed":74909,"subject_id":"91221","group":"Group2","condition":"1_Rep","full_date":"2026-01-24T22:15:23.890Z","date":"2026-01-24","time":"22:15:23"},{"rt":null,"stimulus":"<p style=\"font-size: 50px; margin: 0; text-align: center;\">+</p>","response":null,"trial_type":"html-keyboard-response","trial_index":23,"plugin_version":"2.1.0","time_elapsed":75912,"subject_id":"91221","group":"Group2","condition":"1_Rep","full_date":"2026-01-24T22:15:23.890Z","date":"2026-01-24","time":"22:15:23"},{"task":"memory_phase","broad_category":"S","image_png":"S_Dolomite_01.png","image_id":385,"category_name":"Dolomite","category":25,"distinct_rating":1.43,"distinct_type":"Bottom","rt":null,"stimulus":"Stimuli_Rocks480/S_Dolomite_01.png","response":null,"trial_type":"image-keyboard-response","trial_index":24,"plugin_version":"2.1.0","time_elapsed":78430,"subject_id":"91221","group":"Group2","condition":"1_Rep","full_date":"2026-01-24T22:15:23.890Z","date":"2026-01-24","time":"22:15:23"},{"rt":null,"stimulus":"<p style=\"font-size: 50px; margin: 0; text-align: center;\">+</p>","response":null,"trial_type":"html-keyboard-response","trial_index":25,"plugin_version":"2.1.0","time_elapsed":79432,"subject_id":"91221","group":"Group2","condition":"1_Rep","full_date":"2026-01-24T22:15:23.890Z","date":"2026-01-24","time":"22:15:23"},{"task":"memory_phase","broad_category":"I","image_png":"I_Basalt_10.png","image_id":26,"category_name":"Basalt","category":2,"distinct_rating":2.76,"distinct_type":"Bottom","rt":null,"stimulus":"Stimuli_Rocks480/I_Basalt_10.png","response":null,"trial_type":"image-keyboard-response","trial_index":26,"plugin_version":"2.1.0","time_elapsed":81947,"subject_id":"91221","group":"Group2","condition":"1_Rep","full_date":"2026-01-24T22:15:23.890Z","date":"2026-01-24","time":"22:15:23"},{"rt":null,"stimulus":"<p style=\"font-size: 50px; margin: 0; text-align: center;\">+</p>","response":null,"trial_type":"html-keyboard-response","trial_index":27,"plugin_version":"2.1.0","time_elapsed":82949,"subject_id":"91221","group":"Group2","condition":"1_Rep","full_date":"2026-01-24T22:15:23.890Z","date":"2026-01-24","time":"22:15:23"},{"task":"memory_phase","broad_category":"I","image_png":"I_Diorite_10.png","image_id":42,"category_name":"Diorite","category":3,"distinct_rating":2.84,"distinct_type":"Bottom","rt":null,"stimulus":"Stimuli_Rocks480/I_Diorite_10.png","response":null,"trial_type":"image-keyboard-response","trial_index":28,"plugin_version":"2.1.0","time_elapsed":85464,"subject_id":"91221","group":"Group2","condition":"1_Rep","full_date":"2026-01-24T22:15:23.890Z","date":"2026-01-24","time":"22:15:23"},{"rt":null,"stimulus":"<p style=\"font-size: 50px; margin: 0; text-align: center;\">+</p>","response":null,"trial_type":"html-keyboard-response","trial_index":29,"plugin_version":"2.1.0","time_elapsed":86466,"subject_id":"91221","group":"Group2","condition":"1_Rep","full_date":"2026-01-24T22:15:23.890Z","date":"2026-01-24","time":"22:15:23"},{"task":"memory_phase","broad_category":"S","image_png":"S_Conglomerate_14.png","image_id":382,"category_name":"Conglomerate","category":24,"distinct_rating":6.86,"distinct_type":"Top","rt":null,"stimulus":"Stimuli_Rocks480/S_Conglomerate_14.png","response":null,"trial_type":"image-keyboard-response","trial_index":30,"plugin_version":"2.1.0","time_elapsed":88984,"subject_id":"91221","group":"Group2","condition":"1_Rep","full_date":"2026-01-24T22:15:23.890Z","date":"2026-01-24","time":"22:15:23"},{"rt":null,"stimulus":"<p style=\"font-size: 50px; margin: 0; text-align: center;\">+</p>","response":null,"trial_type":"html-keyboard-response","trial_index":31,"plugin_version":"2.1.0","time_elapsed":89987,"subject_id":"91221","group":"Group2","condition":"1_Rep","full_date":"2026-01-24T22:15:23.890Z","date":"2026-01-24","time":"22:15:23"},{"task":"memory_phase","broad_category":"M","image_png":"M_Gneiss_15.png","image_id":207,"category_name":"Gneiss","category":13,"distinct_rating":3.11,"distinct_type":"Bottom","rt":null,"stimulus":"Stimuli_Rocks480/M_Gneiss_15.png","response":null,"trial_type":"image-keyboard-response","trial_index":32,"plugin_version":"2.1.0","time_elapsed":92500,"subject_id":"91221","group":"Group2","condition":"1_Rep","full_date":"2026-01-24T22:15:23.890Z","date":"2026-01-24","time":"22:15:23"},{"rt":null,"stimulus":"<p style=\"font-size: 50px; margin: 0; text-align: center;\">+</p>","response":null,"trial_type":"html-keyboard-response","trial_index":33,"plugin_version":"2.1.0","time_elapsed":93502,"subject_id":"91221","group":"Group2","condition":"1_Rep","full_date":"2026-01-24T22:15:23.890Z","date":"2026-01-24","time":"22:15:23"},{"task":"memory_phase","broad_category":"I","image_png":"I_Obsidian_06.png","image_id":86,"category_name":"Obsidian","category":6,"distinct_rating":8.01,"distinct_type":"Top","rt":null,"stimulus":"Stimuli_Rocks480/I_Obsidian_06.png","response":null,"trial_type":"image-keyboard-response","trial_index":34,"plugin_version":"2.1.0","time_elapsed":96020,"subject_id":"91221","group":"Group2","condition":"1_Rep","full_date":"2026-01-24T22:15:23.890Z","date":"2026-01-24","time":"22:15:23"},{"rt":null,"stimulus":"<p style=\"font-size: 50px; margin: 0; text-align: center;\">+</p>","response":null,"trial_type":"html-keyboard-response","trial_index":35,"plugin_version":"2.1.0","time_elapsed":97023,"subject_id":"91221","group":"Group2","condition":"1_Rep","full_date":"2026-01-24T22:15:23.890Z","date":"2026-01-24","time":"22:15:23"},{"task":"memory_phase","broad_category":"M","image_png":"M_Quartzite_07.png","image_id":279,"category_name":"Quartzite","category":18,"distinct_rating":1.97,"distinct_type":"Bottom","rt":null,"stimulus":"Stimuli_Rocks480/M_Quartzite_07.png","response":null,"trial_type":"image-keyboard-response","trial_index":36,"plugin_version":"2.1.0","time_elapsed":99539,"subject_id":"91221","group":"Group2","condition":"1_Rep","full_date":"2026-01-24T22:15:23.890Z","date":"2026-01-24","time":"22:15:23"},{"rt":null,"stimulus":"<p style=\"font-size: 50px; margin: 0; text-align: center;\">+</p>","response":null,"trial_type":"html-keyboard-response","trial_index":37,"plugin_version":"2.1.0","time_elapsed":100541,"subject_id":"91221","group":"Group2","condition":"1_Rep","full_date":"2026-01-24T22:15:23.890Z","date":"2026-01-24","time":"22:15:23"},{"task":"memory_phase","broad_category":"S","image_png":"S_Rock Salt_13.png","image_id":445,"category_name":"Rock Salt","category":28,"distinct_rating":7.58,"distinct_type":"Top","rt":null,"stimulus":"Stimuli_Rocks480/S_Rock Salt_13.png","response":null,"trial_type":"image-keyboard-response","trial_index":38,"plugin_version":"2.1.0","time_elapsed":103059,"subject_id":"91221","group":"Group2","condition":"1_Rep","full_date":"2026-01-24T22:15:23.890Z","date":"2026-01-24","time":"22:15:23"},{"rt":null,"stimulus":"<p style=\"font-size: 50px; margin: 0; text-align: center;\">+</p>","response":null,"trial_type":"html-keyboard-response","trial_index":39,"plugin_version":"2.1.0","time_elapsed":104061,"subject_id":"91221","group":"Group2","condition":"1_Rep","full_date":"2026-01-24T22:15:23.890Z","date":"2026-01-24","time":"22:15:23"},{"task":"memory_phase","broad_category":"M","image_png":"M_Phyllite_05.png","image_id":261,"category_name":"Phyllite","category":17,"distinct_rating":2.14,"distinct_type":"Bottom","rt":null,"stimulus":"Stimuli_Rocks480/M_Phyllite_05.png","response":null,"trial_type":"image-keyboard-response","trial_index":40,"plugin_version":"2.1.0","time_elapsed":106574,"subject_id":"91221","group":"Group2","condition":"1_Rep","full_date":"2026-01-24T22:15:23.890Z","date":"2026-01-24","time":"22:15:23"},{"rt":null,"stimulus":"<p style=\"font-size: 50px; margin: 0; text-align: center;\">+</p>","response":null,"trial_type":"html-keyboard-response","trial_index":41,"plugin_version":"2.1.0","time_elapsed":107577,"subject_id":"91221","group":"Group2","condition":"1_Rep","full_date":"2026-01-24T22:15:23.890Z","date":"2026-01-24","time":"22:15:23"},{"task":"memory_phase","broad_category":"S","image_png":"S_Shale_02.png","image_id":466,"category_name":"Shale","category":30,"distinct_rating":2.9,"distinct_type":"Bottom","rt":null,"stimulus":"Stimuli_Rocks480/S_Shale_02.png","response":null,"trial_type":"image-keyboard-response","trial_index":42,"plugin_version":"2.1.0","time_elapsed":110090,"subject_id":"91221","group":"Group2","condition":"1_Rep","full_date":"2026-01-24T22:15:23.890Z","date":"2026-01-24","time":"22:15:23"},{"rt":null,"stimulus":"<p style=\"font-size: 50px; margin: 0; text-align: center;\">+</p>","response":null,"trial_type":"html-keyboard-response","trial_index":43,"plugin_version":"2.1.0","time_elapsed":111092,"subject_id":"91221","group":"Group2","condition":"1_Rep","full_date":"2026-01-24T22:15:23.890Z","date":"2026-01-24","time":"22:15:23"},{"task":"memory_phase","broad_category":"I","image_png":"I_Diorite_15.png","image_id":47,"category_name":"Diorite","category":3,"distinct_rating":3.05,"distinct_type":"Bottom","rt":null,"stimulus":"Stimuli_Rocks480/I_Diorite_15.png","response":null,"trial_type":"image-keyboard-response","trial_index":44,"plugin_version":"2.1.0","time_elapsed":113605,"subject_id":"91221","group":"Group2","condition":"1_Rep","full_date":"2026-01-24T22:15:23.890Z","date":"2026-01-24","time":"22:15:23"},{"rt":null,"stimulus":"<p style=\"font-size: 50px; margin: 0; text-align: center;\">+</p>","response":null,"trial_type":"html-keyboard-response","trial_index":45,"plugin_version":"2.1.0","time_elapsed":114608,"subject_id":"91221","group":"Group2","condition":"1_Rep","full_date":"2026-01-24T22:15:23.890Z","date":"2026-01-24","time":"22:15:23"},{"task":"memory_phase","broad_category":"I","image_png":"I_Andesite_04.png","image_id":4,"category_name":"Andesite","category":1,"distinct_rating":3.18,"distinct_type":"Bottom","rt":null,"stimulus":"Stimuli_Rocks480/I_Andesite_04.png","response":null,"trial_type":"image-keyboard-response","trial_index":46,"plugin_version":"2.1.0","time_elapsed":117124,"subject_id":"91221","group":"Group2","condition":"1_Rep","full_date":"2026-01-24T22:15:23.890Z","date":"2026-01-24","time":"22:15:23"},{"rt":null,"stimulus":"<p style=\"font-size: 50px; margin: 0; text-align: center;\">+</p>","response":null,"trial_type":"html-keyboard-response","trial_index":47,"plugin_version":"2.1.0","time_elapsed":118127,"subject_id":"91221","group":"Group2","condition":"1_Rep","full_date":"2026-01-24T22:15:23.890Z","date":"2026-01-24","time":"22:15:23"},{"task":"memory_phase","broad_category":"I","image_png":"I_Pumice_01.png","image_id":129,"category_name":"Pumice","category":9,"distinct_rating":3.25,"distinct_type":"Bottom","rt":null,"stimulus":"Stimuli_Rocks480/I_Pumice_01.png","response":null,"trial_type":"image-keyboard-response","trial_index":48,"plugin_version":"2.1.0","time_elapsed":120642,"subject_id":"91221","group":"Group2","condition":"1_Rep","full_date":"2026-01-24T22:15:23.890Z","date":"2026-01-24","time":"22:15:23"},{"rt":null,"stimulus":"<p style=\"font-size: 50px; margin: 0; text-align: center;\">+</p>","response":null,"trial_type":"html-keyboard-response","trial_index":49,"plugin_version":"2.1.0","time_elapsed":121645,"subject_id":"91221","group":"Group2","condition":"1_Rep","full_date":"2026-01-24T22:15:23.890Z","date":"2026-01-24","time":"22:15:23"},{"task":"memory_phase","broad_category":"M","image_png":"M_Gneiss_14.png","image_id":206,"category_name":"Gneiss","category":13,"distinct_rating":3.41,"distinct_type":"Bottom","rt":null,"stimulus":"Stimuli_Rocks480/M_Gneiss_14.png","response":null,"trial_type":"image-keyboard-response","trial_index":50,"plugin_version":"2.1.0","time_elapsed":124161,"subject_id":"91221","group":"Group2","condition":"1_Rep","full_date":"2026-01-24T22:15:23.890Z","date":"2026-01-24","time":"22:15:23"},{"rt":null,"stimulus":"<p style=\"font-size: 50px; margin: 0; text-align: center;\">+</p>","response":null,"trial_type":"html-keyboard-response","trial_index":51,"plugin_version":"2.1.0","time_elapsed":125163,"subject_id":"91221","group":"Group2","condition":"1_Rep","full_date":"2026-01-24T22:15:23.890Z","date":"2026-01-24","time":"22:15:23"},{"task":"memory_phase","broad_category":"S","image_png":"S_Chert_13.png","image_id":365,"category_name":"Chert","category":23,"distinct_rating":6.57,"distinct_type":"Top","rt":null,"stimulus":"Stimuli_Rocks480/S_Chert_13.png","response":null,"trial_type":"image-keyboard-response","trial_index":52,"plugin_version":"2.1.0","time_elapsed":127673,"subject_id":"91221","group":"Group2","condition":"1_Rep","full_date":"2026-01-24T22:15:23.890Z","date":"2026-01-24","time":"22:15:23"},{"rt":null,"stimulus":"<p style=\"font-size: 50px; margin: 0; text-align: center;\">+</p>","response":null,"trial_type":"html-keyboard-response","trial_index":53,"plugin_version":"2.1.0","time_elapsed":128675,"subject_id":"91221","group":"Group2","condition":"1_Rep","full_date":"2026-01-24T22:15:23.890Z","date":"2026-01-24","time":"22:15:23"},{"task":"memory_phase","broad_category":"I","image_png":"I_Pegmatite_11.png","image_id":107,"category_name":"Pegmatite","category":7,"distinct_rating":7.11,"distinct_type":"Top","rt":null,"stimulus":"Stimuli_Rocks480/I_Pegmatite_11.png","response":null,"trial_type":"image-keyboard-response","trial_index":54,"plugin_version":"2.1.0","time_elapsed":131195,"subject_id":"91221","group":"Group2","condition":"1_Rep","full_date":"2026-01-24T22:15:23.890Z","date":"2026-01-24","time":"22:15:23"},{"rt":2962,"stimulus":"<p style=\"max-width: 760px; margin: auto; font-size: 35px; line-height: 1.5;\">\n                Press SPACE to continue study phase\n              </p>","response":" ","trial_type":"html-keyboard-response","trial_index":55,"plugin_version":"2.1.0","time_elapsed":134160,"subject_id":"91221","group":"Group2","condition":"1_Rep","full_date":"2026-01-24T22:15:23.890Z","date":"2026-01-24","time":"22:15:23"},{"rt":null,"stimulus":"<p style=\"font-size: 50px; margin: 0; text-align: center;\">+</p>","response":null,"trial_type":"html-keyboard-response","trial_index":56,"plugin_version":"2.1.0","time_elapsed":135163,"subject_id":"91221","group":"Group2","condition":"1_Rep","full_date":"2026-01-24T22:15:23.890Z","date":"2026-01-24","time":"22:15:23"},{"task":"memory_phase","broad_category":"M","image_png":"M_Quartzite_12.png","image_id":284,"category_name":"Quartzite","category":18,"distinct_rating":1.92,"distinct_type":"Bottom","rt":null,"stimulus":"Stimuli_Rocks480/M_Quartzite_12.png","response":null,"trial_type":"image-keyboard-response","trial_index":57,"plugin_version":"2.1.0","time_elapsed":137675,"subject_id":"91221","group":"Group2","condition":"1_Rep","full_date":"2026-01-24T22:15:23.890Z","date":"2026-01-24","time":"22:15:23"},{"rt":null,"stimulus":"<p style=\"font-size: 50px; margin: 0; text-align: center;\">+</p>","response":null,"trial_type":"html-keyboard-response","trial_index":58,"plugin_version":"2.1.0","time_elapsed":138677,"subject_id":"91221","group":"Group2","condition":"1_Rep","full_date":"2026-01-24T22:15:23.890Z","date":"2026-01-24","time":"22:15:23"},{"task":"memory_phase","broad_category":"M","image_png":"M_Phyllite_13.png","image_id":269,"category_name":"Phyllite","category":17,"distinct_rating":2.8,"distinct_type":"Bottom","rt":null,"stimulus":"Stimuli_Rocks480/M_Phyllite_13.png","response":null,"trial_type":"image-keyboard-response","trial_index":59,"plugin_version":"2.1.0","time_elapsed":141192,"subject_id":"91221","group":"Group2","condition":"1_Rep","full_date":"2026-01-24T22:15:23.890Z","date":"2026-01-24","time":"22:15:23"},{"rt":null,"stimulus":"<p style=\"font-size: 50px; margin: 0; text-align: center;\">+</p>","response":null,"trial_type":"html-keyboard-response","trial_index":60,"plugin_version":"2.1.0","time_elapsed":142194,"subject_id":"91221","group":"Group2","condition":"1_Rep","full_date":"2026-01-24T22:15:23.890Z","date":"2026-01-24","time":"22:15:23"},{"task":"memory_phase","broad_category":"S","image_png":"S_Sandstone_04.png","image_id":452,"category_name":"Sandstone","category":29,"distinct_rating":1.8,"distinct_type":"Bottom","rt":null,"stimulus":"Stimuli_Rocks480/S_Sandstone_04.png","response":null,"trial_type":"image-keyboard-response","trial_index":61,"plugin_version":"2.1.0","time_elapsed":144710,"subject_id":"91221","group":"Group2","condition":"1_Rep","full_date":"2026-01-24T22:15:23.890Z","date":"2026-01-24","time":"22:15:23"},{"rt":null,"stimulus":"<p style=\"font-size: 50px; margin: 0; text-align: center;\">+</p>","response":null,"trial_type":"html-keyboard-response","trial_index":62,"plugin_version":"2.1.0","time_elapsed":145712,"subject_id":"91221","group":"Group2","condition":"1_Rep","full_date":"2026-01-24T22:15:23.890Z","date":"2026-01-24","time":"22:15:23"},{"task":"memory_phase","broad_category":"I","image_png":"I_Andesite_09.png","image_id":9,"category_name":"Andesite","category":1,"distinct_rating":2.49,"distinct_type":"Bottom","rt":null,"stimulus":"Stimuli_Rocks480/I_Andesite_09.png","response":null,"trial_type":"image-keyboard-response","trial_index":63,"plugin_version":"2.1.0","time_elapsed":148225,"subject_id":"91221","group":"Group2","condition":"1_Rep","full_date":"2026-01-24T22:15:23.890Z","date":"2026-01-24","time":"22:15:23"},{"rt":null,"stimulus":"<p style=\"font-size: 50px; margin: 0; text-align: center;\">+</p>","response":null,"trial_type":"html-keyboard-response","trial_index":64,"plugin_version":"2.1.0","time_elapsed":149227,"subject_id":"91221","group":"Group2","condition":"1_Rep","full_date":"2026-01-24T22:15:23.890Z","date":"2026-01-24","time":"22:15:23"},{"task":"memory_phase","broad_category":"I","image_png":"I_Rhyolite_08.png","image_id":152,"category_name":"Rhyolite","category":10,"distinct_rating":1.38,"distinct_type":"Bottom","rt":null,"stimulus":"Stimuli_Rocks480/I_Rhyolite_08.png","response":null,"trial_type":"image-keyboard-response","trial_index":65,"plugin_version":"2.1.0","time_elapsed":151741,"subject_id":"91221","group":"Group2","condition":"1_Rep","full_date":"2026-01-24T22:15:23.890Z","date":"2026-01-24","time":"22:15:23"},{"rt":null,"stimulus":"<p style=\"font-size: 50px; margin: 0; text-align: center;\">+</p>","response":null,"trial_type":"html-keyboard-response","trial_index":66,"plugin_version":"2.1.0","time_elapsed":152743,"subject_id":"91221","group":"Group2","condition":"1_Rep","full_date":"2026-01-24T22:15:23.890Z","date":"2026-01-24","time":"22:15:23"},{"task":"memory_phase","broad_category":"M","image_png":"M_Marble_02.png","image_id":226,"category_name":"Marble","category":15,"distinct_rating":3.2,"distinct_type":"Bottom","rt":null,"stimulus":"Stimuli_Rocks480/M_Marble_02.png","response":null,"trial_type":"image-keyboard-response","trial_index":67,"plugin_version":"2.1.0","time_elapsed":155256,"subject_id":"91221","group":"Group2","condition":"1_Rep","full_date":"2026-01-24T22:15:23.890Z","date":"2026-01-24","time":"22:15:23"},{"rt":null,"stimulus":"<p style=\"font-size: 50px; margin: 0; text-align: center;\">+</p>","response":null,"trial_type":"html-keyboard-response","trial_index":68,"plugin_version":"2.1.0","time_elapsed":156258,"subject_id":"91221","group":"Group2","condition":"1_Rep","full_date":"2026-01-24T22:15:23.890Z","date":"2026-01-24","time":"22:15:23"},{"task":"memory_phase","broad_category":"M","image_png":"M_Quartzite_15.png","image_id":287,"category_name":"Quartzite","category":18,"distinct_rating":2.19,"distinct_type":"Bottom","rt":null,"stimulus":"Stimuli_Rocks480/M_Quartzite_15.png","response":null,"trial_type":"image-keyboard-response","trial_index":69,"plugin_version":"2.1.0","time_elapsed":158776,"subject_id":"91221","group":"Group2","condition":"1_Rep","full_date":"2026-01-24T22:15:23.890Z","date":"2026-01-24","time":"22:15:23"},{"rt":null,"stimulus":"<p style=\"font-size: 50px; margin: 0; text-align: center;\">+</p>","response":null,"trial_type":"html-keyboard-response","trial_index":70,"plugin_version":"2.1.0","time_elapsed":159778,"subject_id":"91221","group":"Group2","condition":"1_Rep","full_date":"2026-01-24T22:15:23.890Z","date":"2026-01-24","time":"22:15:23"},{"task":"memory_phase","broad_category":"I","image_png":"I_Rhyolite_10.png","image_id":154,"category_name":"Rhyolite","category":10,"distinct_rating":2.88,"distinct_type":"Bottom","rt":null,"stimulus":"Stimuli_Rocks480/I_Rhyolite_10.png","response":null,"trial_type":"image-keyboard-response","trial_index":71,"plugin_version":"2.1.0","time_elapsed":162299,"subject_id":"91221","group":"Group2","condition":"1_Rep","full_date":"2026-01-24T22:15:23.890Z","date":"2026-01-24","time":"22:15:23"},{"rt":null,"stimulus":"<p style=\"font-size: 50px; margin: 0; text-align: center;\">+</p>","response":null,"trial_type":"html-keyboard-response","trial_index":72,"plugin_version":"2.1.0","time_elapsed":163302,"subject_id":"91221","group":"Group2","condition":"1_Rep","full_date":"2026-01-24T22:15:23.890Z","date":"2026-01-24","time":"22:15:23"},{"task":"memory_phase","broad_category":"I","image_png":"I_Pumice_14.png","image_id":142,"category_name":"Pumice","category":9,"distinct_rating":3.22,"distinct_type":"Bottom","rt":null,"stimulus":"Stimuli_Rocks480/I_Pumice_14.png","response":null,"trial_type":"image-keyboard-response","trial_index":73,"plugin_version":"2.1.0","time_elapsed":165817,"subject_id":"91221","group":"Group2","condition":"1_Rep","full_date":"2026-01-24T22:15:23.890Z","date":"2026-01-24","time":"22:15:23"},{"rt":null,"stimulus":"<p style=\"font-size: 50px; margin: 0; text-align: center;\">+</p>","response":null,"trial_type":"html-keyboard-response","trial_index":74,"plugin_version":"2.1.0","time_elapsed":166819,"subject_id":"91221","group":"Group2","condition":"1_Rep","full_date":"2026-01-24T22:15:23.890Z","date":"2026-01-24","time":"22:15:23"},{"task":"memory_phase","broad_category":"I","image_png":"I_Pegmatite_03.png","image_id":99,"category_name":"Pegmatite","category":7,"distinct_rating":7.24,"distinct_type":"Top","rt":null,"stimulus":"Stimuli_Rocks480/I_Pegmatite_03.png","response":null,"trial_type":"image-keyboard-response","trial_index":75,"plugin_version":"2.1.0","time_elapsed":169334,"subject_id":"91221","group":"Group2","condition":"1_Rep","full_date":"2026-01-24T22:15:23.890Z","date":"2026-01-24","time":"22:15:23"},{"rt":null,"stimulus":"<p style=\"font-size: 50px; margin: 0; text-align: center;\">+</p>","response":null,"trial_type":"html-keyboard-response","trial_index":76,"plugin_version":"2.1.0","time_elapsed":170336,"subject_id":"91221","group":"Group2","condition":"1_Rep","full_date":"2026-01-24T22:15:23.890Z","date":"2026-01-24","time":"22:15:23"},{"task":"memory_phase","broad_category":"S","image_png":"S_Rock Salt_15.png","image_id":447,"category_name":"Rock Salt","category":28,"distinct_rating":7.79,"distinct_type":"Top","rt":null,"stimulus":"Stimuli_Rocks480/S_Rock Salt_15.png","response":null,"trial_type":"image-keyboard-response","trial_index":77,"plugin_version":"2.1.0","time_elapsed":172853,"subject_id":"91221","group":"Group2","condition":"1_Rep","full_date":"2026-01-24T22:15:23.890Z","date":"2026-01-24","time":"22:15:23"},{"rt":null,"stimulus":"<p style=\"font-size: 50px; margin: 0; text-align: center;\">+</p>","response":null,"trial_type":"html-keyboard-response","trial_index":78,"plugin_version":"2.1.0","time_elapsed":173855,"subject_id":"91221","group":"Group2","condition":"1_Rep","full_date":"2026-01-24T22:15:23.890Z","date":"2026-01-24","time":"22:15:23"},{"task":"memory_phase","broad_category":"M","image_png":"M_Slate_14.png","image_id":318,"category_name":"Slate","category":20,"distinct_rating":2.58,"distinct_type":"Bottom","rt":null,"stimulus":"Stimuli_Rocks480/M_Slate_14.png","response":null,"trial_type":"image-keyboard-response","trial_index":79,"plugin_version":"2.1.0","time_elapsed":176365,"subject_id":"91221","group":"Group2","condition":"1_Rep","full_date":"2026-01-24T22:15:23.890Z","date":"2026-01-24","time":"22:15:23"},{"rt":null,"stimulus":"<p style=\"font-size: 50px; margin: 0; text-align: center;\">+</p>","response":null,"trial_type":"html-keyboard-response","trial_index":80,"plugin_version":"2.1.0","time_elapsed":177368,"subject_id":"91221","group":"Group2","condition":"1_Rep","full_date":"2026-01-24T22:15:23.890Z","date":"2026-01-24","time":"22:15:23"},{"task":"memory_phase","broad_category":"M","image_png":"M_Slate_04.png","image_id":308,"category_name":"Slate","category":20,"distinct_rating":2.2,"distinct_type":"Bottom","rt":null,"stimulus":"Stimuli_Rocks480/M_Slate_04.png","response":null,"trial_type":"image-keyboard-response","trial_index":81,"plugin_version":"2.1.0","time_elapsed":179880,"subject_id":"91221","group":"Group2","condition":"1_Rep","full_date":"2026-01-24T22:15:23.890Z","date":"2026-01-24","time":"22:15:23"},{"rt":null,"stimulus":"<p style=\"font-size: 50px; margin: 0; text-align: center;\">+</p>","response":null,"trial_type":"html-keyboard-response","trial_index":82,"plugin_version":"2.1.0","time_elapsed":180882,"subject_id":"91221","group":"Group2","condition":"1_Rep","full_date":"2026-01-24T22:15:23.890Z","date":"2026-01-24","time":"22:15:23"},{"task":"memory_phase","broad_category":"I","image_png":"I_Diorite_01.png","image_id":33,"category_name":"Diorite","category":3,"distinct_rating":2.97,"distinct_type":"Bottom","rt":null,"stimulus":"Stimuli_Rocks480/I_Diorite_01.png","response":null,"trial_type":"image-keyboard-response","trial_index":83,"plugin_version":"2.1.0","time_elapsed":183401,"subject_id":"91221","group":"Group2","condition":"1_Rep","full_date":"2026-01-24T22:15:23.890Z","date":"2026-01-24","time":"22:15:23"},{"rt":null,"stimulus":"<p style=\"font-size: 50px; margin: 0; text-align: center;\">+</p>","response":null,"trial_type":"html-keyboard-response","trial_index":84,"plugin_version":"2.1.0","time_elapsed":184404,"subject_id":"91221","group":"Group2","condition":"1_Rep","full_date":"2026-01-24T22:15:23.890Z","date":"2026-01-24","time":"22:15:23"},{"task":"memory_phase","broad_category":"I","image_png":"I_Rhyolite_05.png","image_id":149,"category_name":"Rhyolite","category":10,"distinct_rating":3.02,"distinct_type":"Bottom","rt":null,"stimulus":"Stimuli_Rocks480/I_Rhyolite_05.png","response":null,"trial_type":"image-keyboard-response","trial_index":85,"plugin_version":"2.1.0","time_elapsed":186922,"subject_id":"91221","group":"Group2","condition":"1_Rep","full_date":"2026-01-24T22:15:23.890Z","date":"2026-01-24","time":"22:15:23"},{"rt":null,"stimulus":"<p style=\"font-size: 50px; margin: 0; text-align: center;\">+</p>","response":null,"trial_type":"html-keyboard-response","trial_index":86,"plugin_version":"2.1.0","time_elapsed":187924,"subject_id":"91221","group":"Group2","condition":"1_Rep","full_date":"2026-01-24T22:15:23.890Z","date":"2026-01-24","time":"22:15:23"},{"task":"memory_phase","broad_category":"S","image_png":"S_Shale_03.png","image_id":467,"category_name":"Shale","category":30,"distinct_rating":1.95,"distinct_type":"Bottom","rt":null,"stimulus":"Stimuli_Rocks480/S_Shale_03.png","response":null,"trial_type":"image-keyboard-response","trial_index":87,"plugin_version":"2.1.0","time_elapsed":190443,"subject_id":"91221","group":"Group2","condition":"1_Rep","full_date":"2026-01-24T22:15:23.890Z","date":"2026-01-24","time":"22:15:23"},{"rt":null,"stimulus":"<p style=\"font-size: 50px; margin: 0; text-align: center;\">+</p>","response":null,"trial_type":"html-keyboard-response","trial_index":88,"plugin_version":"2.1.0","time_elapsed":191445,"subject_id":"91221","group":"Group2","condition":"1_Rep","full_date":"2026-01-24T22:15:23.890Z","date":"2026-01-24","time":"22:15:23"},{"task":"memory_phase","broad_category":"I","image_png":"I_Basalt_08.png","image_id":24,"category_name":"Basalt","category":2,"distinct_rating":2.31,"distinct_type":"Bottom","rt":null,"stimulus":"Stimuli_Rocks480/I_Basalt_08.png","response":null,"trial_type":"image-keyboard-response","trial_index":89,"plugin_version":"2.1.0","time_elapsed":193966,"subject_id":"91221","group":"Group2","condition":"1_Rep","full_date":"2026-01-24T22:15:23.890Z","date":"2026-01-24","time":"22:15:23"},{"rt":null,"stimulus":"<p style=\"font-size: 50px; margin: 0; text-align: center;\">+</p>","response":null,"trial_type":"html-keyboard-response","trial_index":90,"plugin_version":"2.1.0","time_elapsed":194968,"subject_id":"91221","group":"Group2","condition":"1_Rep","full_date":"2026-01-24T22:15:23.890Z","date":"2026-01-24","time":"22:15:23"},{"task":"memory_phase","broad_category":"S","image_png":"S_Sandstone_08.png","image_id":456,"category_name":"Sandstone","category":29,"distinct_rating":1.5,"distinct_type":"Bottom","rt":null,"stimulus":"Stimuli_Rocks480/S_Sandstone_08.png","response":null,"trial_type":"image-keyboard-response","trial_index":91,"plugin_version":"2.1.0","time_elapsed":197482,"subject_id":"91221","group":"Group2","condition":"1_Rep","full_date":"2026-01-24T22:15:23.890Z","date":"2026-01-24","time":"22:15:23"},{"rt":null,"stimulus":"<p style=\"font-size: 50px; margin: 0; text-align: center;\">+</p>","response":null,"trial_type":"html-keyboard-response","trial_index":92,"plugin_version":"2.1.0","time_elapsed":198485,"subject_id":"91221","group":"Group2","condition":"1_Rep","full_date":"2026-01-24T22:15:23.890Z","date":"2026-01-24","time":"22:15:23"},{"task":"memory_phase","broad_category":"S","image_png":"S_Shale_07.png","image_id":471,"category_name":"Shale","category":30,"distinct_rating":2.73,"distinct_type":"Bottom","rt":null,"stimulus":"Stimuli_Rocks480/S_Shale_07.png","response":null,"trial_type":"image-keyboard-response","trial_index":93,"plugin_version":"2.1.0","time_elapsed":200999,"subject_id":"91221","group":"Group2","condition":"1_Rep","full_date":"2026-01-24T22:15:23.890Z","date":"2026-01-24","time":"22:15:23"},{"rt":null,"stimulus":"<p style=\"font-size: 50px; margin: 0; text-align: center;\">+</p>","response":null,"trial_type":"html-keyboard-response","trial_index":94,"plugin_version":"2.1.0","time_elapsed":202001,"subject_id":"91221","group":"Group2","condition":"1_Rep","full_date":"2026-01-24T22:15:23.890Z","date":"2026-01-24","time":"22:15:23"},{"task":"memory_phase","broad_category":"S","image_png":"S_Dolomite_07.png","image_id":391,"category_name":"Dolomite","category":25,"distinct_rating":1.73,"distinct_type":"Bottom","rt":null,"stimulus":"Stimuli_Rocks480/S_Dolomite_07.png","response":null,"trial_type":"image-keyboard-response","trial_index":95,"plugin_version":"2.1.0","time_elapsed":204516,"subject_id":"91221","group":"Group2","condition":"1_Rep","full_date":"2026-01-24T22:15:23.890Z","date":"2026-01-24","time":"22:15:23"},{"rt":null,"stimulus":"<p style=\"font-size: 50px; margin: 0; text-align: center;\">+</p>","response":null,"trial_type":"html-keyboard-response","trial_index":96,"plugin_version":"2.1.0","time_elapsed":205518,"subject_id":"91221","group":"Group2","condition":"1_Rep","full_date":"2026-01-24T22:15:23.890Z","date":"2026-01-24","time":"22:15:23"},{"task":"memory_phase","broad_category":"S","image_png":"S_Dolomite_16.png","image_id":400,"category_name":"Dolomite","category":25,"distinct_rating":1.71,"distinct_type":"Bottom","rt":null,"stimulus":"Stimuli_Rocks480/S_Dolomite_16.png","response":null,"trial_type":"image-keyboard-response","trial_index":97,"plugin_version":"2.1.0","time_elapsed":208034,"subject_id":"91221","group":"Group2","condition":"1_Rep","full_date":"2026-01-24T22:15:23.890Z","date":"2026-01-24","time":"22:15:23"},{"rt":null,"stimulus":"<p style=\"font-size: 50px; margin: 0; text-align: center;\">+</p>","response":null,"trial_type":"html-keyboard-response","trial_index":98,"plugin_version":"2.1.0","time_elapsed":209037,"subject_id":"91221","group":"Group2","condition":"1_Rep","full_date":"2026-01-24T22:15:23.890Z","date":"2026-01-24","time":"22:15:23"},{"task":"memory_phase","broad_category":"M","image_png":"M_Phyllite_02.png","image_id":258,"category_name":"Phyllite","category":17,"distinct_rating":2.89,"distinct_type":"Bottom","rt":null,"stimulus":"Stimuli_Rocks480/M_Phyllite_02.png","response":null,"trial_type":"image-keyboard-response","trial_index":99,"plugin_version":"2.1.0","time_elapsed":211554,"subject_id":"91221","group":"Group2","condition":"1_Rep","full_date":"2026-01-24T22:15:23.890Z","date":"2026-01-24","time":"22:15:23"},{"rt":null,"stimulus":"<p style=\"font-size: 50px; margin: 0; text-align: center;\">+</p>","response":null,"trial_type":"html-keyboard-response","trial_index":100,"plugin_version":"2.1.0","time_elapsed":212557,"subject_id":"91221","group":"Group2","condition":"1_Rep","full_date":"2026-01-24T22:15:23.890Z","date":"2026-01-24","time":"22:15:23"},{"task":"memory_phase","broad_category":"I","image_png":"I_Gabbro_14.png","image_id":62,"category_name":"Gabbro","category":4,"distinct_rating":2.95,"distinct_type":"Bottom","rt":null,"stimulus":"Stimuli_Rocks480/I_Gabbro_14.png","response":null,"trial_type":"image-keyboard-response","trial_index":101,"plugin_version":"2.1.0","time_elapsed":215074,"subject_id":"91221","group":"Group2","condition":"1_Rep","full_date":"2026-01-24T22:15:23.890Z","date":"2026-01-24","time":"22:15:23"},{"rt":null,"stimulus":"<p style=\"font-size: 50px; margin: 0; text-align: center;\">+</p>","response":null,"trial_type":"html-keyboard-response","trial_index":102,"plugin_version":"2.1.0","time_elapsed":216076,"subject_id":"91221","group":"Group2","condition":"1_Rep","full_date":"2026-01-24T22:15:23.890Z","date":"2026-01-24","time":"22:15:23"},{"task":"memory_phase","broad_category":"I","image_png":"I_Peridotite_13.png","image_id":125,"category_name":"Peridotite","category":8,"distinct_rating":7.28,"distinct_type":"Top","rt":null,"stimulus":"Stimuli_Rocks480/I_Peridotite_13.png","response":null,"trial_type":"image-keyboard-response","trial_index":103,"plugin_version":"2.1.0","time_elapsed":218595,"subject_id":"91221","group":"Group2","condition":"1_Rep","full_date":"2026-01-24T22:15:23.890Z","date":"2026-01-24","time":"22:15:23"},{"rt":null,"stimulus":"<p style=\"font-size: 50px; margin: 0; text-align: center;\">+</p>","response":null,"trial_type":"html-keyboard-response","trial_index":104,"plugin_version":"2.1.0","time_elapsed":219597,"subject_id":"91221","group":"Group2","condition":"1_Rep","full_date":"2026-01-24T22:15:23.890Z","date":"2026-01-24","time":"22:15:23"},{"task":"memory_phase","broad_category":"I","image_png":"I_Gabbro_02.png","image_id":50,"category_name":"Gabbro","category":4,"distinct_rating":2.73,"distinct_type":"Bottom","rt":null,"stimulus":"Stimuli_Rocks480/I_Gabbro_02.png","response":null,"trial_type":"image-keyboard-response","trial_index":105,"plugin_version":"2.1.0","time_elapsed":222112,"subject_id":"91221","group":"Group2","condition":"1_Rep","full_date":"2026-01-24T22:15:23.890Z","date":"2026-01-24","time":"22:15:23"},{"rt":4839,"stimulus":"<div style=\"max-width: 760px; margin: auto; font-size: 20px; line-height: 1.5;\">\n      <h1 style=\"text-align:center; font-size: 30px;\">Instructions for the Test Phase</h1>\n      <p>\n        The study phase is now complete.\n      </p>\n      <p>\n        In the test phase, you will again see a series of rock images. \n        Some will be ones you saw before - during the study phase, while others will be new.  \n        <b>Your task</b> is to decide whether you have seen each image before by pressing the corresponding key on your keyboard:<br><br>\n          <b>A</b> - NO (you did not see this image before)<br>\n          <b>L</b> - YES (you saw this image before)<br><br>\n        The test will proceed at your own pace. You will receive feedback after each response.  \n        Please try to respond <b>as accurately as possible</b>.\n      </p>\n      <p>\n        <b>Reminder:</b> If your computer has multiple language settings (e.g., English and another language),\n        please ensure it is set to English during the test phase.\n      </p>\n      <p>\n        You can track your progress using the <b>completion bar</b> at the top of the screen.  \n        Note that it has been refreshed to reflect your progress during this final phase.\n      </p>\n      <p>\n        Press the button below when you are ready to continue.\n      </p>\n    </div>","response":0,"trial_type":"html-button-response","trial_index":106,"plugin_version":"2.1.0","time_elapsed":226954,"subject_id":"91221","group":"Group2","condition":"1_Rep","full_date":"2026-01-24T22:15:23.890Z","date":"2026-01-24","time":"22:15:23"},{"correct_response":"a","task":"test_phase","broad_category":"S","image_png":"S_Sandstone_16.png","image_id":464,"category_name":"Sandstone","category":29,"distinct_rating":1.93,"distinct_type":"Bottom","item_type":"Foil","rt":9409,"stimulus":"Stimuli_Rocks480/S_Sandstone_16.png","response":"a","trial_type":"image-keyboard-response","trial_index":107,"plugin_version":"2.1.0","time_elapsed":236373,"subject_id":"91221","group":"Group2","condition":"1_Rep","full_date":"2026-01-24T22:15:23.890Z","date":"2026-01-24","time":"22:15:23","cor_ans":true},{"trial_type":"html-keyboard-response","rt":null,"stimulus":"<p style=\"color: green; font-size: 50px; font-weight: bold;\">Correct</p>","response":null,"trial_index":108,"plugin_version":"2.1.0","time_elapsed":236875,"subject_id":"91221","group":"Group2","condition":"1_Rep","full_date":"2026-01-24T22:15:23.890Z","date":"2026-01-24","time":"22:15:23"},{"correct_response":"a","task":"test_phase","broad_category":"M","image_png":"M_Slate_11.png","image_id":315,"category_name":"Slate","category":20,"distinct_rating":2.75,"distinct_type":"Bottom","item_type":"Foil","rt":5503,"stimulus":"Stimuli_Rocks480/M_Slate_11.png","response":"l","trial_type":"image-keyboard-response","trial_index":109,"plugin_version":"2.1.0","time_elapsed":242390,"subject_id":"91221","group":"Group2","condition":"1_Rep","full_date":"2026-01-24T22:15:23.890Z","date":"2026-01-24","time":"22:15:23","cor_ans":false},{"trial_type":"html-keyboard-response","rt":null,"stimulus":"<p style=\"color: red; font-size: 50px; font-weight: bold;\">Incorrect</p>","response":null,"trial_index":110,"plugin_version":"2.1.0","time_elapsed":242892,"subject_id":"91221","group":"Group2","condition":"1_Rep","full_date":"2026-01-24T22:15:23.890Z","date":"2026-01-24","time":"22:15:23"},{"correct_response":"l","task":"test_phase","broad_category":"M","image_png":"M_Gneiss_14.png","image_id":206,"category_name":"Gneiss","category":13,"distinct_rating":3.41,"distinct_type":"Bottom","item_type":"Target","rt":1946,"stimulus":"Stimuli_Rocks480/M_Gneiss_14.png","response":"l","trial_type":"image-keyboard-response","trial_index":111,"plugin_version":"2.1.0","time_elapsed":244853,"subject_id":"91221","group":"Group2","condition":"1_Rep","full_date":"2026-01-24T22:15:23.890Z","date":"2026-01-24","time":"22:15:23","cor_ans":true},{"trial_type":"html-keyboard-response","rt":null,"stimulus":"<p style=\"color: green; font-size: 50px; font-weight: bold;\">Correct</p>","response":null,"trial_index":112,"plugin_version":"2.1.0","time_elapsed":245355,"subject_id":"91221","group":"Group2","condition":"1_Rep","full_date":"2026-01-24T22:15:23.890Z","date":"2026-01-24","time":"22:15:23"},{"correct_response":"l","task":"test_phase","broad_category":"S","image_png":"S_Dolomite_07.png","image_id":391,"category_name":"Dolomite","category":25,"distinct_rating":1.73,"distinct_type":"Bottom","item_type":"Target","rt":3674,"stimulus":"Stimuli_Rocks480/S_Dolomite_07.png","response":"l","trial_type":"image-keyboard-response","trial_index":113,"plugin_version":"2.1.0","time_elapsed":249031,"subject_id":"91221","group":"Group2","condition":"1_Rep","full_date":"2026-01-24T22:15:23.890Z","date":"2026-01-24","time":"22:15:23","cor_ans":true},{"trial_type":"html-keyboard-response","rt":null,"stimulus":"<p style=\"color: green; font-size: 50px; font-weight: bold;\">Correct</p>","response":null,"trial_index":114,"plugin_version":"2.1.0","time_elapsed":249532,"subject_id":"91221","group":"Group2","condition":"1_Rep","full_date":"2026-01-24T22:15:23.890Z","date":"2026-01-24","time":"22:15:23"},{"correct_response":"a","task":"test_phase","broad_category":"S","image_png":"S_Shale_12.png","image_id":476,"category_name":"Shale","category":30,"distinct_rating":2.48,"distinct_type":"Bottom","item_type":"Foil","rt":2378,"stimulus":"Stimuli_Rocks480/S_Shale_12.png","response":"a","trial_type":"image-keyboard-response","trial_index":115,"plugin_version":"2.1.0","time_elapsed":251926,"subject_id":"91221","group":"Group2","condition":"1_Rep","full_date":"2026-01-24T22:15:23.890Z","date":"2026-01-24","time":"22:15:23","cor_ans":true},{"trial_type":"html-keyboard-response","rt":null,"stimulus":"<p style=\"color: green; font-size: 50px; font-weight: bold;\">Correct</p>","response":null,"trial_index":116,"plugin_version":"2.1.0","time_elapsed":252428,"subject_id":"91221","group":"Group2","condition":"1_Rep","full_date":"2026-01-24T22:15:23.890Z","date":"2026-01-24","time":"22:15:23"},{"correct_response":"l","task":"test_phase","broad_category":"I","image_png":"I_Diorite_10.png","image_id":42,"category_name":"Diorite","category":3,"distinct_rating":2.84,"distinct_type":"Bottom","item_type":"Target","rt":3016,"stimulus":"Stimuli_Rocks480/I_Diorite_10.png","response":"a","trial_type":"image-keyboard-response","trial_index":117,"plugin_version":"2.1.0","time_elapsed":255457,"subject_id":"91221","group":"Group2","condition":"1_Rep","full_date":"2026-01-24T22:15:23.890Z","date":"2026-01-24","time":"22:15:23","cor_ans":false},{"trial_type":"html-keyboard-response","rt":null,"stimulus":"<p style=\"color: red; font-size: 50px; font-weight: bold;\">Incorrect</p>","response":null,"trial_index":118,"plugin_version":"2.1.0","time_elapsed":255959,"subject_id":"91221","group":"Group2","condition":"1_Rep","full_date":"2026-01-24T22:15:23.890Z","date":"2026-01-24","time":"22:15:23"},{"correct_response":"a","task":"test_phase","broad_category":"I","image_png":"I_Gabbro_08.png","image_id":56,"category_name":"Gabbro","category":4,"distinct_rating":3.02,"distinct_type":"Bottom","item_type":"Foil","rt":3412,"stimulus":"Stimuli_Rocks480/I_Gabbro_08.png","response":"a","trial_type":"image-keyboard-response","trial_index":119,"plugin_version":"2.1.0","time_elapsed":259384,"subject_id":"91221","group":"Group2","condition":"1_Rep","full_date":"2026-01-24T22:15:23.890Z","date":"2026-01-24","time":"22:15:23","cor_ans":true},{"trial_type":"html-keyboard-response","rt":null,"stimulus":"<p style=\"color: green; font-size: 50px; font-weight: bold;\">Correct</p>","response":null,"trial_index":120,"plugin_version":"2.1.0","time_elapsed":259886,"subject_id":"91221","group":"Group2","condition":"1_Rep","full_date":"2026-01-24T22:15:23.890Z","date":"2026-01-24","time":"22:15:23"},{"correct_response":"a","task":"test_phase","broad_category":"S","image_png":"S_Conglomerate_05.png","image_id":373,"category_name":"Conglomerate","category":24,"distinct_rating":7.32,"distinct_type":"Top","item_type":"Foil","rt":2241,"stimulus":"Stimuli_Rocks480/S_Conglomerate_05.png","response":"a","trial_type":"image-keyboard-response","trial_index":121,"plugin_version":"2.1.0","time_elapsed":262141,"subject_id":"91221","group":"Group2","condition":"1_Rep","full_date":"2026-01-24T22:15:23.890Z","date":"2026-01-24","time":"22:15:23","cor_ans":true},{"trial_type":"html-keyboard-response","rt":null,"stimulus":"<p style=\"color: green; font-size: 50px; font-weight: bold;\">Correct</p>","response":null,"trial_index":122,"plugin_version":"2.1.0","time_elapsed":262644,"subject_id":"91221","group":"Group2","condition":"1_Rep","full_date":"2026-01-24T22:15:23.890Z","date":"2026-01-24","time":"22:15:23"},{"correct_response":"l","task":"test_phase","broad_category":"M","image_png":"M_Phyllite_02.png","image_id":258,"category_name":"Phyllite","category":17,"distinct_rating":2.89,"distinct_type":"Bottom","item_type":"Target","rt":1436,"stimulus":"Stimuli_Rocks480/M_Phyllite_02.png","response":"l","trial_type":"image-keyboard-response","trial_index":123,"plugin_version":"2.1.0","time_elapsed":264083,"subject_id":"91221","group":"Group2","condition":"1_Rep","full_date":"2026-01-24T22:15:23.890Z","date":"2026-01-24","time":"22:15:23","cor_ans":true},{"trial_type":"html-keyboard-response","rt":null,"stimulus":"<p style=\"color: green; font-size: 50px; font-weight: bold;\">Correct</p>","response":null,"trial_index":124,"plugin_version":"2.1.0","time_elapsed":264585,"subject_id":"91221","group":"Group2","condition":"1_Rep","full_date":"2026-01-24T22:15:23.890Z","date":"2026-01-24","time":"22:15:23"},{"correct_response":"l","task":"test_phase","broad_category":"I","image_png":"I_Peridotite_13.png","image_id":125,"category_name":"Peridotite","category":8,"distinct_rating":7.28,"distinct_type":"Top","item_type":"Target","rt":1347,"stimulus":"Stimuli_Rocks480/I_Peridotite_13.png","response":"l","trial_type":"image-keyboard-response","trial_index":125,"plugin_version":"2.1.0","time_elapsed":265935,"subject_id":"91221","group":"Group2","condition":"1_Rep","full_date":"2026-01-24T22:15:23.890Z","date":"2026-01-24","time":"22:15:23","cor_ans":true},{"trial_type":"html-keyboard-response","rt":null,"stimulus":"<p style=\"color: green; font-size: 50px; font-weight: bold;\">Correct</p>","response":null,"trial_index":126,"plugin_version":"2.1.0","time_elapsed":266437,"subject_id":"91221","group":"Group2","condition":"1_Rep","full_date":"2026-01-24T22:15:23.890Z","date":"2026-01-24","time":"22:15:23"},{"correct_response":"a","task":"test_phase","broad_category":"I","image_png":"I_Gabbro_11.png","image_id":59,"category_name":"Gabbro","category":4,"distinct_rating":1.99,"distinct_type":"Bottom","item_type":"Foil","rt":2207,"stimulus":"Stimuli_Rocks480/I_Gabbro_11.png","response":"l","trial_type":"image-keyboard-response","trial_index":127,"plugin_version":"2.1.0","time_elapsed":268656,"subject_id":"91221","group":"Group2","condition":"1_Rep","full_date":"2026-01-24T22:15:23.890Z","date":"2026-01-24","time":"22:15:23","cor_ans":false},{"trial_type":"html-keyboard-response","rt":null,"stimulus":"<p style=\"color: red; font-size: 50px; font-weight: bold;\">Incorrect</p>","response":null,"trial_index":128,"plugin_version":"2.1.0","time_elapsed":269158,"subject_id":"91221","group":"Group2","condition":"1_Rep","full_date":"2026-01-24T22:15:23.890Z","date":"2026-01-24","time":"22:15:23"},{"correct_response":"l","task":"test_phase","broad_category":"I","image_png":"I_Rhyolite_05.png","image_id":149,"category_name":"Rhyolite","category":10,"distinct_rating":3.02,"distinct_type":"Bottom","item_type":"Target","rt":944,"stimulus":"Stimuli_Rocks480/I_Rhyolite_05.png","response":"l","trial_type":"image-keyboard-response","trial_index":129,"plugin_version":"2.1.0","time_elapsed":270117,"subject_id":"91221","group":"Group2","condition":"1_Rep","full_date":"2026-01-24T22:15:23.890Z","date":"2026-01-24","time":"22:15:23","cor_ans":true},{"trial_type":"html-keyboard-response","rt":null,"stimulus":"<p style=\"color: green; font-size: 50px; font-weight: bold;\">Correct</p>","response":null,"trial_index":130,"plugin_version":"2.1.0","time_elapsed":270619,"subject_id":"91221","group":"Group2","condition":"1_Rep","full_date":"2026-01-24T22:15:23.890Z","date":"2026-01-24","time":"22:15:23"},{"correct_response":"a","task":"test_phase","broad_category":"M","image_png":"M_Quartzite_08.png","image_id":280,"category_name":"Quartzite","category":18,"distinct_rating":2.15,"distinct_type":"Bottom","item_type":"Foil","rt":947,"stimulus":"Stimuli_Rocks480/M_Quartzite_08.png","response":"l","trial_type":"image-keyboard-response","trial_index":131,"plugin_version":"2.1.0","time_elapsed":271579,"subject_id":"91221","group":"Group2","condition":"1_Rep","full_date":"2026-01-24T22:15:23.890Z","date":"2026-01-24","time":"22:15:23","cor_ans":false},{"trial_type":"html-keyboard-response","rt":null,"stimulus":"<p style=\"color: red; font-size: 50px; font-weight: bold;\">Incorrect</p>","response":null,"trial_index":132,"plugin_version":"2.1.0","time_elapsed":272081,"subject_id":"91221","group":"Group2","condition":"1_Rep","full_date":"2026-01-24T22:15:23.890Z","date":"2026-01-24","time":"22:15:23"},{"correct_response":"a","task":"test_phase","broad_category":"I","image_png":"I_Basalt_09.png","image_id":25,"category_name":"Basalt","category":2,"distinct_rating":1.89,"distinct_type":"Bottom","item_type":"Foil","rt":1022,"stimulus":"Stimuli_Rocks480/I_Basalt_09.png","response":"l","trial_type":"image-keyboard-response","trial_index":133,"plugin_version":"2.1.0","time_elapsed":273114,"subject_id":"91221","group":"Group2","condition":"1_Rep","full_date":"2026-01-24T22:15:23.890Z","date":"2026-01-24","time":"22:15:23","cor_ans":false},{"trial_type":"html-keyboard-response","rt":null,"stimulus":"<p style=\"color: red; font-size: 50px; font-weight: bold;\">Incorrect</p>","response":null,"trial_index":134,"plugin_version":"2.1.0","time_elapsed":273616,"subject_id":"91221","group":"Group2","condition":"1_Rep","full_date":"2026-01-24T22:15:23.890Z","date":"2026-01-24","time":"22:15:23"},{"correct_response":"a","task":"test_phase","broad_category":"S","image_png":"S_Rock Gypsum_04.png","image_id":420,"category_name":"Rock Gypsum","category":27,"distinct_rating":7.61,"distinct_type":"Top","item_type":"Foil","rt":1660,"stimulus":"Stimuli_Rocks480/S_Rock Gypsum_04.png","response":"a","trial_type":"image-keyboard-response","trial_index":135,"plugin_version":"2.1.0","time_elapsed":275290,"subject_id":"91221","group":"Group2","condition":"1_Rep","full_date":"2026-01-24T22:15:23.890Z","date":"2026-01-24","time":"22:15:23","cor_ans":true},{"trial_type":"html-keyboard-response","rt":null,"stimulus":"<p style=\"color: green; font-size: 50px; font-weight: bold;\">Correct</p>","response":null,"trial_index":136,"plugin_version":"2.1.0","time_elapsed":275793,"subject_id":"91221","group":"Group2","condition":"1_Rep","full_date":"2026-01-24T22:15:23.890Z","date":"2026-01-24","time":"22:15:23"},{"correct_response":"a","task":"test_phase","broad_category":"I","image_png":"I_Basalt_01.png","image_id":17,"category_name":"Basalt","category":2,"distinct_rating":1.92,"distinct_type":"Bottom","item_type":"Foil","rt":1073,"stimulus":"Stimuli_Rocks480/I_Basalt_01.png","response":"l","trial_type":"image-keyboard-response","trial_index":137,"plugin_version":"2.1.0","time_elapsed":276884,"subject_id":"91221","group":"Group2","condition":"1_Rep","full_date":"2026-01-24T22:15:23.890Z","date":"2026-01-24","time":"22:15:23","cor_ans":false},{"trial_type":"html-keyboard-response","rt":null,"stimulus":"<p style=\"color: red; font-size: 50px; font-weight: bold;\">Incorrect</p>","response":null,"trial_index":138,"plugin_version":"2.1.0","time_elapsed":277386,"subject_id":"91221","group":"Group2","condition":"1_Rep","full_date":"2026-01-24T22:15:23.890Z","date":"2026-01-24","time":"22:15:23"},{"correct_response":"l","task":"test_phase","broad_category":"I","image_png":"I_Gabbro_14.png","image_id":62,"category_name":"Gabbro","category":4,"distinct_rating":2.95,"distinct_type":"Bottom","item_type":"Target","rt":5402,"stimulus":"Stimuli_Rocks480/I_Gabbro_14.png","response":"l","trial_type":"image-keyboard-response","trial_index":139,"plugin_version":"2.1.0","time_elapsed":282790,"subject_id":"91221","group":"Group2","condition":"1_Rep","full_date":"2026-01-24T22:15:23.890Z","date":"2026-01-24","time":"22:15:23","cor_ans":true},{"trial_type":"html-keyboard-response","rt":null,"stimulus":"<p style=\"color: green; font-size: 50px; font-weight: bold;\">Correct</p>","response":null,"trial_index":140,"plugin_version":"2.1.0","time_elapsed":283292,"subject_id":"91221","group":"Group2","condition":"1_Rep","full_date":"2026-01-24T22:15:23.890Z","date":"2026-01-24","time":"22:15:23"},{"correct_response":"l","task":"test_phase","broad_category":"I","image_png":"I_Basalt_13.png","image_id":29,"category_name":"Basalt","category":2,"distinct_rating":2.68,"distinct_type":"Bottom","item_type":"Target","rt":2118,"stimulus":"Stimuli_Rocks480/I_Basalt_13.png","response":"l","trial_type":"image-keyboard-response","trial_index":141,"plugin_version":"2.1.0","time_elapsed":285423,"subject_id":"91221","group":"Group2","condition":"1_Rep","full_date":"2026-01-24T22:15:23.890Z","date":"2026-01-24","time":"22:15:23","cor_ans":true},{"trial_type":"html-keyboard-response","rt":null,"stimulus":"<p style=\"color: green; font-size: 50px; font-weight: bold;\">Correct</p>","response":null,"trial_index":142,"plugin_version":"2.1.0","time_elapsed":285925,"subject_id":"91221","group":"Group2","condition":"1_Rep","full_date":"2026-01-24T22:15:23.890Z","date":"2026-01-24","time":"22:15:23"},{"correct_response":"l","task":"test_phase","broad_category":"I","image_png":"I_Gabbro_12.png","image_id":60,"category_name":"Gabbro","category":4,"distinct_rating":2.6,"distinct_type":"Bottom","item_type":"Target","rt":1832,"stimulus":"Stimuli_Rocks480/I_Gabbro_12.png","response":"l","trial_type":"image-keyboard-response","trial_index":143,"plugin_version":"2.1.0","time_elapsed":287775,"subject_id":"91221","group":"Group2","condition":"1_Rep","full_date":"2026-01-24T22:15:23.890Z","date":"2026-01-24","time":"22:15:23","cor_ans":true},{"trial_type":"html-keyboard-response","rt":null,"stimulus":"<p style=\"color: green; font-size: 50px; font-weight: bold;\">Correct</p>","response":null,"trial_index":144,"plugin_version":"2.1.0","time_elapsed":288277,"subject_id":"91221","group":"Group2","condition":"1_Rep","full_date":"2026-01-24T22:15:23.890Z","date":"2026-01-24","time":"22:15:23"},{"correct_response":"a","task":"test_phase","broad_category":"M","image_png":"M_Marble_06.png","image_id":230,"category_name":"Marble","category":15,"distinct_rating":3.4,"distinct_type":"Bottom","item_type":"Foil","rt":1049,"stimulus":"Stimuli_Rocks480/M_Marble_06.png","response":"l","trial_type":"image-keyboard-response","trial_index":145,"plugin_version":"2.1.0","time_elapsed":289342,"subject_id":"91221","group":"Group2","condition":"1_Rep","full_date":"2026-01-24T22:15:23.890Z","date":"2026-01-24","time":"22:15:23","cor_ans":false},{"trial_type":"html-keyboard-response","rt":null,"stimulus":"<p style=\"color: red; font-size: 50px; font-weight: bold;\">Incorrect</p>","response":null,"trial_index":146,"plugin_version":"2.1.0","time_elapsed":289844,"subject_id":"91221","group":"Group2","condition":"1_Rep","full_date":"2026-01-24T22:15:23.890Z","date":"2026-01-24","time":"22:15:23"},{"correct_response":"a","task":"test_phase","broad_category":"I","image_png":"I_Diorite_05.png","image_id":37,"category_name":"Diorite","category":3,"distinct_rating":3.08,"distinct_type":"Bottom","item_type":"Foil","rt":4428,"stimulus":"Stimuli_Rocks480/I_Diorite_05.png","response":"l","trial_type":"image-keyboard-response","trial_index":147,"plugin_version":"2.1.0","time_elapsed":294287,"subject_id":"91221","group":"Group2","condition":"1_Rep","full_date":"2026-01-24T22:15:23.890Z","date":"2026-01-24","time":"22:15:23","cor_ans":false},{"trial_type":"html-keyboard-response","rt":null,"stimulus":"<p style=\"color: red; font-size: 50px; font-weight: bold;\">Incorrect</p>","response":null,"trial_index":148,"plugin_version":"2.1.0","time_elapsed":294788,"subject_id":"91221","group":"Group2","condition":"1_Rep","full_date":"2026-01-24T22:15:23.890Z","date":"2026-01-24","time":"22:15:23"},{"correct_response":"l","task":"test_phase","broad_category":"S","image_png":"S_Chert_13.png","image_id":365,"category_name":"Chert","category":23,"distinct_rating":6.57,"distinct_type":"Top","item_type":"Target","rt":820,"stimulus":"Stimuli_Rocks480/S_Chert_13.png","response":"l","trial_type":"image-keyboard-response","trial_index":149,"plugin_version":"2.1.0","time_elapsed":295617,"subject_id":"91221","group":"Group2","condition":"1_Rep","full_date":"2026-01-24T22:15:23.890Z","date":"2026-01-24","time":"22:15:23","cor_ans":true},{"trial_type":"html-keyboard-response","rt":null,"stimulus":"<p style=\"color: green; font-size: 50px; font-weight: bold;\">Correct</p>","response":null,"trial_index":150,"plugin_version":"2.1.0","time_elapsed":296119,"subject_id":"91221","group":"Group2","condition":"1_Rep","full_date":"2026-01-24T22:15:23.890Z","date":"2026-01-24","time":"22:15:23"},{"correct_response":"l","task":"test_phase","broad_category":"S","image_png":"S_Shale_03.png","image_id":467,"category_name":"Shale","category":30,"distinct_rating":1.95,"distinct_type":"Bottom","item_type":"Target","rt":1102,"stimulus":"Stimuli_Rocks480/S_Shale_03.png","response":"l","trial_type":"image-keyboard-response","trial_index":151,"plugin_version":"2.1.0","time_elapsed":297238,"subject_id":"91221","group":"Group2","condition":"1_Rep","full_date":"2026-01-24T22:15:23.890Z","date":"2026-01-24","time":"22:15:23","cor_ans":true},{"trial_type":"html-keyboard-response","rt":null,"stimulus":"<p style=\"color: green; font-size: 50px; font-weight: bold;\">Correct</p>","response":null,"trial_index":152,"plugin_version":"2.1.0","time_elapsed":297740,"subject_id":"91221","group":"Group2","condition":"1_Rep","full_date":"2026-01-24T22:15:23.890Z","date":"2026-01-24","time":"22:15:23"},{"correct_response":"l","task":"test_phase","broad_category":"M","image_png":"M_Marble_03.png","image_id":227,"category_name":"Marble","category":15,"distinct_rating":2.67,"distinct_type":"Bottom","item_type":"Target","rt":820,"stimulus":"Stimuli_Rocks480/M_Marble_03.png","response":"l","trial_type":"image-keyboard-response","trial_index":153,"plugin_version":"2.1.0","time_elapsed":298574,"subject_id":"91221","group":"Group2","condition":"1_Rep","full_date":"2026-01-24T22:15:23.890Z","date":"2026-01-24","time":"22:15:23","cor_ans":true},{"trial_type":"html-keyboard-response","rt":null,"stimulus":"<p style=\"color: green; font-size: 50px; font-weight: bold;\">Correct</p>","response":null,"trial_index":154,"plugin_version":"2.1.0","time_elapsed":299077,"subject_id":"91221","group":"Group2","condition":"1_Rep","full_date":"2026-01-24T22:15:23.890Z","date":"2026-01-24","time":"22:15:23"},{"correct_response":"l","task":"test_phase","broad_category":"I","image_png":"I_Pegmatite_03.png","image_id":99,"category_name":"Pegmatite","category":7,"distinct_rating":7.24,"distinct_type":"Top","item_type":"Target","rt":1055,"stimulus":"Stimuli_Rocks480/I_Pegmatite_03.png","response":"a","trial_type":"image-keyboard-response","trial_index":155,"plugin_version":"2.1.0","time_elapsed":300145,"subject_id":"91221","group":"Group2","condition":"1_Rep","full_date":"2026-01-24T22:15:23.890Z","date":"2026-01-24","time":"22:15:23","cor_ans":false},{"trial_type":"html-keyboard-response","rt":null,"stimulus":"<p style=\"color: red; font-size: 50px; font-weight: bold;\">Incorrect</p>","response":null,"trial_index":156,"plugin_version":"2.1.0","time_elapsed":300648,"subject_id":"91221","group":"Group2","condition":"1_Rep","full_date":"2026-01-24T22:15:23.890Z","date":"2026-01-24","time":"22:15:23"},{"correct_response":"l","task":"test_phase","broad_category":"S","image_png":"S_Shale_02.png","image_id":466,"category_name":"Shale","category":30,"distinct_rating":2.9,"distinct_type":"Bottom","item_type":"Target","rt":4171,"stimulus":"Stimuli_Rocks480/S_Shale_02.png","response":"a","trial_type":"image-keyboard-response","trial_index":157,"plugin_version":"2.1.0","time_elapsed":304831,"subject_id":"91221","group":"Group2","condition":"1_Rep","full_date":"2026-01-24T22:15:23.890Z","date":"2026-01-24","time":"22:15:23","cor_ans":false},{"trial_type":"html-keyboard-response","rt":null,"stimulus":"<p style=\"color: red; font-size: 50px; font-weight: bold;\">Incorrect</p>","response":null,"trial_index":158,"plugin_version":"2.1.0","time_elapsed":305333,"subject_id":"91221","group":"Group2","condition":"1_Rep","full_date":"2026-01-24T22:15:23.890Z","date":"2026-01-24","time":"22:15:23"},{"correct_response":"l","task":"test_phase","broad_category":"S","image_png":"S_Sandstone_11.png","image_id":459,"category_name":"Sandstone","category":29,"distinct_rating":1.82,"distinct_type":"Bottom","item_type":"Target","rt":3284,"stimulus":"Stimuli_Rocks480/S_Sandstone_11.png","response":"l","trial_type":"image-keyboard-response","trial_index":159,"plugin_version":"2.1.0","time_elapsed":308636,"subject_id":"91221","group":"Group2","condition":"1_Rep","full_date":"2026-01-24T22:15:23.890Z","date":"2026-01-24","time":"22:15:23","cor_ans":true},{"trial_type":"html-keyboard-response","rt":null,"stimulus":"<p style=\"color: green; font-size: 50px; font-weight: bold;\">Correct</p>","response":null,"trial_index":160,"plugin_version":"2.1.0","time_elapsed":309138,"subject_id":"91221","group":"Group2","condition":"1_Rep","full_date":"2026-01-24T22:15:23.890Z","date":"2026-01-24","time":"22:15:23"},{"correct_response":"a","task":"test_phase","broad_category":"S","image_png":"S_Shale_01.png","image_id":465,"category_name":"Shale","category":30,"distinct_rating":2.7,"distinct_type":"Bottom","item_type":"Foil","rt":2760,"stimulus":"Stimuli_Rocks480/S_Shale_01.png","response":"l","trial_type":"image-keyboard-response","trial_index":161,"plugin_version":"2.1.0","time_elapsed":311910,"subject_id":"91221","group":"Group2","condition":"1_Rep","full_date":"2026-01-24T22:15:23.890Z","date":"2026-01-24","time":"22:15:23","cor_ans":false},{"trial_type":"html-keyboard-response","rt":null,"stimulus":"<p style=\"color: red; font-size: 50px; font-weight: bold;\">Incorrect</p>","response":null,"trial_index":162,"plugin_version":"2.1.0","time_elapsed":312413,"subject_id":"91221","group":"Group2","condition":"1_Rep","full_date":"2026-01-24T22:15:23.890Z","date":"2026-01-24","time":"22:15:23"},{"correct_response":"l","task":"test_phase","broad_category":"S","image_png":"S_Dolomite_01.png","image_id":385,"category_name":"Dolomite","category":25,"distinct_rating":1.43,"distinct_type":"Bottom","item_type":"Target","rt":1095,"stimulus":"Stimuli_Rocks480/S_Dolomite_01.png","response":"l","trial_type":"image-keyboard-response","trial_index":163,"plugin_version":"2.1.0","time_elapsed":313524,"subject_id":"91221","group":"Group2","condition":"1_Rep","full_date":"2026-01-24T22:15:23.890Z","date":"2026-01-24","time":"22:15:23","cor_ans":true},{"trial_type":"html-keyboard-response","rt":null,"stimulus":"<p style=\"color: green; font-size: 50px; font-weight: bold;\">Correct</p>","response":null,"trial_index":164,"plugin_version":"2.1.0","time_elapsed":314027,"subject_id":"91221","group":"Group2","condition":"1_Rep","full_date":"2026-01-24T22:15:23.890Z","date":"2026-01-24","time":"22:15:23"},{"correct_response":"a","task":"test_phase","broad_category":"S","image_png":"S_Breccia_11.png","image_id":347,"category_name":"Breccia","category":22,"distinct_rating":6.7,"distinct_type":"Top","item_type":"Foil","rt":1050,"stimulus":"Stimuli_Rocks480/S_Breccia_11.png","response":"a","trial_type":"image-keyboard-response","trial_index":165,"plugin_version":"2.1.0","time_elapsed":315098,"subject_id":"91221","group":"Group2","condition":"1_Rep","full_date":"2026-01-24T22:15:23.890Z","date":"2026-01-24","time":"22:15:23","cor_ans":true},{"trial_type":"html-keyboard-response","rt":null,"stimulus":"<p style=\"color: green; font-size: 50px; font-weight: bold;\">Correct</p>","response":null,"trial_index":166,"plugin_version":"2.1.0","time_elapsed":315600,"subject_id":"91221","group":"Group2","condition":"1_Rep","full_date":"2026-01-24T22:15:23.890Z","date":"2026-01-24","time":"22:15:23"},{"correct_response":"a","task":"test_phase","broad_category":"I","image_png":"I_Pegmatite_16.png","image_id":112,"category_name":"Pegmatite","category":7,"distinct_rating":7.03,"distinct_type":"Top","item_type":"Foil","rt":1294,"stimulus":"Stimuli_Rocks480/I_Pegmatite_16.png","response":"a","trial_type":"image-keyboard-response","trial_index":167,"plugin_version":"2.1.0","time_elapsed":316908,"subject_id":"91221","group":"Group2","condition":"1_Rep","full_date":"2026-01-24T22:15:23.890Z","date":"2026-01-24","time":"22:15:23","cor_ans":true},{"trial_type":"html-keyboard-response","rt":null,"stimulus":"<p style=\"color: green; font-size: 50px; font-weight: bold;\">Correct</p>","response":null,"trial_index":168,"plugin_version":"2.1.0","time_elapsed":317411,"subject_id":"91221","group":"Group2","condition":"1_Rep","full_date":"2026-01-24T22:15:23.890Z","date":"2026-01-24","time":"22:15:23"},{"correct_response":"a","task":"test_phase","broad_category":"I","image_png":"I_Andesite_08.png","image_id":8,"category_name":"Andesite","category":1,"distinct_rating":1.95,"distinct_type":"Bottom","item_type":"Foil","rt":1549,"stimulus":"Stimuli_Rocks480/I_Andesite_08.png","response":"l","trial_type":"image-keyboard-response","trial_index":169,"plugin_version":"2.1.0","time_elapsed":318974,"subject_id":"91221","group":"Group2","condition":"1_Rep","full_date":"2026-01-24T22:15:23.890Z","date":"2026-01-24","time":"22:15:23","cor_ans":false},{"trial_type":"html-keyboard-response","rt":null,"stimulus":"<p style=\"color: red; font-size: 50px; font-weight: bold;\">Incorrect</p>","response":null,"trial_index":170,"plugin_version":"2.1.0","time_elapsed":319477,"subject_id":"91221","group":"Group2","condition":"1_Rep","full_date":"2026-01-24T22:15:23.890Z","date":"2026-01-24","time":"22:15:23"},{"correct_response":"a","task":"test_phase","broad_category":"I","image_png":"I_Rhyolite_16.png","image_id":160,"category_name":"Rhyolite","category":10,"distinct_rating":2.19,"distinct_type":"Bottom","item_type":"Foil","rt":1248,"stimulus":"Stimuli_Rocks480/I_Rhyolite_16.png","response":"l","trial_type":"image-keyboard-response","trial_index":171,"plugin_version":"2.1.0","time_elapsed":320736,"subject_id":"91221","group":"Group2","condition":"1_Rep","full_date":"2026-01-24T22:15:23.890Z","date":"2026-01-24","time":"22:15:23","cor_ans":false},{"trial_type":"html-keyboard-response","rt":null,"stimulus":"<p style=\"color: red; font-size: 50px; font-weight: bold;\">Incorrect</p>","response":null,"trial_index":172,"plugin_version":"2.1.0","time_elapsed":321238,"subject_id":"91221","group":"Group2","condition":"1_Rep","full_date":"2026-01-24T22:15:23.890Z","date":"2026-01-24","time":"22:15:23"},{"correct_response":"a","task":"test_phase","broad_category":"I","image_png":"I_Obsidian_05.png","image_id":85,"category_name":"Obsidian","category":6,"distinct_rating":7.32,"distinct_type":"Top","item_type":"Foil","rt":1030,"stimulus":"Stimuli_Rocks480/I_Obsidian_05.png","response":"a","trial_type":"image-keyboard-response","trial_index":173,"plugin_version":"2.1.0","time_elapsed":322283,"subject_id":"91221","group":"Group2","condition":"1_Rep","full_date":"2026-01-24T22:15:23.890Z","date":"2026-01-24","time":"22:15:23","cor_ans":true},{"trial_type":"html-keyboard-response","rt":null,"stimulus":"<p style=\"color: green; font-size: 50px; font-weight: bold;\">Correct</p>","response":null,"trial_index":174,"plugin_version":"2.1.0","time_elapsed":322785,"subject_id":"91221","group":"Group2","condition":"1_Rep","full_date":"2026-01-24T22:15:23.890Z","date":"2026-01-24","time":"22:15:23"},{"correct_response":"a","task":"test_phase","broad_category":"S","image_png":"S_Sandstone_15.png","image_id":463,"category_name":"Sandstone","category":29,"distinct_rating":2,"distinct_type":"Bottom","item_type":"Foil","rt":1346,"stimulus":"Stimuli_Rocks480/S_Sandstone_15.png","response":"l","trial_type":"image-keyboard-response","trial_index":175,"plugin_version":"2.1.0","time_elapsed":324148,"subject_id":"91221","group":"Group2","condition":"1_Rep","full_date":"2026-01-24T22:15:23.890Z","date":"2026-01-24","time":"22:15:23","cor_ans":false},{"trial_type":"html-keyboard-response","rt":null,"stimulus":"<p style=\"color: red; font-size: 50px; font-weight: bold;\">Incorrect</p>","response":null,"trial_index":176,"plugin_version":"2.1.0","time_elapsed":324649,"subject_id":"91221","group":"Group2","condition":"1_Rep","full_date":"2026-01-24T22:15:23.890Z","date":"2026-01-24","time":"22:15:23"},{"correct_response":"l","task":"test_phase","broad_category":"I","image_png":"I_Diorite_15.png","image_id":47,"category_name":"Diorite","category":3,"distinct_rating":3.05,"distinct_type":"Bottom","item_type":"Target","rt":2516,"stimulus":"Stimuli_Rocks480/I_Diorite_15.png","response":"l","trial_type":"image-keyboard-response","trial_index":177,"plugin_version":"2.1.0","time_elapsed":327178,"subject_id":"91221","group":"Group2","condition":"1_Rep","full_date":"2026-01-24T22:15:23.890Z","date":"2026-01-24","time":"22:15:23","cor_ans":true},{"trial_type":"html-keyboard-response","rt":null,"stimulus":"<p style=\"color: green; font-size: 50px; font-weight: bold;\">Correct</p>","response":null,"trial_index":178,"plugin_version":"2.1.0","time_elapsed":327680,"subject_id":"91221","group":"Group2","condition":"1_Rep","full_date":"2026-01-24T22:15:23.890Z","date":"2026-01-24","time":"22:15:23"},{"correct_response":"a","task":"test_phase","broad_category":"I","image_png":"I_Andesite_06.png","image_id":6,"category_name":"Andesite","category":1,"distinct_rating":3.17,"distinct_type":"Bottom","item_type":"Foil","rt":2242,"stimulus":"Stimuli_Rocks480/I_Andesite_06.png","response":"l","trial_type":"image-keyboard-response","trial_index":179,"plugin_version":"2.1.0","time_elapsed":329937,"subject_id":"91221","group":"Group2","condition":"1_Rep","full_date":"2026-01-24T22:15:23.890Z","date":"2026-01-24","time":"22:15:23","cor_ans":false},{"trial_type":"html-keyboard-response","rt":null,"stimulus":"<p style=\"color: red; font-size: 50px; font-weight: bold;\">Incorrect</p>","response":null,"trial_index":180,"plugin_version":"2.1.0","time_elapsed":330439,"subject_id":"91221","group":"Group2","condition":"1_Rep","full_date":"2026-01-24T22:15:23.890Z","date":"2026-01-24","time":"22:15:23"},{"correct_response":"l","task":"test_phase","broad_category":"I","image_png":"I_Rhyolite_10.png","image_id":154,"category_name":"Rhyolite","category":10,"distinct_rating":2.88,"distinct_type":"Bottom","item_type":"Target","rt":1647,"stimulus":"Stimuli_Rocks480/I_Rhyolite_10.png","response":"a","trial_type":"image-keyboard-response","trial_index":181,"plugin_version":"2.1.0","time_elapsed":332106,"subject_id":"91221","group":"Group2","condition":"1_Rep","full_date":"2026-01-24T22:15:23.890Z","date":"2026-01-24","time":"22:15:23","cor_ans":false},{"trial_type":"html-keyboard-response","rt":null,"stimulus":"<p style=\"color: red; font-size: 50px; font-weight: bold;\">Incorrect</p>","response":null,"trial_index":182,"plugin_version":"2.1.0","time_elapsed":332608,"subject_id":"91221","group":"Group2","condition":"1_Rep","full_date":"2026-01-24T22:15:23.890Z","date":"2026-01-24","time":"22:15:23"},{"correct_response":"a","task":"test_phase","broad_category":"M","image_png":"M_Gneiss_05.png","image_id":197,"category_name":"Gneiss","category":13,"distinct_rating":2.97,"distinct_type":"Bottom","item_type":"Foil","rt":1131,"stimulus":"Stimuli_Rocks480/M_Gneiss_05.png","response":"l","trial_type":"image-keyboard-response","trial_index":183,"plugin_version":"2.1.0","time_elapsed":333757,"subject_id":"91221","group":"Group2","condition":"1_Rep","full_date":"2026-01-24T22:15:23.890Z","date":"2026-01-24","time":"22:15:23","cor_ans":false},{"trial_type":"html-keyboard-response","rt":null,"stimulus":"<p style=\"color: red; font-size: 50px; font-weight: bold;\">Incorrect</p>","response":null,"trial_index":184,"plugin_version":"2.1.0","time_elapsed":334259,"subject_id":"91221","group":"Group2","condition":"1_Rep","full_date":"2026-01-24T22:15:23.890Z","date":"2026-01-24","time":"22:15:23"},{"correct_response":"a","task":"test_phase","broad_category":"I","image_png":"I_Diorite_04.png","image_id":36,"category_name":"Diorite","category":3,"distinct_rating":2.98,"distinct_type":"Bottom","item_type":"Foil","rt":3598,"stimulus":"Stimuli_Rocks480/I_Diorite_04.png","response":"l","trial_type":"image-keyboard-response","trial_index":185,"plugin_version":"2.1.0","time_elapsed":337875,"subject_id":"91221","group":"Group2","condition":"1_Rep","full_date":"2026-01-24T22:15:23.890Z","date":"2026-01-24","time":"22:15:23","cor_ans":false},{"trial_type":"html-keyboard-response","rt":null,"stimulus":"<p style=\"color: red; font-size: 50px; font-weight: bold;\">Incorrect</p>","response":null,"trial_index":186,"plugin_version":"2.1.0","time_elapsed":338376,"subject_id":"91221","group":"Group2","condition":"1_Rep","full_date":"2026-01-24T22:15:23.890Z","date":"2026-01-24","time":"22:15:23"},{"correct_response":"l","task":"test_phase","broad_category":"M","image_png":"M_Phyllite_05.png","image_id":261,"category_name":"Phyllite","category":17,"distinct_rating":2.14,"distinct_type":"Bottom","item_type":"Target","rt":4004,"stimulus":"Stimuli_Rocks480/M_Phyllite_05.png","response":"a","trial_type":"image-keyboard-response","trial_index":187,"plugin_version":"2.1.0","time_elapsed":342391,"subject_id":"91221","group":"Group2","condition":"1_Rep","full_date":"2026-01-24T22:15:23.890Z","date":"2026-01-24","time":"22:15:23","cor_ans":false},{"trial_type":"html-keyboard-response","rt":null,"stimulus":"<p style=\"color: red; font-size: 50px; font-weight: bold;\">Incorrect</p>","response":null,"trial_index":188,"plugin_version":"2.1.0","time_elapsed":342893,"subject_id":"91221","group":"Group2","condition":"1_Rep","full_date":"2026-01-24T22:15:23.890Z","date":"2026-01-24","time":"22:15:23"},{"correct_response":"a","task":"test_phase","broad_category":"S","image_png":"S_Dolomite_14.png","image_id":398,"category_name":"Dolomite","category":25,"distinct_rating":1.43,"distinct_type":"Bottom","item_type":"Foil","rt":5215,"stimulus":"Stimuli_Rocks480/S_Dolomite_14.png","response":"l","trial_type":"image-keyboard-response","trial_index":189,"plugin_version":"2.1.0","time_elapsed":348122,"subject_id":"91221","group":"Group2","condition":"1_Rep","full_date":"2026-01-24T22:15:23.890Z","date":"2026-01-24","time":"22:15:23","cor_ans":false},{"trial_type":"html-keyboard-response","rt":null,"stimulus":"<p style=\"color: red; font-size: 50px; font-weight: bold;\">Incorrect</p>","response":null,"trial_index":190,"plugin_version":"2.1.0","time_elapsed":348624,"subject_id":"91221","group":"Group2","condition":"1_Rep","full_date":"2026-01-24T22:15:23.890Z","date":"2026-01-24","time":"22:15:23"},{"correct_response":"a","task":"test_phase","broad_category":"S","image_png":"S_Dolomite_12.png","image_id":396,"category_name":"Dolomite","category":25,"distinct_rating":1.85,"distinct_type":"Bottom","item_type":"Foil","rt":1270,"stimulus":"Stimuli_Rocks480/S_Dolomite_12.png","response":"l","trial_type":"image-keyboard-response","trial_index":191,"plugin_version":"2.1.0","time_elapsed":349909,"subject_id":"91221","group":"Group2","condition":"1_Rep","full_date":"2026-01-24T22:15:23.890Z","date":"2026-01-24","time":"22:15:23","cor_ans":false},{"trial_type":"html-keyboard-response","rt":null,"stimulus":"<p style=\"color: red; font-size: 50px; font-weight: bold;\">Incorrect</p>","response":null,"trial_index":192,"plugin_version":"2.1.0","time_elapsed":350411,"subject_id":"91221","group":"Group2","condition":"1_Rep","full_date":"2026-01-24T22:15:23.890Z","date":"2026-01-24","time":"22:15:23"},{"correct_response":"a","task":"test_phase","broad_category":"S","image_png":"S_Chert_10.png","image_id":362,"category_name":"Chert","category":23,"distinct_rating":7.17,"distinct_type":"Top","item_type":"Foil","rt":240,"stimulus":"Stimuli_Rocks480/S_Chert_10.png","response":"l","trial_type":"image-keyboard-response","trial_index":193,"plugin_version":"2.1.0","time_elapsed":350664,"subject_id":"91221","group":"Group2","condition":"1_Rep","full_date":"2026-01-24T22:15:23.890Z","date":"2026-01-24","time":"22:15:23","cor_ans":false},{"trial_type":"html-keyboard-response","rt":null,"stimulus":"<p style=\"color: red; font-size: 50px; font-weight: bold;\">Incorrect</p>","response":null,"trial_index":194,"plugin_version":"2.1.0","time_elapsed":351166,"subject_id":"91221","group":"Group2","condition":"1_Rep","full_date":"2026-01-24T22:15:23.890Z","date":"2026-01-24","time":"22:15:23"},{"correct_response":"a","task":"test_phase","broad_category":"I","image_png":"I_Pegmatite_10.png","image_id":106,"category_name":"Pegmatite","category":7,"distinct_rating":7.66,"distinct_type":"Top","item_type":"Foil","rt":367,"stimulus":"Stimuli_Rocks480/I_Pegmatite_10.png","response":"l","trial_type":"image-keyboard-response","trial_index":195,"plugin_version":"2.1.0","time_elapsed":351547,"subject_id":"91221","group":"Group2","condition":"1_Rep","full_date":"2026-01-24T22:15:23.890Z","date":"2026-01-24","time":"22:15:23","cor_ans":false},{"trial_type":"html-keyboard-response","rt":null,"stimulus":"<p style=\"color: red; font-size: 50px; font-weight: bold;\">Incorrect</p>","response":null,"trial_index":196,"plugin_version":"2.1.0","time_elapsed":352049,"subject_id":"91221","group":"Group2","condition":"1_Rep","full_date":"2026-01-24T22:15:23.890Z","date":"2026-01-24","time":"22:15:23"},{"correct_response":"l","task":"test_phase","broad_category":"I","image_png":"I_Basalt_10.png","image_id":26,"category_name":"Basalt","category":2,"distinct_rating":2.76,"distinct_type":"Bottom","item_type":"Target","rt":399,"stimulus":"Stimuli_Rocks480/I_Basalt_10.png","response":"l","trial_type":"image-keyboard-response","trial_index":197,"plugin_version":"2.1.0","time_elapsed":352462,"subject_id":"91221","group":"Group2","condition":"1_Rep","full_date":"2026-01-24T22:15:23.890Z","date":"2026-01-24","time":"22:15:23","cor_ans":true},{"trial_type":"html-keyboard-response","rt":null,"stimulus":"<p style=\"color: green; font-size: 50px; font-weight: bold;\">Correct</p>","response":null,"trial_index":198,"plugin_version":"2.1.0","time_elapsed":352964,"subject_id":"91221","group":"Group2","condition":"1_Rep","full_date":"2026-01-24T22:15:23.890Z","date":"2026-01-24","time":"22:15:23"},{"correct_response":"a","task":"test_phase","broad_category":"I","image_png":"I_Rhyolite_11.png","image_id":155,"category_name":"Rhyolite","category":10,"distinct_rating":1.73,"distinct_type":"Bottom","item_type":"Foil","rt":1027,"stimulus":"Stimuli_Rocks480/I_Rhyolite_11.png","response":"l","trial_type":"image-keyboard-response","trial_index":199,"plugin_version":"2.1.0","time_elapsed":354004,"subject_id":"91221","group":"Group2","condition":"1_Rep","full_date":"2026-01-24T22:15:23.890Z","date":"2026-01-24","time":"22:15:23","cor_ans":false},{"trial_type":"html-keyboard-response","rt":null,"stimulus":"<p style=\"color: red; font-size: 50px; font-weight: bold;\">Incorrect</p>","response":null,"trial_index":200,"plugin_version":"2.1.0","time_elapsed":354507,"subject_id":"91221","group":"Group2","condition":"1_Rep","full_date":"2026-01-24T22:15:23.890Z","date":"2026-01-24","time":"22:15:23"},{"correct_response":"a","task":"test_phase","broad_category":"I","image_png":"I_Gabbro_16.png","image_id":64,"category_name":"Gabbro","category":4,"distinct_rating":2.52,"distinct_type":"Bottom","item_type":"Foil","rt":1659,"stimulus":"Stimuli_Rocks480/I_Gabbro_16.png","response":"l","trial_type":"image-keyboard-response","trial_index":201,"plugin_version":"2.1.0","time_elapsed":356179,"subject_id":"91221","group":"Group2","condition":"1_Rep","full_date":"2026-01-24T22:15:23.890Z","date":"2026-01-24","time":"22:15:23","cor_ans":false},{"trial_type":"html-keyboard-response","rt":null,"stimulus":"<p style=\"color: red; font-size: 50px; font-weight: bold;\">Incorrect</p>","response":null,"trial_index":202,"plugin_version":"2.1.0","time_elapsed":356682,"subject_id":"91221","group":"Group2","condition":"1_Rep","full_date":"2026-01-24T22:15:23.890Z","date":"2026-01-24","time":"22:15:23"},{"correct_response":"l","task":"test_phase","broad_category":"I","image_png":"I_Basalt_08.png","image_id":24,"category_name":"Basalt","category":2,"distinct_rating":2.31,"distinct_type":"Bottom","item_type":"Target","rt":2437,"stimulus":"Stimuli_Rocks480/I_Basalt_08.png","response":"a","trial_type":"image-keyboard-response","trial_index":203,"plugin_version":"2.1.0","time_elapsed":359139,"subject_id":"91221","group":"Group2","condition":"1_Rep","full_date":"2026-01-24T22:15:23.890Z","date":"2026-01-24","time":"22:15:23","cor_ans":false},{"trial_type":"html-keyboard-response","rt":null,"stimulus":"<p style=\"color: red; font-size: 50px; font-weight: bold;\">Incorrect</p>","response":null,"trial_index":204,"plugin_version":"2.1.0","time_elapsed":359641,"subject_id":"91221","group":"Group2","condition":"1_Rep","full_date":"2026-01-24T22:15:23.890Z","date":"2026-01-24","time":"22:15:23"},{"correct_response":"a","task":"test_phase","broad_category":"M","image_png":"M_Gneiss_13.png","image_id":205,"category_name":"Gneiss","category":13,"distinct_rating":3.26,"distinct_type":"Bottom","item_type":"Foil","rt":881,"stimulus":"Stimuli_Rocks480/M_Gneiss_13.png","response":"a","trial_type":"image-keyboard-response","trial_index":205,"plugin_version":"2.1.0","time_elapsed":360534,"subject_id":"91221","group":"Group2","condition":"1_Rep","full_date":"2026-01-24T22:15:23.890Z","date":"2026-01-24","time":"22:15:23","cor_ans":true},{"trial_type":"html-keyboard-response","rt":null,"stimulus":"<p style=\"color: green; font-size: 50px; font-weight: bold;\">Correct</p>","response":null,"trial_index":206,"plugin_version":"2.1.0","time_elapsed":361036,"subject_id":"91221","group":"Group2","condition":"1_Rep","full_date":"2026-01-24T22:15:23.890Z","date":"2026-01-24","time":"22:15:23"},{"correct_response":"l","task":"test_phase","broad_category":"M","image_png":"M_Marble_14.png","image_id":238,"category_name":"Marble","category":15,"distinct_rating":3.31,"distinct_type":"Bottom","item_type":"Target","rt":1842,"stimulus":"Stimuli_Rocks480/M_Marble_14.png","response":"a","trial_type":"image-keyboard-response","trial_index":207,"plugin_version":"2.1.0","time_elapsed":362892,"subject_id":"91221","group":"Group2","condition":"1_Rep","full_date":"2026-01-24T22:15:23.890Z","date":"2026-01-24","time":"22:15:23","cor_ans":false},{"trial_type":"html-keyboard-response","rt":null,"stimulus":"<p style=\"color: red; font-size: 50px; font-weight: bold;\">Incorrect</p>","response":null,"trial_index":208,"plugin_version":"2.1.0","time_elapsed":363395,"subject_id":"91221","group":"Group2","condition":"1_Rep","full_date":"2026-01-24T22:15:23.890Z","date":"2026-01-24","time":"22:15:23"},{"correct_response":"l","task":"test_phase","broad_category":"I","image_png":"I_Pumice_14.png","image_id":142,"category_name":"Pumice","category":9,"distinct_rating":3.22,"distinct_type":"Bottom","item_type":"Target","rt":2594,"stimulus":"Stimuli_Rocks480/I_Pumice_14.png","response":"l","trial_type":"image-keyboard-response","trial_index":209,"plugin_version":"2.1.0","time_elapsed":366003,"subject_id":"91221","group":"Group2","condition":"1_Rep","full_date":"2026-01-24T22:15:23.890Z","date":"2026-01-24","time":"22:15:23","cor_ans":true},{"trial_type":"html-keyboard-response","rt":null,"stimulus":"<p style=\"color: green; font-size: 50px; font-weight: bold;\">Correct</p>","response":null,"trial_index":210,"plugin_version":"2.1.0","time_elapsed":366504,"subject_id":"91221","group":"Group2","condition":"1_Rep","full_date":"2026-01-24T22:15:23.890Z","date":"2026-01-24","time":"22:15:23"},{"correct_response":"a","task":"test_phase","broad_category":"M","image_png":"M_Phyllite_07.png","image_id":263,"category_name":"Phyllite","category":17,"distinct_rating":2.59,"distinct_type":"Bottom","item_type":"Foil","rt":2360,"stimulus":"Stimuli_Rocks480/M_Phyllite_07.png","response":"a","trial_type":"image-keyboard-response","trial_index":211,"plugin_version":"2.1.0","time_elapsed":368879,"subject_id":"91221","group":"Group2","condition":"1_Rep","full_date":"2026-01-24T22:15:23.890Z","date":"2026-01-24","time":"22:15:23","cor_ans":true},{"trial_type":"html-keyboard-response","rt":null,"stimulus":"<p style=\"color: green; font-size: 50px; font-weight: bold;\">Correct</p>","response":null,"trial_index":212,"plugin_version":"2.1.0","time_elapsed":369381,"subject_id":"91221","group":"Group2","condition":"1_Rep","full_date":"2026-01-24T22:15:23.890Z","date":"2026-01-24","time":"22:15:23"},{"correct_response":"a","task":"test_phase","broad_category":"S","image_png":"S_Sandstone_03.png","image_id":451,"category_name":"Sandstone","category":29,"distinct_rating":1.86,"distinct_type":"Bottom","item_type":"Foil","rt":1398,"stimulus":"Stimuli_Rocks480/S_Sandstone_03.png","response":"l","trial_type":"image-keyboard-response","trial_index":213,"plugin_version":"2.1.0","time_elapsed":370793,"subject_id":"91221","group":"Group2","condition":"1_Rep","full_date":"2026-01-24T22:15:23.890Z","date":"2026-01-24","time":"22:15:23","cor_ans":false},{"trial_type":"html-keyboard-response","rt":null,"stimulus":"<p style=\"color: red; font-size: 50px; font-weight: bold;\">Incorrect</p>","response":null,"trial_index":214,"plugin_version":"2.1.0","time_elapsed":371295,"subject_id":"91221","group":"Group2","condition":"1_Rep","full_date":"2026-01-24T22:15:23.890Z","date":"2026-01-24","time":"22:15:23"},{"correct_response":"l","task":"test_phase","broad_category":"M","image_png":"M_Phyllite_13.png","image_id":269,"category_name":"Phyllite","category":17,"distinct_rating":2.8,"distinct_type":"Bottom","item_type":"Target","rt":1087,"stimulus":"Stimuli_Rocks480/M_Phyllite_13.png","response":"l","trial_type":"image-keyboard-response","trial_index":215,"plugin_version":"2.1.0","time_elapsed":372396,"subject_id":"91221","group":"Group2","condition":"1_Rep","full_date":"2026-01-24T22:15:23.890Z","date":"2026-01-24","time":"22:15:23","cor_ans":true},{"trial_type":"html-keyboard-response","rt":null,"stimulus":"<p style=\"color: green; font-size: 50px; font-weight: bold;\">Correct</p>","response":null,"trial_index":216,"plugin_version":"2.1.0","time_elapsed":372897,"subject_id":"91221","group":"Group2","condition":"1_Rep","full_date":"2026-01-24T22:15:23.890Z","date":"2026-01-24","time":"22:15:23"},{"correct_response":"a","task":"test_phase","broad_category":"M","image_png":"M_Quartzite_05.png","image_id":277,"category_name":"Quartzite","category":18,"distinct_rating":2.23,"distinct_type":"Bottom","item_type":"Foil","rt":1668,"stimulus":"Stimuli_Rocks480/M_Quartzite_05.png","response":"l","trial_type":"image-keyboard-response","trial_index":217,"plugin_version":"2.1.0","time_elapsed":374580,"subject_id":"91221","group":"Group2","condition":"1_Rep","full_date":"2026-01-24T22:15:23.890Z","date":"2026-01-24","time":"22:15:23","cor_ans":false},{"trial_type":"html-keyboard-response","rt":null,"stimulus":"<p style=\"color: red; font-size: 50px; font-weight: bold;\">Incorrect</p>","response":null,"trial_index":218,"plugin_version":"2.1.0","time_elapsed":375082,"subject_id":"91221","group":"Group2","condition":"1_Rep","full_date":"2026-01-24T22:15:23.890Z","date":"2026-01-24","time":"22:15:23"},{"correct_response":"l","task":"test_phase","broad_category":"I","image_png":"I_Diorite_01.png","image_id":33,"category_name":"Diorite","category":3,"distinct_rating":2.97,"distinct_type":"Bottom","item_type":"Target","rt":803,"stimulus":"Stimuli_Rocks480/I_Diorite_01.png","response":"l","trial_type":"image-keyboard-response","trial_index":219,"plugin_version":"2.1.0","time_elapsed":375903,"subject_id":"91221","group":"Group2","condition":"1_Rep","full_date":"2026-01-24T22:15:23.890Z","date":"2026-01-24","time":"22:15:23","cor_ans":true},{"trial_type":"html-keyboard-response","rt":null,"stimulus":"<p style=\"color: green; font-size: 50px; font-weight: bold;\">Correct</p>","response":null,"trial_index":220,"plugin_version":"2.1.0","time_elapsed":376405,"subject_id":"91221","group":"Group2","condition":"1_Rep","full_date":"2026-01-24T22:15:23.890Z","date":"2026-01-24","time":"22:15:23"},{"correct_response":"l","task":"test_phase","broad_category":"M","image_png":"M_Slate_14.png","image_id":318,"category_name":"Slate","category":20,"distinct_rating":2.58,"distinct_type":"Bottom","item_type":"Target","rt":1971,"stimulus":"Stimuli_Rocks480/M_Slate_14.png","response":"l","trial_type":"image-keyboard-response","trial_index":221,"plugin_version":"2.1.0","time_elapsed":378385,"subject_id":"91221","group":"Group2","condition":"1_Rep","full_date":"2026-01-24T22:15:23.890Z","date":"2026-01-24","time":"22:15:23","cor_ans":true},{"trial_type":"html-keyboard-response","rt":null,"stimulus":"<p style=\"color: green; font-size: 50px; font-weight: bold;\">Correct</p>","response":null,"trial_index":222,"plugin_version":"2.1.0","time_elapsed":378886,"subject_id":"91221","group":"Group2","condition":"1_Rep","full_date":"2026-01-24T22:15:23.890Z","date":"2026-01-24","time":"22:15:23"},{"correct_response":"a","task":"test_phase","broad_category":"S","image_png":"S_Shale_08.png","image_id":472,"category_name":"Shale","category":30,"distinct_rating":2.55,"distinct_type":"Bottom","item_type":"Foil","rt":2130,"stimulus":"Stimuli_Rocks480/S_Shale_08.png","response":"a","trial_type":"image-keyboard-response","trial_index":223,"plugin_version":"2.1.0","time_elapsed":381033,"subject_id":"91221","group":"Group2","condition":"1_Rep","full_date":"2026-01-24T22:15:23.890Z","date":"2026-01-24","time":"22:15:23","cor_ans":true},{"trial_type":"html-keyboard-response","rt":null,"stimulus":"<p style=\"color: green; font-size: 50px; font-weight: bold;\">Correct</p>","response":null,"trial_index":224,"plugin_version":"2.1.0","time_elapsed":381535,"subject_id":"91221","group":"Group2","condition":"1_Rep","full_date":"2026-01-24T22:15:23.890Z","date":"2026-01-24","time":"22:15:23"},{"correct_response":"a","task":"test_phase","broad_category":"M","image_pn