[{"width":1280,"height":631,"webaudio":true,"browser":"chrome","browser_version":"144.0.0","mobile":false,"os":"Windows 10","fullscreen":true,"vsync_rate":60.01,"webcam":true,"microphone":true,"trial_type":"browser-check","trial_index":0,"plugin_version":"2.1.0","time_elapsed":1011,"subject_id":"91946","group":"Group1","condition":"3_Rep","full_date":"2026-01-27T18:00:37.256Z","date":"2026-01-27","time":"18:00:37"},{"success":true,"timeout":false,"failed_images":[],"failed_audio":[],"failed_video":[],"trial_type":"preload","trial_index":1,"plugin_version":"2.1.0","time_elapsed":3373,"subject_id":"91946","group":"Group1","condition":"3_Rep","full_date":"2026-01-27T18:00:37.256Z","date":"2026-01-27","time":"18:00:37"},{"rt":101510,"url":"SONA_consent_memorability.html","trial_type":"external-html","trial_index":2,"plugin_version":"2.1.0","time_elapsed":104934,"subject_id":"91946","group":"Group1","condition":"3_Rep","full_date":"2026-01-27T18:00:37.256Z","date":"2026-01-27","time":"18:00:37"},{"success":true,"rt":1522,"trial_type":"fullscreen","trial_index":3,"plugin_version":"2.1.0","time_elapsed":107472,"subject_id":"91946","group":"Group1","condition":"3_Rep","full_date":"2026-01-27T18:00:37.256Z","date":"2026-01-27","time":"18:00:37"},{"rt":3966081,"stimulus":"<div style=\"max-width: 760px; margin: auto; font-size: 20px; line-height: 1.5;\">\n      <h1 style=\"text-align:center; font-size: 30px;\">Instructions</h1>\n      <p>\n        Welcome to the study on <b>visual memory</b>. This experiment consists of <b>two phases</b>: \n        a <b>study phase</b> and a <b>test phase</b>.\n      </p>\n      <p>\n        In the study phase, you will see a series of rock images along with their category labels.\n        The images will appear one at a time.\n        <b>Your task</b> is to learn the categories to which the rock images belong \n        and to remember each image as accurately as possible.\n      </p> \n      <p>\n        Note that we will repeat the study phase <b>3 times</b>, \n             so you will have multiple opportunities to see and remember each image.\n      </p>\n      <p>\n        After the study phase, <b>your memory will be tested</b>. \n        Additional instructions for the test phase will be provided at that time.\n      </p>\n      <p>\n        If your computer has multiple <b>language settings</b> (e.g., English and another language),\n        please make sure it is set to English before starting.\n      </p>\n      <p>\n        You can track your progress using the <b>completion bar</b> at the top of the screen. \n        Please note that the bar will refresh when the test phase begins \n        to give you an accurate sense of your progress in both phases.\n      </p> \n      <p>\n        Press the button below when you are ready to begin.\n      </p>\n    </div>","response":0,"trial_type":"html-button-response","trial_index":4,"plugin_version":"2.1.0","time_elapsed":4073555,"subject_id":"91946","group":"Group1","condition":"3_Rep","full_date":"2026-01-27T18:00:37.256Z","date":"2026-01-27","time":"18:00:37"},{"rt":null,"stimulus":"<p style=\"font-size: 50px; margin: 0; text-align: center;\">+</p>","response":null,"trial_type":"html-keyboard-response","trial_index":5,"plugin_version":"2.1.0","time_elapsed":4074566,"subject_id":"91946","group":"Group1","condition":"3_Rep","full_date":"2026-01-27T18:00:37.256Z","date":"2026-01-27","time":"18:00:37"},{"task":"memory_phase","broad_category":"S","image_png":"S_Conglomerate_05.png","image_id":373,"category_name":"Conglomerate","category":24,"distinct_rating":7.32,"distinct_type":"Top","rt":null,"stimulus":"Stimuli_Rocks480/S_Conglomerate_05.png","response":null,"trial_type":"image-keyboard-response","trial_index":6,"plugin_version":"2.1.0","time_elapsed":4077075,"subject_id":"91946","group":"Group1","condition":"3_Rep","full_date":"2026-01-27T18:00:37.256Z","date":"2026-01-27","time":"18:00:37"},{"rt":null,"stimulus":"<p style=\"font-size: 50px; margin: 0; text-align: center;\">+</p>","response":null,"trial_type":"html-keyboard-response","trial_index":7,"plugin_version":"2.1.0","time_elapsed":4078086,"subject_id":"91946","group":"Group1","condition":"3_Rep","full_date":"2026-01-27T18:00:37.256Z","date":"2026-01-27","time":"18:00:37"},{"task":"memory_phase","broad_category":"M","image_png":"M_Slate_11.png","image_id":315,"category_name":"Slate","category":20,"distinct_rating":2.75,"distinct_type":"Bottom","rt":null,"stimulus":"Stimuli_Rocks480/M_Slate_11.png","response":null,"trial_type":"image-keyboard-response","trial_index":8,"plugin_version":"2.1.0","time_elapsed":4080593,"subject_id":"91946","group":"Group1","condition":"3_Rep","full_date":"2026-01-27T18:00:37.256Z","date":"2026-01-27","time":"18:00:37"},{"rt":null,"stimulus":"<p style=\"font-size: 50px; margin: 0; text-align: center;\">+</p>","response":null,"trial_type":"html-keyboard-response","trial_index":9,"plugin_version":"2.1.0","time_elapsed":4081602,"subject_id":"91946","group":"Group1","condition":"3_Rep","full_date":"2026-01-27T18:00:37.256Z","date":"2026-01-27","time":"18:00:37"},{"task":"memory_phase","broad_category":"M","image_png":"M_Slate_15.png","image_id":319,"category_name":"Slate","category":20,"distinct_rating":2.13,"distinct_type":"Bottom","rt":null,"stimulus":"Stimuli_Rocks480/M_Slate_15.png","response":null,"trial_type":"image-keyboard-response","trial_index":10,"plugin_version":"2.1.0","time_elapsed":4084120,"subject_id":"91946","group":"Group1","condition":"3_Rep","full_date":"2026-01-27T18:00:37.256Z","date":"2026-01-27","time":"18:00:37"},{"rt":null,"stimulus":"<p style=\"font-size: 50px; margin: 0; text-align: center;\">+</p>","response":null,"trial_type":"html-keyboard-response","trial_index":11,"plugin_version":"2.1.0","time_elapsed":4085135,"subject_id":"91946","group":"Group1","condition":"3_Rep","full_date":"2026-01-27T18:00:37.256Z","date":"2026-01-27","time":"18:00:37"},{"task":"memory_phase","broad_category":"S","image_png":"S_Sandstone_16.png","image_id":464,"category_name":"Sandstone","category":29,"distinct_rating":1.93,"distinct_type":"Bottom","rt":null,"stimulus":"Stimuli_Rocks480/S_Sandstone_16.png","response":null,"trial_type":"image-keyboard-response","trial_index":12,"plugin_version":"2.1.0","time_elapsed":4087651,"subject_id":"91946","group":"Group1","condition":"3_Rep","full_date":"2026-01-27T18:00:37.256Z","date":"2026-01-27","time":"18:00:37"},{"rt":null,"stimulus":"<p style=\"font-size: 50px; margin: 0; text-align: center;\">+</p>","response":null,"trial_type":"html-keyboard-response","trial_index":13,"plugin_version":"2.1.0","time_elapsed":4088669,"subject_id":"91946","group":"Group1","condition":"3_Rep","full_date":"2026-01-27T18:00:37.256Z","date":"2026-01-27","time":"18:00:37"},{"task":"memory_phase","broad_category":"I","image_png":"I_Gabbro_08.png","image_id":56,"category_name":"Gabbro","category":4,"distinct_rating":3.02,"distinct_type":"Bottom","rt":null,"stimulus":"Stimuli_Rocks480/I_Gabbro_08.png","response":null,"trial_type":"image-keyboard-response","trial_index":14,"plugin_version":"2.1.0","time_elapsed":4091175,"subject_id":"91946","group":"Group1","condition":"3_Rep","full_date":"2026-01-27T18:00:37.256Z","date":"2026-01-27","time":"18:00:37"},{"rt":null,"stimulus":"<p style=\"font-size: 50px; margin: 0; text-align: center;\">+</p>","response":null,"trial_type":"html-keyboard-response","trial_index":15,"plugin_version":"2.1.0","time_elapsed":4092186,"subject_id":"91946","group":"Group1","condition":"3_Rep","full_date":"2026-01-27T18:00:37.256Z","date":"2026-01-27","time":"18:00:37"},{"task":"memory_phase","broad_category":"I","image_png":"I_Basalt_01.png","image_id":17,"category_name":"Basalt","category":2,"distinct_rating":1.92,"distinct_type":"Bottom","rt":null,"stimulus":"Stimuli_Rocks480/I_Basalt_01.png","response":null,"trial_type":"image-keyboard-response","trial_index":16,"plugin_version":"2.1.0","time_elapsed":4094696,"subject_id":"91946","group":"Group1","condition":"3_Rep","full_date":"2026-01-27T18:00:37.256Z","date":"2026-01-27","time":"18:00:37"},{"rt":null,"stimulus":"<p style=\"font-size: 50px; margin: 0; text-align: center;\">+</p>","response":null,"trial_type":"html-keyboard-response","trial_index":17,"plugin_version":"2.1.0","time_elapsed":4095698,"subject_id":"91946","group":"Group1","condition":"3_Rep","full_date":"2026-01-27T18:00:37.256Z","date":"2026-01-27","time":"18:00:37"},{"task":"memory_phase","broad_category":"M","image_png":"M_Quartzite_13.png","image_id":285,"category_name":"Quartzite","category":18,"distinct_rating":2.27,"distinct_type":"Bottom","rt":null,"stimulus":"Stimuli_Rocks480/M_Quartzite_13.png","response":null,"trial_type":"image-keyboard-response","trial_index":18,"plugin_version":"2.1.0","time_elapsed":4098201,"subject_id":"91946","group":"Group1","condition":"3_Rep","full_date":"2026-01-27T18:00:37.256Z","date":"2026-01-27","time":"18:00:37"},{"rt":null,"stimulus":"<p style=\"font-size: 50px; margin: 0; text-align: center;\">+</p>","response":null,"trial_type":"html-keyboard-response","trial_index":19,"plugin_version":"2.1.0","time_elapsed":4099214,"subject_id":"91946","group":"Group1","condition":"3_Rep","full_date":"2026-01-27T18:00:37.256Z","date":"2026-01-27","time":"18:00:37"},{"task":"memory_phase","broad_category":"M","image_png":"M_Quartzite_05.png","image_id":277,"category_name":"Quartzite","category":18,"distinct_rating":2.23,"distinct_type":"Bottom","rt":null,"stimulus":"Stimuli_Rocks480/M_Quartzite_05.png","response":null,"trial_type":"image-keyboard-response","trial_index":20,"plugin_version":"2.1.0","time_elapsed":4101719,"subject_id":"91946","group":"Group1","condition":"3_Rep","full_date":"2026-01-27T18:00:37.256Z","date":"2026-01-27","time":"18:00:37"},{"rt":null,"stimulus":"<p style=\"font-size: 50px; margin: 0; text-align: center;\">+</p>","response":null,"trial_type":"html-keyboard-response","trial_index":21,"plugin_version":"2.1.0","time_elapsed":4102722,"subject_id":"91946","group":"Group1","condition":"3_Rep","full_date":"2026-01-27T18:00:37.256Z","date":"2026-01-27","time":"18:00:37"},{"task":"memory_phase","broad_category":"S","image_png":"S_Dolomite_13.png","image_id":397,"category_name":"Dolomite","category":25,"distinct_rating":1.77,"distinct_type":"Bottom","rt":null,"stimulus":"Stimuli_Rocks480/S_Dolomite_13.png","response":null,"trial_type":"image-keyboard-response","trial_index":22,"plugin_version":"2.1.0","time_elapsed":4105224,"subject_id":"91946","group":"Group1","condition":"3_Rep","full_date":"2026-01-27T18:00:37.256Z","date":"2026-01-27","time":"18:00:37"},{"rt":null,"stimulus":"<p style=\"font-size: 50px; margin: 0; text-align: center;\">+</p>","response":null,"trial_type":"html-keyboard-response","trial_index":23,"plugin_version":"2.1.0","time_elapsed":4106239,"subject_id":"91946","group":"Group1","condition":"3_Rep","full_date":"2026-01-27T18:00:37.256Z","date":"2026-01-27","time":"18:00:37"},{"task":"memory_phase","broad_category":"I","image_png":"I_Pumice_08.png","image_id":136,"category_name":"Pumice","category":9,"distinct_rating":3.1,"distinct_type":"Bottom","rt":null,"stimulus":"Stimuli_Rocks480/I_Pumice_08.png","response":null,"trial_type":"image-keyboard-response","trial_index":24,"plugin_version":"2.1.0","time_elapsed":4108753,"subject_id":"91946","group":"Group1","condition":"3_Rep","full_date":"2026-01-27T18:00:37.256Z","date":"2026-01-27","time":"18:00:37"},{"rt":null,"stimulus":"<p style=\"font-size: 50px; margin: 0; text-align: center;\">+</p>","response":null,"trial_type":"html-keyboard-response","trial_index":25,"plugin_version":"2.1.0","time_elapsed":4109767,"subject_id":"91946","group":"Group1","condition":"3_Rep","full_date":"2026-01-27T18:00:37.256Z","date":"2026-01-27","time":"18:00:37"},{"task":"memory_phase","broad_category":"M","image_png":"M_Gneiss_05.png","image_id":197,"category_name":"Gneiss","category":13,"distinct_rating":2.97,"distinct_type":"Bottom","rt":null,"stimulus":"Stimuli_Rocks480/M_Gneiss_05.png","response":null,"trial_type":"image-keyboard-response","trial_index":26,"plugin_version":"2.1.0","time_elapsed":4112270,"subject_id":"91946","group":"Group1","condition":"3_Rep","full_date":"2026-01-27T18:00:37.256Z","date":"2026-01-27","time":"18:00:37"},{"rt":null,"stimulus":"<p style=\"font-size: 50px; margin: 0; text-align: center;\">+</p>","response":null,"trial_type":"html-keyboard-response","trial_index":27,"plugin_version":"2.1.0","time_elapsed":4113282,"subject_id":"91946","group":"Group1","condition":"3_Rep","full_date":"2026-01-27T18:00:37.256Z","date":"2026-01-27","time":"18:00:37"},{"task":"memory_phase","broad_category":"I","image_png":"I_Diorite_04.png","image_id":36,"category_name":"Diorite","category":3,"distinct_rating":2.98,"distinct_type":"Bottom","rt":null,"stimulus":"Stimuli_Rocks480/I_Diorite_04.png","response":null,"trial_type":"image-keyboard-response","trial_index":28,"plugin_version":"2.1.0","time_elapsed":4115801,"subject_id":"91946","group":"Group1","condition":"3_Rep","full_date":"2026-01-27T18:00:37.256Z","date":"2026-01-27","time":"18:00:37"},{"rt":null,"stimulus":"<p style=\"font-size: 50px; margin: 0; text-align: center;\">+</p>","response":null,"trial_type":"html-keyboard-response","trial_index":29,"plugin_version":"2.1.0","time_elapsed":4116809,"subject_id":"91946","group":"Group1","condition":"3_Rep","full_date":"2026-01-27T18:00:37.256Z","date":"2026-01-27","time":"18:00:37"},{"task":"memory_phase","broad_category":"M","image_png":"M_Phyllite_03.png","image_id":259,"category_name":"Phyllite","category":17,"distinct_rating":2.5,"distinct_type":"Bottom","rt":null,"stimulus":"Stimuli_Rocks480/M_Phyllite_03.png","response":null,"trial_type":"image-keyboard-response","trial_index":30,"plugin_version":"2.1.0","time_elapsed":4119321,"subject_id":"91946","group":"Group1","condition":"3_Rep","full_date":"2026-01-27T18:00:37.256Z","date":"2026-01-27","time":"18:00:37"},{"rt":null,"stimulus":"<p style=\"font-size: 50px; margin: 0; text-align: center;\">+</p>","response":null,"trial_type":"html-keyboard-response","trial_index":31,"plugin_version":"2.1.0","time_elapsed":4120325,"subject_id":"91946","group":"Group1","condition":"3_Rep","full_date":"2026-01-27T18:00:37.256Z","date":"2026-01-27","time":"18:00:37"},{"task":"memory_phase","broad_category":"I","image_png":"I_Obsidian_05.png","image_id":85,"category_name":"Obsidian","category":6,"distinct_rating":7.32,"distinct_type":"Top","rt":null,"stimulus":"Stimuli_Rocks480/I_Obsidian_05.png","response":null,"trial_type":"image-keyboard-response","trial_index":32,"plugin_version":"2.1.0","time_elapsed":4122831,"subject_id":"91946","group":"Group1","condition":"3_Rep","full_date":"2026-01-27T18:00:37.256Z","date":"2026-01-27","time":"18:00:37"},{"rt":null,"stimulus":"<p style=\"font-size: 50px; margin: 0; text-align: center;\">+</p>","response":null,"trial_type":"html-keyboard-response","trial_index":33,"plugin_version":"2.1.0","time_elapsed":4123840,"subject_id":"91946","group":"Group1","condition":"3_Rep","full_date":"2026-01-27T18:00:37.256Z","date":"2026-01-27","time":"18:00:37"},{"task":"memory_phase","broad_category":"I","image_png":"I_Rhyolite_14.png","image_id":158,"category_name":"Rhyolite","category":10,"distinct_rating":2.59,"distinct_type":"Bottom","rt":null,"stimulus":"Stimuli_Rocks480/I_Rhyolite_14.png","response":null,"trial_type":"image-keyboard-response","trial_index":34,"plugin_version":"2.1.0","time_elapsed":4126353,"subject_id":"91946","group":"Group1","condition":"3_Rep","full_date":"2026-01-27T18:00:37.256Z","date":"2026-01-27","time":"18:00:37"},{"rt":null,"stimulus":"<p style=\"font-size: 50px; margin: 0; text-align: center;\">+</p>","response":null,"trial_type":"html-keyboard-response","trial_index":35,"plugin_version":"2.1.0","time_elapsed":4127363,"subject_id":"91946","group":"Group1","condition":"3_Rep","full_date":"2026-01-27T18:00:37.256Z","date":"2026-01-27","time":"18:00:37"},{"task":"memory_phase","broad_category":"I","image_png":"I_Pumice_12.png","image_id":140,"category_name":"Pumice","category":9,"distinct_rating":2.97,"distinct_type":"Bottom","rt":null,"stimulus":"Stimuli_Rocks480/I_Pumice_12.png","response":null,"trial_type":"image-keyboard-response","trial_index":36,"plugin_version":"2.1.0","time_elapsed":4129871,"subject_id":"91946","group":"Group1","condition":"3_Rep","full_date":"2026-01-27T18:00:37.256Z","date":"2026-01-27","time":"18:00:37"},{"rt":null,"stimulus":"<p style=\"font-size: 50px; margin: 0; text-align: center;\">+</p>","response":null,"trial_type":"html-keyboard-response","trial_index":37,"plugin_version":"2.1.0","time_elapsed":4130887,"subject_id":"91946","group":"Group1","condition":"3_Rep","full_date":"2026-01-27T18:00:37.256Z","date":"2026-01-27","time":"18:00:37"},{"task":"memory_phase","broad_category":"I","image_png":"I_Diorite_03.png","image_id":35,"category_name":"Diorite","category":3,"distinct_rating":3.14,"distinct_type":"Bottom","rt":null,"stimulus":"Stimuli_Rocks480/I_Diorite_03.png","response":null,"trial_type":"image-keyboard-response","trial_index":38,"plugin_version":"2.1.0","time_elapsed":4133391,"subject_id":"91946","group":"Group1","condition":"3_Rep","full_date":"2026-01-27T18:00:37.256Z","date":"2026-01-27","time":"18:00:37"},{"rt":null,"stimulus":"<p style=\"font-size: 50px; margin: 0; text-align: center;\">+</p>","response":null,"trial_type":"html-keyboard-response","trial_index":39,"plugin_version":"2.1.0","time_elapsed":4134404,"subject_id":"91946","group":"Group1","condition":"3_Rep","full_date":"2026-01-27T18:00:37.256Z","date":"2026-01-27","time":"18:00:37"},{"task":"memory_phase","broad_category":"M","image_png":"M_Marble_06.png","image_id":230,"category_name":"Marble","category":15,"distinct_rating":3.4,"distinct_type":"Bottom","rt":null,"stimulus":"Stimuli_Rocks480/M_Marble_06.png","response":null,"trial_type":"image-keyboard-response","trial_index":40,"plugin_version":"2.1.0","time_elapsed":4136907,"subject_id":"91946","group":"Group1","condition":"3_Rep","full_date":"2026-01-27T18:00:37.256Z","date":"2026-01-27","time":"18:00:37"},{"rt":null,"stimulus":"<p style=\"font-size: 50px; margin: 0; text-align: center;\">+</p>","response":null,"trial_type":"html-keyboard-response","trial_index":41,"plugin_version":"2.1.0","time_elapsed":4137917,"subject_id":"91946","group":"Group1","condition":"3_Rep","full_date":"2026-01-27T18:00:37.256Z","date":"2026-01-27","time":"18:00:37"},{"task":"memory_phase","broad_category":"S","image_png":"S_Sandstone_15.png","image_id":463,"category_name":"Sandstone","category":29,"distinct_rating":2,"distinct_type":"Bottom","rt":null,"stimulus":"Stimuli_Rocks480/S_Sandstone_15.png","response":null,"trial_type":"image-keyboard-response","trial_index":42,"plugin_version":"2.1.0","time_elapsed":4140424,"subject_id":"91946","group":"Group1","condition":"3_Rep","full_date":"2026-01-27T18:00:37.256Z","date":"2026-01-27","time":"18:00:37"},{"rt":null,"stimulus":"<p style=\"font-size: 50px; margin: 0; text-align: center;\">+</p>","response":null,"trial_type":"html-keyboard-response","trial_index":43,"plugin_version":"2.1.0","time_elapsed":4141438,"subject_id":"91946","group":"Group1","condition":"3_Rep","full_date":"2026-01-27T18:00:37.256Z","date":"2026-01-27","time":"18:00:37"},{"task":"memory_phase","broad_category":"S","image_png":"S_Breccia_11.png","image_id":347,"category_name":"Breccia","category":22,"distinct_rating":6.7,"distinct_type":"Top","rt":null,"stimulus":"Stimuli_Rocks480/S_Breccia_11.png","response":null,"trial_type":"image-keyboard-response","trial_index":44,"plugin_version":"2.1.0","time_elapsed":4143955,"subject_id":"91946","group":"Group1","condition":"3_Rep","full_date":"2026-01-27T18:00:37.256Z","date":"2026-01-27","time":"18:00:37"},{"rt":null,"stimulus":"<p style=\"font-size: 50px; margin: 0; text-align: center;\">+</p>","response":null,"trial_type":"html-keyboard-response","trial_index":45,"plugin_version":"2.1.0","time_elapsed":4144963,"subject_id":"91946","group":"Group1","condition":"3_Rep","full_date":"2026-01-27T18:00:37.256Z","date":"2026-01-27","time":"18:00:37"},{"task":"memory_phase","broad_category":"S","image_png":"S_Shale_08.png","image_id":472,"category_name":"Shale","category":30,"distinct_rating":2.55,"distinct_type":"Bottom","rt":null,"stimulus":"Stimuli_Rocks480/S_Shale_08.png","response":null,"trial_type":"image-keyboard-response","trial_index":46,"plugin_version":"2.1.0","time_elapsed":4147474,"subject_id":"91946","group":"Group1","condition":"3_Rep","full_date":"2026-01-27T18:00:37.256Z","date":"2026-01-27","time":"18:00:37"},{"rt":null,"stimulus":"<p style=\"font-size: 50px; margin: 0; text-align: center;\">+</p>","response":null,"trial_type":"html-keyboard-response","trial_index":47,"plugin_version":"2.1.0","time_elapsed":4148477,"subject_id":"91946","group":"Group1","condition":"3_Rep","full_date":"2026-01-27T18:00:37.256Z","date":"2026-01-27","time":"18:00:37"},{"task":"memory_phase","broad_category":"I","image_png":"I_Gabbro_11.png","image_id":59,"category_name":"Gabbro","category":4,"distinct_rating":1.99,"distinct_type":"Bottom","rt":null,"stimulus":"Stimuli_Rocks480/I_Gabbro_11.png","response":null,"trial_type":"image-keyboard-response","trial_index":48,"plugin_version":"2.1.0","time_elapsed":4150989,"subject_id":"91946","group":"Group1","condition":"3_Rep","full_date":"2026-01-27T18:00:37.256Z","date":"2026-01-27","time":"18:00:37"},{"rt":null,"stimulus":"<p style=\"font-size: 50px; margin: 0; text-align: center;\">+</p>","response":null,"trial_type":"html-keyboard-response","trial_index":49,"plugin_version":"2.1.0","time_elapsed":4151995,"subject_id":"91946","group":"Group1","condition":"3_Rep","full_date":"2026-01-27T18:00:37.256Z","date":"2026-01-27","time":"18:00:37"},{"task":"memory_phase","broad_category":"I","image_png":"I_Rhyolite_16.png","image_id":160,"category_name":"Rhyolite","category":10,"distinct_rating":2.19,"distinct_type":"Bottom","rt":null,"stimulus":"Stimuli_Rocks480/I_Rhyolite_16.png","response":null,"trial_type":"image-keyboard-response","trial_index":50,"plugin_version":"2.1.0","time_elapsed":4154512,"subject_id":"91946","group":"Group1","condition":"3_Rep","full_date":"2026-01-27T18:00:37.256Z","date":"2026-01-27","time":"18:00:37"},{"rt":null,"stimulus":"<p style=\"font-size: 50px; margin: 0; text-align: center;\">+</p>","response":null,"trial_type":"html-keyboard-response","trial_index":51,"plugin_version":"2.1.0","time_elapsed":4155520,"subject_id":"91946","group":"Group1","condition":"3_Rep","full_date":"2026-01-27T18:00:37.256Z","date":"2026-01-27","time":"18:00:37"},{"task":"memory_phase","broad_category":"I","image_png":"I_Basalt_09.png","image_id":25,"category_name":"Basalt","category":2,"distinct_rating":1.89,"distinct_type":"Bottom","rt":null,"stimulus":"Stimuli_Rocks480/I_Basalt_09.png","response":null,"trial_type":"image-keyboard-response","trial_index":52,"plugin_version":"2.1.0","time_elapsed":4158028,"subject_id":"91946","group":"Group1","condition":"3_Rep","full_date":"2026-01-27T18:00:37.256Z","date":"2026-01-27","time":"18:00:37"},{"rt":null,"stimulus":"<p style=\"font-size: 50px; margin: 0; text-align: center;\">+</p>","response":null,"trial_type":"html-keyboard-response","trial_index":53,"plugin_version":"2.1.0","time_elapsed":4159046,"subject_id":"91946","group":"Group1","condition":"3_Rep","full_date":"2026-01-27T18:00:37.256Z","date":"2026-01-27","time":"18:00:37"},{"task":"memory_phase","broad_category":"M","image_png":"M_Quartzite_08.png","image_id":280,"category_name":"Quartzite","category":18,"distinct_rating":2.15,"distinct_type":"Bottom","rt":null,"stimulus":"Stimuli_Rocks480/M_Quartzite_08.png","response":null,"trial_type":"image-keyboard-response","trial_index":54,"plugin_version":"2.1.0","time_elapsed":4161564,"subject_id":"91946","group":"Group1","condition":"3_Rep","full_date":"2026-01-27T18:00:37.256Z","date":"2026-01-27","time":"18:00:37"},{"rt":2425,"stimulus":"<p style=\"max-width: 760px; margin: auto; font-size: 35px; line-height: 1.5;\">\n                Press SPACE to continue study phase\n              </p>","response":" ","trial_type":"html-keyboard-response","trial_index":55,"plugin_version":"2.1.0","time_elapsed":4163990,"subject_id":"91946","group":"Group1","condition":"3_Rep","full_date":"2026-01-27T18:00:37.256Z","date":"2026-01-27","time":"18:00:37"},{"rt":null,"stimulus":"<p style=\"font-size: 50px; margin: 0; text-align: center;\">+</p>","response":null,"trial_type":"html-keyboard-response","trial_index":56,"plugin_version":"2.1.0","time_elapsed":4164992,"subject_id":"91946","group":"Group1","condition":"3_Rep","full_date":"2026-01-27T18:00:37.256Z","date":"2026-01-27","time":"18:00:37"},{"task":"memory_phase","broad_category":"S","image_png":"S_Rock Salt_01.png","image_id":433,"category_name":"Rock Salt","category":28,"distinct_rating":7.18,"distinct_type":"Top","rt":null,"stimulus":"Stimuli_Rocks480/S_Rock Salt_01.png","response":null,"trial_type":"image-keyboard-response","trial_index":57,"plugin_version":"2.1.0","time_elapsed":4167510,"subject_id":"91946","group":"Group1","condition":"3_Rep","full_date":"2026-01-27T18:00:37.256Z","date":"2026-01-27","time":"18:00:37"},{"rt":null,"stimulus":"<p style=\"font-size: 50px; margin: 0; text-align: center;\">+</p>","response":null,"trial_type":"html-keyboard-response","trial_index":58,"plugin_version":"2.1.0","time_elapsed":4168520,"subject_id":"91946","group":"Group1","condition":"3_Rep","full_date":"2026-01-27T18:00:37.256Z","date":"2026-01-27","time":"18:00:37"},{"task":"memory_phase","broad_category":"S","image_png":"S_Dolomite_14.png","image_id":398,"category_name":"Dolomite","category":25,"distinct_rating":1.43,"distinct_type":"Bottom","rt":null,"stimulus":"Stimuli_Rocks480/S_Dolomite_14.png","response":null,"trial_type":"image-keyboard-response","trial_index":59,"plugin_version":"2.1.0","time_elapsed":4171025,"subject_id":"91946","group":"Group1","condition":"3_Rep","full_date":"2026-01-27T18:00:37.256Z","date":"2026-01-27","time":"18:00:37"},{"rt":null,"stimulus":"<p style=\"font-size: 50px; margin: 0; text-align: center;\">+</p>","response":null,"trial_type":"html-keyboard-response","trial_index":60,"plugin_version":"2.1.0","time_elapsed":4172038,"subject_id":"91946","group":"Group1","condition":"3_Rep","full_date":"2026-01-27T18:00:37.256Z","date":"2026-01-27","time":"18:00:37"},{"task":"memory_phase","broad_category":"I","image_png":"I_Pegmatite_10.png","image_id":106,"category_name":"Pegmatite","category":7,"distinct_rating":7.66,"distinct_type":"Top","rt":null,"stimulus":"Stimuli_Rocks480/I_Pegmatite_10.png","response":null,"trial_type":"image-keyboard-response","trial_index":61,"plugin_version":"2.1.0","time_elapsed":4174555,"subject_id":"91946","group":"Group1","condition":"3_Rep","full_date":"2026-01-27T18:00:37.256Z","date":"2026-01-27","time":"18:00:37"},{"rt":null,"stimulus":"<p style=\"font-size: 50px; margin: 0; text-align: center;\">+</p>","response":null,"trial_type":"html-keyboard-response","trial_index":62,"plugin_version":"2.1.0","time_elapsed":4175570,"subject_id":"91946","group":"Group1","condition":"3_Rep","full_date":"2026-01-27T18:00:37.256Z","date":"2026-01-27","time":"18:00:37"},{"task":"memory_phase","broad_category":"S","image_png":"S_Dolomite_12.png","image_id":396,"category_name":"Dolomite","category":25,"distinct_rating":1.85,"distinct_type":"Bottom","rt":null,"stimulus":"Stimuli_Rocks480/S_Dolomite_12.png","response":null,"trial_type":"image-keyboard-response","trial_index":63,"plugin_version":"2.1.0","time_elapsed":4178086,"subject_id":"91946","group":"Group1","condition":"3_Rep","full_date":"2026-01-27T18:00:37.256Z","date":"2026-01-27","time":"18:00:37"},{"rt":null,"stimulus":"<p style=\"font-size: 50px; margin: 0; text-align: center;\">+</p>","response":null,"trial_type":"html-keyboard-response","trial_index":64,"plugin_version":"2.1.0","time_elapsed":4179094,"subject_id":"91946","group":"Group1","condition":"3_Rep","full_date":"2026-01-27T18:00:37.256Z","date":"2026-01-27","time":"18:00:37"},{"task":"memory_phase","broad_category":"I","image_png":"I_Diorite_05.png","image_id":37,"category_name":"Diorite","category":3,"distinct_rating":3.08,"distinct_type":"Bottom","rt":null,"stimulus":"Stimuli_Rocks480/I_Diorite_05.png","response":null,"trial_type":"image-keyboard-response","trial_index":65,"plugin_version":"2.1.0","time_elapsed":4181608,"subject_id":"91946","group":"Group1","condition":"3_Rep","full_date":"2026-01-27T18:00:37.256Z","date":"2026-01-27","time":"18:00:37"},{"rt":null,"stimulus":"<p style=\"font-size: 50px; margin: 0; text-align: center;\">+</p>","response":null,"trial_type":"html-keyboard-response","trial_index":66,"plugin_version":"2.1.0","time_elapsed":4182621,"subject_id":"91946","group":"Group1","condition":"3_Rep","full_date":"2026-01-27T18:00:37.256Z","date":"2026-01-27","time":"18:00:37"},{"task":"memory_phase","broad_category":"M","image_png":"M_Marble_16.png","image_id":240,"category_name":"Marble","category":15,"distinct_rating":2.57,"distinct_type":"Bottom","rt":null,"stimulus":"Stimuli_Rocks480/M_Marble_16.png","response":null,"trial_type":"image-keyboard-response","trial_index":67,"plugin_version":"2.1.0","time_elapsed":4185138,"subject_id":"91946","group":"Group1","condition":"3_Rep","full_date":"2026-01-27T18:00:37.256Z","date":"2026-01-27","time":"18:00:37"},{"rt":null,"stimulus":"<p style=\"font-size: 50px; margin: 0; text-align: center;\">+</p>","response":null,"trial_type":"html-keyboard-response","trial_index":68,"plugin_version":"2.1.0","time_elapsed":4186156,"subject_id":"91946","group":"Group1","condition":"3_Rep","full_date":"2026-01-27T18:00:37.256Z","date":"2026-01-27","time":"18:00:37"},{"task":"memory_phase","broad_category":"I","image_png":"I_Gabbro_16.png","image_id":64,"category_name":"Gabbro","category":4,"distinct_rating":2.52,"distinct_type":"Bottom","rt":null,"stimulus":"Stimuli_Rocks480/I_Gabbro_16.png","response":null,"trial_type":"image-keyboard-response","trial_index":69,"plugin_version":"2.1.0","time_elapsed":4188669,"subject_id":"91946","group":"Group1","condition":"3_Rep","full_date":"2026-01-27T18:00:37.256Z","date":"2026-01-27","time":"18:00:37"},{"rt":null,"stimulus":"<p style=\"font-size: 50px; margin: 0; text-align: center;\">+</p>","response":null,"trial_type":"html-keyboard-response","trial_index":70,"plugin_version":"2.1.0","time_elapsed":4189679,"subject_id":"91946","group":"Group1","condition":"3_Rep","full_date":"2026-01-27T18:00:37.256Z","date":"2026-01-27","time":"18:00:37"},{"task":"memory_phase","broad_category":"M","image_png":"M_Phyllite_07.png","image_id":263,"category_name":"Phyllite","category":17,"distinct_rating":2.59,"distinct_type":"Bottom","rt":null,"stimulus":"Stimuli_Rocks480/M_Phyllite_07.png","response":null,"trial_type":"image-keyboard-response","trial_index":71,"plugin_version":"2.1.0","time_elapsed":4192187,"subject_id":"91946","group":"Group1","condition":"3_Rep","full_date":"2026-01-27T18:00:37.256Z","date":"2026-01-27","time":"18:00:37"},{"rt":null,"stimulus":"<p style=\"font-size: 50px; margin: 0; text-align: center;\">+</p>","response":null,"trial_type":"html-keyboard-response","trial_index":72,"plugin_version":"2.1.0","time_elapsed":4193199,"subject_id":"91946","group":"Group1","condition":"3_Rep","full_date":"2026-01-27T18:00:37.256Z","date":"2026-01-27","time":"18:00:37"},{"task":"memory_phase","broad_category":"I","image_png":"I_Andesite_10.png","image_id":10,"category_name":"Andesite","category":1,"distinct_rating":3.15,"distinct_type":"Bottom","rt":null,"stimulus":"Stimuli_Rocks480/I_Andesite_10.png","response":null,"trial_type":"image-keyboard-response","trial_index":73,"plugin_version":"2.1.0","time_elapsed":4195703,"subject_id":"91946","group":"Group1","condition":"3_Rep","full_date":"2026-01-27T18:00:37.256Z","date":"2026-01-27","time":"18:00:37"},{"rt":null,"stimulus":"<p style=\"font-size: 50px; margin: 0; text-align: center;\">+</p>","response":null,"trial_type":"html-keyboard-response","trial_index":74,"plugin_version":"2.1.0","time_elapsed":4196709,"subject_id":"91946","group":"Group1","condition":"3_Rep","full_date":"2026-01-27T18:00:37.256Z","date":"2026-01-27","time":"18:00:37"},{"task":"memory_phase","broad_category":"I","image_png":"I_Andesite_08.png","image_id":8,"category_name":"Andesite","category":1,"distinct_rating":1.95,"distinct_type":"Bottom","rt":null,"stimulus":"Stimuli_Rocks480/I_Andesite_08.png","response":null,"trial_type":"image-keyboard-response","trial_index":75,"plugin_version":"2.1.0","time_elapsed":4199213,"subject_id":"91946","group":"Group1","condition":"3_Rep","full_date":"2026-01-27T18:00:37.256Z","date":"2026-01-27","time":"18:00:37"},{"rt":null,"stimulus":"<p style=\"font-size: 50px; margin: 0; text-align: center;\">+</p>","response":null,"trial_type":"html-keyboard-response","trial_index":76,"plugin_version":"2.1.0","time_elapsed":4200221,"subject_id":"91946","group":"Group1","condition":"3_Rep","full_date":"2026-01-27T18:00:37.256Z","date":"2026-01-27","time":"18:00:37"},{"task":"memory_phase","broad_category":"M","image_png":"M_Marble_04.png","image_id":228,"category_name":"Marble","category":15,"distinct_rating":3.15,"distinct_type":"Bottom","rt":null,"stimulus":"Stimuli_Rocks480/M_Marble_04.png","response":null,"trial_type":"image-keyboard-response","trial_index":77,"plugin_version":"2.1.0","time_elapsed":4202727,"subject_id":"91946","group":"Group1","condition":"3_Rep","full_date":"2026-01-27T18:00:37.256Z","date":"2026-01-27","time":"18:00:37"},{"rt":null,"stimulus":"<p style=\"font-size: 50px; margin: 0; text-align: center;\">+</p>","response":null,"trial_type":"html-keyboard-response","trial_index":78,"plugin_version":"2.1.0","time_elapsed":4203733,"subject_id":"91946","group":"Group1","condition":"3_Rep","full_date":"2026-01-27T18:00:37.256Z","date":"2026-01-27","time":"18:00:37"},{"task":"memory_phase","broad_category":"I","image_png":"I_Rhyolite_11.png","image_id":155,"category_name":"Rhyolite","category":10,"distinct_rating":1.73,"distinct_type":"Bottom","rt":null,"stimulus":"Stimuli_Rocks480/I_Rhyolite_11.png","response":null,"trial_type":"image-keyboard-response","trial_index":79,"plugin_version":"2.1.0","time_elapsed":4206247,"subject_id":"91946","group":"Group1","condition":"3_Rep","full_date":"2026-01-27T18:00:37.256Z","date":"2026-01-27","time":"18:00:37"},{"rt":null,"stimulus":"<p style=\"font-size: 50px; margin: 0; text-align: center;\">+</p>","response":null,"trial_type":"html-keyboard-response","trial_index":80,"plugin_version":"2.1.0","time_elapsed":4207249,"subject_id":"91946","group":"Group1","condition":"3_Rep","full_date":"2026-01-27T18:00:37.256Z","date":"2026-01-27","time":"18:00:37"},{"task":"memory_phase","broad_category":"S","image_png":"S_Shale_01.png","image_id":465,"category_name":"Shale","category":30,"distinct_rating":2.7,"distinct_type":"Bottom","rt":null,"stimulus":"Stimuli_Rocks480/S_Shale_01.png","response":null,"trial_type":"image-keyboard-response","trial_index":81,"plugin_version":"2.1.0","time_elapsed":4209759,"subject_id":"91946","group":"Group1","condition":"3_Rep","full_date":"2026-01-27T18:00:37.256Z","date":"2026-01-27","time":"18:00:37"},{"rt":null,"stimulus":"<p style=\"font-size: 50px; margin: 0; text-align: center;\">+</p>","response":null,"trial_type":"html-keyboard-response","trial_index":82,"plugin_version":"2.1.0","time_elapsed":4210763,"subject_id":"91946","group":"Group1","condition":"3_Rep","full_date":"2026-01-27T18:00:37.256Z","date":"2026-01-27","time":"18:00:37"},{"task":"memory_phase","broad_category":"S","image_png":"S_Sandstone_03.png","image_id":451,"category_name":"Sandstone","category":29,"distinct_rating":1.86,"distinct_type":"Bottom","rt":null,"stimulus":"Stimuli_Rocks480/S_Sandstone_03.png","response":null,"trial_type":"image-keyboard-response","trial_index":83,"plugin_version":"2.1.0","time_elapsed":4213271,"subject_id":"91946","group":"Group1","condition":"3_Rep","full_date":"2026-01-27T18:00:37.256Z","date":"2026-01-27","time":"18:00:37"},{"rt":null,"stimulus":"<p style=\"font-size: 50px; margin: 0; text-align: center;\">+</p>","response":null,"trial_type":"html-keyboard-response","trial_index":84,"plugin_version":"2.1.0","time_elapsed":4214277,"subject_id":"91946","group":"Group1","condition":"3_Rep","full_date":"2026-01-27T18:00:37.256Z","date":"2026-01-27","time":"18:00:37"},{"task":"memory_phase","broad_category":"S","image_png":"S_Shale_12.png","image_id":476,"category_name":"Shale","category":30,"distinct_rating":2.48,"distinct_type":"Bottom","rt":null,"stimulus":"Stimuli_Rocks480/S_Shale_12.png","response":null,"trial_type":"image-keyboard-response","trial_index":85,"plugin_version":"2.1.0","time_elapsed":4216790,"subject_id":"91946","group":"Group1","condition":"3_Rep","full_date":"2026-01-27T18:00:37.256Z","date":"2026-01-27","time":"18:00:37"},{"rt":null,"stimulus":"<p style=\"font-size: 50px; margin: 0; text-align: center;\">+</p>","response":null,"trial_type":"html-keyboard-response","trial_index":86,"plugin_version":"2.1.0","time_elapsed":4217807,"subject_id":"91946","group":"Group1","condition":"3_Rep","full_date":"2026-01-27T18:00:37.256Z","date":"2026-01-27","time":"18:00:37"},{"task":"memory_phase","broad_category":"M","image_png":"M_Gneiss_13.png","image_id":205,"category_name":"Gneiss","category":13,"distinct_rating":3.26,"distinct_type":"Bottom","rt":null,"stimulus":"Stimuli_Rocks480/M_Gneiss_13.png","response":null,"trial_type":"image-keyboard-response","trial_index":87,"plugin_version":"2.1.0","time_elapsed":4220321,"subject_id":"91946","group":"Group1","condition":"3_Rep","full_date":"2026-01-27T18:00:37.256Z","date":"2026-01-27","time":"18:00:37"},{"rt":null,"stimulus":"<p style=\"font-size: 50px; margin: 0; text-align: center;\">+</p>","response":null,"trial_type":"html-keyboard-response","trial_index":88,"plugin_version":"2.1.0","time_elapsed":4221337,"subject_id":"91946","group":"Group1","condition":"3_Rep","full_date":"2026-01-27T18:00:37.256Z","date":"2026-01-27","time":"18:00:37"},{"task":"memory_phase","broad_category":"I","image_png":"I_Andesite_06.png","image_id":6,"category_name":"Andesite","category":1,"distinct_rating":3.17,"distinct_type":"Bottom","rt":null,"stimulus":"Stimuli_Rocks480/I_Andesite_06.png","response":null,"trial_type":"image-keyboard-response","trial_index":89,"plugin_version":"2.1.0","time_elapsed":4223845,"subject_id":"91946","group":"Group1","condition":"3_Rep","full_date":"2026-01-27T18:00:37.256Z","date":"2026-01-27","time":"18:00:37"},{"rt":null,"stimulus":"<p style=\"font-size: 50px; margin: 0; text-align: center;\">+</p>","response":null,"trial_type":"html-keyboard-response","trial_index":90,"plugin_version":"2.1.0","time_elapsed":4224847,"subject_id":"91946","group":"Group1","condition":"3_Rep","full_date":"2026-01-27T18:00:37.256Z","date":"2026-01-27","time":"18:00:37"},{"task":"memory_phase","broad_category":"I","image_png":"I_Pegmatite_16.png","image_id":112,"category_name":"Pegmatite","category":7,"distinct_rating":7.03,"distinct_type":"Top","rt":null,"stimulus":"Stimuli_Rocks480/I_Pegmatite_16.png","response":null,"trial_type":"image-keyboard-response","trial_index":91,"plugin_version":"2.1.0","time_elapsed":4227351,"subject_id":"91946","group":"Group1","condition":"3_Rep","full_date":"2026-01-27T18:00:37.256Z","date":"2026-01-27","time":"18:00:37"},{"rt":null,"stimulus":"<p style=\"font-size: 50px; margin: 0; text-align: center;\">+</p>","response":null,"trial_type":"html-keyboard-response","trial_index":92,"plugin_version":"2.1.0","time_elapsed":4228359,"subject_id":"91946","group":"Group1","condition":"3_Rep","full_date":"2026-01-27T18:00:37.256Z","date":"2026-01-27","time":"18:00:37"},{"task":"memory_phase","broad_category":"M","image_png":"M_Phyllite_10.png","image_id":266,"category_name":"Phyllite","category":17,"distinct_rating":2.6,"distinct_type":"Bottom","rt":null,"stimulus":"Stimuli_Rocks480/M_Phyllite_10.png","response":null,"trial_type":"image-keyboard-response","trial_index":93,"plugin_version":"2.1.0","time_elapsed":4230868,"subject_id":"91946","group":"Group1","condition":"3_Rep","full_date":"2026-01-27T18:00:37.256Z","date":"2026-01-27","time":"18:00:37"},{"rt":null,"stimulus":"<p style=\"font-size: 50px; margin: 0; text-align: center;\">+</p>","response":null,"trial_type":"html-keyboard-response","trial_index":94,"plugin_version":"2.1.0","time_elapsed":4231874,"subject_id":"91946","group":"Group1","condition":"3_Rep","full_date":"2026-01-27T18:00:37.256Z","date":"2026-01-27","time":"18:00:37"},{"task":"memory_phase","broad_category":"M","image_png":"M_Slate_03.png","image_id":307,"category_name":"Slate","category":20,"distinct_rating":1.87,"distinct_type":"Bottom","rt":null,"stimulus":"Stimuli_Rocks480/M_Slate_03.png","response":null,"trial_type":"image-keyboard-response","trial_index":95,"plugin_version":"2.1.0","time_elapsed":4234392,"subject_id":"91946","group":"Group1","condition":"3_Rep","full_date":"2026-01-27T18:00:37.256Z","date":"2026-01-27","time":"18:00:37"},{"rt":null,"stimulus":"<p style=\"font-size: 50px; margin: 0; text-align: center;\">+</p>","response":null,"trial_type":"html-keyboard-response","trial_index":96,"plugin_version":"2.1.0","time_elapsed":4235402,"subject_id":"91946","group":"Group1","condition":"3_Rep","full_date":"2026-01-27T18:00:37.256Z","date":"2026-01-27","time":"18:00:37"},{"task":"memory_phase","broad_category":"I","image_png":"I_Pumice_11.png","image_id":139,"category_name":"Pumice","category":9,"distinct_rating":1.74,"distinct_type":"Bottom","rt":null,"stimulus":"Stimuli_Rocks480/I_Pumice_11.png","response":null,"trial_type":"image-keyboard-response","trial_index":97,"plugin_version":"2.1.0","time_elapsed":4237912,"subject_id":"91946","group":"Group1","condition":"3_Rep","full_date":"2026-01-27T18:00:37.256Z","date":"2026-01-27","time":"18:00:37"},{"rt":null,"stimulus":"<p style=\"font-size: 50px; margin: 0; text-align: center;\">+</p>","response":null,"trial_type":"html-keyboard-response","trial_index":98,"plugin_version":"2.1.0","time_elapsed":4238928,"subject_id":"91946","group":"Group1","condition":"3_Rep","full_date":"2026-01-27T18:00:37.256Z","date":"2026-01-27","time":"18:00:37"},{"task":"memory_phase","broad_category":"M","image_png":"M_Gneiss_06.png","image_id":198,"category_name":"Gneiss","category":13,"distinct_rating":2.65,"distinct_type":"Bottom","rt":null,"stimulus":"Stimuli_Rocks480/M_Gneiss_06.png","response":null,"trial_type":"image-keyboard-response","trial_index":99,"plugin_version":"2.1.0","time_elapsed":4241446,"subject_id":"91946","group":"Group1","condition":"3_Rep","full_date":"2026-01-27T18:00:37.256Z","date":"2026-01-27","time":"18:00:37"},{"rt":null,"stimulus":"<p style=\"font-size: 50px; margin: 0; text-align: center;\">+</p>","response":null,"trial_type":"html-keyboard-response","trial_index":100,"plugin_version":"2.1.0","time_elapsed":4242458,"subject_id":"91946","group":"Group1","condition":"3_Rep","full_date":"2026-01-27T18:00:37.256Z","date":"2026-01-27","time":"18:00:37"},{"task":"memory_phase","broad_category":"S","image_png":"S_Rock Gypsum_04.png","image_id":420,"category_name":"Rock Gypsum","category":27,"distinct_rating":7.61,"distinct_type":"Top","rt":null,"stimulus":"Stimuli_Rocks480/S_Rock Gypsum_04.png","response":null,"trial_type":"image-keyboard-response","trial_index":101,"plugin_version":"2.1.0","time_elapsed":4244974,"subject_id":"91946","group":"Group1","condition":"3_Rep","full_date":"2026-01-27T18:00:37.256Z","date":"2026-01-27","time":"18:00:37"},{"rt":null,"stimulus":"<p style=\"font-size: 50px; margin: 0; text-align: center;\">+</p>","response":null,"trial_type":"html-keyboard-response","trial_index":102,"plugin_version":"2.1.0","time_elapsed":4245990,"subject_id":"91946","group":"Group1","condition":"3_Rep","full_date":"2026-01-27T18:00:37.256Z","date":"2026-01-27","time":"18:00:37"},{"task":"memory_phase","broad_category":"I","image_png":"I_Basalt_02.png","image_id":18,"category_name":"Basalt","category":2,"distinct_rating":1.84,"distinct_type":"Bottom","rt":null,"stimulus":"Stimuli_Rocks480/I_Basalt_02.png","response":null,"trial_type":"image-keyboard-response","trial_index":103,"plugin_version":"2.1.0","time_elapsed":4248495,"subject_id":"91946","group":"Group1","condition":"3_Rep","full_date":"2026-01-27T18:00:37.256Z","date":"2026-01-27","time":"18:00:37"},{"rt":null,"stimulus":"<p style=\"font-size: 50px; margin: 0; text-align: center;\">+</p>","response":null,"trial_type":"html-keyboard-response","trial_index":104,"plugin_version":"2.1.0","time_elapsed":4249500,"subject_id":"91946","group":"Group1","condition":"3_Rep","full_date":"2026-01-27T18:00:37.256Z","date":"2026-01-27","time":"18:00:37"},{"task":"memory_phase","broad_category":"S","image_png":"S_Chert_10.png","image_id":362,"category_name":"Chert","category":23,"distinct_rating":7.17,"distinct_type":"Top","rt":null,"stimulus":"Stimuli_Rocks480/S_Chert_10.png","response":null,"trial_type":"image-keyboard-response","trial_index":105,"plugin_version":"2.1.0","time_elapsed":4252006,"subject_id":"91946","group":"Group1","condition":"3_Rep","full_date":"2026-01-27T18:00:37.256Z","date":"2026-01-27","time":"18:00:37"},{"rt":6080,"stimulus":"<p style=\"max-width: 760px; margin: auto; font-size: 35px; line-height: 1.5;\">\n                You have completed 1 study phase. \n                Now, we'll show you all the images again 2 more times.\n                <br><br>Press SPACE to continue\n              </p>","response":" ","trial_type":"html-keyboard-response","trial_index":106,"plugin_version":"2.1.0","time_elapsed":4258087,"subject_id":"91946","group":"Group1","condition":"3_Rep","full_date":"2026-01-27T18:00:37.256Z","date":"2026-01-27","time":"18:00:37"},{"rt":null,"stimulus":"<p style=\"font-size: 50px; margin: 0; text-align: center;\">+</p>","response":null,"trial_type":"html-keyboard-response","trial_index":107,"plugin_version":"2.1.0","time_elapsed":4259095,"subject_id":"91946","group":"Group1","condition":"3_Rep","full_date":"2026-01-27T18:00:37.256Z","date":"2026-01-27","time":"18:00:37"},{"task":"memory_phase","broad_category":"M","image_png":"M_Gneiss_13.png","image_id":205,"category_name":"Gneiss","category":13,"distinct_rating":3.26,"distinct_type":"Bottom","rt":null,"stimulus":"Stimuli_Rocks480/M_Gneiss_13.png","response":null,"trial_type":"image-keyboard-response","trial_index":108,"plugin_version":"2.1.0","time_elapsed":4261606,"subject_id":"91946","group":"Group1","condition":"3_Rep","full_date":"2026-01-27T18:00:37.256Z","date":"2026-01-27","time":"18:00:37"},{"rt":null,"stimulus":"<p style=\"font-size: 50px; margin: 0; text-align: center;\">+</p>","response":null,"trial_type":"html-keyboard-response","trial_index":109,"plugin_version":"2.1.0","time_elapsed":4262623,"subject_id":"91946","group":"Group1","condition":"3_Rep","full_date":"2026-01-27T18:00:37.256Z","date":"2026-01-27","time":"18:00:37"},{"task":"memory_phase","broad_category":"M","image_png":"M_Slate_11.png","image_id":315,"category_name":"Slate","category":20,"distinct_rating":2.75,"distinct_type":"Bottom","rt":null,"stimulus":"Stimuli_Rocks480/M_Slate_11.png","response":null,"trial_type":"image-keyboard-response","trial_index":110,"plugin_version":"2.1.0","time_elapsed":4265135,"subject_id":"91946","group":"Group1","condition":"3_Rep","full_date":"2026-01-27T18:00:37.256Z","date":"2026-01-27","time":"18:00:37"},{"rt":null,"stimulus":"<p style=\"font-size: 50px; margin: 0; text-align: center;\">+</p>","response":null,"trial_type":"html-keyboard-response","trial_index":111,"plugin_version":"2.1.0","time_elapsed":4266150,"subject_id":"91946","group":"Group1","condition":"3_Rep","full_date":"2026-01-27T18:00:37.256Z","date":"2026-01-27","time":"18:00:37"},{"task":"memory_phase","broad_category":"I","image_png":"I_Basalt_02.png","image_id":18,"category_name":"Basalt","category":2,"distinct_rating":1.84,"distinct_type":"Bottom","rt":null,"stimulus":"Stimuli_Rocks480/I_Basalt_02.png","response":null,"trial_type":"image-keyboard-response","trial_index":112,"plugin_version":"2.1.0","time_elapsed":4268664,"subject_id":"91946","group":"Group1","condition":"3_Rep","full_date":"2026-01-27T18:00:37.256Z","date":"2026-01-27","time":"18:00:37"},{"rt":null,"stimulus":"<p style=\"font-size: 50px; margin: 0; text-align: center;\">+</p>","response":null,"trial_type":"html-keyboard-response","trial_index":113,"plugin_version":"2.1.0","time_elapsed":4269668,"subject_id":"91946","group":"Group1","condition":"3_Rep","full_date":"2026-01-27T18:00:37.256Z","date":"2026-01-27","time":"18:00:37"},{"task":"memory_phase","broad_category":"I","image_png":"I_Diorite_04.png","image_id":36,"category_name":"Diorite","category":3,"distinct_rating":2.98,"distinct_type":"Bottom","rt":null,"stimulus":"Stimuli_Rocks480/I_Diorite_04.png","response":null,"trial_type":"image-keyboard-response","trial_index":114,"plugin_version":"2.1.0","time_elapsed":4272178,"subject_id":"91946","group":"Group1","condition":"3_Rep","full_date":"2026-01-27T18:00:37.256Z","date":"2026-01-27","time":"18:00:37"},{"rt":null,"stimulus":"<p style=\"font-size: 50px; margin: 0; text-align: center;\">+</p>","response":null,"trial_type":"html-keyboard-response","trial_index":115,"plugin_version":"2.1.0","time_elapsed":4273195,"subject_id":"91946","group":"Group1","condition":"3_Rep","full_date":"2026-01-27T18:00:37.256Z","date":"2026-01-27","time":"18:00:37"},{"task":"memory_phase","broad_category":"I","image_png":"I_Obsidian_05.png","image_id":85,"category_name":"Obsidian","category":6,"distinct_rating":7.32,"distinct_type":"Top","rt":null,"stimulus":"Stimuli_Rocks480/I_Obsidian_05.png","response":null,"trial_type":"image-keyboard-response","trial_index":116,"plugin_version":"2.1.0","time_elapsed":4275712,"subject_id":"91946","group":"Group1","condition":"3_Rep","full_date":"2026-01-27T18:00:37.256Z","date":"2026-01-27","time":"18:00:37"},{"rt":null,"stimulus":"<p style=\"font-size: 50px; margin: 0; text-align: center;\">+</p>","response":null,"trial_type":"html-keyboard-response","trial_index":117,"plugin_version":"2.1.0","time_elapsed":4276728,"subject_id":"91946","group":"Group1","condition":"3_Rep","full_date":"2026-01-27T18:00:37.256Z","date":"2026-01-27","time":"18:00:37"},{"task":"memory_phase","broad_category":"I","image_png":"I_Rhyolite_11.png","image_id":155,"category_name":"Rhyolite","category":10,"distinct_rating":1.73,"distinct_type":"Bottom","rt":null,"stimulus":"Stimuli_Rocks480/I_Rhyolite_11.png","response":null,"trial_type":"image-keyboard-response","trial_index":118,"plugin_version":"2.1.0","time_elapsed":4279244,"subject_id":"91946","group":"Group1","condition":"3_Rep","full_date":"2026-01-27T18:00:37.256Z","date":"2026-01-27","time":"18:00:37"},{"rt":null,"stimulus":"<p style=\"font-size: 50px; margin: 0; text-align: center;\">+</p>","response":null,"trial_type":"html-keyboard-response","trial_index":119,"plugin_version":"2.1.0","time_elapsed":4280257,"subject_id":"91946","group":"Group1","condition":"3_Rep","full_date":"2026-01-27T18:00:37.256Z","date":"2026-01-27","time":"18:00:37"},{"task":"memory_phase","broad_category":"I","image_png":"I_Pumice_08.png","image_id":136,"category_name":"Pumice","category":9,"distinct_rating":3.1,"distinct_type":"Bottom","rt":null,"stimulus":"Stimuli_Rocks480/I_Pumice_08.png","response":null,"trial_type":"image-keyboard-response","trial_index":120,"plugin_version":"2.1.0","time_elapsed":4282774,"subject_id":"91946","group":"Group1","condition":"3_Rep","full_date":"2026-01-27T18:00:37.256Z","date":"2026-01-27","time":"18:00:37"},{"rt":null,"stimulus":"<p style=\"font-size: 50px; margin: 0; text-align: center;\">+</p>","response":null,"trial_type":"html-keyboard-response","trial_index":121,"plugin_version":"2.1.0","time_elapsed":4283782,"subject_id":"91946","group":"Group1","condition":"3_Rep","full_date":"2026-01-27T18:00:37.256Z","date":"2026-01-27","time":"18:00:37"},{"task":"memory_phase","broad_category":"S","image_png":"S_Shale_01.png","image_id":465,"category_name":"Shale","category":30,"distinct_rating":2.7,"distinct_type":"Bottom","rt":null,"stimulus":"Stimuli_Rocks480/S_Shale_01.png","response":null,"trial_type":"image-keyboard-response","trial_index":122,"plugin_version":"2.1.0","time_elapsed":4286300,"subject_id":"91946","group":"Group1","condition":"3_Rep","full_date":"2026-01-27T18:00:37.256Z","date":"2026-01-27","time":"18:00:37"},{"rt":null,"stimulus":"<p style=\"font-size: 50px; margin: 0; text-align: center;\">+</p>","response":null,"trial_type":"html-keyboard-response","trial_index":123,"plugin_version":"2.1.0","time_elapsed":4287315,"subject_id":"91946","group":"Group1","condition":"3_Rep","full_date":"2026-01-27T18:00:37.256Z","date":"2026-01-27","time":"18:00:37"},{"task":"memory_phase","broad_category":"S","image_png":"S_Shale_12.png","image_id":476,"category_name":"Shale","category":30,"distinct_rating":2.48,"distinct_type":"Bottom","rt":null,"stimulus":"Stimuli_Rocks480/S_Shale_12.png","response":null,"trial_type":"image-keyboard-response","trial_index":124,"plugin_version":"2.1.0","time_elapsed":4289829,"subject_id":"91946","group":"Group1","condition":"3_Rep","full_date":"2026-01-27T18:00:37.256Z","date":"2026-01-27","time":"18:00:37"},{"rt":null,"stimulus":"<p style=\"font-size: 50px; margin: 0; text-align: center;\">+</p>","response":null,"trial_type":"html-keyboard-response","trial_index":125,"plugin_version":"2.1.0","time_elapsed":4290845,"subject_id":"91946","group":"Group1","condition":"3_Rep","full_date":"2026-01-27T18:00:37.256Z","date":"2026-01-27","time":"18:00:37"},{"task":"memory_phase","broad_category":"I","image_png":"I_Rhyolite_16.png","image_id":160,"category_name":"Rhyolite","category":10,"distinct_rating":2.19,"distinct_type":"Bottom","rt":null,"stimulus":"Stimuli_Rocks480/I_Rhyolite_16.png","response":null,"trial_type":"image-keyboard-response","trial_index":126,"plugin_version":"2.1.0","time_elapsed":4293357,"subject_id":"91946","group":"Group1","condition":"3_Rep","full_date":"2026-01-27T18:00:37.256Z","date":"2026-01-27","time":"18:00:37"},{"rt":null,"stimulus":"<p style=\"font-size: 50px; margin: 0; text-align: center;\">+</p>","response":null,"trial_type":"html-keyboard-response","trial_index":127,"plugin_version":"2.1.0","time_elapsed":4294370,"subject_id":"91946","group":"Group1","condition":"3_Rep","full_date":"2026-01-27T18:00:37.256Z","date":"2026-01-27","time":"18:00:37"},{"task":"memory_phase","broad_category":"M","image_png":"M_Gneiss_05.png","image_id":197,"category_name":"Gneiss","category":13,"distinct_rating":2.97,"distinct_type":"Bottom","rt":null,"stimulus":"Stimuli_Rocks480/M_Gneiss_05.png","response":null,"trial_type":"image-keyboard-response","trial_index":128,"plugin_version":"2.1.0","time_elapsed":4296874,"subject_id":"91946","group":"Group1","condition":"3_Rep","full_date":"2026-01-27T18:00:37.256Z","date":"2026-01-27","time":"18:00:37"},{"rt":null,"stimulus":"<p style=\"font-size: 50px; margin: 0; text-align: center;\">+</p>","response":null,"trial_type":"html-keyboard-response","trial_index":129,"plugin_version":"2.1.0","time_elapsed":4297888,"subject_id":"91946","group":"Group1","condition":"3_Rep","full_date":"2026-01-27T18:00:37.256Z","date":"2026-01-27","time":"18:00:37"},{"task":"memory_phase","broad_category":"S","image_png":"S_Dolomite_12.png","image_id":396,"category_name":"Dolomite","category":25,"distinct_rating":1.85,"distinct_type":"Bottom","rt":null,"stimulus":"Stimuli_Rocks480/S_Dolomite_12.png","response":null,"trial_type":"image-keyboard-response","trial_index":130,"plugin_version":"2.1.0","time_elapsed":4300391,"subject_id":"91946","group":"Group1","condition":"3_Rep","full_date":"2026-01-27T18:00:37.256Z","date":"2026-01-27","time":"18:00:37"},{"rt":null,"stimulus":"<p style=\"font-size: 50px; margin: 0; text-align: center;\">+</p>","response":null,"trial_type":"html-keyboard-response","trial_index":131,"plugin_version":"2.1.0","time_elapsed":4301403,"subject_id":"91946","group":"Group1","condition":"3_Rep","full_date":"2026-01-27T18:00:37.256Z","date":"2026-01-27","time":"18:00:37"},{"task":"memory_phase","broad_category":"S","image_png":"S_Breccia_11.png","image_id":347,"category_name":"Breccia","category":22,"distinct_rating":6.7,"distinct_type":"Top","rt":null,"stimulus":"Stimuli_Rocks480/S_Breccia_11.png","response":null,"trial_type":"image-keyboard-response","trial_index":132,"plugin_version":"2.1.0","time_elapsed":4303908,"subject_id":"91946","group":"Group1","condition":"3_Rep","full_date":"2026-01-27T18:00:37.256Z","date":"2026-01-27","time":"18:00:37"},{"rt":null,"stimulus":"<p style=\"font-size: 50px; margin: 0; text-align: center;\">+</p>","response":null,"trial_type":"html-keyboard-response","trial_index":133,"plugin_version":"2.1.0","time_elapsed":4304913,"subject_id":"91946","group":"Group1","condition":"3_Rep","full_date":"2026-01-27T18:00:37.256Z","date":"2026-01-27","time":"18:00:37"},{"task":"memory_phase","broad_category":"I","image_png":"I_Basalt_01.png","image_id":17,"category_name":"Basalt","category":2,"distinct_rating":1.92,"distinct_type":"Bottom","rt":null,"stimulus":"Stimuli_Rocks480/I_Basalt_01.png","response":null,"trial_type":"image-keyboard-response","trial_index":134,"plugin_version":"2.1.0","time_elapsed":4307430,"subject_id":"91946","group":"Group1","condition":"3_Rep","full_date":"2026-01-27T18:00:37.256Z","date":"2026-01-27","time":"18:00:37"},{"rt":null,"stimulus":"<p style=\"font-size: 50px; margin: 0; text-align: center;\">+</p>","response":null,"trial_type":"html-keyboard-response","trial_index":135,"plugin_version":"2.1.0","time_elapsed":4308440,"subject_id":"91946","group":"Group1","condition":"3_Rep","full_date":"2026-01-27T18:00:37.256Z","date":"2026-01-27","time":"18:00:37"},{"task":"memory_phase","broad_category":"M","image_png":"M_Quartzite_13.png","image_id":285,"category_name":"Quartzite","category":18,"distinct_rating":2.27,"distinct_type":"Bottom","rt":null,"stimulus":"Stimuli_Rocks480/M_Quartzite_13.png","response":null,"trial_type":"image-keyboard-response","trial_index":136,"plugin_version":"2.1.0","time_elapsed":4310956,"subject_id":"91946","group":"Group1","condition":"3_Rep","full_date":"2026-01-27T18:00:37.256Z","date":"2026-01-27","time":"18:00:37"},{"rt":null,"stimulus":"<p style=\"font-size: 50px; margin: 0; text-align: center;\">+</p>","response":null,"trial_type":"html-keyboard-response","trial_index":137,"plugin_version":"2.1.0","time_elapsed":4311959,"subject_id":"91946","group":"Group1","condition":"3_Rep","full_date":"2026-01-27T18:00:37.256Z","date":"2026-01-27","time":"18:00:37"},{"task":"memory_phase","broad_category":"S","image_png":"S_Conglomerate_05.png","image_id":373,"category_name":"Conglomerate","category":24,"distinct_rating":7.32,"distinct_type":"Top","rt":null,"stimulus":"Stimuli_Rocks480/S_Conglomerate_05.png","response":null,"trial_type":"image-keyboard-response","trial_index":138,"plugin_version":"2.1.0","time_elapsed":4314476,"subject_id":"91946","group":"Group1","condition":"3_Rep","full_date":"2026-01-27T18:00:37.256Z","date":"2026-01-27","time":"18:00:37"},{"rt":null,"stimulus":"<p style=\"font-size: 50px; margin: 0; text-align: center;\">+</p>","response":null,"trial_type":"html-keyboard-response","trial_index":139,"plugin_version":"2.1.0","time_elapsed":4315481,"subject_id":"91946","group":"Group1","condition":"3_Rep","full_date":"2026-01-27T18:00:37.256Z","date":"2026-01-27","time":"18:00:37"},{"task":"memory_phase","broad_category":"S","image_png":"S_Sandstone_15.png","image_id":463,"category_name":"Sandstone","category":29,"distinct_rating":2,"distinct_type":"Bottom","rt":null,"stimulus":"Stimuli_Rocks480/S_Sandstone_15.png","response":null,"trial_type":"image-keyboard-response","trial_index":140,"plugin_version":"2.1.0","time_elapsed":4317989,"subject_id":"91946","group":"Group1","condition":"3_Rep","full_date":"2026-01-27T18:00:37.256Z","date":"2026-01-27","time":"18:00:37"},{"rt":null,"stimulus":"<p style=\"font-size: 50px; margin: 0; text-align: center;\">+</p>","response":null,"trial_type":"html-keyboard-response","trial_index":141,"plugin_version":"2.1.0","time_elapsed":4318999,"subject_id":"91946","group":"Group1","condition":"3_Rep","full_date":"2026-01-27T18:00:37.256Z","date":"2026-01-27","time":"18:00:37"},{"task":"memory_phase","broad_category":"M","image_png":"M_Quartzite_08.png","image_id":280,"category_name":"Quartzite","category":18,"distinct_rating":2.15,"distinct_type":"Bottom","rt":null,"stimulus":"Stimuli_Rocks480/M_Quartzite_08.png","response":null,"trial_type":"image-keyboard-response","trial_index":142,"plugin_version":"2.1.0","time_elapsed":4321512,"subject_id":"91946","group":"Group1","condition":"3_Rep","full_date":"2026-01-27T18:00:37.256Z","date":"2026-01-27","time":"18:00:37"},{"rt":null,"stimulus":"<p style=\"font-size: 50px; margin: 0; text-align: center;\">+</p>","response":null,"trial_type":"html-keyboard-response","trial_index":143,"plugin_version":"2.1.0","time_elapsed":4322530,"subject_id":"91946","group":"Group1","condition":"3_Rep","full_date":"2026-01-27T18:00:37.256Z","date":"2026-01-27","time":"18:00:37"},{"task":"memory_phase","broad_category":"S","image_png":"S_Sandstone_16.png","image_id":464,"category_name":"Sandstone","category":29,"distinct_rating":1.93,"distinct_type":"Bottom","rt":null,"stimulus":"Stimuli_Rocks480/S_Sandstone_16.png","response":null,"trial_type":"image-keyboard-response","trial_index":144,"plugin_version":"2.1.0","time_elapsed":4325046,"subject_id":"91946","group":"Group1","condition":"3_Rep","full_date":"2026-01-27T18:00:37.256Z","date":"2026-01-27","time":"18:00:37"},{"rt":null,"stimulus":"<p style=\"font-size: 50px; margin: 0; text-align: center;\">+</p>","response":null,"trial_type":"html-keyboard-response","trial_index":145,"plugin_version":"2.1.0","time_elapsed":4326054,"subject_id":"91946","group":"Group1","condition":"3_Rep","full_date":"2026-01-27T18:00:37.256Z","date":"2026-01-27","time":"18:00:37"},{"task":"memory_phase","broad_category":"M","image_png":"M_Slate_03.png","image_id":307,"category_name":"Slate","category":20,"distinct_rating":1.87,"distinct_type":"Bottom","rt":null,"stimulus":"Stimuli_Rocks480/M_Slate_03.png","response":null,"trial_type":"image-keyboard-response","trial_index":146,"plugin_version":"2.1.0","time_elapsed":4328558,"subject_id":"91946","group":"Group1","condition":"3_Rep","full_date":"2026-01-27T18:00:37.256Z","date":"2026-01-27","time":"18:00:37"},{"rt":null,"stimulus":"<p style=\"font-size: 50px; margin: 0; text-align: center;\">+</p>","response":null,"trial_type":"html-keyboard-response","trial_index":147,"plugin_version":"2.1.0","time_elapsed":4329568,"subject_id":"91946","group":"Group1","condition":"3_Rep","full_date":"2026-01-27T18:00:37.256Z","date":"2026-01-27","time":"18:00:37"},{"task":"memory_phase","broad_category":"S","image_png":"S_Chert_10.png","image_id":362,"category_name":"Chert","category":23,"distinct_rating":7.17,"distinct_type":"Top","rt":null,"stimulus":"Stimuli_Rocks480/S_Chert_10.png","response":null,"trial_type":"image-keyboard-response","trial_index":148,"plugin_version":"2.1.0","time_elapsed":4332085,"subject_id":"91946","group":"Group1","condition":"3_Rep","full_date":"2026-01-27T18:00:37.256Z","date":"2026-01-27","time":"18:00:37"},{"rt":null,"stimulus":"<p style=\"font-size: 50px; margin: 0; text-align: center;\">+</p>","response":null,"trial_type":"html-keyboard-response","trial_index":149,"plugin_version":"2.1.0","time_elapsed":4333098,"subject_id":"91946","group":"Group1","condition":"3_Rep","full_date":"2026-01-27T18:00:37.256Z","date":"2026-01-27","time":"18:00:37"},{"task":"memory_phase","broad_category":"I","image_png":"I_Diorite_03.png","image_id":35,"category_name":"Diorite","category":3,"distinct_rating":3.14,"distinct_type":"Bottom","rt":null,"stimulus":"Stimuli_Rocks480/I_Diorite_03.png","response":null,"trial_type":"image-keyboard-response","trial_index":150,"plugin_version":"2.1.0","time_elapsed":4335601,"subject_id":"91946","group":"Group1","condition":"3_Rep","full_date":"2026-01-27T18:00:37.256Z","date":"2026-01-27","time":"18:00:37"},{"rt":null,"stimulus":"<p style=\"font-size: 50px; margin: 0; text-align: center;\">+</p>","response":null,"trial_type":"html-keyboard-response","trial_index":151,"plugin_version":"2.1.0","time_elapsed":4336610,"subject_id":"91946","group":"Group1","condition":"3_Rep","full_date":"2026-01-27T18:00:37.256Z","date":"2026-01-27","time":"18:00:37"},{"task":"memory_phase","broad_category":"I","image_png":"I_Gabbro_08.png","image_id":56,"category_name":"Gabbro","category":4,"distinct_rating":3.02,"distinct_type":"Bottom","rt":null,"stimulus":"Stimuli_Rocks480/I_Gabbro_08.png","response":null,"trial_type":"image-keyboard-response","trial_index":152,"plugin_version":"2.1.0","time_elapsed":4339123,"subject_id":"91946","group":"Group1","condition":"3_Rep","full_date":"2026-01-27T18:00:37.256Z","date":"2026-01-27","time":"18:00:37"},{"rt":null,"stimulus":"<p style=\"font-size: 50px; margin: 0; text-align: center;\">+</p>","response":null,"trial_type":"html-keyboard-response","trial_index":153,"plugin_version":"2.1.0","time_elapsed":4340125,"subject_id":"91946","group":"Group1","condition":"3_Rep","full_date":"2026-01-27T18:00:37.256Z","date":"2026-01-27","time":"18:00:37"},{"task":"memory_phase","broad_category":"I","image_png":"I_Pegmatite_16.png","image_id":112,"category_name":"Pegmatite","category":7,"distinct_rating":7.03,"distinct_type":"Top","rt":null,"stimulus":"Stimuli_Rocks480/I_Pegmatite_16.png","response":null,"trial_type":"image-keyboard-response","trial_index":154,"plugin_version":"2.1.0","time_elapsed":4342627,"subject_id":"91946","group":"Group1","condition":"3_Rep","full_date":"2026-01-27T18:00:37.256Z","date":"2026-01-27","time":"18:00:37"},{"rt":null,"stimulus":"<p style=\"font-size: 50px; margin: 0; text-align: center;\">+</p>","response":null,"trial_type":"html-keyboard-response","trial_index":155,"plugin_version":"2.1.0","time_elapsed":4343637,"subject_id":"91946","group":"Group1","condition":"3_Rep","full_date":"2026-01-27T18:00:37.256Z","date":"2026-01-27","time":"18:00:37"},{"task":"memory_phase","broad_category":"I","image_png":"I_Pumice_11.png","image_id":139,"category_name":"Pumice","category":9,"distinct_rating":1.74,"distinct_type":"Bottom","rt":null,"stimulus":"Stimuli_Rocks480/I_Pumice_11.png","response":null,"trial_type":"image-keyboard-response","trial_index":156,"plugin_version":"2.1.0","time_elapsed":4346154,"subject_id":"91946","group":"Group1","condition":"3_Rep","full_date":"2026-01-27T18:00:37.256Z","date":"2026-01-27","time":"18:00:37"},{"rt":2345,"stimulus":"<p style=\"max-width: 760px; margin: auto; font-size: 35px; line-height: 1.5;\">\n                Press SPACE to continue study phase\n              </p>","response":" ","trial_type":"html-keyboard-response","trial_index":157,"plugin_version":"2.1.0","time_elapsed":4348500,"subject_id":"91946","group":"Group1","condition":"3_Rep","full_date":"2026-01-27T18:00:37.256Z","date":"2026-01-27","time":"18:00:37"},{"rt":null,"stimulus":"<p style=\"font-size: 50px; margin: 0; text-align: center;\">+</p>","response":null,"trial_type":"html-keyboard-response","trial_index":158,"plugin_version":"2.1.0","time_elapsed":4349513,"subject_id":"91946","group":"Group1","condition":"3_Rep","full_date":"2026-01-27T18:00:37.256Z","date":"2026-01-27","time":"18:00:37"},{"task":"memory_phase","broad_category":"S","image_png":"S_Dolomite_14.png","image_id":398,"category_name":"Dolomite","category":25,"distinct_rating":1.43,"distinct_type":"Bottom","rt":null,"stimulus":"Stimuli_Rocks480/S_Dolomite_14.png","response":null,"trial_type":"image-keyboard-response","trial_index":159,"plugin_version":"2.1.0","time_elapsed":4352024,"subject_id":"91946","group":"Group1","condition":"3_Rep","full_date":"2026-01-27T18:00:37.256Z","date":"2026-01-27","time":"18:00:37"},{"rt":null,"stimulus":"<p style=\"font-size: 50px; margin: 0; text-align: center;\">+</p>","response":null,"trial_type":"html-keyboard-response","trial_index":160,"plugin_version":"2.1.0","time_elapsed":4353027,"subject_id":"91946","group":"Group1","condition":"3_Rep","full_date":"2026-01-27T18:00:37.256Z","date":"2026-01-27","time":"18:00:37"},{"task":"memory_phase","broad_category":"S","image_png":"S_Rock Salt_01.png","image_id":433,"category_name":"Rock Salt","category":28,"distinct_rating":7.18,"distinct_type":"Top","rt":null,"stimulus":"Stimuli_Rocks480/S_Rock Salt_01.png","response":null,"trial_type":"image-keyboard-response","trial_index":161,"plugin_version":"2.1.0","time_elapsed":4355546,"subject_id":"91946","group":"Group1","condition":"3_Rep","full_date":"2026-01-27T18:00:37.256Z","date":"2026-01-27","time":"18:00:37"},{"rt":null,"stimulus":"<p style=\"font-size: 50px; margin: 0; text-align: center;\">+</p>","response":null,"trial_type":"html-keyboard-response","trial_index":162,"plugin_version":"2.1.0","time_elapsed":4356555,"subject_id":"91946","group":"Group1","condition":"3_Rep","full_date":"2026-01-27T18:00:37.256Z","date":"2026-01-27","time":"18:00:37"},{"task":"memory_phase","broad_category":"M","image_png":"M_Phyllite_10.png","image_id":266,"category_name":"Phyllite","category":17,"distinct_rating":2.6,"distinct_type":"Bottom","rt":null,"stimulus":"Stimuli_Rocks480/M_Phyllite_10.png","response":null,"trial_type":"image-keyboard-response","trial_index":163,"plugin_version":"2.1.0","time_elapsed":4359075,"subject_id":"91946","group":"Group1","condition":"3_Rep","full_date":"2026-01-27T18:00:37.256Z","date":"2026-01-27","time":"18:00:37"},{"rt":null,"stimulus":"<p style=\"font-size: 50px; margin: 0; text-align: center;\">+</p>","response":null,"trial_type":"html-keyboard-response","trial_index":164,"plugin_version":"2.1.0","time_elapsed":4360087,"subject_id":"91946","group":"Group1","condition":"3_Rep","full_date":"2026-01-27T18:00:37.256Z","date":"2026-01-27","time":"18:00:37"},{"task":"memory_phase","broad_category":"I","image_png":"I_Andesite_06.png","image_id":6,"category_name":"Andesite","category":1,"distinct_rating":3.17,"distinct_type":"Bottom","rt":null,"stimulus":"Stimuli_Rocks480/I_Andesite_06.png","response":null,"trial_type":"image-keyboard-response","trial_index":165,"plugin_version":"2.1.0","time_elapsed":4362591,"subject_id":"91946","group":"Group1","condition":"3_Rep","full_date":"2026-01-27T18:00:37.256Z","date":"2026-01-27","time":"18:00:37"},{"rt":null,"stimulus":"<p style=\"font-size: 50px; margin: 0; text-align: center;\">+</p>","response":null,"trial_type":"html-keyboard-response","trial_index":166,"plugin_version":"2.1.0","time_elapsed":4363595,"subject_id":"91946","group":"Group1","condition":"3_Rep","full_date":"2026-01-27T18:00:37.256Z","date":"2026-01-27","time":"18:00:37"},{"task":"memory_phase","broad_category":"S","image_png":"S_Sandstone_03.png","image_id":451,"category_name":"Sandstone","category":29,"distinct_rating":1.86,"distinct_type":"Bottom","rt":null,"stimulus":"Stimuli_Rocks480/S_Sandstone_03.png","response":null,"trial_type":"image-keyboard-response","trial_index":167,"plugin_version":"2.1.0","time_elapsed":4366105,"subject_id":"91946","group":"Group1","condition":"3_Rep","full_date":"2026-01-27T18:00:37.256Z","date":"2026-01-27","time":"18:00:37"},{"rt":null,"stimulus":"<p style=\"font-size: 50px; margin: 0; text-align: center;\">+</p>","response":null,"trial_type":"html-keyboard-response","trial_index":168,"plugin_version":"2.1.0","time_elapsed":4367119,"subject_id":"91946","group":"Group1","condition":"3_Rep","full_date":"2026-01-27T18:00:37.256Z","date":"2026-01-27","time":"18:00:37"},{"task":"memory_phase","broad_category":"I","image_png":"I_Pumice_12.png","image_id":140,"category_name":"Pumice","category":9,"distinct_rating":2.97,"distinct_type":"Bottom","rt":null,"stimulus":"Stimuli_Rocks480/I_Pumice_12.png","response":null,"trial_type":"image-keyboard-response","trial_index":169,"plugin_version":"2.1.0","time_elapsed":4369629,"subject_id":"91946","group":"Group1","condition":"3_Rep","full_date":"2026-01-27T18:00:37.256Z","date":"2026-01-27","time":"18:00:37"},{"rt":null,"stimulus":"<p style=\"font-size: 50px; margin: 0; text-align: center;\">+</p>","response":null,"trial_type":"html-keyboard-response","trial_index":170,"plugin_version":"2.1.0","time_elapsed":4370639,"subject_id":"91946","group":"Group1","condition":"3_Rep","full_date":"2026-01-27T18:00:37.256Z","date":"2026-01-27","time":"18:00:37"},{"task":"memory_phase","broad_category":"M","image_png":"M_Marble_06.png","image_id":230,"category_name":"Marble","category":15,"distinct_rating":3.4,"distinct_type":"Bottom","rt":null,"stimulus":"Stimuli_Rocks480/M_Marble_06.png","response":null,"trial_type":"image-keyboard-response","trial_index":171,"plugin_version":"2.1.0","time_elapsed":4373156,"subject_id":"91946","group":"Group1","condition":"3_Rep","full_date":"2026-01-27T18:00:37.256Z","date":"2026-01-27","time":"18:00:37"},{"rt":null,"stimulus":"<p style=\"font-size: 50px; margin: 0; text-align: center;\">+</p>","response":null,"trial_type":"html-keyboard-response","trial_index":172,"plugin_version":"2.1.0","time_elapsed":4374167,"subject_id":"91946","group":"Group1","condition":"3_Rep","full_date":"2026-01-27T18:00:37.256Z","date":"2026-01-27","time":"18:00:37"},{"task":"memory_phase","broad_category":"I","image_png":"I_Gabbro_16.png","image_id":64,"category_name":"Gabbro","category":4,"distinct_rating":2.52,"distinct_type":"Bottom","rt":null,"stimulus":"Stimuli_Rocks480/I_Gabbro_16.png","response":null,"trial_type":"image-keyboard-response","trial_index":173,"plugin_version":"2.1.0","time_elapsed":4376673,"subject_id":"91946","group":"Group1","condition":"3_Rep","full_date":"2026-01-27T18:00:37.256Z","date":"2026-01-27","time":"18:00:37"},{"rt":null,"stimulus":"<p style=\"font-size: 50px; margin: 0; text-align: center;\">+</p>","response":null,"trial_type":"html-keyboard-response","trial_index":174,"plugin_version":"2.1.0","time_elapsed":4377681,"subject_id":"91946","group":"Group1","condition":"3_Rep","full_date":"2026-01-27T18:00:37.256Z","date":"2026-01-27","time":"18:00:37"},{"task":"memory_phase","broad_category":"I","image_png":"I_Andesite_10.png","image_id":10,"category_name":"Andesite","category":1,"distinct_rating":3.15,"distinct_type":"Bottom","rt":null,"stimulus":"Stimuli_Rocks480/I_Andesite_10.png","response":null,"trial_type":"image-keyboard-response","trial_index":175,"plugin_version":"2.1.0","time_elapsed":4380188,"subject_id":"91946","group":"Group1","condition":"3_Rep","full_date":"2026-01-27T18:00:37.256Z","date":"2026-01-27","time":"18:00:37"},{"rt":null,"stimulus":"<p style=\"font-size: 50px; margin: 0; text-align: center;\">+</p>","response":null,"trial_type":"html-keyboard-response","trial_index":176,"plugin_version":"2.1.0","time_elapsed":4381198,"subject_id":"91946","group":"Group1","condition":"3_Rep","full_date":"2026-01-27T18:00:37.256Z","date":"2026-01-27","time":"18:00:37"},{"task":"memory_phase","broad_category":"I","image_png":"I_Rhyolite_14.png","image_id":158,"category_name":"Rhyolite","category":10,"distinct_rating":2.59,"distinct_type":"Bottom","rt":null,"stimulus":"Stimuli_Rocks480/I_Rhyolite_14.png","response":null,"trial_type":"image-keyboard-response","trial_index":177,"plugin_version":"2.1.0","time_elapsed":4383701,"subject_id":"91946","group":"Group1","condition":"3_Rep","full_date":"2026-01-27T18:00:37.256Z","date":"2026-01-27","time":"18:00:37"},{"rt":null,"stimulus":"<p style=\"font-size: 50px; margin: 0; text-align: center;\">+</p>","response":null,"trial_type":"html-keyboard-response","trial_index":178,"plugin_version":"2.1.0","time_elapsed":4384712,"subject_id":"91946","group":"Group1","condition":"3_Rep","full_date":"2026-01-27T18:00:37.256Z","date":"2026-01-27","time":"18:00:37"},{"task":"memory_phase","broad_category":"S","image_png":"S_Rock Gypsum_04.png","image_id":420,"category_name":"Rock Gypsum","category":27,"distinct_rating":7.61,"distinct_type":"Top","rt":null,"stimulus":"Stimuli_Rocks480/S_Rock Gypsum_04.png","response":null,"trial_type":"image-keyboard-response","trial_index":179,"plugin_version":"2.1.0","time_elapsed":4387230,"subject_id":"91946","group":"Group1","condition":"3_Rep","full_date":"2026-01-27T18:00:37.256Z","date":"2026-01-27","time":"18:00:37"},{"rt":null,"stimulus":"<p style=\"font-size: 50px; margin: 0; text-align: center;\">+</p>","response":null,"trial_type":"html-keyboard-response","trial_index":180,"plugin_version":"2.1.0","time_elapsed":4388238,"subject_id":"91946","group":"Group1","condition":"3_Rep","full_date":"2026-01-27T18:00:37.256Z","date":"2026-01-27","time":"18:00:37"},{"task":"memory_phase","broad_category":"I","image_png":"I_Andesite_08.png","image_id":8,"category_name":"Andesite","category":1,"distinct_rating":1.95,"distinct_type":"Bottom","rt":null,"stimulus":"Stimuli_Rocks480/I_Andesite_08.png","response":null,"trial_type":"image-keyboard-response","trial_index":181,"plugin_version":"2.1.0","time_elapsed":4390741,"subject_id":"91946","group":"Group1","condition":"3_Rep","full_date":"2026-01-27T18:00:37.256Z","date":"2026-01-27","time":"18:00:37"},{"rt":null,"stimulus":"<p style=\"font-size: 50px; margin: 0; text-align: center;\">+</p>","response":null,"trial_type":"html-keyboard-response","trial_index":182,"plugin_version":"2.1.0","time_elapsed":4391750,"subject_id":"91946","group":"Group1","condition":"3_Rep","full_date":"2026-01-27T18:00:37.256Z","date":"2026-01-27","time":"18:00:37"},{"task":"memory_phase","broad_category":"S","image_png":"S_Dolomite_13.png","image_id":397,"category_name":"Dolomite","category":25,"distinct_rating":1.77,"distinct_type":"Bottom","rt":null,"stimulus":"Stimuli_Rocks480/S_Dolomite_13.png","response":null,"trial_type":"image-keyboard-response","trial_index":183,"plugin_version":"2.1.0","time_elapsed":4394254,"subject_id":"91946","group":"Group1","condition":"3_Rep","full_date":"2026-01-27T18:00:37.256Z","date":"2026-01-27","time":"18:00:37"},{"rt":null,"stimulus":"<p style=\"font-size: 50px; margin: 0; text-align: center;\">+</p>","response":null,"trial_type":"html-keyboard-response","trial_index":184,"plugin_version":"2.1.0","time_elapsed":4395266,"subject_id":"91946","group":"Group1","condition":"3_Rep","full_date":"2026-01-27T18:00:37.256Z","date":"2026-01-27","time":"18:00:37"},{"task":"memory_phase","broad_category":"I","image_png":"I_Diorite_05.png","image_id":37,"category_name":"Diorite","category":3,"distinct_rating":3.08,"distinct_type":"Bottom","rt":null,"stimulus":"Stimuli_Rocks480/I_Diorite_05.png","response":null,"trial_type":"image-keyboard-response","trial_index":185,"plugin_version":"2.1.0","time_elapsed":4397782,"subject_id":"91946","group":"Group1","condition":"3_Rep","full_date":"2026-01-27T18:00:37.256Z","date":"2026-01-27","time":"18:00:37"},{"rt":null,"stimulus":"<p style=\"font-size: 50px; margin: 0; text-align: center;\">+</p>","response":null,"trial_type":"html-keyboard-response","trial_index":186,"plugin_version":"2.1.0","time_elapsed":4398797,"subject_id":"91946","group":"Group1","condition":"3_Rep","full_date":"2026-01-27T18:00:37.256Z","date":"2026-01-27","time":"18:00:37"},{"task":"memory_phase","broad_category":"I","image_png":"I_Pegmatite_10.png","image_id":106,"category_name":"Pegmatite","category":7,"distinct_rating":7.66,"distinct_type":"Top","rt":null,"stimulus":"Stimuli_Rocks480/I_Pegmatite_10.png","response":null,"trial_type":"image-keyboard-response","trial_index":187,"plugin_version":"2.1.0","time_elapsed":4401301,"subject_id":"91946","group":"Group1","condition":"3_Rep","full_date":"2026-01-27T18:00:37.256Z","date":"2026-01-27","time":"18:00:37"},{"rt":null,"stimulus":"<p style=\"font-size: 50px; margin: 0; text-align: center;\">+</p>","response":null,"trial_type":"html-keyboard-response","trial_index":188,"plugin_version":"2.1.0","time_elapsed":4402309,"subject_id":"91946","group":"Group1","condition":"3_Rep","full_date":"2026-01-27T18:00:37.256Z","date":"2026-01-27","time":"18:00:37"},{"task":"memory_phase","broad_category":"M","image_png":"M_Gneiss_06.png","image_id":198,"category_name":"Gneiss","category":13,"distinct_rating":2.65,"distinct_type":"Bottom","rt":null,"stimulus":"Stimuli_Rocks480/M_Gneiss_06.png","response":null,"trial_type":"image-keyboard-response","trial_index":189,"plugin_version":"2.1.0","time_elapsed":4404816,"subject_id":"91946","group":"Group1","condition":"3_Rep","full_date":"2026-01-27T18:00:37.256Z","date":"2026-01-27","time":"18:00:37"},{"rt":null,"stimulus":"<p style=\"font-size: 50px; margin: 0; text-align: center;\">+</p>","response":null,"trial_type":"html-keyboard-response","trial_index":190,"plugin_version":"2.1.0","time_elapsed":4405825,"subject_id":"91946","group":"Group1","condition":"3_Rep","full_date":"2026-01-27T18:00:37.256Z","date":"2026-01-27","time":"18:00:37"},{"task":"memory_phase","broad_category":"M","image_png":"M_Marble_04.png","image_id":228,"category_name":"Marble","category":15,"distinct_rating":3.15,"distinct_type":"Bottom","rt":null,"stimulus":"Stimuli_Rocks480/M_Marble_04.png","response":null,"trial_type":"image-keyboard-response","trial_index":191,"plugin_version":"2.1.0","time_elapsed":4408341,"subject_id":"91946","group":"Group1","condition":"3_Rep","full_date":"2026-01-27T18:00:37.256Z","date":"2026-01-27","time":"18:00:37"},{"rt":null,"stimulus":"<p style=\"font-size: 50px; margin: 0; text-align: center;\">+</p>","response":null,"trial_type":"html-keyboard-response","trial_index":192,"plugin_version":"2.1.0","time_elapsed":4409348,"subject_id":"91946","group":"Group1","condition":"3_Rep","full_date":"2026-01-27T18:00:37.256Z","date":"2026-01-27","time":"18:00:37"},{"task":"memory_phase","broad_category":"M","image_png":"M_Slate_15.png","image_id":319,"category_name":"Slate","category":20,"distinct_rating":2.13,"distinct_type":"Bottom","rt":null,"stimulus":"Stimuli_Rocks480/M_Slate_15.png","response":null,"trial_type":"image-keyboard-response","trial_index":193,"plugin_version":"2.1.0","time_elapsed":4411850,"subject_id":"91946","group":"Group1","condition":"3_Rep","full_date":"2026-01-27T18:00:37.256Z","date":"2026-01-27","time":"18:00:37"},{"rt":null,"stimulus":"<p style=\"font-size: 50px; margin: 0; text-align: center;\">+</p>","response":null,"trial_type":"html-keyboard-response","trial_index":194,"plugin_version":"2.1.0","time_elapsed":4412866,"subject_id":"91946","group":"Group1","condition":"3_Rep","full_date":"2026-01-27T18:00:37.256Z","date":"2026-01-27","time":"18:00:37"},{"task":"memory_phase","broad_category":"M","image_png":"M_Quartzite_05.png","image_id":277,"category_name":"Quartzite","category":18,"distinct_rating":2.23,"distinct_type":"Bottom","rt":null,"stimulus":"Stimuli_Rocks480/M_Quartzite_05.png","response":null,"trial_type":"image-keyboard-response","trial_index":195,"plugin_version":"2.1.0","time_elapsed":4415375,"subject_id":"91946","group":"Group1","condition":"3_Rep","full_date":"2026-01-27T18:00:37.256Z","date":"2026-01-27","time":"18:00:37"},{"rt":null,"stimulus":"<p style=\"font-size: 50px; margin: 0; text-align: center;\">+</p>","response":null,"trial_type":"html-keyboard-response","trial_index":196,"plugin_version":"2.1.0","time_elapsed":4416393,"subject_id":"91946","group":"Group1","condition":"3_Rep","full_date":"2026-01-27T18:00:37.256Z","date":"2026-01-27","time":"18:00:37"},{"task":"memory_phase","broad_category":"S","image_png":"S_Shale_08.png","image_id":472,"category_name":"Shale","category":30,"distinct_rating":2.55,"distinct_type":"Bottom","rt":null,"stimulus":"Stimuli_Rocks480/S_Shale_08.png","response":null,"trial_type":"image-keyboard-response","trial_index":197,"plugin_version":"2.1.0","time_elapsed":4418911,"subject_id":"91946","group":"Group1","condition":"3_Rep","full_date":"2026-01-27T18:00:37.256Z","date":"2026-01-27","time":"18:00:37"},{"rt":null,"stimulus":"<p style=\"font-size: 50px; margin: 0; text-align: center;\">+</p>","response":null,"trial_type":"html-keyboard-response","trial_index":198,"plugin_version":"2.1.0","time_elapsed":4419926,"subject_id":"91946","group":"Group1","condition":"3_Rep","full_date":"2026-01-27T18:00:37.256Z","date":"2026-01-27","time":"18:00:37"},{"task":"memory_phase","broad_category":"M","image_png":"M_Phyllite_07.png","image_id":263,"category_name":"Phyllite","category":17,"distinct_rating":2.59,"distinct_type":"Bottom","rt":null,"stimulus":"Stimuli_Rocks480/M_Phyllite_07.png","response":null,"trial_type":"image-keyboard-response","trial_index":199,"plugin_version":"2.1.0","time_elapsed":4422439,"subject_id":"91946","group":"Group1","condition":"3_Rep","full_date":"2026-01-27T18:00:37.256Z","date":"2026-01-27","time":"18:00:37"},{"rt":null,"stimulus":"<p style=\"font-size: 50px; margin: 0; text-align: center;\">+</p>","response":null,"trial_type":"html-keyboard-response","trial_index":200,"plugin_version":"2.1.0","time_elapsed":4423454,"subject_id":"91946","group":"Group1","condition":"3_Rep","full_date":"2026-01-27T18:00:37.256Z","date":"2026-01-27","time":"18:00:37"},{"task":"memory_phase","broad_category":"M","image_png":"M_Marble_16.png","image_id":240,"category_name":"Marble","category":15,"distinct_rating":2.57,"distinct_type":"Bottom","rt":null,"stimulus":"Stimuli_Rocks480/M_Marble_16.png","response":null,"trial_type":"image-keyboard-response","trial_index":201,"plugin_version":"2.1.0","time_elapsed":4425966,"subject_id":"91946","group":"Group1","condition":"3_Rep","full_date":"2026-01-27T18:00:37.256Z","date":"2026-01-27","time":"18:00:37"},{"rt":null,"stimulus":"<p style=\"font-size: 50px; margin: 0; text-align: center;\">+</p>","response":null,"trial_type":"html-keyboard-response","trial_index":202,"plugin_version":"2.1.0","time_elapsed":4426983,"subject_id":"91946","group":"Group1","condition":"3_Rep","full_date":"2026-01-27T18:00:37.256Z","date":"2026-01-27","time":"18:00:37"},{"task":"memory_phase","broad_category":"I","image_png":"I_Gabbro_11.png","image_id":59,"category_name":"Gabbro","category":4,"distinct_rating":1.99,"distinct_type":"Bottom","rt":null,"stimulus":"Stimuli_Rocks480/I_Gabbro_11.png","response":null,"trial_type":"image-keyboard-response","trial_index":203,"plugin_version":"2.1.0","time_elapsed":4429486,"subject_id":"91946","group":"Group1","condition":"3_Rep","full_date":"2026-01-27T18:00:37.256Z","date":"2026-01-27","time":"18:00:37"},{"rt":null,"stimulus":"<p style=\"font-size: 50px; margin: 0; text-align: center;\">+</p>","response":null,"trial_type":"html-keyboard-response","trial_index":204,"plugin_version":"2.1.0","time_elapsed":4430489,"subject_id":"91946","group":"Group1","condition":"3_Rep","full_date":"2026-01-27T18:00:37.256Z","date":"2026-01-27","time":"18:00:37"},{"task":"memory_phase","broad_category":"I","image_png":"I_Basalt_09.png","image_id":25,"category_name":"Basalt","category":2,"distinct_rating":1.89,"distinct_type":"Bottom","rt":null,"stimulus":"Stimuli_Rocks480/I_Basalt_09.png","response":null,"trial_type":"image-keyboard-response","trial_index":205,"plugin_version":"2.1.0","time_elapsed":4433000,"subject_id":"91946","group":"Group1","condition":"3_Rep","full_date":"2026-01-27T18:00:37.256Z","date":"2026-01-27","time":"18:00:37"},{"rt":null,"stimulus":"<p style=\"font-size: 50px; margin: 0; text-align: center;\">+</p>","response":null,"trial_type":"html-keyboard-response","trial_index":206,"plugin_version":"2.1.0","time_elapsed":4434007,"subject_id":"91946","group":"Group1","condition":"3_Rep","full_date":"2026-01-27T18:00:37.256Z","date":"2026-01-27","time":"18:00:37"},{"task":"memory_phase","broad_category":"M","image_png":"M_Phyllite_03.png","image_id":259,"category_name":"Phyllite","category":17,"distinct_rating":2.5,"distinct_type":"Bottom","rt":null,"stimulus":"Stimuli_Rocks480/M_Phyllite_03.png","response":null,"trial_type":"image-keyboard-response","trial_index":207,"plugin_version":"2.1.0","time_elapsed":4436518,"subject_id":"91946","group":"Group1","condition":"3_Rep","full_date":"2026-01-27T18:00:37.256Z","date":"2026-01-27","time":"18:00:37"},{"rt":3355,"stimulus":"<p style=\"max-width: 760px; margin: auto; font-size: 35px; line-height: 1.5;\">\n                You have completed 2 study phases. \n                Now, we'll show you all the images again 1 more time.\n                <br><br>Press SPACE to continue\n              </p>","response":" ","trial_type":"html-keyboard-response","trial_index":208,"plugin_version":"2.1.0","time_elapsed":4439874,"subject_id":"91946","group":"Group1","condition":"3_Rep","full_date":"2026-01-27T18:00:37.256Z","date":"2026-01-27","time":"18:00:37"},{"rt":null,"stimulus":"<p style=\"font-size: 50px; margin: 0; text-align: center;\">+</p>","response":null,"trial_type":"html-keyboard-response","trial_index":209,"plugin_version":"2.1.0","time_elapsed":4440882,"subject_id":"91946","group":"Group1","condition":"3_Rep","full_date":"2026-01-27T18:00:37.256Z","date":"2026-01-27","time":"18:00:37"},{"task":"memory_phase","broad_category":"S","image_png":"S_Dolomite_13.png","image_id":397,"category_name":"Dolomite","category":25,"distinct_rating":1.77,"distinct_type":"Bottom","rt":null,"stimulus":"Stimuli_Rocks480/S_Dolomite_13.png","response":null,"trial_type":"image-keyboard-response","trial_index":210,"plugin_version":"2.1.0","time_elapsed":4443386,"subject_id":"91946","group":"Group1","condition":"3_Rep","full_date":"2026-01-27T18:00:37.256Z","date":"2026-01-27","time":"18:00:37"},{"rt":null,"stimulus":"<p style=\"font-size: 50px; margin: 0; text-align: center;\">+</p>","response":null,"trial_type":"html-keyboard-response","trial_index":211,"plugin_version":"2.1.0","time_elapsed":4444400,"subject_id":"91946","group":"Group1","condition":"3_Rep","full_date":"2026-01-27T18:00:37.256Z","date":"2026-01-27","time":"18:00:37"},{"task":"memory_phase","broad_category":"I","image_png":"I_Pegmatite_16.png","image_id":112,"category_name":"Pegmatite","category":7,"distinct_rating":7.03,"distinct_type":"Top","rt":null,"stimulus":"Stimuli_Rocks480/I_Pegmatite_16.png","response":null,"trial_type":"image-keyboard-response","trial_index":212,"plugin_version":"2.1.0","time_elapsed":4446913,"subject_id":"91946","group":"Group1","condition":"3_Rep","full_date":"2026-01-27T18:00:37.256Z","date":"2026-01-27","time":"18:00:37"},{"rt":null,"stimulus":"<p style=\"font-size: 50px; margin: 0; text-align: center;\">+</p>","response":null,"trial_type":"html-keyboard-response","trial_index":213,"plugin_version":"2.1.0","time_elapsed":4447925,"subject_id":"91946","group":"Group1","condition":"3_Rep","full_date":"2026-01-27T18:00:37.256Z","date":"2026-01-27","time":"18:00:37"},{"task":"memory_phase","broad_category":"S","image_png":"S_Dolomite_14.png","image_id":398,"category_name":"Dolomite","category":25,"distinct_rating":1.43,"distinct_type":"Bottom","rt":null,"stimulus":"Stimuli_Rocks480/S_Dolomite_14.png","response":null,"trial_type":"image-keyboard-response","trial_index":214,"plugin_version":"2.1.0","time_elapsed":4450428,"subject_id":"91946","group":"Group1","condition":"3_Rep","full_date":"2026-01-27T18:00:37.256Z","date":"2026-01-27","time":"18:00:37"},{"rt":null,"stimulus":"<p style=\"font-size: 50px; margin: 0; text-align: center;\">+</p>","response":null,"trial_type":"html-keyboard-response","trial_index":215,"plugin_version":"2.1.0","time_elapsed":4451440,"subject_id":"91946","group":"Group1","condition":"3_Rep","full_date":"2026-01-27T18:00:37.256Z","date":"2026-01-27","time":"18:00:37"},{"task":"memory_phase","broad_category":"M","image_png":"M_Gneiss_13.png","image_id":205,"category_name":"Gneiss","category":13,"distinct_rating":3.26,"distinct_type":"Bottom","rt":null,"stimulus":"Stimuli_Rocks480/M_Gneiss_13.png","response":null,"trial_type":"image-keyboard-response","trial_index":216,"plugin_version":"2.1.0","time_elapsed":4453952,"subject_id":"91946","group":"Group1","condition":"3_Rep","full_date":"2026-01-27T18:00:37.256Z","date":"2026-01-27","time":"18:00:37"},{"rt":null,"stimulus":"<p style=\"font-size: 50px; margin: 0; text-align: center;\">+</p>","response":null,"trial_type":"html-keyboard-response","trial_index":217,"plugin_version":"2.1.0","time_elapsed":4454956,"subject_id":"91946","group":"Group1","condition":"3_Rep","full_date":"2026-01-27T18:00:37.256Z","date":"2026-01-27","time":"18:00:37"},{"task":"memory_phase","broad_category":"M","image_png":"M_Slate_15.png","image_id":319,"category_name":"Slate","category":20,"distinct_rating":2.13,"distinct_type":"Bottom","rt":null,"stimulus":"Stimuli_Rocks480/M_Slate_15.png","response":null,"trial_type":"image-keyboard-response","trial_index":218,"plugin_version":"2.1.0","time_elapsed":4457469,"subject_id":"91946","group":"Group1","condition":"3_Rep","full_date":"2026-01-27T18:00:37.256Z","date":"2026-01-27","time":"18:00:37"},{"rt":null,"stimulus":"<p style=\"font-size: 50px; margin: 0; text-align: center;\">+</p>","response":null,"trial_type":"html-keyboard-response","trial_index":219,"plugin_version":"2.1.0","time_elapsed":4458484,"subject_id":"91946","group":"Group1","condition":"3_Rep","full_date":"2026-01-27T18:00:37.256Z","date":"2026-01-27","time":"18:00:37"},{"task":"memory_phase","broad_category":"I","image_png":"I_Gabbro_08.png","image_id":56,"category_name":"Gabbro","category":4,"distinct_rating":3.02,"distinct_type":"Bottom","rt":null,"stimulus":"Stimuli_Rocks480/I_Gabbro_08.png","response":null,"trial_type":"image-keyboard-response","trial_index":220,"plugin_version":"2.1.0","time_elapsed":4460996,"subject_id":"91946","group":"Group1","condition":"3_Rep","full_date":"2026-01-27T18:00:37.256Z","date":"2026-01-27","time":"18:00:37"},{"rt":null,"stimulus":"<p style=\"font-size: 50px; margin: 0; text-align: center;\">+</p>","response":null,"trial_type":"html-keyboard-response","trial_index":221,"plugin_version":"2.1.0","time_elapsed":4462009,"subject_id":"91946","group":"Group1","condition":"3_Rep","full_date":"2026-01-27T18:00:37.256Z","date":"2026-01-27","time":"18:00:37"},{"task":"memory_phase","broad_category":"S","image_png":"S_Breccia_11.png","image_id":347,"category_name":"Breccia","category":22,"distinct_rating":6.7,"distinct_type":"Top","rt":null,"stimulus":"Stimuli_Rocks480/S_Breccia_11.png","response":null,"trial_type":"image-keyboard-response","trial_index":222,"plugin_version":"2.1.0","time_elapsed":4464523,"subject_id":"91946","group":"Group1","condition":"3_Rep","full_date":"2026-01-27T18:00:37.256Z","date":"2026-01-27","time":"18:00:37"},{"rt":null,"stimulus":"<p style=\"font-size: 50px; margin: 0; text-align: center;\">+</p>","response":null,"trial_type":"html-keyboard-response","trial_index":223,"plugin_version":"2.1.0","time_elapsed":4465526,"subject_id":"91946","group":"Group1","condition":"3_Rep","full_date":"2026-01-27T18:00:37.256Z","date":"2026-01-27","time":"18:00:37"},{"task":"memory_phase","broad_category":"M","image_png":"M_Quartzite_08.png","image_id":280,"category_name":"Quartzite","category":18,"distinct_rating":2.15,"distinct_type":"Bottom","rt":null,"stimulus":"Stimuli_Rocks480/M_Quartzite_08.png","response":null,"trial_type":"image-keyboard-response","trial_index":224,"plugin_version":"2.1.0","time_elapsed":4468044,"subject_id":"91946","group":"Group1","condition":"3_Rep","full_date":"2026-01-27T18:00:37.256Z","date":"2026-01-27","time":"18:00:37"},{"rt":null,"stimulus":"<p style=\"font-size: 50px; margin: 0; text-align: center;\">+</p>","response":null,"trial_type":"html-keyboard-response","trial_index":225,"plugin_version":"2.1.0","time_elapsed":4469055,"subject_id":"91946","group":"Group1","condition":"3_Rep","full_date":"2026-01-27T18:00:37.256Z","date":"2026-01-27","time":"18:00:37"},{"task":"memory_phase","broad_category":"I","image_png":"I_Pumice_08.png","image_id":136,"category_name":"Pumice","category":9,"distinct_rating":3.1,"distinct_type":"Bottom","rt":null,"stimulus":"Stimuli_Rocks480/I_Pumice_08.png","response":null,"trial_type":"image-keyboard-response","trial_index":226,"plugin_version":"2.1.0","time_elapsed":4471561,"subject_id":"91946","group":"Group1","condition":"3_Rep","full_date":"2026-01-27T18:00:37.256Z","date":"2026-01-27","time":"18:00:37"},{"rt":null,"stimulus":"<p style=\"font-size: 50px; margin: 0; text-align: center;\">+</p>","response":null,"trial_type":"html-keyboard-response","trial_index":227,"plugin_version":"2.1.0","time_elapsed":4472569,"subject_id":"91946","group":"Group1","condition":"3_Rep","full_date":"2026-01-27T18:00:37.256Z","date":"2026-01-27","time":"18:00:37"},{"task":"memory_phase","broad_category":"M","image_png":"M_Phyllite_07.png","image_id":263,"category_name":"Phyllite","category":17,"distinct_rating":2.59,"distinct_type":"Bottom","rt":null,"stimulus":"Stimuli_Rocks480/M_Phyllite_07.png","response":null,"trial_type":"image-keyboard-response","trial_index":228,"plugin_version":"2.1.0","time_elapsed":4475086,"subject_id":"91946","group":"Group1","condition":"3_Rep","full_date":"2026-01-27T18:00:37.256Z","date":"2026-01-27","time":"18:00:37"},{"rt":null,"stimulus":"<p style=\"font-size: 50px; margin: 0; text-align: center;\">+</p>","response":null,"trial_type":"html-keyboard-response","trial_index":229,"plugin_version":"2.1.0","time_elapsed":4476095,"subject_id":"91946","group":"Group1","condition":"3_Rep","full_date":"2026-01-27T18:00:37.256Z","date":"2026-01-27","time":"18:00:37"},{"task":"memory_phase","broad_category":"M","image_png":"M_Phyllite_10.png","image_id":266,"category_name":"Phyllite","category":17,"distinct_rating":2.6,"distinct_type":"Bottom","rt":null,"stimulus":"Stimuli_Rocks480/M_Phyllite_10.png","response":null,"trial_type":"image-keyboard-response","trial_index":230,"plugin_version":"2.1.0","time_elapsed":4478599,"subject_id":"91946","group":"Group1","condition":"3_Rep","full_date":"2026-01-27T18:00:37.256Z","date":"2026-01-27","time":"18:00:37"},{"rt":null,"stimulus":"<p style=\"font-size: 50px; margin: 0; text-align: center;\">+</p>","response":null,"trial_type":"html-keyboard-response","trial_index":231,"plugin_version":"2.1.0","time_elapsed":4479608,"subject_id":"91946","group":"Group1","condition":"3_Rep","full_date":"2026-01-27T18:00:37.256Z","date":"2026-01-27","time":"18:00:37"},{"task":"memory_phase","broad_category":"S","image_png":"S_Sandstone_15.png","image_id":463,"category_name":"Sandstone","category":29,"distinct_rating":2,"distinct_type":"Bottom","rt":null,"stimulus":"Stimuli_Rocks480/S_Sandstone_15.png","response":null,"trial_type":"image-keyboard-response","trial_index":232,"plugin_version":"2.1.0","time_elapsed":4482120,"subject_id":"91946","group":"Group1","condition":"3_Rep","full_date":"2026-01-27T18:00:37.256Z","date":"2026-01-27","time":"18:00:37"},{"rt":null,"stimulus":"<p style=\"font-size: 50px; margin: 0; text-align: center;\">+</p>","response":null,"trial_type":"html-keyboard-response","trial_index":233,"plugin_version":"2.1.0","time_elapsed":4483137,"subject_id":"91946","group":"Group1","condition":"3_Rep","full_date":"2026-01-27T18:00:37.256Z","date":"2026-01-27","time":"18:00:37"},{"task":"memory_phase","broad_category":"I","image_png":"I_Gabbro_16.png","image_id":64,"category_name":"Gabbro","category":4,"distinct_rating":2.52,"distinct_type":"Bottom","rt":null,"stimulus":"Stimuli_Rocks480/I_Gabbro_16.png","response":null,"trial_type":"image-keyboard-response","trial_index":234,"plugin_version":"2.1.0","time_elapsed":4485643,"subject_id":"91946","group":"Group1","condition":"3_Rep","full_date":"2026-01-27T18:00:37.256Z","date":"2026-01-27","time":"18:00:37"},{"rt":null,"stimulus":"<p style=\"font-size: 50px; margin: 0; text-align: center;\">+</p>","response":null,"trial_type":"html-keyboard-response","trial_index":235,"plugin_version":"2.1.0","time_elapsed":4486652,"subject_id":"91946","group":"Group1","condition":"3_Rep","full_date":"2026-01-27T18:00: