[{"width":1440,"height":727,"webaudio":true,"browser":"chrome","browser_version":"139.0.0","mobile":false,"os":"Mac OS","fullscreen":true,"vsync_rate":59.99,"webcam":true,"microphone":true,"trial_type":"browser-check","trial_index":0,"plugin_version":"2.1.0","time_elapsed":1012,"subject_id":"91955","group":"Group2","condition":"3_Rep","full_date":"2026-01-24T17:49:30.892Z","date":"2026-01-24","time":"17:49:30"},{"success":true,"timeout":false,"failed_images":[],"failed_audio":[],"failed_video":[],"trial_type":"preload","trial_index":1,"plugin_version":"2.1.0","time_elapsed":3138,"subject_id":"91955","group":"Group2","condition":"3_Rep","full_date":"2026-01-24T17:49:30.892Z","date":"2026-01-24","time":"17:49:30"},{"rt":523833,"url":"SONA_consent_memorability.html","trial_type":"external-html","trial_index":2,"plugin_version":"2.1.0","time_elapsed":527045,"subject_id":"91955","group":"Group2","condition":"3_Rep","full_date":"2026-01-24T17:49:30.892Z","date":"2026-01-24","time":"17:49:30"},{"success":true,"rt":1613,"trial_type":"fullscreen","trial_index":3,"plugin_version":"2.1.0","time_elapsed":529662,"subject_id":"91955","group":"Group2","condition":"3_Rep","full_date":"2026-01-24T17:49:30.892Z","date":"2026-01-24","time":"17:49:30"},{"rt":57295,"stimulus":"<div style=\"max-width: 760px; margin: auto; font-size: 20px; line-height: 1.5;\">\n      <h1 style=\"text-align:center; font-size: 30px;\">Instructions</h1>\n      <p>\n        Welcome to the study on <b>visual memory</b>. This experiment consists of <b>two phases</b>: \n        a <b>study phase</b> and a <b>test phase</b>.\n      </p>\n      <p>\n        In the study phase, you will see a series of rock images along with their category labels.\n        The images will appear one at a time.\n        <b>Your task</b> is to learn the categories to which the rock images belong \n        and to remember each image as accurately as possible.\n      </p> \n      <p>\n        Note that we will repeat the study phase <b>3 times</b>, \n             so you will have multiple opportunities to see and remember each image.\n      </p>\n      <p>\n        After the study phase, <b>your memory will be tested</b>. \n        Additional instructions for the test phase will be provided at that time.\n      </p>\n      <p>\n        If your computer has multiple <b>language settings</b> (e.g., English and another language),\n        please make sure it is set to English before starting.\n      </p>\n      <p>\n        You can track your progress using the <b>completion bar</b> at the top of the screen. \n        Please note that the bar will refresh when the test phase begins \n        to give you an accurate sense of your progress in both phases.\n      </p> \n      <p>\n        Press the button below when you are ready to begin.\n      </p>\n    </div>","response":0,"trial_type":"html-button-response","trial_index":4,"plugin_version":"2.1.0","time_elapsed":586961,"subject_id":"91955","group":"Group2","condition":"3_Rep","full_date":"2026-01-24T17:49:30.892Z","date":"2026-01-24","time":"17:49:30"},{"rt":null,"stimulus":"<p style=\"font-size: 50px; margin: 0; text-align: center;\">+</p>","response":null,"trial_type":"html-keyboard-response","trial_index":5,"plugin_version":"2.1.0","time_elapsed":587964,"subject_id":"91955","group":"Group2","condition":"3_Rep","full_date":"2026-01-24T17:49:30.892Z","date":"2026-01-24","time":"17:49:30"},{"task":"memory_phase","broad_category":"S","image_png":"S_Shale_03.png","image_id":467,"category_name":"Shale","category":30,"distinct_rating":1.95,"distinct_type":"Bottom","rt":null,"stimulus":"Stimuli_Rocks480/S_Shale_03.png","response":null,"trial_type":"image-keyboard-response","trial_index":6,"plugin_version":"2.1.0","time_elapsed":590470,"subject_id":"91955","group":"Group2","condition":"3_Rep","full_date":"2026-01-24T17:49:30.892Z","date":"2026-01-24","time":"17:49:30"},{"rt":null,"stimulus":"<p style=\"font-size: 50px; margin: 0; text-align: center;\">+</p>","response":null,"trial_type":"html-keyboard-response","trial_index":7,"plugin_version":"2.1.0","time_elapsed":591473,"subject_id":"91955","group":"Group2","condition":"3_Rep","full_date":"2026-01-24T17:49:30.892Z","date":"2026-01-24","time":"17:49:30"},{"task":"memory_phase","broad_category":"I","image_png":"I_Gabbro_12.png","image_id":60,"category_name":"Gabbro","category":4,"distinct_rating":2.6,"distinct_type":"Bottom","rt":null,"stimulus":"Stimuli_Rocks480/I_Gabbro_12.png","response":null,"trial_type":"image-keyboard-response","trial_index":8,"plugin_version":"2.1.0","time_elapsed":593976,"subject_id":"91955","group":"Group2","condition":"3_Rep","full_date":"2026-01-24T17:49:30.892Z","date":"2026-01-24","time":"17:49:30"},{"rt":null,"stimulus":"<p style=\"font-size: 50px; margin: 0; text-align: center;\">+</p>","response":null,"trial_type":"html-keyboard-response","trial_index":9,"plugin_version":"2.1.0","time_elapsed":594979,"subject_id":"91955","group":"Group2","condition":"3_Rep","full_date":"2026-01-24T17:49:30.892Z","date":"2026-01-24","time":"17:49:30"},{"task":"memory_phase","broad_category":"I","image_png":"I_Diorite_15.png","image_id":47,"category_name":"Diorite","category":3,"distinct_rating":3.05,"distinct_type":"Bottom","rt":null,"stimulus":"Stimuli_Rocks480/I_Diorite_15.png","response":null,"trial_type":"image-keyboard-response","trial_index":10,"plugin_version":"2.1.0","time_elapsed":597484,"subject_id":"91955","group":"Group2","condition":"3_Rep","full_date":"2026-01-24T17:49:30.892Z","date":"2026-01-24","time":"17:49:30"},{"rt":null,"stimulus":"<p style=\"font-size: 50px; margin: 0; text-align: center;\">+</p>","response":null,"trial_type":"html-keyboard-response","trial_index":11,"plugin_version":"2.1.0","time_elapsed":598487,"subject_id":"91955","group":"Group2","condition":"3_Rep","full_date":"2026-01-24T17:49:30.892Z","date":"2026-01-24","time":"17:49:30"},{"task":"memory_phase","broad_category":"I","image_png":"I_Andesite_09.png","image_id":9,"category_name":"Andesite","category":1,"distinct_rating":2.49,"distinct_type":"Bottom","rt":null,"stimulus":"Stimuli_Rocks480/I_Andesite_09.png","response":null,"trial_type":"image-keyboard-response","trial_index":12,"plugin_version":"2.1.0","time_elapsed":600991,"subject_id":"91955","group":"Group2","condition":"3_Rep","full_date":"2026-01-24T17:49:30.892Z","date":"2026-01-24","time":"17:49:30"},{"rt":null,"stimulus":"<p style=\"font-size: 50px; margin: 0; text-align: center;\">+</p>","response":null,"trial_type":"html-keyboard-response","trial_index":13,"plugin_version":"2.1.0","time_elapsed":601994,"subject_id":"91955","group":"Group2","condition":"3_Rep","full_date":"2026-01-24T17:49:30.892Z","date":"2026-01-24","time":"17:49:30"},{"task":"memory_phase","broad_category":"M","image_png":"M_Phyllite_13.png","image_id":269,"category_name":"Phyllite","category":17,"distinct_rating":2.8,"distinct_type":"Bottom","rt":null,"stimulus":"Stimuli_Rocks480/M_Phyllite_13.png","response":null,"trial_type":"image-keyboard-response","trial_index":14,"plugin_version":"2.1.0","time_elapsed":604498,"subject_id":"91955","group":"Group2","condition":"3_Rep","full_date":"2026-01-24T17:49:30.892Z","date":"2026-01-24","time":"17:49:30"},{"rt":null,"stimulus":"<p style=\"font-size: 50px; margin: 0; text-align: center;\">+</p>","response":null,"trial_type":"html-keyboard-response","trial_index":15,"plugin_version":"2.1.0","time_elapsed":605501,"subject_id":"91955","group":"Group2","condition":"3_Rep","full_date":"2026-01-24T17:49:30.892Z","date":"2026-01-24","time":"17:49:30"},{"task":"memory_phase","broad_category":"I","image_png":"I_Peridotite_13.png","image_id":125,"category_name":"Peridotite","category":8,"distinct_rating":7.28,"distinct_type":"Top","rt":null,"stimulus":"Stimuli_Rocks480/I_Peridotite_13.png","response":null,"trial_type":"image-keyboard-response","trial_index":16,"plugin_version":"2.1.0","time_elapsed":608005,"subject_id":"91955","group":"Group2","condition":"3_Rep","full_date":"2026-01-24T17:49:30.892Z","date":"2026-01-24","time":"17:49:30"},{"rt":null,"stimulus":"<p style=\"font-size: 50px; margin: 0; text-align: center;\">+</p>","response":null,"trial_type":"html-keyboard-response","trial_index":17,"plugin_version":"2.1.0","time_elapsed":609008,"subject_id":"91955","group":"Group2","condition":"3_Rep","full_date":"2026-01-24T17:49:30.892Z","date":"2026-01-24","time":"17:49:30"},{"task":"memory_phase","broad_category":"I","image_png":"I_Basalt_10.png","image_id":26,"category_name":"Basalt","category":2,"distinct_rating":2.76,"distinct_type":"Bottom","rt":null,"stimulus":"Stimuli_Rocks480/I_Basalt_10.png","response":null,"trial_type":"image-keyboard-response","trial_index":18,"plugin_version":"2.1.0","time_elapsed":611513,"subject_id":"91955","group":"Group2","condition":"3_Rep","full_date":"2026-01-24T17:49:30.892Z","date":"2026-01-24","time":"17:49:30"},{"rt":null,"stimulus":"<p style=\"font-size: 50px; margin: 0; text-align: center;\">+</p>","response":null,"trial_type":"html-keyboard-response","trial_index":19,"plugin_version":"2.1.0","time_elapsed":612516,"subject_id":"91955","group":"Group2","condition":"3_Rep","full_date":"2026-01-24T17:49:30.892Z","date":"2026-01-24","time":"17:49:30"},{"task":"memory_phase","broad_category":"I","image_png":"I_Basalt_13.png","image_id":29,"category_name":"Basalt","category":2,"distinct_rating":2.68,"distinct_type":"Bottom","rt":null,"stimulus":"Stimuli_Rocks480/I_Basalt_13.png","response":null,"trial_type":"image-keyboard-response","trial_index":20,"plugin_version":"2.1.0","time_elapsed":615020,"subject_id":"91955","group":"Group2","condition":"3_Rep","full_date":"2026-01-24T17:49:30.892Z","date":"2026-01-24","time":"17:49:30"},{"rt":null,"stimulus":"<p style=\"font-size: 50px; margin: 0; text-align: center;\">+</p>","response":null,"trial_type":"html-keyboard-response","trial_index":21,"plugin_version":"2.1.0","time_elapsed":616022,"subject_id":"91955","group":"Group2","condition":"3_Rep","full_date":"2026-01-24T17:49:30.892Z","date":"2026-01-24","time":"17:49:30"},{"task":"memory_phase","broad_category":"S","image_png":"S_Conglomerate_14.png","image_id":382,"category_name":"Conglomerate","category":24,"distinct_rating":6.86,"distinct_type":"Top","rt":null,"stimulus":"Stimuli_Rocks480/S_Conglomerate_14.png","response":null,"trial_type":"image-keyboard-response","trial_index":22,"plugin_version":"2.1.0","time_elapsed":618526,"subject_id":"91955","group":"Group2","condition":"3_Rep","full_date":"2026-01-24T17:49:30.892Z","date":"2026-01-24","time":"17:49:30"},{"rt":null,"stimulus":"<p style=\"font-size: 50px; margin: 0; text-align: center;\">+</p>","response":null,"trial_type":"html-keyboard-response","trial_index":23,"plugin_version":"2.1.0","time_elapsed":619529,"subject_id":"91955","group":"Group2","condition":"3_Rep","full_date":"2026-01-24T17:49:30.892Z","date":"2026-01-24","time":"17:49:30"},{"task":"memory_phase","broad_category":"S","image_png":"S_Shale_02.png","image_id":466,"category_name":"Shale","category":30,"distinct_rating":2.9,"distinct_type":"Bottom","rt":null,"stimulus":"Stimuli_Rocks480/S_Shale_02.png","response":null,"trial_type":"image-keyboard-response","trial_index":24,"plugin_version":"2.1.0","time_elapsed":622033,"subject_id":"91955","group":"Group2","condition":"3_Rep","full_date":"2026-01-24T17:49:30.892Z","date":"2026-01-24","time":"17:49:30"},{"rt":null,"stimulus":"<p style=\"font-size: 50px; margin: 0; text-align: center;\">+</p>","response":null,"trial_type":"html-keyboard-response","trial_index":25,"plugin_version":"2.1.0","time_elapsed":623036,"subject_id":"91955","group":"Group2","condition":"3_Rep","full_date":"2026-01-24T17:49:30.892Z","date":"2026-01-24","time":"17:49:30"},{"task":"memory_phase","broad_category":"I","image_png":"I_Pumice_13.png","image_id":141,"category_name":"Pumice","category":9,"distinct_rating":3.12,"distinct_type":"Bottom","rt":null,"stimulus":"Stimuli_Rocks480/I_Pumice_13.png","response":null,"trial_type":"image-keyboard-response","trial_index":26,"plugin_version":"2.1.0","time_elapsed":625540,"subject_id":"91955","group":"Group2","condition":"3_Rep","full_date":"2026-01-24T17:49:30.892Z","date":"2026-01-24","time":"17:49:30"},{"rt":null,"stimulus":"<p style=\"font-size: 50px; margin: 0; text-align: center;\">+</p>","response":null,"trial_type":"html-keyboard-response","trial_index":27,"plugin_version":"2.1.0","time_elapsed":626543,"subject_id":"91955","group":"Group2","condition":"3_Rep","full_date":"2026-01-24T17:49:30.892Z","date":"2026-01-24","time":"17:49:30"},{"task":"memory_phase","broad_category":"S","image_png":"S_Sandstone_04.png","image_id":452,"category_name":"Sandstone","category":29,"distinct_rating":1.8,"distinct_type":"Bottom","rt":null,"stimulus":"Stimuli_Rocks480/S_Sandstone_04.png","response":null,"trial_type":"image-keyboard-response","trial_index":28,"plugin_version":"2.1.0","time_elapsed":629047,"subject_id":"91955","group":"Group2","condition":"3_Rep","full_date":"2026-01-24T17:49:30.892Z","date":"2026-01-24","time":"17:49:30"},{"rt":null,"stimulus":"<p style=\"font-size: 50px; margin: 0; text-align: center;\">+</p>","response":null,"trial_type":"html-keyboard-response","trial_index":29,"plugin_version":"2.1.0","time_elapsed":630050,"subject_id":"91955","group":"Group2","condition":"3_Rep","full_date":"2026-01-24T17:49:30.892Z","date":"2026-01-24","time":"17:49:30"},{"task":"memory_phase","broad_category":"S","image_png":"S_Dolomite_07.png","image_id":391,"category_name":"Dolomite","category":25,"distinct_rating":1.73,"distinct_type":"Bottom","rt":null,"stimulus":"Stimuli_Rocks480/S_Dolomite_07.png","response":null,"trial_type":"image-keyboard-response","trial_index":30,"plugin_version":"2.1.0","time_elapsed":632554,"subject_id":"91955","group":"Group2","condition":"3_Rep","full_date":"2026-01-24T17:49:30.892Z","date":"2026-01-24","time":"17:49:30"},{"rt":null,"stimulus":"<p style=\"font-size: 50px; margin: 0; text-align: center;\">+</p>","response":null,"trial_type":"html-keyboard-response","trial_index":31,"plugin_version":"2.1.0","time_elapsed":633557,"subject_id":"91955","group":"Group2","condition":"3_Rep","full_date":"2026-01-24T17:49:30.892Z","date":"2026-01-24","time":"17:49:30"},{"task":"memory_phase","broad_category":"S","image_png":"S_Sandstone_11.png","image_id":459,"category_name":"Sandstone","category":29,"distinct_rating":1.82,"distinct_type":"Bottom","rt":null,"stimulus":"Stimuli_Rocks480/S_Sandstone_11.png","response":null,"trial_type":"image-keyboard-response","trial_index":32,"plugin_version":"2.1.0","time_elapsed":636060,"subject_id":"91955","group":"Group2","condition":"3_Rep","full_date":"2026-01-24T17:49:30.892Z","date":"2026-01-24","time":"17:49:30"},{"rt":null,"stimulus":"<p style=\"font-size: 50px; margin: 0; text-align: center;\">+</p>","response":null,"trial_type":"html-keyboard-response","trial_index":33,"plugin_version":"2.1.0","time_elapsed":637065,"subject_id":"91955","group":"Group2","condition":"3_Rep","full_date":"2026-01-24T17:49:30.892Z","date":"2026-01-24","time":"17:49:30"},{"task":"memory_phase","broad_category":"S","image_png":"S_Shale_07.png","image_id":471,"category_name":"Shale","category":30,"distinct_rating":2.73,"distinct_type":"Bottom","rt":null,"stimulus":"Stimuli_Rocks480/S_Shale_07.png","response":null,"trial_type":"image-keyboard-response","trial_index":34,"plugin_version":"2.1.0","time_elapsed":639570,"subject_id":"91955","group":"Group2","condition":"3_Rep","full_date":"2026-01-24T17:49:30.892Z","date":"2026-01-24","time":"17:49:30"},{"rt":null,"stimulus":"<p style=\"font-size: 50px; margin: 0; text-align: center;\">+</p>","response":null,"trial_type":"html-keyboard-response","trial_index":35,"plugin_version":"2.1.0","time_elapsed":640573,"subject_id":"91955","group":"Group2","condition":"3_Rep","full_date":"2026-01-24T17:49:30.892Z","date":"2026-01-24","time":"17:49:30"},{"task":"memory_phase","broad_category":"M","image_png":"M_Quartzite_15.png","image_id":287,"category_name":"Quartzite","category":18,"distinct_rating":2.19,"distinct_type":"Bottom","rt":null,"stimulus":"Stimuli_Rocks480/M_Quartzite_15.png","response":null,"trial_type":"image-keyboard-response","trial_index":36,"plugin_version":"2.1.0","time_elapsed":643077,"subject_id":"91955","group":"Group2","condition":"3_Rep","full_date":"2026-01-24T17:49:30.892Z","date":"2026-01-24","time":"17:49:30"},{"rt":null,"stimulus":"<p style=\"font-size: 50px; margin: 0; text-align: center;\">+</p>","response":null,"trial_type":"html-keyboard-response","trial_index":37,"plugin_version":"2.1.0","time_elapsed":644079,"subject_id":"91955","group":"Group2","condition":"3_Rep","full_date":"2026-01-24T17:49:30.892Z","date":"2026-01-24","time":"17:49:30"},{"task":"memory_phase","broad_category":"I","image_png":"I_Pegmatite_11.png","image_id":107,"category_name":"Pegmatite","category":7,"distinct_rating":7.11,"distinct_type":"Top","rt":null,"stimulus":"Stimuli_Rocks480/I_Pegmatite_11.png","response":null,"trial_type":"image-keyboard-response","trial_index":38,"plugin_version":"2.1.0","time_elapsed":646584,"subject_id":"91955","group":"Group2","condition":"3_Rep","full_date":"2026-01-24T17:49:30.892Z","date":"2026-01-24","time":"17:49:30"},{"rt":null,"stimulus":"<p style=\"font-size: 50px; margin: 0; text-align: center;\">+</p>","response":null,"trial_type":"html-keyboard-response","trial_index":39,"plugin_version":"2.1.0","time_elapsed":647586,"subject_id":"91955","group":"Group2","condition":"3_Rep","full_date":"2026-01-24T17:49:30.892Z","date":"2026-01-24","time":"17:49:30"},{"task":"memory_phase","broad_category":"M","image_png":"M_Quartzite_12.png","image_id":284,"category_name":"Quartzite","category":18,"distinct_rating":1.92,"distinct_type":"Bottom","rt":null,"stimulus":"Stimuli_Rocks480/M_Quartzite_12.png","response":null,"trial_type":"image-keyboard-response","trial_index":40,"plugin_version":"2.1.0","time_elapsed":650090,"subject_id":"91955","group":"Group2","condition":"3_Rep","full_date":"2026-01-24T17:49:30.892Z","date":"2026-01-24","time":"17:49:30"},{"rt":null,"stimulus":"<p style=\"font-size: 50px; margin: 0; text-align: center;\">+</p>","response":null,"trial_type":"html-keyboard-response","trial_index":41,"plugin_version":"2.1.0","time_elapsed":651093,"subject_id":"91955","group":"Group2","condition":"3_Rep","full_date":"2026-01-24T17:49:30.892Z","date":"2026-01-24","time":"17:49:30"},{"task":"memory_phase","broad_category":"I","image_png":"I_Rhyolite_08.png","image_id":152,"category_name":"Rhyolite","category":10,"distinct_rating":1.38,"distinct_type":"Bottom","rt":null,"stimulus":"Stimuli_Rocks480/I_Rhyolite_08.png","response":null,"trial_type":"image-keyboard-response","trial_index":42,"plugin_version":"2.1.0","time_elapsed":653597,"subject_id":"91955","group":"Group2","condition":"3_Rep","full_date":"2026-01-24T17:49:30.892Z","date":"2026-01-24","time":"17:49:30"},{"rt":null,"stimulus":"<p style=\"font-size: 50px; margin: 0; text-align: center;\">+</p>","response":null,"trial_type":"html-keyboard-response","trial_index":43,"plugin_version":"2.1.0","time_elapsed":654600,"subject_id":"91955","group":"Group2","condition":"3_Rep","full_date":"2026-01-24T17:49:30.892Z","date":"2026-01-24","time":"17:49:30"},{"task":"memory_phase","broad_category":"M","image_png":"M_Slate_10.png","image_id":314,"category_name":"Slate","category":20,"distinct_rating":1.94,"distinct_type":"Bottom","rt":null,"stimulus":"Stimuli_Rocks480/M_Slate_10.png","response":null,"trial_type":"image-keyboard-response","trial_index":44,"plugin_version":"2.1.0","time_elapsed":657103,"subject_id":"91955","group":"Group2","condition":"3_Rep","full_date":"2026-01-24T17:49:30.892Z","date":"2026-01-24","time":"17:49:30"},{"rt":null,"stimulus":"<p style=\"font-size: 50px; margin: 0; text-align: center;\">+</p>","response":null,"trial_type":"html-keyboard-response","trial_index":45,"plugin_version":"2.1.0","time_elapsed":658106,"subject_id":"91955","group":"Group2","condition":"3_Rep","full_date":"2026-01-24T17:49:30.892Z","date":"2026-01-24","time":"17:49:30"},{"task":"memory_phase","broad_category":"I","image_png":"I_Obsidian_06.png","image_id":86,"category_name":"Obsidian","category":6,"distinct_rating":8.01,"distinct_type":"Top","rt":null,"stimulus":"Stimuli_Rocks480/I_Obsidian_06.png","response":null,"trial_type":"image-keyboard-response","trial_index":46,"plugin_version":"2.1.0","time_elapsed":660610,"subject_id":"91955","group":"Group2","condition":"3_Rep","full_date":"2026-01-24T17:49:30.892Z","date":"2026-01-24","time":"17:49:30"},{"rt":null,"stimulus":"<p style=\"font-size: 50px; margin: 0; text-align: center;\">+</p>","response":null,"trial_type":"html-keyboard-response","trial_index":47,"plugin_version":"2.1.0","time_elapsed":661612,"subject_id":"91955","group":"Group2","condition":"3_Rep","full_date":"2026-01-24T17:49:30.892Z","date":"2026-01-24","time":"17:49:30"},{"task":"memory_phase","broad_category":"S","image_png":"S_Dolomite_16.png","image_id":400,"category_name":"Dolomite","category":25,"distinct_rating":1.71,"distinct_type":"Bottom","rt":null,"stimulus":"Stimuli_Rocks480/S_Dolomite_16.png","response":null,"trial_type":"image-keyboard-response","trial_index":48,"plugin_version":"2.1.0","time_elapsed":664116,"subject_id":"91955","group":"Group2","condition":"3_Rep","full_date":"2026-01-24T17:49:30.892Z","date":"2026-01-24","time":"17:49:30"},{"rt":null,"stimulus":"<p style=\"font-size: 50px; margin: 0; text-align: center;\">+</p>","response":null,"trial_type":"html-keyboard-response","trial_index":49,"plugin_version":"2.1.0","time_elapsed":665118,"subject_id":"91955","group":"Group2","condition":"3_Rep","full_date":"2026-01-24T17:49:30.892Z","date":"2026-01-24","time":"17:49:30"},{"task":"memory_phase","broad_category":"M","image_png":"M_Slate_04.png","image_id":308,"category_name":"Slate","category":20,"distinct_rating":2.2,"distinct_type":"Bottom","rt":null,"stimulus":"Stimuli_Rocks480/M_Slate_04.png","response":null,"trial_type":"image-keyboard-response","trial_index":50,"plugin_version":"2.1.0","time_elapsed":667622,"subject_id":"91955","group":"Group2","condition":"3_Rep","full_date":"2026-01-24T17:49:30.892Z","date":"2026-01-24","time":"17:49:30"},{"rt":null,"stimulus":"<p style=\"font-size: 50px; margin: 0; text-align: center;\">+</p>","response":null,"trial_type":"html-keyboard-response","trial_index":51,"plugin_version":"2.1.0","time_elapsed":668624,"subject_id":"91955","group":"Group2","condition":"3_Rep","full_date":"2026-01-24T17:49:30.892Z","date":"2026-01-24","time":"17:49:30"},{"task":"memory_phase","broad_category":"I","image_png":"I_Diorite_10.png","image_id":42,"category_name":"Diorite","category":3,"distinct_rating":2.84,"distinct_type":"Bottom","rt":null,"stimulus":"Stimuli_Rocks480/I_Diorite_10.png","response":null,"trial_type":"image-keyboard-response","trial_index":52,"plugin_version":"2.1.0","time_elapsed":671128,"subject_id":"91955","group":"Group2","condition":"3_Rep","full_date":"2026-01-24T17:49:30.892Z","date":"2026-01-24","time":"17:49:30"},{"rt":null,"stimulus":"<p style=\"font-size: 50px; margin: 0; text-align: center;\">+</p>","response":null,"trial_type":"html-keyboard-response","trial_index":53,"plugin_version":"2.1.0","time_elapsed":672131,"subject_id":"91955","group":"Group2","condition":"3_Rep","full_date":"2026-01-24T17:49:30.892Z","date":"2026-01-24","time":"17:49:30"},{"task":"memory_phase","broad_category":"I","image_png":"I_Gabbro_02.png","image_id":50,"category_name":"Gabbro","category":4,"distinct_rating":2.73,"distinct_type":"Bottom","rt":null,"stimulus":"Stimuli_Rocks480/I_Gabbro_02.png","response":null,"trial_type":"image-keyboard-response","trial_index":54,"plugin_version":"2.1.0","time_elapsed":674634,"subject_id":"91955","group":"Group2","condition":"3_Rep","full_date":"2026-01-24T17:49:30.892Z","date":"2026-01-24","time":"17:49:30"},{"rt":2407,"stimulus":"<p style=\"max-width: 760px; margin: auto; font-size: 35px; line-height: 1.5;\">\n                Press SPACE to continue study phase\n              </p>","response":" ","trial_type":"html-keyboard-response","trial_index":55,"plugin_version":"2.1.0","time_elapsed":677043,"subject_id":"91955","group":"Group2","condition":"3_Rep","full_date":"2026-01-24T17:49:30.892Z","date":"2026-01-24","time":"17:49:30"},{"rt":null,"stimulus":"<p style=\"font-size: 50px; margin: 0; text-align: center;\">+</p>","response":null,"trial_type":"html-keyboard-response","trial_index":56,"plugin_version":"2.1.0","time_elapsed":678046,"subject_id":"91955","group":"Group2","condition":"3_Rep","full_date":"2026-01-24T17:49:30.892Z","date":"2026-01-24","time":"17:49:30"},{"task":"memory_phase","broad_category":"S","image_png":"S_Rock Salt_13.png","image_id":445,"category_name":"Rock Salt","category":28,"distinct_rating":7.58,"distinct_type":"Top","rt":null,"stimulus":"Stimuli_Rocks480/S_Rock Salt_13.png","response":null,"trial_type":"image-keyboard-response","trial_index":57,"plugin_version":"2.1.0","time_elapsed":680550,"subject_id":"91955","group":"Group2","condition":"3_Rep","full_date":"2026-01-24T17:49:30.892Z","date":"2026-01-24","time":"17:49:30"},{"rt":null,"stimulus":"<p style=\"font-size: 50px; margin: 0; text-align: center;\">+</p>","response":null,"trial_type":"html-keyboard-response","trial_index":58,"plugin_version":"2.1.0","time_elapsed":681553,"subject_id":"91955","group":"Group2","condition":"3_Rep","full_date":"2026-01-24T17:49:30.892Z","date":"2026-01-24","time":"17:49:30"},{"task":"memory_phase","broad_category":"I","image_png":"I_Rhyolite_10.png","image_id":154,"category_name":"Rhyolite","category":10,"distinct_rating":2.88,"distinct_type":"Bottom","rt":null,"stimulus":"Stimuli_Rocks480/I_Rhyolite_10.png","response":null,"trial_type":"image-keyboard-response","trial_index":59,"plugin_version":"2.1.0","time_elapsed":684057,"subject_id":"91955","group":"Group2","condition":"3_Rep","full_date":"2026-01-24T17:49:30.892Z","date":"2026-01-24","time":"17:49:30"},{"rt":null,"stimulus":"<p style=\"font-size: 50px; margin: 0; text-align: center;\">+</p>","response":null,"trial_type":"html-keyboard-response","trial_index":60,"plugin_version":"2.1.0","time_elapsed":685060,"subject_id":"91955","group":"Group2","condition":"3_Rep","full_date":"2026-01-24T17:49:30.892Z","date":"2026-01-24","time":"17:49:30"},{"task":"memory_phase","broad_category":"M","image_png":"M_Phyllite_02.png","image_id":258,"category_name":"Phyllite","category":17,"distinct_rating":2.89,"distinct_type":"Bottom","rt":null,"stimulus":"Stimuli_Rocks480/M_Phyllite_02.png","response":null,"trial_type":"image-keyboard-response","trial_index":61,"plugin_version":"2.1.0","time_elapsed":687564,"subject_id":"91955","group":"Group2","condition":"3_Rep","full_date":"2026-01-24T17:49:30.892Z","date":"2026-01-24","time":"17:49:30"},{"rt":null,"stimulus":"<p style=\"font-size: 50px; margin: 0; text-align: center;\">+</p>","response":null,"trial_type":"html-keyboard-response","trial_index":62,"plugin_version":"2.1.0","time_elapsed":688566,"subject_id":"91955","group":"Group2","condition":"3_Rep","full_date":"2026-01-24T17:49:30.892Z","date":"2026-01-24","time":"17:49:30"},{"task":"memory_phase","broad_category":"M","image_png":"M_Slate_14.png","image_id":318,"category_name":"Slate","category":20,"distinct_rating":2.58,"distinct_type":"Bottom","rt":null,"stimulus":"Stimuli_Rocks480/M_Slate_14.png","response":null,"trial_type":"image-keyboard-response","trial_index":63,"plugin_version":"2.1.0","time_elapsed":691071,"subject_id":"91955","group":"Group2","condition":"3_Rep","full_date":"2026-01-24T17:49:30.892Z","date":"2026-01-24","time":"17:49:30"},{"rt":null,"stimulus":"<p style=\"font-size: 50px; margin: 0; text-align: center;\">+</p>","response":null,"trial_type":"html-keyboard-response","trial_index":64,"plugin_version":"2.1.0","time_elapsed":692074,"subject_id":"91955","group":"Group2","condition":"3_Rep","full_date":"2026-01-24T17:49:30.892Z","date":"2026-01-24","time":"17:49:30"},{"task":"memory_phase","broad_category":"I","image_png":"I_Gabbro_14.png","image_id":62,"category_name":"Gabbro","category":4,"distinct_rating":2.95,"distinct_type":"Bottom","rt":null,"stimulus":"Stimuli_Rocks480/I_Gabbro_14.png","response":null,"trial_type":"image-keyboard-response","trial_index":65,"plugin_version":"2.1.0","time_elapsed":694577,"subject_id":"91955","group":"Group2","condition":"3_Rep","full_date":"2026-01-24T17:49:30.892Z","date":"2026-01-24","time":"17:49:30"},{"rt":null,"stimulus":"<p style=\"font-size: 50px; margin: 0; text-align: center;\">+</p>","response":null,"trial_type":"html-keyboard-response","trial_index":66,"plugin_version":"2.1.0","time_elapsed":695579,"subject_id":"91955","group":"Group2","condition":"3_Rep","full_date":"2026-01-24T17:49:30.892Z","date":"2026-01-24","time":"17:49:30"},{"task":"memory_phase","broad_category":"S","image_png":"S_Dolomite_01.png","image_id":385,"category_name":"Dolomite","category":25,"distinct_rating":1.43,"distinct_type":"Bottom","rt":null,"stimulus":"Stimuli_Rocks480/S_Dolomite_01.png","response":null,"trial_type":"image-keyboard-response","trial_index":67,"plugin_version":"2.1.0","time_elapsed":698084,"subject_id":"91955","group":"Group2","condition":"3_Rep","full_date":"2026-01-24T17:49:30.892Z","date":"2026-01-24","time":"17:49:30"},{"rt":null,"stimulus":"<p style=\"font-size: 50px; margin: 0; text-align: center;\">+</p>","response":null,"trial_type":"html-keyboard-response","trial_index":68,"plugin_version":"2.1.0","time_elapsed":699086,"subject_id":"91955","group":"Group2","condition":"3_Rep","full_date":"2026-01-24T17:49:30.892Z","date":"2026-01-24","time":"17:49:30"},{"task":"memory_phase","broad_category":"I","image_png":"I_Andesite_03.png","image_id":3,"category_name":"Andesite","category":1,"distinct_rating":3.17,"distinct_type":"Bottom","rt":null,"stimulus":"Stimuli_Rocks480/I_Andesite_03.png","response":null,"trial_type":"image-keyboard-response","trial_index":69,"plugin_version":"2.1.0","time_elapsed":701591,"subject_id":"91955","group":"Group2","condition":"3_Rep","full_date":"2026-01-24T17:49:30.892Z","date":"2026-01-24","time":"17:49:30"},{"rt":null,"stimulus":"<p style=\"font-size: 50px; margin: 0; text-align: center;\">+</p>","response":null,"trial_type":"html-keyboard-response","trial_index":70,"plugin_version":"2.1.0","time_elapsed":702593,"subject_id":"91955","group":"Group2","condition":"3_Rep","full_date":"2026-01-24T17:49:30.892Z","date":"2026-01-24","time":"17:49:30"},{"task":"memory_phase","broad_category":"I","image_png":"I_Andesite_04.png","image_id":4,"category_name":"Andesite","category":1,"distinct_rating":3.18,"distinct_type":"Bottom","rt":null,"stimulus":"Stimuli_Rocks480/I_Andesite_04.png","response":null,"trial_type":"image-keyboard-response","trial_index":71,"plugin_version":"2.1.0","time_elapsed":705097,"subject_id":"91955","group":"Group2","condition":"3_Rep","full_date":"2026-01-24T17:49:30.892Z","date":"2026-01-24","time":"17:49:30"},{"rt":null,"stimulus":"<p style=\"font-size: 50px; margin: 0; text-align: center;\">+</p>","response":null,"trial_type":"html-keyboard-response","trial_index":72,"plugin_version":"2.1.0","time_elapsed":706100,"subject_id":"91955","group":"Group2","condition":"3_Rep","full_date":"2026-01-24T17:49:30.892Z","date":"2026-01-24","time":"17:49:30"},{"task":"memory_phase","broad_category":"M","image_png":"M_Marble_03.png","image_id":227,"category_name":"Marble","category":15,"distinct_rating":2.67,"distinct_type":"Bottom","rt":null,"stimulus":"Stimuli_Rocks480/M_Marble_03.png","response":null,"trial_type":"image-keyboard-response","trial_index":73,"plugin_version":"2.1.0","time_elapsed":708604,"subject_id":"91955","group":"Group2","condition":"3_Rep","full_date":"2026-01-24T17:49:30.892Z","date":"2026-01-24","time":"17:49:30"},{"rt":null,"stimulus":"<p style=\"font-size: 50px; margin: 0; text-align: center;\">+</p>","response":null,"trial_type":"html-keyboard-response","trial_index":74,"plugin_version":"2.1.0","time_elapsed":709606,"subject_id":"91955","group":"Group2","condition":"3_Rep","full_date":"2026-01-24T17:49:30.892Z","date":"2026-01-24","time":"17:49:30"},{"task":"memory_phase","broad_category":"I","image_png":"I_Pumice_14.png","image_id":142,"category_name":"Pumice","category":9,"distinct_rating":3.22,"distinct_type":"Bottom","rt":null,"stimulus":"Stimuli_Rocks480/I_Pumice_14.png","response":null,"trial_type":"image-keyboard-response","trial_index":75,"plugin_version":"2.1.0","time_elapsed":712109,"subject_id":"91955","group":"Group2","condition":"3_Rep","full_date":"2026-01-24T17:49:30.892Z","date":"2026-01-24","time":"17:49:30"},{"rt":null,"stimulus":"<p style=\"font-size: 50px; margin: 0; text-align: center;\">+</p>","response":null,"trial_type":"html-keyboard-response","trial_index":76,"plugin_version":"2.1.0","time_elapsed":713112,"subject_id":"91955","group":"Group2","condition":"3_Rep","full_date":"2026-01-24T17:49:30.892Z","date":"2026-01-24","time":"17:49:30"},{"task":"memory_phase","broad_category":"I","image_png":"I_Basalt_08.png","image_id":24,"category_name":"Basalt","category":2,"distinct_rating":2.31,"distinct_type":"Bottom","rt":null,"stimulus":"Stimuli_Rocks480/I_Basalt_08.png","response":null,"trial_type":"image-keyboard-response","trial_index":77,"plugin_version":"2.1.0","time_elapsed":715615,"subject_id":"91955","group":"Group2","condition":"3_Rep","full_date":"2026-01-24T17:49:30.892Z","date":"2026-01-24","time":"17:49:30"},{"rt":null,"stimulus":"<p style=\"font-size: 50px; margin: 0; text-align: center;\">+</p>","response":null,"trial_type":"html-keyboard-response","trial_index":78,"plugin_version":"2.1.0","time_elapsed":716618,"subject_id":"91955","group":"Group2","condition":"3_Rep","full_date":"2026-01-24T17:49:30.892Z","date":"2026-01-24","time":"17:49:30"},{"task":"memory_phase","broad_category":"S","image_png":"S_Sandstone_08.png","image_id":456,"category_name":"Sandstone","category":29,"distinct_rating":1.5,"distinct_type":"Bottom","rt":null,"stimulus":"Stimuli_Rocks480/S_Sandstone_08.png","response":null,"trial_type":"image-keyboard-response","trial_index":79,"plugin_version":"2.1.0","time_elapsed":719122,"subject_id":"91955","group":"Group2","condition":"3_Rep","full_date":"2026-01-24T17:49:30.892Z","date":"2026-01-24","time":"17:49:30"},{"rt":null,"stimulus":"<p style=\"font-size: 50px; margin: 0; text-align: center;\">+</p>","response":null,"trial_type":"html-keyboard-response","trial_index":80,"plugin_version":"2.1.0","time_elapsed":720125,"subject_id":"91955","group":"Group2","condition":"3_Rep","full_date":"2026-01-24T17:49:30.892Z","date":"2026-01-24","time":"17:49:30"},{"task":"memory_phase","broad_category":"I","image_png":"I_Diorite_01.png","image_id":33,"category_name":"Diorite","category":3,"distinct_rating":2.97,"distinct_type":"Bottom","rt":null,"stimulus":"Stimuli_Rocks480/I_Diorite_01.png","response":null,"trial_type":"image-keyboard-response","trial_index":81,"plugin_version":"2.1.0","time_elapsed":722630,"subject_id":"91955","group":"Group2","condition":"3_Rep","full_date":"2026-01-24T17:49:30.892Z","date":"2026-01-24","time":"17:49:30"},{"rt":null,"stimulus":"<p style=\"font-size: 50px; margin: 0; text-align: center;\">+</p>","response":null,"trial_type":"html-keyboard-response","trial_index":82,"plugin_version":"2.1.0","time_elapsed":723632,"subject_id":"91955","group":"Group2","condition":"3_Rep","full_date":"2026-01-24T17:49:30.892Z","date":"2026-01-24","time":"17:49:30"},{"task":"memory_phase","broad_category":"M","image_png":"M_Quartzite_07.png","image_id":279,"category_name":"Quartzite","category":18,"distinct_rating":1.97,"distinct_type":"Bottom","rt":null,"stimulus":"Stimuli_Rocks480/M_Quartzite_07.png","response":null,"trial_type":"image-keyboard-response","trial_index":83,"plugin_version":"2.1.0","time_elapsed":726137,"subject_id":"91955","group":"Group2","condition":"3_Rep","full_date":"2026-01-24T17:49:30.892Z","date":"2026-01-24","time":"17:49:30"},{"rt":null,"stimulus":"<p style=\"font-size: 50px; margin: 0; text-align: center;\">+</p>","response":null,"trial_type":"html-keyboard-response","trial_index":84,"plugin_version":"2.1.0","time_elapsed":727139,"subject_id":"91955","group":"Group2","condition":"3_Rep","full_date":"2026-01-24T17:49:30.892Z","date":"2026-01-24","time":"17:49:30"},{"task":"memory_phase","broad_category":"S","image_png":"S_Rock Salt_15.png","image_id":447,"category_name":"Rock Salt","category":28,"distinct_rating":7.79,"distinct_type":"Top","rt":null,"stimulus":"Stimuli_Rocks480/S_Rock Salt_15.png","response":null,"trial_type":"image-keyboard-response","trial_index":85,"plugin_version":"2.1.0","time_elapsed":729643,"subject_id":"91955","group":"Group2","condition":"3_Rep","full_date":"2026-01-24T17:49:30.892Z","date":"2026-01-24","time":"17:49:30"},{"rt":null,"stimulus":"<p style=\"font-size: 50px; margin: 0; text-align: center;\">+</p>","response":null,"trial_type":"html-keyboard-response","trial_index":86,"plugin_version":"2.1.0","time_elapsed":730646,"subject_id":"91955","group":"Group2","condition":"3_Rep","full_date":"2026-01-24T17:49:30.892Z","date":"2026-01-24","time":"17:49:30"},{"task":"memory_phase","broad_category":"M","image_png":"M_Gneiss_10.png","image_id":202,"category_name":"Gneiss","category":13,"distinct_rating":3.09,"distinct_type":"Bottom","rt":null,"stimulus":"Stimuli_Rocks480/M_Gneiss_10.png","response":null,"trial_type":"image-keyboard-response","trial_index":87,"plugin_version":"2.1.0","time_elapsed":733149,"subject_id":"91955","group":"Group2","condition":"3_Rep","full_date":"2026-01-24T17:49:30.892Z","date":"2026-01-24","time":"17:49:30"},{"rt":null,"stimulus":"<p style=\"font-size: 50px; margin: 0; text-align: center;\">+</p>","response":null,"trial_type":"html-keyboard-response","trial_index":88,"plugin_version":"2.1.0","time_elapsed":734152,"subject_id":"91955","group":"Group2","condition":"3_Rep","full_date":"2026-01-24T17:49:30.892Z","date":"2026-01-24","time":"17:49:30"},{"task":"memory_phase","broad_category":"I","image_png":"I_Pegmatite_03.png","image_id":99,"category_name":"Pegmatite","category":7,"distinct_rating":7.24,"distinct_type":"Top","rt":null,"stimulus":"Stimuli_Rocks480/I_Pegmatite_03.png","response":null,"trial_type":"image-keyboard-response","trial_index":89,"plugin_version":"2.1.0","time_elapsed":736656,"subject_id":"91955","group":"Group2","condition":"3_Rep","full_date":"2026-01-24T17:49:30.892Z","date":"2026-01-24","time":"17:49:30"},{"rt":null,"stimulus":"<p style=\"font-size: 50px; margin: 0; text-align: center;\">+</p>","response":null,"trial_type":"html-keyboard-response","trial_index":90,"plugin_version":"2.1.0","time_elapsed":737659,"subject_id":"91955","group":"Group2","condition":"3_Rep","full_date":"2026-01-24T17:49:30.892Z","date":"2026-01-24","time":"17:49:30"},{"task":"memory_phase","broad_category":"M","image_png":"M_Phyllite_05.png","image_id":261,"category_name":"Phyllite","category":17,"distinct_rating":2.14,"distinct_type":"Bottom","rt":null,"stimulus":"Stimuli_Rocks480/M_Phyllite_05.png","response":null,"trial_type":"image-keyboard-response","trial_index":91,"plugin_version":"2.1.0","time_elapsed":740163,"subject_id":"91955","group":"Group2","condition":"3_Rep","full_date":"2026-01-24T17:49:30.892Z","date":"2026-01-24","time":"17:49:30"},{"rt":null,"stimulus":"<p style=\"font-size: 50px; margin: 0; text-align: center;\">+</p>","response":null,"trial_type":"html-keyboard-response","trial_index":92,"plugin_version":"2.1.0","time_elapsed":741166,"subject_id":"91955","group":"Group2","condition":"3_Rep","full_date":"2026-01-24T17:49:30.892Z","date":"2026-01-24","time":"17:49:30"},{"task":"memory_phase","broad_category":"I","image_png":"I_Pumice_01.png","image_id":129,"category_name":"Pumice","category":9,"distinct_rating":3.25,"distinct_type":"Bottom","rt":null,"stimulus":"Stimuli_Rocks480/I_Pumice_01.png","response":null,"trial_type":"image-keyboard-response","trial_index":93,"plugin_version":"2.1.0","time_elapsed":743670,"subject_id":"91955","group":"Group2","condition":"3_Rep","full_date":"2026-01-24T17:49:30.892Z","date":"2026-01-24","time":"17:49:30"},{"rt":null,"stimulus":"<p style=\"font-size: 50px; margin: 0; text-align: center;\">+</p>","response":null,"trial_type":"html-keyboard-response","trial_index":94,"plugin_version":"2.1.0","time_elapsed":744672,"subject_id":"91955","group":"Group2","condition":"3_Rep","full_date":"2026-01-24T17:49:30.892Z","date":"2026-01-24","time":"17:49:30"},{"task":"memory_phase","broad_category":"S","image_png":"S_Chert_13.png","image_id":365,"category_name":"Chert","category":23,"distinct_rating":6.57,"distinct_type":"Top","rt":null,"stimulus":"Stimuli_Rocks480/S_Chert_13.png","response":null,"trial_type":"image-keyboard-response","trial_index":95,"plugin_version":"2.1.0","time_elapsed":747175,"subject_id":"91955","group":"Group2","condition":"3_Rep","full_date":"2026-01-24T17:49:30.892Z","date":"2026-01-24","time":"17:49:30"},{"rt":null,"stimulus":"<p style=\"font-size: 50px; margin: 0; text-align: center;\">+</p>","response":null,"trial_type":"html-keyboard-response","trial_index":96,"plugin_version":"2.1.0","time_elapsed":748178,"subject_id":"91955","group":"Group2","condition":"3_Rep","full_date":"2026-01-24T17:49:30.892Z","date":"2026-01-24","time":"17:49:30"},{"task":"memory_phase","broad_category":"M","image_png":"M_Gneiss_14.png","image_id":206,"category_name":"Gneiss","category":13,"distinct_rating":3.41,"distinct_type":"Bottom","rt":null,"stimulus":"Stimuli_Rocks480/M_Gneiss_14.png","response":null,"trial_type":"image-keyboard-response","trial_index":97,"plugin_version":"2.1.0","time_elapsed":750682,"subject_id":"91955","group":"Group2","condition":"3_Rep","full_date":"2026-01-24T17:49:30.892Z","date":"2026-01-24","time":"17:49:30"},{"rt":null,"stimulus":"<p style=\"font-size: 50px; margin: 0; text-align: center;\">+</p>","response":null,"trial_type":"html-keyboard-response","trial_index":98,"plugin_version":"2.1.0","time_elapsed":751684,"subject_id":"91955","group":"Group2","condition":"3_Rep","full_date":"2026-01-24T17:49:30.892Z","date":"2026-01-24","time":"17:49:30"},{"task":"memory_phase","broad_category":"M","image_png":"M_Marble_02.png","image_id":226,"category_name":"Marble","category":15,"distinct_rating":3.2,"distinct_type":"Bottom","rt":null,"stimulus":"Stimuli_Rocks480/M_Marble_02.png","response":null,"trial_type":"image-keyboard-response","trial_index":99,"plugin_version":"2.1.0","time_elapsed":754188,"subject_id":"91955","group":"Group2","condition":"3_Rep","full_date":"2026-01-24T17:49:30.892Z","date":"2026-01-24","time":"17:49:30"},{"rt":null,"stimulus":"<p style=\"font-size: 50px; margin: 0; text-align: center;\">+</p>","response":null,"trial_type":"html-keyboard-response","trial_index":100,"plugin_version":"2.1.0","time_elapsed":755191,"subject_id":"91955","group":"Group2","condition":"3_Rep","full_date":"2026-01-24T17:49:30.892Z","date":"2026-01-24","time":"17:49:30"},{"task":"memory_phase","broad_category":"M","image_png":"M_Marble_14.png","image_id":238,"category_name":"Marble","category":15,"distinct_rating":3.31,"distinct_type":"Bottom","rt":null,"stimulus":"Stimuli_Rocks480/M_Marble_14.png","response":null,"trial_type":"image-keyboard-response","trial_index":101,"plugin_version":"2.1.0","time_elapsed":757695,"subject_id":"91955","group":"Group2","condition":"3_Rep","full_date":"2026-01-24T17:49:30.892Z","date":"2026-01-24","time":"17:49:30"},{"rt":null,"stimulus":"<p style=\"font-size: 50px; margin: 0; text-align: center;\">+</p>","response":null,"trial_type":"html-keyboard-response","trial_index":102,"plugin_version":"2.1.0","time_elapsed":758698,"subject_id":"91955","group":"Group2","condition":"3_Rep","full_date":"2026-01-24T17:49:30.892Z","date":"2026-01-24","time":"17:49:30"},{"task":"memory_phase","broad_category":"M","image_png":"M_Gneiss_15.png","image_id":207,"category_name":"Gneiss","category":13,"distinct_rating":3.11,"distinct_type":"Bottom","rt":null,"stimulus":"Stimuli_Rocks480/M_Gneiss_15.png","response":null,"trial_type":"image-keyboard-response","trial_index":103,"plugin_version":"2.1.0","time_elapsed":761203,"subject_id":"91955","group":"Group2","condition":"3_Rep","full_date":"2026-01-24T17:49:30.892Z","date":"2026-01-24","time":"17:49:30"},{"rt":null,"stimulus":"<p style=\"font-size: 50px; margin: 0; text-align: center;\">+</p>","response":null,"trial_type":"html-keyboard-response","trial_index":104,"plugin_version":"2.1.0","time_elapsed":762205,"subject_id":"91955","group":"Group2","condition":"3_Rep","full_date":"2026-01-24T17:49:30.892Z","date":"2026-01-24","time":"17:49:30"},{"task":"memory_phase","broad_category":"I","image_png":"I_Rhyolite_05.png","image_id":149,"category_name":"Rhyolite","category":10,"distinct_rating":3.02,"distinct_type":"Bottom","rt":null,"stimulus":"Stimuli_Rocks480/I_Rhyolite_05.png","response":null,"trial_type":"image-keyboard-response","trial_index":105,"plugin_version":"2.1.0","time_elapsed":764709,"subject_id":"91955","group":"Group2","condition":"3_Rep","full_date":"2026-01-24T17:49:30.892Z","date":"2026-01-24","time":"17:49:30"},{"rt":16653,"stimulus":"<p style=\"max-width: 760px; margin: auto; font-size: 35px; line-height: 1.5;\">\n                You have completed 1 study phase. \n                Now, we'll show you all the images again 2 more times.\n                <br><br>Press SPACE to continue\n              </p>","response":" ","trial_type":"html-keyboard-response","trial_index":106,"plugin_version":"2.1.0","time_elapsed":781363,"subject_id":"91955","group":"Group2","condition":"3_Rep","full_date":"2026-01-24T17:49:30.892Z","date":"2026-01-24","time":"17:49:30"},{"rt":null,"stimulus":"<p style=\"font-size: 50px; margin: 0; text-align: center;\">+</p>","response":null,"trial_type":"html-keyboard-response","trial_index":107,"plugin_version":"2.1.0","time_elapsed":782366,"subject_id":"91955","group":"Group2","condition":"3_Rep","full_date":"2026-01-24T17:49:30.892Z","date":"2026-01-24","time":"17:49:30"},{"task":"memory_phase","broad_category":"I","image_png":"I_Pumice_13.png","image_id":141,"category_name":"Pumice","category":9,"distinct_rating":3.12,"distinct_type":"Bottom","rt":null,"stimulus":"Stimuli_Rocks480/I_Pumice_13.png","response":null,"trial_type":"image-keyboard-response","trial_index":108,"plugin_version":"2.1.0","time_elapsed":784870,"subject_id":"91955","group":"Group2","condition":"3_Rep","full_date":"2026-01-24T17:49:30.892Z","date":"2026-01-24","time":"17:49:30"},{"rt":null,"stimulus":"<p style=\"font-size: 50px; margin: 0; text-align: center;\">+</p>","response":null,"trial_type":"html-keyboard-response","trial_index":109,"plugin_version":"2.1.0","time_elapsed":785873,"subject_id":"91955","group":"Group2","condition":"3_Rep","full_date":"2026-01-24T17:49:30.892Z","date":"2026-01-24","time":"17:49:30"},{"task":"memory_phase","broad_category":"S","image_png":"S_Shale_07.png","image_id":471,"category_name":"Shale","category":30,"distinct_rating":2.73,"distinct_type":"Bottom","rt":null,"stimulus":"Stimuli_Rocks480/S_Shale_07.png","response":null,"trial_type":"image-keyboard-response","trial_index":110,"plugin_version":"2.1.0","time_elapsed":788377,"subject_id":"91955","group":"Group2","condition":"3_Rep","full_date":"2026-01-24T17:49:30.892Z","date":"2026-01-24","time":"17:49:30"},{"rt":null,"stimulus":"<p style=\"font-size: 50px; margin: 0; text-align: center;\">+</p>","response":null,"trial_type":"html-keyboard-response","trial_index":111,"plugin_version":"2.1.0","time_elapsed":789380,"subject_id":"91955","group":"Group2","condition":"3_Rep","full_date":"2026-01-24T17:49:30.892Z","date":"2026-01-24","time":"17:49:30"},{"task":"memory_phase","broad_category":"M","image_png":"M_Gneiss_10.png","image_id":202,"category_name":"Gneiss","category":13,"distinct_rating":3.09,"distinct_type":"Bottom","rt":null,"stimulus":"Stimuli_Rocks480/M_Gneiss_10.png","response":null,"trial_type":"image-keyboard-response","trial_index":112,"plugin_version":"2.1.0","time_elapsed":791883,"subject_id":"91955","group":"Group2","condition":"3_Rep","full_date":"2026-01-24T17:49:30.892Z","date":"2026-01-24","time":"17:49:30"},{"rt":null,"stimulus":"<p style=\"font-size: 50px; margin: 0; text-align: center;\">+</p>","response":null,"trial_type":"html-keyboard-response","trial_index":113,"plugin_version":"2.1.0","time_elapsed":792886,"subject_id":"91955","group":"Group2","condition":"3_Rep","full_date":"2026-01-24T17:49:30.892Z","date":"2026-01-24","time":"17:49:30"},{"task":"memory_phase","broad_category":"I","image_png":"I_Rhyolite_10.png","image_id":154,"category_name":"Rhyolite","category":10,"distinct_rating":2.88,"distinct_type":"Bottom","rt":null,"stimulus":"Stimuli_Rocks480/I_Rhyolite_10.png","response":null,"trial_type":"image-keyboard-response","trial_index":114,"plugin_version":"2.1.0","time_elapsed":795390,"subject_id":"91955","group":"Group2","condition":"3_Rep","full_date":"2026-01-24T17:49:30.892Z","date":"2026-01-24","time":"17:49:30"},{"rt":null,"stimulus":"<p style=\"font-size: 50px; margin: 0; text-align: center;\">+</p>","response":null,"trial_type":"html-keyboard-response","trial_index":115,"plugin_version":"2.1.0","time_elapsed":796393,"subject_id":"91955","group":"Group2","condition":"3_Rep","full_date":"2026-01-24T17:49:30.892Z","date":"2026-01-24","time":"17:49:30"},{"task":"memory_phase","broad_category":"S","image_png":"S_Rock Salt_13.png","image_id":445,"category_name":"Rock Salt","category":28,"distinct_rating":7.58,"distinct_type":"Top","rt":null,"stimulus":"Stimuli_Rocks480/S_Rock Salt_13.png","response":null,"trial_type":"image-keyboard-response","trial_index":116,"plugin_version":"2.1.0","time_elapsed":798897,"subject_id":"91955","group":"Group2","condition":"3_Rep","full_date":"2026-01-24T17:49:30.892Z","date":"2026-01-24","time":"17:49:30"},{"rt":null,"stimulus":"<p style=\"font-size: 50px; margin: 0; text-align: center;\">+</p>","response":null,"trial_type":"html-keyboard-response","trial_index":117,"plugin_version":"2.1.0","time_elapsed":799900,"subject_id":"91955","group":"Group2","condition":"3_Rep","full_date":"2026-01-24T17:49:30.892Z","date":"2026-01-24","time":"17:49:30"},{"task":"memory_phase","broad_category":"S","image_png":"S_Sandstone_08.png","image_id":456,"category_name":"Sandstone","category":29,"distinct_rating":1.5,"distinct_type":"Bottom","rt":null,"stimulus":"Stimuli_Rocks480/S_Sandstone_08.png","response":null,"trial_type":"image-keyboard-response","trial_index":118,"plugin_version":"2.1.0","time_elapsed":802404,"subject_id":"91955","group":"Group2","condition":"3_Rep","full_date":"2026-01-24T17:49:30.892Z","date":"2026-01-24","time":"17:49:30"},{"rt":null,"stimulus":"<p style=\"font-size: 50px; margin: 0; text-align: center;\">+</p>","response":null,"trial_type":"html-keyboard-response","trial_index":119,"plugin_version":"2.1.0","time_elapsed":803406,"subject_id":"91955","group":"Group2","condition":"3_Rep","full_date":"2026-01-24T17:49:30.892Z","date":"2026-01-24","time":"17:49:30"},{"task":"memory_phase","broad_category":"S","image_png":"S_Conglomerate_14.png","image_id":382,"category_name":"Conglomerate","category":24,"distinct_rating":6.86,"distinct_type":"Top","rt":null,"stimulus":"Stimuli_Rocks480/S_Conglomerate_14.png","response":null,"trial_type":"image-keyboard-response","trial_index":120,"plugin_version":"2.1.0","time_elapsed":805910,"subject_id":"91955","group":"Group2","condition":"3_Rep","full_date":"2026-01-24T17:49:30.892Z","date":"2026-01-24","time":"17:49:30"},{"rt":null,"stimulus":"<p style=\"font-size: 50px; margin: 0; text-align: center;\">+</p>","response":null,"trial_type":"html-keyboard-response","trial_index":121,"plugin_version":"2.1.0","time_elapsed":806913,"subject_id":"91955","group":"Group2","condition":"3_Rep","full_date":"2026-01-24T17:49:30.892Z","date":"2026-01-24","time":"17:49:30"},{"task":"memory_phase","broad_category":"I","image_png":"I_Diorite_15.png","image_id":47,"category_name":"Diorite","category":3,"distinct_rating":3.05,"distinct_type":"Bottom","rt":null,"stimulus":"Stimuli_Rocks480/I_Diorite_15.png","response":null,"trial_type":"image-keyboard-response","trial_index":122,"plugin_version":"2.1.0","time_elapsed":809417,"subject_id":"91955","group":"Group2","condition":"3_Rep","full_date":"2026-01-24T17:49:30.892Z","date":"2026-01-24","time":"17:49:30"},{"rt":null,"stimulus":"<p style=\"font-size: 50px; margin: 0; text-align: center;\">+</p>","response":null,"trial_type":"html-keyboard-response","trial_index":123,"plugin_version":"2.1.0","time_elapsed":810420,"subject_id":"91955","group":"Group2","condition":"3_Rep","full_date":"2026-01-24T17:49:30.892Z","date":"2026-01-24","time":"17:49:30"},{"task":"memory_phase","broad_category":"I","image_png":"I_Basalt_10.png","image_id":26,"category_name":"Basalt","category":2,"distinct_rating":2.76,"distinct_type":"Bottom","rt":null,"stimulus":"Stimuli_Rocks480/I_Basalt_10.png","response":null,"trial_type":"image-keyboard-response","trial_index":124,"plugin_version":"2.1.0","time_elapsed":812925,"subject_id":"91955","group":"Group2","condition":"3_Rep","full_date":"2026-01-24T17:49:30.892Z","date":"2026-01-24","time":"17:49:30"},{"rt":null,"stimulus":"<p style=\"font-size: 50px; margin: 0; text-align: center;\">+</p>","response":null,"trial_type":"html-keyboard-response","trial_index":125,"plugin_version":"2.1.0","time_elapsed":813928,"subject_id":"91955","group":"Group2","condition":"3_Rep","full_date":"2026-01-24T17:49:30.892Z","date":"2026-01-24","time":"17:49:30"},{"task":"memory_phase","broad_category":"I","image_png":"I_Basalt_13.png","image_id":29,"category_name":"Basalt","category":2,"distinct_rating":2.68,"distinct_type":"Bottom","rt":null,"stimulus":"Stimuli_Rocks480/I_Basalt_13.png","response":null,"trial_type":"image-keyboard-response","trial_index":126,"plugin_version":"2.1.0","time_elapsed":816432,"subject_id":"91955","group":"Group2","condition":"3_Rep","full_date":"2026-01-24T17:49:30.892Z","date":"2026-01-24","time":"17:49:30"},{"rt":null,"stimulus":"<p style=\"font-size: 50px; margin: 0; text-align: center;\">+</p>","response":null,"trial_type":"html-keyboard-response","trial_index":127,"plugin_version":"2.1.0","time_elapsed":817435,"subject_id":"91955","group":"Group2","condition":"3_Rep","full_date":"2026-01-24T17:49:30.892Z","date":"2026-01-24","time":"17:49:30"},{"task":"memory_phase","broad_category":"S","image_png":"S_Sandstone_04.png","image_id":452,"category_name":"Sandstone","category":29,"distinct_rating":1.8,"distinct_type":"Bottom","rt":null,"stimulus":"Stimuli_Rocks480/S_Sandstone_04.png","response":null,"trial_type":"image-keyboard-response","trial_index":128,"plugin_version":"2.1.0","time_elapsed":819939,"subject_id":"91955","group":"Group2","condition":"3_Rep","full_date":"2026-01-24T17:49:30.892Z","date":"2026-01-24","time":"17:49:30"},{"rt":null,"stimulus":"<p style=\"font-size: 50px; margin: 0; text-align: center;\">+</p>","response":null,"trial_type":"html-keyboard-response","trial_index":129,"plugin_version":"2.1.0","time_elapsed":820941,"subject_id":"91955","group":"Group2","condition":"3_Rep","full_date":"2026-01-24T17:49:30.892Z","date":"2026-01-24","time":"17:49:30"},{"task":"memory_phase","broad_category":"I","image_png":"I_Pegmatite_11.png","image_id":107,"category_name":"Pegmatite","category":7,"distinct_rating":7.11,"distinct_type":"Top","rt":null,"stimulus":"Stimuli_Rocks480/I_Pegmatite_11.png","response":null,"trial_type":"image-keyboard-response","trial_index":130,"plugin_version":"2.1.0","time_elapsed":823451,"subject_id":"91955","group":"Group2","condition":"3_Rep","full_date":"2026-01-24T17:49:30.892Z","date":"2026-01-24","time":"17:49:30"},{"rt":null,"stimulus":"<p style=\"font-size: 50px; margin: 0; text-align: center;\">+</p>","response":null,"trial_type":"html-keyboard-response","trial_index":131,"plugin_version":"2.1.0","time_elapsed":824454,"subject_id":"91955","group":"Group2","condition":"3_Rep","full_date":"2026-01-24T17:49:30.892Z","date":"2026-01-24","time":"17:49:30"},{"task":"memory_phase","broad_category":"M","image_png":"M_Slate_04.png","image_id":308,"category_name":"Slate","category":20,"distinct_rating":2.2,"distinct_type":"Bottom","rt":null,"stimulus":"Stimuli_Rocks480/M_Slate_04.png","response":null,"trial_type":"image-keyboard-response","trial_index":132,"plugin_version":"2.1.0","time_elapsed":826958,"subject_id":"91955","group":"Group2","condition":"3_Rep","full_date":"2026-01-24T17:49:30.892Z","date":"2026-01-24","time":"17:49:30"},{"rt":null,"stimulus":"<p style=\"font-size: 50px; margin: 0; text-align: center;\">+</p>","response":null,"trial_type":"html-keyboard-response","trial_index":133,"plugin_version":"2.1.0","time_elapsed":827962,"subject_id":"91955","group":"Group2","condition":"3_Rep","full_date":"2026-01-24T17:49:30.892Z","date":"2026-01-24","time":"17:49:30"},{"task":"memory_phase","broad_category":"M","image_png":"M_Gneiss_14.png","image_id":206,"category_name":"Gneiss","category":13,"distinct_rating":3.41,"distinct_type":"Bottom","rt":null,"stimulus":"Stimuli_Rocks480/M_Gneiss_14.png","response":null,"trial_type":"image-keyboard-response","trial_index":134,"plugin_version":"2.1.0","time_elapsed":830465,"subject_id":"91955","group":"Group2","condition":"3_Rep","full_date":"2026-01-24T17:49:30.892Z","date":"2026-01-24","time":"17:49:30"},{"rt":null,"stimulus":"<p style=\"font-size: 50px; margin: 0; text-align: center;\">+</p>","response":null,"trial_type":"html-keyboard-response","trial_index":135,"plugin_version":"2.1.0","time_elapsed":831468,"subject_id":"91955","group":"Group2","condition":"3_Rep","full_date":"2026-01-24T17:49:30.892Z","date":"2026-01-24","time":"17:49:30"},{"task":"memory_phase","broad_category":"M","image_png":"M_Phyllite_13.png","image_id":269,"category_name":"Phyllite","category":17,"distinct_rating":2.8,"distinct_type":"Bottom","rt":null,"stimulus":"Stimuli_Rocks480/M_Phyllite_13.png","response":null,"trial_type":"image-keyboard-response","trial_index":136,"plugin_version":"2.1.0","time_elapsed":833973,"subject_id":"91955","group":"Group2","condition":"3_Rep","full_date":"2026-01-24T17:49:30.892Z","date":"2026-01-24","time":"17:49:30"},{"rt":null,"stimulus":"<p style=\"font-size: 50px; margin: 0; text-align: center;\">+</p>","response":null,"trial_type":"html-keyboard-response","trial_index":137,"plugin_version":"2.1.0","time_elapsed":834976,"subject_id":"91955","group":"Group2","condition":"3_Rep","full_date":"2026-01-24T17:49:30.892Z","date":"2026-01-24","time":"17:49:30"},{"task":"memory_phase","broad_category":"I","image_png":"I_Pumice_14.png","image_id":142,"category_name":"Pumice","category":9,"distinct_rating":3.22,"distinct_type":"Bottom","rt":null,"stimulus":"Stimuli_Rocks480/I_Pumice_14.png","response":null,"trial_type":"image-keyboard-response","trial_index":138,"plugin_version":"2.1.0","time_elapsed":837480,"subject_id":"91955","group":"Group2","condition":"3_Rep","full_date":"2026-01-24T17:49:30.892Z","date":"2026-01-24","time":"17:49:30"},{"rt":null,"stimulus":"<p style=\"font-size: 50px; margin: 0; text-align: center;\">+</p>","response":null,"trial_type":"html-keyboard-response","trial_index":139,"plugin_version":"2.1.0","time_elapsed":838482,"subject_id":"91955","group":"Group2","condition":"3_Rep","full_date":"2026-01-24T17:49:30.892Z","date":"2026-01-24","time":"17:49:30"},{"task":"memory_phase","broad_category":"I","image_png":"I_Andesite_03.png","image_id":3,"category_name":"Andesite","category":1,"distinct_rating":3.17,"distinct_type":"Bottom","rt":null,"stimulus":"Stimuli_Rocks480/I_Andesite_03.png","response":null,"trial_type":"image-keyboard-response","trial_index":140,"plugin_version":"2.1.0","time_elapsed":840986,"subject_id":"91955","group":"Group2","condition":"3_Rep","full_date":"2026-01-24T17:49:30.892Z","date":"2026-01-24","time":"17:49:30"},{"rt":null,"stimulus":"<p style=\"font-size: 50px; margin: 0; text-align: center;\">+</p>","response":null,"trial_type":"html-keyboard-response","trial_index":141,"plugin_version":"2.1.0","time_elapsed":841989,"subject_id":"91955","group":"Group2","condition":"3_Rep","full_date":"2026-01-24T17:49:30.892Z","date":"2026-01-24","time":"17:49:30"},{"task":"memory_phase","broad_category":"I","image_png":"I_Andesite_09.png","image_id":9,"category_name":"Andesite","category":1,"distinct_rating":2.49,"distinct_type":"Bottom","rt":null,"stimulus":"Stimuli_Rocks480/I_Andesite_09.png","response":null,"trial_type":"image-keyboard-response","trial_index":142,"plugin_version":"2.1.0","time_elapsed":844494,"subject_id":"91955","group":"Group2","condition":"3_Rep","full_date":"2026-01-24T17:49:30.892Z","date":"2026-01-24","time":"17:49:30"},{"rt":null,"stimulus":"<p style=\"font-size: 50px; margin: 0; text-align: center;\">+</p>","response":null,"trial_type":"html-keyboard-response","trial_index":143,"plugin_version":"2.1.0","time_elapsed":845497,"subject_id":"91955","group":"Group2","condition":"3_Rep","full_date":"2026-01-24T17:49:30.892Z","date":"2026-01-24","time":"17:49:30"},{"task":"memory_phase","broad_category":"S","image_png":"S_Sandstone_11.png","image_id":459,"category_name":"Sandstone","category":29,"distinct_rating":1.82,"distinct_type":"Bottom","rt":null,"stimulus":"Stimuli_Rocks480/S_Sandstone_11.png","response":null,"trial_type":"image-keyboard-response","trial_index":144,"plugin_version":"2.1.0","time_elapsed":848001,"subject_id":"91955","group":"Group2","condition":"3_Rep","full_date":"2026-01-24T17:49:30.892Z","date":"2026-01-24","time":"17:49:30"},{"rt":null,"stimulus":"<p style=\"font-size: 50px; margin: 0; text-align: center;\">+</p>","response":null,"trial_type":"html-keyboard-response","trial_index":145,"plugin_version":"2.1.0","time_elapsed":849004,"subject_id":"91955","group":"Group2","condition":"3_Rep","full_date":"2026-01-24T17:49:30.892Z","date":"2026-01-24","time":"17:49:30"},{"task":"memory_phase","broad_category":"M","image_png":"M_Quartzite_15.png","image_id":287,"category_name":"Quartzite","category":18,"distinct_rating":2.19,"distinct_type":"Bottom","rt":null,"stimulus":"Stimuli_Rocks480/M_Quartzite_15.png","response":null,"trial_type":"image-keyboard-response","trial_index":146,"plugin_version":"2.1.0","time_elapsed":851507,"subject_id":"91955","group":"Group2","condition":"3_Rep","full_date":"2026-01-24T17:49:30.892Z","date":"2026-01-24","time":"17:49:30"},{"rt":null,"stimulus":"<p style=\"font-size: 50px; margin: 0; text-align: center;\">+</p>","response":null,"trial_type":"html-keyboard-response","trial_index":147,"plugin_version":"2.1.0","time_elapsed":852510,"subject_id":"91955","group":"Group2","condition":"3_Rep","full_date":"2026-01-24T17:49:30.892Z","date":"2026-01-24","time":"17:49:30"},{"task":"memory_phase","broad_category":"S","image_png":"S_Dolomite_16.png","image_id":400,"category_name":"Dolomite","category":25,"distinct_rating":1.71,"distinct_type":"Bottom","rt":null,"stimulus":"Stimuli_Rocks480/S_Dolomite_16.png","response":null,"trial_type":"image-keyboard-response","trial_index":148,"plugin_version":"2.1.0","time_elapsed":855014,"subject_id":"91955","group":"Group2","condition":"3_Rep","full_date":"2026-01-24T17:49:30.892Z","date":"2026-01-24","time":"17:49:30"},{"rt":null,"stimulus":"<p style=\"font-size: 50px; margin: 0; text-align: center;\">+</p>","response":null,"trial_type":"html-keyboard-response","trial_index":149,"plugin_version":"2.1.0","time_elapsed":856017,"subject_id":"91955","group":"Group2","condition":"3_Rep","full_date":"2026-01-24T17:49:30.892Z","date":"2026-01-24","time":"17:49:30"},{"task":"memory_phase","broad_category":"I","image_png":"I_Gabbro_02.png","image_id":50,"category_name":"Gabbro","category":4,"distinct_rating":2.73,"distinct_type":"Bottom","rt":null,"stimulus":"Stimuli_Rocks480/I_Gabbro_02.png","response":null,"trial_type":"image-keyboard-response","trial_index":150,"plugin_version":"2.1.0","time_elapsed":858521,"subject_id":"91955","group":"Group2","condition":"3_Rep","full_date":"2026-01-24T17:49:30.892Z","date":"2026-01-24","time":"17:49:30"},{"rt":null,"stimulus":"<p style=\"font-size: 50px; margin: 0; text-align: center;\">+</p>","response":null,"trial_type":"html-keyboard-response","trial_index":151,"plugin_version":"2.1.0","time_elapsed":859525,"subject_id":"91955","group":"Group2","condition":"3_Rep","full_date":"2026-01-24T17:49:30.892Z","date":"2026-01-24","time":"17:49:30"},{"task":"memory_phase","broad_category":"I","image_png":"I_Peridotite_13.png","image_id":125,"category_name":"Peridotite","category":8,"distinct_rating":7.28,"distinct_type":"Top","rt":null,"stimulus":"Stimuli_Rocks480/I_Peridotite_13.png","response":null,"trial_type":"image-keyboard-response","trial_index":152,"plugin_version":"2.1.0","time_elapsed":862029,"subject_id":"91955","group":"Group2","condition":"3_Rep","full_date":"2026-01-24T17:49:30.892Z","date":"2026-01-24","time":"17:49:30"},{"rt":null,"stimulus":"<p style=\"font-size: 50px; margin: 0; text-align: center;\">+</p>","response":null,"trial_type":"html-keyboard-response","trial_index":153,"plugin_version":"2.1.0","time_elapsed":863031,"subject_id":"91955","group":"Group2","condition":"3_Rep","full_date":"2026-01-24T17:49:30.892Z","date":"2026-01-24","time":"17:49:30"},{"task":"memory_phase","broad_category":"M","image_png":"M_Slate_14.png","image_id":318,"category_name":"Slate","category":20,"distinct_rating":2.58,"distinct_type":"Bottom","rt":null,"stimulus":"Stimuli_Rocks480/M_Slate_14.png","response":null,"trial_type":"image-keyboard-response","trial_index":154,"plugin_version":"2.1.0","time_elapsed":865536,"subject_id":"91955","group":"Group2","condition":"3_Rep","full_date":"2026-01-24T17:49:30.892Z","date":"2026-01-24","time":"17:49:30"},{"rt":null,"stimulus":"<p style=\"font-size: 50px; margin: 0; text-align: center;\">+</p>","response":null,"trial_type":"html-keyboard-response","trial_index":155,"plugin_version":"2.1.0","time_elapsed":866539,"subject_id":"91955","group":"Group2","condition":"3_Rep","full_date":"2026-01-24T17:49:30.892Z","date":"2026-01-24","time":"17:49:30"},{"task":"memory_phase","broad_category":"I","image_png":"I_Obsidian_06.png","image_id":86,"category_name":"Obsidian","category":6,"distinct_rating":8.01,"distinct_type":"Top","rt":null,"stimulus":"Stimuli_Rocks480/I_Obsidian_06.png","response":null,"trial_type":"image-keyboard-response","trial_index":156,"plugin_version":"2.1.0","time_elapsed":869043,"subject_id":"91955","group":"Group2","condition":"3_Rep","full_date":"2026-01-24T17:49:30.892Z","date":"2026-01-24","time":"17:49:30"},{"rt":21292,"stimulus":"<p style=\"max-width: 760px; margin: auto; font-size: 35px; line-height: 1.5;\">\n                Press SPACE to continue study phase\n              </p>","response":" ","trial_type":"html-keyboard-response","trial_index":157,"plugin_version":"2.1.0","time_elapsed":890336,"subject_id":"91955","group":"Group2","condition":"3_Rep","full_date":"2026-01-24T17:49:30.892Z","date":"2026-01-24","time":"17:49:30"},{"rt":null,"stimulus":"<p style=\"font-size: 50px; margin: 0; text-align: center;\">+</p>","response":null,"trial_type":"html-keyboard-response","trial_index":158,"plugin_version":"2.1.0","time_elapsed":891339,"subject_id":"91955","group":"Group2","condition":"3_Rep","full_date":"2026-01-24T17:49:30.892Z","date":"2026-01-24","time":"17:49:30"},{"task":"memory_phase","broad_category":"M","image_png":"M_Gneiss_15.png","image_id":207,"category_name":"Gneiss","category":13,"distinct_rating":3.11,"distinct_type":"Bottom","rt":null,"stimulus":"Stimuli_Rocks480/M_Gneiss_15.png","response":null,"trial_type":"image-keyboard-response","trial_index":159,"plugin_version":"2.1.0","time_elapsed":893843,"subject_id":"91955","group":"Group2","condition":"3_Rep","full_date":"2026-01-24T17:49:30.892Z","date":"2026-01-24","time":"17:49:30"},{"rt":null,"stimulus":"<p style=\"font-size: 50px; margin: 0; text-align: center;\">+</p>","response":null,"trial_type":"html-keyboard-response","trial_index":160,"plugin_version":"2.1.0","time_elapsed":894846,"subject_id":"91955","group":"Group2","condition":"3_Rep","full_date":"2026-01-24T17:49:30.892Z","date":"2026-01-24","time":"17:49:30"},{"task":"memory_phase","broad_category":"I","image_png":"I_Gabbro_12.png","image_id":60,"category_name":"Gabbro","category":4,"distinct_rating":2.6,"distinct_type":"Bottom","rt":null,"stimulus":"Stimuli_Rocks480/I_Gabbro_12.png","response":null,"trial_type":"image-keyboard-response","trial_index":161,"plugin_version":"2.1.0","time_elapsed":897350,"subject_id":"91955","group":"Group2","condition":"3_Rep","full_date":"2026-01-24T17:49:30.892Z","date":"2026-01-24","time":"17:49:30"},{"rt":null,"stimulus":"<p style=\"font-size: 50px; margin: 0; text-align: center;\">+</p>","response":null,"trial_type":"html-keyboard-response","trial_index":162,"plugin_version":"2.1.0","time_elapsed":898352,"subject_id":"91955","group":"Group2","condition":"3_Rep","full_date":"2026-01-24T17:49:30.892Z","date":"2026-01-24","time":"17:49:30"},{"task":"memory_phase","broad_category":"M","image_png":"M_Quartzite_07.png","image_id":279,"category_name":"Quartzite","category":18,"distinct_rating":1.97,"distinct_type":"Bottom","rt":null,"stimulus":"Stimuli_Rocks480/M_Quartzite_07.png","response":null,"trial_type":"image-keyboard-response","trial_index":163,"plugin_version":"2.1.0","time_elapsed":900856,"subject_id":"91955","group":"Group2","condition":"3_Rep","full_date":"2026-01-24T17:49:30.892Z","date":"2026-01-24","time":"17:49:30"},{"rt":null,"stimulus":"<p style=\"font-size: 50px; margin: 0; text-align: center;\">+</p>","response":null,"trial_type":"html-keyboard-response","trial_index":164,"plugin_version":"2.1.0","time_elapsed":901859,"subject_id":"91955","group":"Group2","condition":"3_Rep","full_date":"2026-01-24T17:49:30.892Z","date":"2026-01-24","time":"17:49:30"},{"task":"memory_phase","broad_category":"I","image_png":"I_Pegmatite_03.png","image_id":99,"category_name":"Pegmatite","category":7,"distinct_rating":7.24,"distinct_type":"Top","rt":null,"stimulus":"Stimuli_Rocks480/I_Pegmatite_03.png","response":null,"trial_type":"image-keyboard-response","trial_index":165,"plugin_version":"2.1.0","time_elapsed":904363,"subject_id":"91955","group":"Group2","condition":"3_Rep","full_date":"2026-01-24T17:49:30.892Z","date":"2026-01-24","time":"17:49:30"},{"rt":null,"stimulus":"<p style=\"font-size: 50px; margin: 0; text-align: center;\">+</p>","response":null,"trial_type":"html-keyboard-response","trial_index":166,"plugin_version":"2.1.0","time_elapsed":905365,"subject_id":"91955","group":"Group2","condition":"3_Rep","full_date":"2026-01-24T17:49:30.892Z","date":"2026-01-24","time":"17:49:30"},{"task":"memory_phase","broad_category":"I","image_png":"I_Diorite_10.png","image_id":42,"category_name":"Diorite","category":3,"distinct_rating":2.84,"distinct_type":"Bottom","rt":null,"stimulus":"Stimuli_Rocks480/I_Diorite_10.png","response":null,"trial_type":"image-keyboard-response","trial_index":167,"plugin_version":"2.1.0","time_elapsed":907869,"subject_id":"91955","group":"Group2","condition":"3_Rep","full_date":"2026-01-24T17:49:30.892Z","date":"2026-01-24","time":"17:49:30"},{"rt":null,"stimulus":"<p style=\"font-size: 50px; margin: 0; text-align: center;\">+</p>","response":null,"trial_type":"html-keyboard-response","trial_index":168,"plugin_version":"2.1.0","time_elapsed":908872,"subject_id":"91955","group":"Group2","condition":"3_Rep","full_date":"2026-01-24T17:49:30.892Z","date":"2026-01-24","time":"17:49:30"},{"task":"memory_phase","broad_category":"I","image_png":"I_Basalt_08.png","image_id":24,"category_name":"Basalt","category":2,"distinct_rating":2.31,"distinct_type":"Bottom","rt":null,"stimulus":"Stimuli_Rocks480/I_Basalt_08.png","response":null,"trial_type":"image-keyboard-response","trial_index":169,"plugin_version":"2.1.0","time_elapsed":911376,"subject_id":"91955","group":"Group2","condition":"3_Rep","full_date":"2026-01-24T17:49:30.892Z","date":"2026-01-24","time":"17:49:30"},{"rt":null,"stimulus":"<p style=\"font-size: 50px; margin: 0; text-align: center;\">+</p>","response":null,"trial_type":"html-keyboard-response","trial_index":170,"plugin_version":"2.1.0","time_elapsed":912379,"subject_id":"91955","group":"Group2","condition":"3_Rep","full_date":"2026-01-24T17:49:30.892Z","date":"2026-01-24","time":"17:49:30"},{"task":"memory_phase","broad_category":"I","image_png":"I_Pumice_01.png","image_id":129,"category_name":"Pumice","category":9,"distinct_rating":3.25,"distinct_type":"Bottom","rt":null,"stimulus":"Stimuli_Rocks480/I_Pumice_01.png","response":null,"trial_type":"image-keyboard-response","trial_index":171,"plugin_version":"2.1.0","time_elapsed":914883,"subject_id":"91955","group":"Group2","condition":"3_Rep","full_date":"2026-01-24T17:49:30.892Z","date":"2026-01-24","time":"17:49:30"},{"rt":null,"stimulus":"<p style=\"font-size: 50px; margin: 0; text-align: center;\">+</p>","response":null,"trial_type":"html-keyboard-response","trial_index":172,"plugin_version":"2.1.0","time_elapsed":915886,"subject_id":"91955","group":"Group2","condition":"3_Rep","full_date":"2026-01-24T17:49:30.892Z","date":"2026-01-24","time":"17:49:30"},{"task":"memory_phase","broad_category":"S","image_png":"S_Dolomite_07.png","image_id":391,"category_name":"Dolomite","category":25,"distinct_rating":1.73,"distinct_type":"Bottom","rt":null,"stimulus":"Stimuli_Rocks480/S_Dolomite_07.png","response":null,"trial_type":"image-keyboard-response","trial_index":173,"plugin_version":"2.1.0","time_elapsed":918390,"subject_id":"91955","group":"Group2","condition":"3_Rep","full_date":"2026-01-24T17:49:30.892Z","date":"2026-01-24","time":"17:49:30"},{"rt":null,"stimulus":"<p style=\"font-size: 50px; margin: 0; text-align: center;\">+</p>","response":null,"trial_type":"html-keyboard-response","trial_index":174,"plugin_version":"2.1.0","time_elapsed":919393,"subject_id":"91955","group":"Group2","condition":"3_Rep","full_date":"2026-01-24T17:49:30.892Z","date":"2026-01-24","time":"17:49:30"},{"task":"memory_phase","broad_category":"S","image_png":"S_Dolomite_01.png","image_id":385,"category_name":"Dolomite","category":25,"distinct_rating":1.43,"distinct_type":"Bottom","rt":null,"stimulus":"Stimuli_Rocks480/S_Dolomite_01.png","response":null,"trial_type":"image-keyboard-response","trial_index":175,"plugin_version":"2.1.0","time_elapsed":921897,"subject_id":"91955","group":"Group2","condition":"3_Rep","full_date":"2026-01-24T17:49:30.892Z","date":"2026-01-24","time":"17:49:30"},{"rt":null,"stimulus":"<p style=\"font-size: 50px; margin: 0; text-align: center;\">+</p>","response":null,"trial_type":"html-keyboard-response","trial_index":176,"plugin_version":"2.1.0","time_elapsed":922900,"subject_id":"91955","group":"Group2","condition":"3_Rep","full_date":"2026-01-24T17:49:30.892Z","date":"2026-01-24","time":"17:49:30"},{"task":"memory_phase","broad_category":"I","image_png":"I_Diorite_01.png","image_id":33,"category_name":"Diorite","category":3,"distinct_rating":2.97,"distinct_type":"Bottom","rt":null,"stimulus":"Stimuli_Rocks480/I_Diorite_01.png","response":null,"trial_type":"image-keyboard-response","trial_index":177,"plugin_version":"2.1.0","time_elapsed":925404,"subject_id":"91955","group":"Group2","condition":"3_Rep","full_date":"2026-01-24T17:49:30.892Z","date":"2026-01-24","time":"17:49:30"},{"rt":null,"stimulus":"<p style=\"font-size: 50px; margin: 0; text-align: center;\">+</p>","response":null,"trial_type":"html-keyboard-response","trial_index":178,"plugin_version":"2.1.0","time_elapsed":926406,"subject_id":"91955","group":"Group2","condition":"3_Rep","full_date":"2026-01-24T17:49:30.892Z","date":"2026-01-24","time":"17:49:30"},{"task":"memory_phase","broad_category":"M","image_png":"M_Slate_10.png","image_id":314,"category_name":"Slate","category":20,"distinct_rating":1.94,"distinct_type":"Bottom","rt":null,"stimulus":"Stimuli_Rocks480/M_Slate_10.png","response":null,"trial_type":"image-keyboard-response","trial_index":179,"plugin_version":"2.1.0","time_elapsed":928910,"subject_id":"91955","group":"Group2","condition":"3_Rep","full_date":"2026-01-24T17:49:30.892Z","date":"2026-01-24","time":"17:49:30"},{"rt":null,"stimulus":"<p style=\"font-size: 50px; margin: 0; text-align: center;\">+</p>","response":null,"trial_type":"html-keyboard-response","trial_index":180,"plugin_version":"2.1.0","time_elapsed":929913,"subject_id":"91955","group":"Group2","condition":"3_Rep","full_date":"2026-01-24T17:49:30.892Z","date":"2026-01-24","time":"17:49:30"},{"task":"memory_phase","broad_category":"S","image_png":"S_Rock Salt_15.png","image_id":447,"category_name":"Rock Salt","category":28,"distinct_rating":7.79,"distinct_type":"Top","rt":null,"stimulus":"Stimuli_Rocks480/S_Rock Salt_15.png","response":null,"trial_type":"image-keyboard-response","trial_index":181,"plugin_version":"2.1.0","time_elapsed":932417,"subject_id":"91955","group":"Group2","condition":"3_Rep","full_date":"2026-01-24T17:49:30.892Z","date":"2026-01-24","time":"17:49:30"},{"rt":null,"stimulus":"<p style=\"font-size: 50px; margin: 0; text-align: center;\">+</p>","response":null,"trial_type":"html-keyboard-response","trial_index":182,"plugin_version":"2.1.0","time_elapsed":933420,"subject_id":"91955","group":"Group2","condition":"3_Rep","full_date":"2026-01-24T17:49:30.892Z","date":"2026-01-24","time":"17:49:30"},{"task":"memory_phase","broad_category":"S","image_png":"S_Shale_02.png","image_id":466,"category_name":"Shale","category":30,"distinct_rating":2.9,"distinct_type":"Bottom","rt":null,"stimulus":"Stimuli_Rocks480/S_Shale_02.png","response":null,"trial_type":"image-keyboard-response","trial_index":183,"plugin_version":"2.1.0","time_elapsed":935925,"subject_id":"91955","group":"Group2","condition":"3_Rep","full_date":"2026-01-24T17:49:30.892Z","date":"2026-01-24","time":"17:49:30"},{"rt":null,"stimulus":"<p style=\"font-size: 50px; margin: 0; text-align: center;\">+</p>","response":null,"trial_type":"html-keyboard-response","trial_index":184,"plugin_version":"2.1.0","time_elapsed":936927,"subject_id":"91955","group":"Group2","condition":"3_Rep","full_date":"2026-01-24T17:49:30.892Z","date":"2026-01-24","time":"17:49:30"},{"task":"memory_phase","broad_category":"S","image_png":"S_Shale_03.png","image_id":467,"category_name":"Shale","category":30,"distinct_rating":1.95,"distinct_type":"Bottom","rt":null,"stimulus":"Stimuli_Rocks480/S_Shale_03.png","response":null,"trial_type":"image-keyboard-response","trial_index":185,"plugin_version":"2.1.0","time_elapsed":939431,"subject_id":"91955","group":"Group2","condition":"3_Rep","full_date":"2026-01-24T17:49:30.892Z","date":"2026-01-24","time":"17:49:30"},{"rt":null,"stimulus":"<p style=\"font-size: 50px; margin: 0; text-align: center;\">+</p>","response":null,"trial_type":"html-keyboard-response","trial_index":186,"plugin_version":"2.1.0","time_elapsed":940433,"subject_id":"91955","group":"Group2","condition":"3_Rep","full_date":"2026-01-24T17:49:30.892Z","date":"2026-01-24","time":"17:49:30"},{"task":"memory_phase","broad_category":"M","image_png":"M_Marble_02.png","image_id":226,"category_name":"Marble","category":15,"distinct_rating":3.2,"distinct_type":"Bottom","rt":null,"stimulus":"Stimuli_Rocks480/M_Marble_02.png","response":null,"trial_type":"image-keyboard-response","trial_index":187,"plugin_version":"2.1.0","time_elapsed":942937,"subject_id":"91955","group":"Group2","condition":"3_Rep","full_date":"2026-01-24T17:49:30.892Z","date":"2026-01-24","time":"17:49:30"},{"rt":null,"stimulus":"<p style=\"font-size: 50px; margin: 0; text-align: center;\">+</p>","response":null,"trial_type":"html-keyboard-response","trial_index":188,"plugin_version":"2.1.0","time_elapsed":943941,"subject_id":"91955","group":"Group2","condition":"3_Rep","full_date":"2026-01-24T17:49:30.892Z","date":"2026-01-24","time":"17:49:30"},{"task":"memory_phase","broad_category":"M","image_png":"M_Marble_03.png","image_id":227,"category_name":"Marble","category":15,"distinct_rating":2.67,"distinct_type":"Bottom","rt":null,"stimulus":"Stimuli_Rocks480/M_Marble_03.png","response":null,"trial_type":"image-keyboard-response","trial_index":189,"plugin_version":"2.1.0","time_elapsed":946445,"subject_id":"91955","group":"Group2","condition":"3_Rep","full_date":"2026-01-24T17:49:30.892Z","date":"2026-01-24","time":"17:49:30"},{"rt":null,"stimulus":"<p style=\"font-size: 50px; margin: 0; text-align: center;\">+</p>","response":null,"trial_type":"html-keyboard-response","trial_index":190,"plugin_version":"2.1.0","time_elapsed":947447,"subject_id":"91955","group":"Group2","condition":"3_Rep","full_date":"2026-01-24T17:49:30.892Z","date":"2026-01-24","time":"17:49:30"},{"task":"memory_phase","broad_category":"M","image_png":"M_Marble_14.png","image_id":238,"category_name":"Marble","category":15,"distinct_rating":3.31,"distinct_type":"Bottom","rt":null,"stimulus":"Stimuli_Rocks480/M_Marble_14.png","response":null,"trial_type":"image-keyboard-response","trial_index":191,"plugin_version":"2.1.0","time_elapsed":949951,"subject_id":"91955","group":"Group2","condition":"3_Rep","full_date":"2026-01-24T17:49:30.892Z","date":"2026-01-24","time":"17:49:30"},{"rt":null,"stimulus":"<p style=\"font-size: 50px; margin: 0; text-align: center;\">+</p>","response":null,"trial_type":"html-keyboard-response","trial_index":192,"plugin_version":"2.1.0","time_elapsed":950954,"subject_id":"91955","group":"Group2","condition":"3_Rep","full_date":"2026-01-24T17:49:30.892Z","date":"2026-01-24","time":"17:49:30"},{"task":"memory_phase","broad_category":"M","image_png":"M_Quartzite_12.png","image_id":284,"category_name":"Quartzite","category":18,"distinct_rating":1.92,"distinct_type":"Bottom","rt":null,"stimulus":"Stimuli_Rocks480/M_Quartzite_12.png","response":null,"trial_type":"image-keyboard-response","trial_index":193,"plugin_version":"2.1.0","time_elapsed":953458,"subject_id":"91955","group":"Group2","condition":"3_Rep","full_date":"2026-01-24T17:49:30.892Z","date":"2026-01-24","time":"17:49:30"},{"rt":null,"stimulus":"<p style=\"font-size: 50px; margin: 0; text-align: center;\">+</p>","response":null,"trial_type":"html-keyboard-response","trial_index":194,"plugin_version":"2.1.0","time_elapsed":954461,"subject_id":"91955","group":"Group2","condition":"3_Rep","full_date":"2026-01-24T17:49:30.892Z","date":"2026-01-24","time":"17:49:30"},{"task":"memory_phase","broad_category":"M","image_png":"M_Phyllite_02.png","image_id":258,"category_name":"Phyllite","category":17,"distinct_rating":2.89,"distinct_type":"Bottom","rt":null,"stimulus":"Stimuli_Rocks480/M_Phyllite_02.png","response":null,"trial_type":"image-keyboard-response","trial_index":195,"plugin_version":"2.1.0","time_elapsed":956965,"subject_id":"91955","group":"Group2","condition":"3_Rep","full_date":"2026-01-24T17:49:30.892Z","date":"2026-01-24","time":"17:49:30"},{"rt":null,"stimulus":"<p style=\"font-size: 50px; margin: 0; text-align: center;\">+</p>","response":null,"trial_type":"html-keyboard-response","trial_index":196,"plugin_version":"2.1.0","time_elapsed":957969,"subject_id":"91955","group":"Group2","condition":"3_Rep","full_date":"2026-01-24T17:49:30.892Z","date":"2026-01-24","time":"17:49:30"},{"task":"memory_phase","broad_category":"I","image_png":"I_Rhyolite_05.png","image_id":149,"category_name":"Rhyolite","category":10,"distinct_rating":3.02,"distinct_type":"Bottom","rt":null,"stimulus":"Stimuli_Rocks480/I_Rhyolite_05.png","response":null,"trial_type":"image-keyboard-response","trial_index":197,"plugin_version":"2.1.0","time_elapsed":960472,"subject_id":"91955","group":"Group2","condition":"3_Rep","full_date":"2026-01-24T17:49:30.892Z","date":"2026-01-24","time":"17:49:30"},{"rt":null,"stimulus":"<p style=\"font-size: 50px; margin: 0; text-align: center;\">+</p>","response":null,"trial_type":"html-keyboard-response","trial_index":198,"plugin_version":"2.1.0","time_elapsed":961475,"subject_id":"91955","group":"Group2","condition":"3_Rep","full_date":"2026-01-24T17:49:30.892Z","date":"2026-01-24","time":"17:49:30"},{"task":"memory_phase","broad_category":"M","image_png":"M_Phyllite_05.png","image_id":261,"category_name":"Phyllite","category":17,"distinct_rating":2.14,"distinct_type":"Bottom","rt":null,"stimulus":"Stimuli_Rocks480/M_Phyllite_05.png","response":null,"trial_type":"image-keyboard-response","trial_index":199,"plugin_version":"2.1.0","time_elapsed":963979,"subject_id":"91955","group":"Group2","condition":"3_Rep","full_date":"2026-01-24T17:49:30.892Z","date":"2026-01-24","time":"17:49:30"},{"rt":null,"stimulus":"<p style=\"font-size: 50px; margin: 0; text-align: center;\">+</p>","response":null,"trial_type":"html-keyboard-response","trial_index":200,"plugin_version":"2.1.0","time_elapsed":964982,"subject_id":"91955","group":"Group2","condition":"3_Rep","full_date":"2026-01-24T17:49:30.892Z","date":"2026-01-24","time":"17:49:30"},{"task":"memory_phase","broad_category":"I","image_png":"I_Gabbro_14.png","image_id":62,"category_name":"Gabbro","category":4,"distinct_rating":2.95,"distinct_type":"Bottom","rt":null,"stimulus":"Stimuli_Rocks480/I_Gabbro_14.png","response":null,"trial_type":"image-keyboard-response","trial_index":201,"plugin_version":"2.1.0","time_elapsed":967487,"subject_id":"91955","group":"Group2","condition":"3_Rep","full_date":"2026-01-24T17:49:30.892Z","date":"2026-01-24","time":"17:49:30"},{"rt":null,"stimulus":"<p style=\"font-size: 50px; margin: 0; text-align: center;\">+</p>","response":null,"trial_type":"html-keyboard-response","trial_index":202,"plugin_version":"2.1.0","time_elapsed":968490,"subject_id":"91955","group":"Group2","condition":"3_Rep","full_date":"2026-01-24T17:49:30.892Z","date":"2026-01-24","time":"17:49:30"},{"task":"memory_phase","broad_category":"I","image_png":"I_Andesite_04.png","image_id":4,"category_name":"Andesite","category":1,"distinct_rating":3.18,"distinct_type":"Bottom","rt":null,"stimulus":"Stimuli_Rocks480/I_Andesite_04.png","response":null,"trial_type":"image-keyboard-response","trial_index":203,"plugin_version":"2.1.0","time_elapsed":970994,"subject_id":"91955","group":"Group2","condition":"3_Rep","full_date":"2026-01-24T17:49:30.892Z","date":"2026-01-24","time":"17:49:30"},{"rt":null,"stimulus":"<p style=\"font-size: 50px; margin: 0; text-align: center;\">+</p>","response":null,"trial_type":"html-keyboard-response","trial_index":204,"plugin_version":"2.1.0","time_elapsed":971997,"subject_id":"91955","group":"Group2","condition":"3_Rep","full_date":"2026-01-24T17:49:30.892Z","date":"2026-01-24","time":"17:49:30"},{"task":"memory_phase","broad_category":"I","image_png":"I_Rhyolite_08.png","image_id":152,"category_name":"Rhyolite","category":10,"distinct_rating":1.38,"distinct_type":"Bottom","rt":null,"stimulus":"Stimuli_Rocks480/I_Rhyolite_08.png","response":null,"trial_type":"image-keyboard-response","trial_index":205,"plugin_version":"2.1.0","time_elapsed":974501,"subject_id":"91955","group":"Group2","condition":"3_Rep","full_date":"2026-01-24T17:49:30.892Z","date":"2026-01-24","time":"17:49:30"},{"rt":null,"stimulus":"<p style=\"font-size: 50px; margin: 0; text-align: center;\">+</p>","response":null,"trial_type":"html-keyboard-response","trial_index":206,"plugin_version":"2.1.0","time_elapsed":975503,"subject_id":"91955","group":"Group2","condition":"3_Rep","full_date":"2026-01-24T17:49:30.892Z","date":"2026-01-24","time":"17:49:30"},{"task":"memory_phase","broad_category":"S","image_png":"S_Chert_13.png","image_id":365,"category_name":"Chert","category":23,"distinct_rating":6.57,"distinct_type":"Top","rt":null,"stimulus":"Stimuli_Rocks480/S_Chert_13.png","response":null,"trial_type":"image-keyboard-response","trial_index":207,"plugin_version":"2.1.0","time_elapsed":978007,"subject_id":"91955","group":"Group2","condition":"3_Rep","full_date":"2026-01-24T17:49:30.892Z","date":"2026-01-24","time":"17:49:30"},{"rt":6029,"stimulus":"<p style=\"max-width: 760px; margin: auto; font-size: 35px; line-height: 1.5;\">\n                You have completed 2 study phases. \n                Now, we'll show you all the images again 1 more time.\n                <br><br>Press SPACE to continue\n              </p>","response":" ","trial_type":"html-keyboard-response","trial_index":208,"plugin_version":"2.1.0","time_elapsed":984038,"subject_id":"91955","group":"Group2","condition":"3_Rep","full_date":"2026-01-24T17:49:30.892Z","date":"2026-01-24","time":"17:49:30"},{"rt":null,"stimulus":"<p style=\"font-size: 50px; margin: 0; text-align: center;\">+</p>","response":null,"trial_type":"html-keyboard-response","trial_index":209,"plugin_version":"2.1.0","time_elapsed":985041,"subject_id":"91955","group":"Group2","condition":"3_Rep","full_date":"2026-01-24T17:49:30.892Z","date":"2026-01-24","time":"17:49:30"},{"task":"memory_phase","broad_category":"S","image_png":"S_Chert_13.png","image_id":365,"category_name":"Chert","category":23,"distinct_rating":6.57,"distinct_type":"Top","rt":null,"stimulus":"Stimuli_Rocks480/S_Chert_13.png","response":null,"trial_type":"image-keyboard-response","trial_index":210,"plugin_version":"2.1.0","time_elapsed":987545,"subject_id":"91955","group":"Group2","condition":"3_Rep","full_date":"2026-01-24T17:49:30.892Z","date":"2026-01-24","time":"17:49:30"},{"rt":null,"stimulus":"<p style=\"font-size: 50px; margin: 0; text-align: center;\">+</p>","response":null,"trial_type":"html-keyboard-response","trial_index":211,"plugin_version":"2.1.0","time_elapsed":988548,"subject_id":"91955","group":"Group2","condition":"3_Rep","full_date":"2026-01-24T17:49:30.892Z","date":"2026-01-24","time":"17:49:30"},{"task":"memory_phase","broad_category":"I","image_png":"I_Pumice_01.png","image_id":129,"category_name":"Pumice","category":9,"distinct_rating":3.25,"distinct_type":"Bottom","rt":null,"stimulus":"Stimuli_Rocks480/I_Pumice_01.png","response":null,"trial_type":"image-keyboard-response","trial_index":212,"plugin_version":"2.1.0","time_elapsed":991052,"subject_id":"91955","group":"Group2","condition":"3_Rep","full_date":"2026-01-24T17:49:30.892Z","date":"2026-01-24","time":"17:49:30"},{"rt":null,"stimulus":"<p style=\"font-size: 50px; margin: 0; text-align: center;\">+</p>","response":null,"trial_type":"html-keyboard-response","trial_index":213,"plugin_version":"2.1.0","time_elapsed":992055,"subject_id":"91955","group":"Group2","condition":"3_Rep","full_date":"2026-01-24T17:49:30.892Z","date":"2026-01-24","time":"17:49:30"},{"task":"memory_phase","broad_category":"S","image_png":"S_Dolomite_16.png","image_id":400,"category_name":"Dolomite","category":25,"distinct_rating":1.71,"distinct_type":"Bottom","rt":null,"stimulus":"Stimuli_Rocks480/S_Dolomite_16.png","response":null,"trial_type":"image-keyboard-response","trial_index":214,"plugin_version":"2.1.0","time_elapsed":994560,"subject_id":"91955","group":"Group2","condition":"3_Rep","full_date":"2026-01-24T17:49:30.892Z","date":"2026-01-24","time":"17:49:30"},{"rt":null,"stimulus":"<p style=\"font-size: 50px; margin: 0; text-align: center;\">+</p>","response":null,"trial_type":"html-keyboard-response","trial_index":215,"plugin_version":"2.1.0","time_elapsed":995562,"subject_id":"91955","group":"Group2","condition":"3_Rep","full_date":"2026-01-24T17:49:30.892Z","date":"2026-01-24","time":"17:49:30"},{"task":"memory_phase","broad_category":"I","image_png":"I_Diorite_10.png","image_id":42,"category_name":"Diorite","category":3,"distinct_rating":2.84,"distinct_type":"Bottom","rt":null,"stimulus":"Stimuli_Rocks480/I_Diorite_10.png","response":null,"trial_type":"image-keyboard-response","trial_index":216,"plugin_version":"2.1.0","time_elapsed":998066,"subject_id":"91955","group":"Group2","condition":"3_Rep","full_date":"2026-01-24T17:49:30.892Z","date":"2026-01-24","time":"17:49:30"},{"rt":null,"stimulus":"<p style=\"font-size: 50px; margin: 0; text-align: center;\">+</p>","response":null,"trial_type":"html-keyboard-response","trial_index":217,"plugin_version":"2.1.0","time_elapsed":999069,"subject_id":"91955","group":"Group2","condition":"3_Rep","full_date":"2026-01-24T17:49:30.892Z","date":"2026-01-24","time":"17:49:30"},{"task":"memory_phase","broad_category":"I","image_png":"I_Andesite_09.png","image_id":9,"category_name":"Andesite","category":1,"distinct_rating":2.49,"distinct_type":"Bottom","rt":null,"stimulus":"Stimuli_Rocks480/I_Andesite_09.png","response":null,"trial_type":"image-keyboard-response","trial_index":218,"plugin_version":"2.1.0","time_elapsed":1001572,"subject_id":"91955","group":"Group2","condition":"3_Rep","full_date":"2026-01-24T17:49:30.892Z","date":"2026-01-24","time":"17:49:30"},{"rt":null,"stimulus":"<p style=\"font-size: 50px; margin: 0; text-align: center;\">+</p>","response":null,"trial_type":"html-keyboard-response","trial_index":219,"plugin_version":"2.1.0","time_elapsed":1002575,"subject_id":"91955","group":"Group2","condition":"3_Rep","full_date":"2026-01-24T17:49:30.892Z","date":"2026-01-24","time":"17:49:30"},{"task":"memory_phase","broad_category":"M","image_png":"M_Slate_14.png","image_id":318,"category_name":"Slate","category":20,"distinct_rating":2.58,"distinct_type":"Bottom","rt":null,"stimulus":"Stimuli_Rocks480/M_Slate_14.png","response":null,"trial_type":"image-keyboard-response","trial_index":220,"plugin_version":"2.1.0","time_elapsed":1005079,"subject_id":"91955","group":"Group2","condition":"3_Rep","full_date":"2026-01-24T17:49:30.892Z","date":"2026-01-24","time":"17:49:30"},{"rt":null,"stimulus":"<p style=\"font-size: 50px; margin: 0; text-align: center;\">+</p>","response":null,"trial_type":"html-keyboard-response","trial_index":221,"plugin_version":"2.1.0","time_elapsed":1006082,"subject_id":"91955","group":"Group2","condition":"3_Rep","full_date":"2026-01-24T17:49:30.892Z","date":"2026-01-24","time":"17:49:30"},{"task":"memory_phase","broad_category":"M","image_png":"M_Quartzite_15.png","image_id":287,"category_name":"Quartzite","category":18,"distinct_rating":2.19,"distinct_type":"Bottom","rt":null,"stimulus":"Stimuli_Rocks480/M_Quartzite_15.png","response":null,"trial_type":"image-keyboard-response","trial_index":222,"plugin_version":"2.1.0","time_elapsed":1008586,"subject_id":"91955","group":"Group2","condition":"3_Rep","full_date":"2026-01-24T17:49:30.892Z","date":"2026-01-24","time":"17:49:30"},{"rt":null,"stimulus":"<p style=\"font-size: 50px; margin: 0; text-align: center;\">+</p>","response":null,"trial_type":"html-keyboard-response","trial_index":223,"plugin_version":"2.1.0","time_elapsed":1009589,"subject_id":"91955","group":"Group2","condition":"3_Rep","full_date":"2026-01-24T17:49:30.892Z","date":"2026-01-24","time":"17:49:30"},{"task":"memory_phase","broad_category":"I","image_png":"I_Obsidian_06.png","image_id":86,"category_name":"Obsidian","category":6,"distinct_rating":8.01,"distinct_type":"Top","rt":null,"stimulus":"Stimuli_Rocks480/I_Obsidian_06.png","response":null,"trial_type":"image-keyboard-response","trial_index":224,"plugin_version":"2.1.0","time_elapsed":1012093,"subject_id":"91955","group":"Group2","condition":"3_Rep","full_date":"2026-01-24T17:49:30.892Z","date":"2026-01-24","time":"17:49:30"},{"rt":null,"stimulus":"<p style=\"font-size: 50px; margin: 0; text-align: center;\">+</p>","response":null,"trial_type":"html-keyboard-response","trial_index":225,"plugin_version":"2.1.0","time_elapsed":1013096,"subject_id":"91955","group":"Group2","condition":"3_Rep","full_date":"2026-01-24T17:49:30.892Z","date":"2026-01-24","time":"17:49:30"},{"task":"memory_phase","broad_category":"M","image_png":"M_Phyllite_02.png","image_id":258,"category_name":"Phyllite","category":17,"distinct_rating":2.89,"distinct_type":"Bottom","rt":null,"stimulus":"Stimuli_Rocks480/M_Phyllite_02.png","response":null,"trial_type":"image-keyboard-response","trial_index":226,"plugin_version":"2.1.0","time_elapsed":1015605,"subject_id":"91955","group":"Group2","condition":"3_Rep","full_date":"2026-01-24T17:49:30.892Z","date":"2026-01-24","time":"17:49:30"},{"rt":null,"stimulus":"<p style=\"font-size: 50px; margin: 0; text-align: center;\">+</p>","response":null,"trial_type":"html-keyboard-response","trial_index":227,"plugin_version":"2.1.0","time_elapsed":1016608,"subject_id":"91955","group":"Group2","condition":"3_Rep","full_date":"2026-01-24T17:49:30.892Z","date":"2026-01-24","time":"17:49:30"},{"task":"memory_phase","broad_category":"I","image_png":"I_Pegmatite_11.png","image_id":107,"category_name":"Pegmatite","category":7,"distinct_rating":7.11,"distinct_type":"Top","rt":null,"stimulus":"Stimuli_Rocks480/I_Pegmatite_11.png","response":null,"trial_type":"image-keyboard-response","trial_index":228,"plugin_version":"2.1.0","time_elapsed":1019112,"subject_id":"91955","group":"Group2","condition":"3_Rep","full_date":"2026-01-24T17:49:30.892Z","date":"2026-01-24","time":"17:49:30"},{"rt":null,"stimulus":"<p style=\"font-size: 50px; margin: 0; text-align: center;\">+</p>","response":null,"trial_type":"html-keyboard-response","trial_index":229,"plugin_version":"2.1.0","time_elapsed":1020114,"subject_id":"91955","group":"Group2","condition":"3_Rep","full_date":"2026-01-24T17:49:30.892Z","date":"2026-01-24","time":"17:49:30"},{"task":"memory_phase","broad_category":"M","image_png":"M_Slate_04.png","image_id":308,"category_name":"Slate","category":20,"distinct_rating":2.2,"distinct_type":"Bottom","rt":null,"stimulus":"Stimuli_Rocks480/M_Slate_04.png","response":null,"trial_type":"image-keyboard-response","trial_index":230,"plugin_version":"2.1.0","time_elapsed":1022618,"subject_id":"91955","group":"Group2","condition":"3_Rep","full_date":"2026-01-24T17:49:30.892Z","date":"2026-01-24","time":"17:49:30"},{"rt":null,"stimulus":"<p style=\"font-size: 50px; margin: 0; text-align: center;\">+</p>","response":null,"trial_type":"html-keyboard-response","trial_index":231,"plugin_version":"2.1.0","time_elapsed":1023621,"subject_id":"91955","group":"Group2","condition":"3_Rep","full_date":"2026-01-24T17:49:30.892Z","date":"2026-01-24","time":"17:49:30"},{"task":"memory_phase","broad_category":"I","image_png":"I_Pumice_14.png","image_id":142,"category_name":"Pumice","category":9,"distinct_rating":3.22,"distinct_type":"Bottom","rt":null,"stimulus":"Stimuli_Rocks480/I_Pumice_14.png","response":null,"trial_type":"image-keyboard-response","trial_index":232,"plugin_version":"2.1.0","time_elapsed":1026125,"subject_id":"91955","group":"Group2","condition":"3_Rep","full_date":"2026-01-24T17:49:30.892Z","date":"2026-01-24","time":"17:49:30"},{"rt":null,"stimulus":"<p style=\"font-size: 50px; margin: 0; text-align: center;\">+</p>","response":null,"trial_type":"html-keyboard-response","trial_index":233,"plugin_version":"2.1.0","time_elapsed":1027127,"subject_id":"91955","group":"Group2","condition":"3_Rep","full_date":"2026-01-24T17:49:30.892Z","date":"2026-01-24","time":"17:49:30"},{"task":"memory_phase","broad_category":"M","image_png":"M_Quartzite_07.png","image_id":279,"category_name":"Quartzite","category":18,"distinct_rating":1.97,"distinct_type":"Bottom","rt":null,"stimulus":"Stimuli_Rocks480/M_Quartzite_07.png","response":null,"trial_type":"image-keyboard-response","trial_index":234,"plugin_version":"2.1.0","time_elapsed":1029631,"subject_id":"91955","group":"Group2","condition":"3_Rep","full_date":"2026-01-24T17:49:30.892Z","date":"2026-01-24","time":"17:49:30"},{"rt":null,"stimulus":"<p style=\"font-size: 50px; margin: 0; text-align: center;\">+</p>","response":null,"trial_type":"html-keyboard-response","trial_index":235,"plugin_version":"2.1.0","time_elapsed":1030634,"subject_id":"91955","group":"Group2","condition":"3_Rep","full_date":"2026-01-24T17:49:30.892Z","date":"2026-01-24","time":"17:49:30"},{"task":"memory_phase","broad_category":"S","image_png":"S_Dolomite_01.png","image_id":385,"category_name":"Dolomite","category":25,"distinct_rating":1.43,"distinct_type":"Bo