[{"width":1440,"height":812,"webaudio":true,"browser":"chrome","browser_version":"144.0.0","mobile":false,"os":"Mac OS","fullscreen":true,"vsync_rate":60.3,"webcam":true,"microphone":true,"trial_type":"browser-check","trial_index":0,"plugin_version":"2.1.0","time_elapsed":1004,"subject_id":"91918","group":"Group1","condition":"1_Rep","full_date":"2026-02-17T20:05:02.120Z","date":"2026-02-17","time":"20:05:02"},{"success":true,"timeout":false,"failed_images":[],"failed_audio":[],"failed_video":[],"trial_type":"preload","trial_index":1,"plugin_version":"2.1.0","time_elapsed":1110,"subject_id":"91918","group":"Group1","condition":"1_Rep","full_date":"2026-02-17T20:05:02.120Z","date":"2026-02-17","time":"20:05:02"},{"rt":3721,"url":"SONA_consent_memorability.html","trial_type":"external-html","trial_index":2,"plugin_version":"2.1.0","time_elapsed":4834,"subject_id":"91918","group":"Group1","condition":"1_Rep","full_date":"2026-02-17T20:05:02.120Z","date":"2026-02-17","time":"20:05:02"},{"success":true,"rt":1597,"trial_type":"fullscreen","trial_index":3,"plugin_version":"2.1.0","time_elapsed":7436,"subject_id":"91918","group":"Group1","condition":"1_Rep","full_date":"2026-02-17T20:05:02.120Z","date":"2026-02-17","time":"20:05:02"},{"rt":1260,"stimulus":"<div style=\"max-width: 760px; margin: auto; font-size: 20px; line-height: 1.5;\">\n      <h1 style=\"text-align:center; font-size: 30px;\">Instructions</h1>\n      <p>\n        Welcome to the study on <b>visual memory</b>. This experiment consists of <b>two phases</b>: \n        a <b>study phase</b> and a <b>test phase</b>.\n      </p>\n      <p>\n        In the study phase, you will see a series of rock images along with their category labels.\n        The images will appear one at a time.\n        <b>Your task</b> is to learn the categories to which the rock images belong \n        and to remember each image as accurately as possible.\n      </p> \n      <p>\n        Note that you will see each image only <b>once</b> during the study phase. \n          So, please pay close attention and try to remember each image carefully.\n      </p>\n      <p>\n        After the study phase, <b>your memory will be tested</b>. \n        Additional instructions for the test phase will be provided at that time.\n      </p>\n      <p>\n        If your computer has multiple <b>language settings</b> (e.g., English and another language),\n        please make sure it is set to English before starting.\n      </p>\n      <p>\n        You can track your progress using the <b>completion bar</b> at the top of the screen. \n        Please note that the bar will refresh when the test phase begins \n        to give you an accurate sense of your progress in both phases.\n      </p> \n      <p>\n        Press the button below when you are ready to begin.\n      </p>\n    </div>","response":0,"trial_type":"html-button-response","trial_index":4,"plugin_version":"2.1.0","time_elapsed":8699,"subject_id":"91918","group":"Group1","condition":"1_Rep","full_date":"2026-02-17T20:05:02.120Z","date":"2026-02-17","time":"20:05:02"},{"rt":null,"stimulus":"<p style=\"font-size: 50px; margin: 0; text-align: center;\">+</p>","response":null,"trial_type":"html-keyboard-response","trial_index":5,"plugin_version":"2.1.0","time_elapsed":9703,"subject_id":"91918","group":"Group1","condition":"1_Rep","full_date":"2026-02-17T20:05:02.120Z","date":"2026-02-17","time":"20:05:02"},{"task":"memory_phase","broad_category":"M","image_png":"M_Phyllite_07.png","image_id":263,"category_name":"Phyllite","category":17,"distinct_rating":2.59,"distinct_type":"Bottom","rt":null,"stimulus":"Stimuli_Rocks480/M_Phyllite_07.png","response":null,"trial_type":"image-keyboard-response","trial_index":6,"plugin_version":"2.1.0","time_elapsed":12210,"subject_id":"91918","group":"Group1","condition":"1_Rep","full_date":"2026-02-17T20:05:02.120Z","date":"2026-02-17","time":"20:05:02"},{"rt":null,"stimulus":"<p style=\"font-size: 50px; margin: 0; text-align: center;\">+</p>","response":null,"trial_type":"html-keyboard-response","trial_index":7,"plugin_version":"2.1.0","time_elapsed":13212,"subject_id":"91918","group":"Group1","condition":"1_Rep","full_date":"2026-02-17T20:05:02.120Z","date":"2026-02-17","time":"20:05:02"},{"task":"memory_phase","broad_category":"I","image_png":"I_Basalt_09.png","image_id":25,"category_name":"Basalt","category":2,"distinct_rating":1.89,"distinct_type":"Bottom","rt":null,"stimulus":"Stimuli_Rocks480/I_Basalt_09.png","response":null,"trial_type":"image-keyboard-response","trial_index":8,"plugin_version":"2.1.0","time_elapsed":15717,"subject_id":"91918","group":"Group1","condition":"1_Rep","full_date":"2026-02-17T20:05:02.120Z","date":"2026-02-17","time":"20:05:02"},{"rt":null,"stimulus":"<p style=\"font-size: 50px; margin: 0; text-align: center;\">+</p>","response":null,"trial_type":"html-keyboard-response","trial_index":9,"plugin_version":"2.1.0","time_elapsed":16720,"subject_id":"91918","group":"Group1","condition":"1_Rep","full_date":"2026-02-17T20:05:02.120Z","date":"2026-02-17","time":"20:05:02"},{"task":"memory_phase","broad_category":"M","image_png":"M_Slate_11.png","image_id":315,"category_name":"Slate","category":20,"distinct_rating":2.75,"distinct_type":"Bottom","rt":null,"stimulus":"Stimuli_Rocks480/M_Slate_11.png","response":null,"trial_type":"image-keyboard-response","trial_index":10,"plugin_version":"2.1.0","time_elapsed":19225,"subject_id":"91918","group":"Group1","condition":"1_Rep","full_date":"2026-02-17T20:05:02.120Z","date":"2026-02-17","time":"20:05:02"},{"rt":null,"stimulus":"<p style=\"font-size: 50px; margin: 0; text-align: center;\">+</p>","response":null,"trial_type":"html-keyboard-response","trial_index":11,"plugin_version":"2.1.0","time_elapsed":20228,"subject_id":"91918","group":"Group1","condition":"1_Rep","full_date":"2026-02-17T20:05:02.120Z","date":"2026-02-17","time":"20:05:02"},{"task":"memory_phase","broad_category":"I","image_png":"I_Andesite_10.png","image_id":10,"category_name":"Andesite","category":1,"distinct_rating":3.15,"distinct_type":"Bottom","rt":null,"stimulus":"Stimuli_Rocks480/I_Andesite_10.png","response":null,"trial_type":"image-keyboard-response","trial_index":12,"plugin_version":"2.1.0","time_elapsed":22732,"subject_id":"91918","group":"Group1","condition":"1_Rep","full_date":"2026-02-17T20:05:02.120Z","date":"2026-02-17","time":"20:05:02"},{"rt":null,"stimulus":"<p style=\"font-size: 50px; margin: 0; text-align: center;\">+</p>","response":null,"trial_type":"html-keyboard-response","trial_index":13,"plugin_version":"2.1.0","time_elapsed":23735,"subject_id":"91918","group":"Group1","condition":"1_Rep","full_date":"2026-02-17T20:05:02.120Z","date":"2026-02-17","time":"20:05:02"},{"task":"memory_phase","broad_category":"M","image_png":"M_Slate_03.png","image_id":307,"category_name":"Slate","category":20,"distinct_rating":1.87,"distinct_type":"Bottom","rt":null,"stimulus":"Stimuli_Rocks480/M_Slate_03.png","response":null,"trial_type":"image-keyboard-response","trial_index":14,"plugin_version":"2.1.0","time_elapsed":26239,"subject_id":"91918","group":"Group1","condition":"1_Rep","full_date":"2026-02-17T20:05:02.120Z","date":"2026-02-17","time":"20:05:02"},{"rt":null,"stimulus":"<p style=\"font-size: 50px; margin: 0; text-align: center;\">+</p>","response":null,"trial_type":"html-keyboard-response","trial_index":15,"plugin_version":"2.1.0","time_elapsed":27242,"subject_id":"91918","group":"Group1","condition":"1_Rep","full_date":"2026-02-17T20:05:02.120Z","date":"2026-02-17","time":"20:05:02"},{"task":"memory_phase","broad_category":"S","image_png":"S_Rock Salt_01.png","image_id":433,"category_name":"Rock Salt","category":28,"distinct_rating":7.18,"distinct_type":"Top","rt":null,"stimulus":"Stimuli_Rocks480/S_Rock Salt_01.png","response":null,"trial_type":"image-keyboard-response","trial_index":16,"plugin_version":"2.1.0","time_elapsed":29746,"subject_id":"91918","group":"Group1","condition":"1_Rep","full_date":"2026-02-17T20:05:02.120Z","date":"2026-02-17","time":"20:05:02"},{"rt":null,"stimulus":"<p style=\"font-size: 50px; margin: 0; text-align: center;\">+</p>","response":null,"trial_type":"html-keyboard-response","trial_index":17,"plugin_version":"2.1.0","time_elapsed":30749,"subject_id":"91918","group":"Group1","condition":"1_Rep","full_date":"2026-02-17T20:05:02.120Z","date":"2026-02-17","time":"20:05:02"},{"task":"memory_phase","broad_category":"I","image_png":"I_Rhyolite_16.png","image_id":160,"category_name":"Rhyolite","category":10,"distinct_rating":2.19,"distinct_type":"Bottom","rt":null,"stimulus":"Stimuli_Rocks480/I_Rhyolite_16.png","response":null,"trial_type":"image-keyboard-response","trial_index":18,"plugin_version":"2.1.0","time_elapsed":33254,"subject_id":"91918","group":"Group1","condition":"1_Rep","full_date":"2026-02-17T20:05:02.120Z","date":"2026-02-17","time":"20:05:02"},{"rt":null,"stimulus":"<p style=\"font-size: 50px; margin: 0; text-align: center;\">+</p>","response":null,"trial_type":"html-keyboard-response","trial_index":19,"plugin_version":"2.1.0","time_elapsed":34257,"subject_id":"91918","group":"Group1","condition":"1_Rep","full_date":"2026-02-17T20:05:02.120Z","date":"2026-02-17","time":"20:05:02"},{"task":"memory_phase","broad_category":"S","image_png":"S_Sandstone_16.png","image_id":464,"category_name":"Sandstone","category":29,"distinct_rating":1.93,"distinct_type":"Bottom","rt":null,"stimulus":"Stimuli_Rocks480/S_Sandstone_16.png","response":null,"trial_type":"image-keyboard-response","trial_index":20,"plugin_version":"2.1.0","time_elapsed":36762,"subject_id":"91918","group":"Group1","condition":"1_Rep","full_date":"2026-02-17T20:05:02.120Z","date":"2026-02-17","time":"20:05:02"},{"rt":null,"stimulus":"<p style=\"font-size: 50px; margin: 0; text-align: center;\">+</p>","response":null,"trial_type":"html-keyboard-response","trial_index":21,"plugin_version":"2.1.0","time_elapsed":37764,"subject_id":"91918","group":"Group1","condition":"1_Rep","full_date":"2026-02-17T20:05:02.120Z","date":"2026-02-17","time":"20:05:02"},{"task":"memory_phase","broad_category":"I","image_png":"I_Gabbro_16.png","image_id":64,"category_name":"Gabbro","category":4,"distinct_rating":2.52,"distinct_type":"Bottom","rt":null,"stimulus":"Stimuli_Rocks480/I_Gabbro_16.png","response":null,"trial_type":"image-keyboard-response","trial_index":22,"plugin_version":"2.1.0","time_elapsed":40268,"subject_id":"91918","group":"Group1","condition":"1_Rep","full_date":"2026-02-17T20:05:02.120Z","date":"2026-02-17","time":"20:05:02"},{"rt":null,"stimulus":"<p style=\"font-size: 50px; margin: 0; text-align: center;\">+</p>","response":null,"trial_type":"html-keyboard-response","trial_index":23,"plugin_version":"2.1.0","time_elapsed":41271,"subject_id":"91918","group":"Group1","condition":"1_Rep","full_date":"2026-02-17T20:05:02.120Z","date":"2026-02-17","time":"20:05:02"},{"task":"memory_phase","broad_category":"I","image_png":"I_Basalt_02.png","image_id":18,"category_name":"Basalt","category":2,"distinct_rating":1.84,"distinct_type":"Bottom","rt":null,"stimulus":"Stimuli_Rocks480/I_Basalt_02.png","response":null,"trial_type":"image-keyboard-response","trial_index":24,"plugin_version":"2.1.0","time_elapsed":43775,"subject_id":"91918","group":"Group1","condition":"1_Rep","full_date":"2026-02-17T20:05:02.120Z","date":"2026-02-17","time":"20:05:02"},{"rt":null,"stimulus":"<p style=\"font-size: 50px; margin: 0; text-align: center;\">+</p>","response":null,"trial_type":"html-keyboard-response","trial_index":25,"plugin_version":"2.1.0","time_elapsed":44778,"subject_id":"91918","group":"Group1","condition":"1_Rep","full_date":"2026-02-17T20:05:02.120Z","date":"2026-02-17","time":"20:05:02"},{"task":"memory_phase","broad_category":"I","image_png":"I_Pegmatite_16.png","image_id":112,"category_name":"Pegmatite","category":7,"distinct_rating":7.03,"distinct_type":"Top","rt":null,"stimulus":"Stimuli_Rocks480/I_Pegmatite_16.png","response":null,"trial_type":"image-keyboard-response","trial_index":26,"plugin_version":"2.1.0","time_elapsed":47282,"subject_id":"91918","group":"Group1","condition":"1_Rep","full_date":"2026-02-17T20:05:02.120Z","date":"2026-02-17","time":"20:05:02"},{"rt":null,"stimulus":"<p style=\"font-size: 50px; margin: 0; text-align: center;\">+</p>","response":null,"trial_type":"html-keyboard-response","trial_index":27,"plugin_version":"2.1.0","time_elapsed":48285,"subject_id":"91918","group":"Group1","condition":"1_Rep","full_date":"2026-02-17T20:05:02.120Z","date":"2026-02-17","time":"20:05:02"},{"task":"memory_phase","broad_category":"S","image_png":"S_Chert_10.png","image_id":362,"category_name":"Chert","category":23,"distinct_rating":7.17,"distinct_type":"Top","rt":null,"stimulus":"Stimuli_Rocks480/S_Chert_10.png","response":null,"trial_type":"image-keyboard-response","trial_index":28,"plugin_version":"2.1.0","time_elapsed":50789,"subject_id":"91918","group":"Group1","condition":"1_Rep","full_date":"2026-02-17T20:05:02.120Z","date":"2026-02-17","time":"20:05:02"},{"rt":null,"stimulus":"<p style=\"font-size: 50px; margin: 0; text-align: center;\">+</p>","response":null,"trial_type":"html-keyboard-response","trial_index":29,"plugin_version":"2.1.0","time_elapsed":51792,"subject_id":"91918","group":"Group1","condition":"1_Rep","full_date":"2026-02-17T20:05:02.120Z","date":"2026-02-17","time":"20:05:02"},{"task":"memory_phase","broad_category":"M","image_png":"M_Quartzite_13.png","image_id":285,"category_name":"Quartzite","category":18,"distinct_rating":2.27,"distinct_type":"Bottom","rt":null,"stimulus":"Stimuli_Rocks480/M_Quartzite_13.png","response":null,"trial_type":"image-keyboard-response","trial_index":30,"plugin_version":"2.1.0","time_elapsed":54296,"subject_id":"91918","group":"Group1","condition":"1_Rep","full_date":"2026-02-17T20:05:02.120Z","date":"2026-02-17","time":"20:05:02"},{"rt":null,"stimulus":"<p style=\"font-size: 50px; margin: 0; text-align: center;\">+</p>","response":null,"trial_type":"html-keyboard-response","trial_index":31,"plugin_version":"2.1.0","time_elapsed":55299,"subject_id":"91918","group":"Group1","condition":"1_Rep","full_date":"2026-02-17T20:05:02.120Z","date":"2026-02-17","time":"20:05:02"},{"task":"memory_phase","broad_category":"M","image_png":"M_Quartzite_05.png","image_id":277,"category_name":"Quartzite","category":18,"distinct_rating":2.23,"distinct_type":"Bottom","rt":null,"stimulus":"Stimuli_Rocks480/M_Quartzite_05.png","response":null,"trial_type":"image-keyboard-response","trial_index":32,"plugin_version":"2.1.0","time_elapsed":57803,"subject_id":"91918","group":"Group1","condition":"1_Rep","full_date":"2026-02-17T20:05:02.120Z","date":"2026-02-17","time":"20:05:02"},{"rt":null,"stimulus":"<p style=\"font-size: 50px; margin: 0; text-align: center;\">+</p>","response":null,"trial_type":"html-keyboard-response","trial_index":33,"plugin_version":"2.1.0","time_elapsed":58805,"subject_id":"91918","group":"Group1","condition":"1_Rep","full_date":"2026-02-17T20:05:02.120Z","date":"2026-02-17","time":"20:05:02"},{"task":"memory_phase","broad_category":"I","image_png":"I_Obsidian_05.png","image_id":85,"category_name":"Obsidian","category":6,"distinct_rating":7.32,"distinct_type":"Top","rt":null,"stimulus":"Stimuli_Rocks480/I_Obsidian_05.png","response":null,"trial_type":"image-keyboard-response","trial_index":34,"plugin_version":"2.1.0","time_elapsed":61309,"subject_id":"91918","group":"Group1","condition":"1_Rep","full_date":"2026-02-17T20:05:02.120Z","date":"2026-02-17","time":"20:05:02"},{"rt":null,"stimulus":"<p style=\"font-size: 50px; margin: 0; text-align: center;\">+</p>","response":null,"trial_type":"html-keyboard-response","trial_index":35,"plugin_version":"2.1.0","time_elapsed":62312,"subject_id":"91918","group":"Group1","condition":"1_Rep","full_date":"2026-02-17T20:05:02.120Z","date":"2026-02-17","time":"20:05:02"},{"task":"memory_phase","broad_category":"I","image_png":"I_Basalt_01.png","image_id":17,"category_name":"Basalt","category":2,"distinct_rating":1.92,"distinct_type":"Bottom","rt":null,"stimulus":"Stimuli_Rocks480/I_Basalt_01.png","response":null,"trial_type":"image-keyboard-response","trial_index":36,"plugin_version":"2.1.0","time_elapsed":64817,"subject_id":"91918","group":"Group1","condition":"1_Rep","full_date":"2026-02-17T20:05:02.120Z","date":"2026-02-17","time":"20:05:02"},{"rt":null,"stimulus":"<p style=\"font-size: 50px; margin: 0; text-align: center;\">+</p>","response":null,"trial_type":"html-keyboard-response","trial_index":37,"plugin_version":"2.1.0","time_elapsed":65819,"subject_id":"91918","group":"Group1","condition":"1_Rep","full_date":"2026-02-17T20:05:02.120Z","date":"2026-02-17","time":"20:05:02"},{"task":"memory_phase","broad_category":"M","image_png":"M_Phyllite_03.png","image_id":259,"category_name":"Phyllite","category":17,"distinct_rating":2.5,"distinct_type":"Bottom","rt":null,"stimulus":"Stimuli_Rocks480/M_Phyllite_03.png","response":null,"trial_type":"image-keyboard-response","trial_index":38,"plugin_version":"2.1.0","time_elapsed":68323,"subject_id":"91918","group":"Group1","condition":"1_Rep","full_date":"2026-02-17T20:05:02.120Z","date":"2026-02-17","time":"20:05:02"},{"rt":null,"stimulus":"<p style=\"font-size: 50px; margin: 0; text-align: center;\">+</p>","response":null,"trial_type":"html-keyboard-response","trial_index":39,"plugin_version":"2.1.0","time_elapsed":69325,"subject_id":"91918","group":"Group1","condition":"1_Rep","full_date":"2026-02-17T20:05:02.120Z","date":"2026-02-17","time":"20:05:02"},{"task":"memory_phase","broad_category":"M","image_png":"M_Gneiss_05.png","image_id":197,"category_name":"Gneiss","category":13,"distinct_rating":2.97,"distinct_type":"Bottom","rt":null,"stimulus":"Stimuli_Rocks480/M_Gneiss_05.png","response":null,"trial_type":"image-keyboard-response","trial_index":40,"plugin_version":"2.1.0","time_elapsed":71830,"subject_id":"91918","group":"Group1","condition":"1_Rep","full_date":"2026-02-17T20:05:02.120Z","date":"2026-02-17","time":"20:05:02"},{"rt":null,"stimulus":"<p style=\"font-size: 50px; margin: 0; text-align: center;\">+</p>","response":null,"trial_type":"html-keyboard-response","trial_index":41,"plugin_version":"2.1.0","time_elapsed":72833,"subject_id":"91918","group":"Group1","condition":"1_Rep","full_date":"2026-02-17T20:05:02.120Z","date":"2026-02-17","time":"20:05:02"},{"task":"memory_phase","broad_category":"S","image_png":"S_Shale_08.png","image_id":472,"category_name":"Shale","category":30,"distinct_rating":2.55,"distinct_type":"Bottom","rt":null,"stimulus":"Stimuli_Rocks480/S_Shale_08.png","response":null,"trial_type":"image-keyboard-response","trial_index":42,"plugin_version":"2.1.0","time_elapsed":75337,"subject_id":"91918","group":"Group1","condition":"1_Rep","full_date":"2026-02-17T20:05:02.120Z","date":"2026-02-17","time":"20:05:02"},{"rt":null,"stimulus":"<p style=\"font-size: 50px; margin: 0; text-align: center;\">+</p>","response":null,"trial_type":"html-keyboard-response","trial_index":43,"plugin_version":"2.1.0","time_elapsed":76340,"subject_id":"91918","group":"Group1","condition":"1_Rep","full_date":"2026-02-17T20:05:02.120Z","date":"2026-02-17","time":"20:05:02"},{"task":"memory_phase","broad_category":"S","image_png":"S_Sandstone_15.png","image_id":463,"category_name":"Sandstone","category":29,"distinct_rating":2,"distinct_type":"Bottom","rt":null,"stimulus":"Stimuli_Rocks480/S_Sandstone_15.png","response":null,"trial_type":"image-keyboard-response","trial_index":44,"plugin_version":"2.1.0","time_elapsed":78844,"subject_id":"91918","group":"Group1","condition":"1_Rep","full_date":"2026-02-17T20:05:02.120Z","date":"2026-02-17","time":"20:05:02"},{"rt":null,"stimulus":"<p style=\"font-size: 50px; margin: 0; text-align: center;\">+</p>","response":null,"trial_type":"html-keyboard-response","trial_index":45,"plugin_version":"2.1.0","time_elapsed":79847,"subject_id":"91918","group":"Group1","condition":"1_Rep","full_date":"2026-02-17T20:05:02.120Z","date":"2026-02-17","time":"20:05:02"},{"task":"memory_phase","broad_category":"S","image_png":"S_Rock Gypsum_04.png","image_id":420,"category_name":"Rock Gypsum","category":27,"distinct_rating":7.61,"distinct_type":"Top","rt":null,"stimulus":"Stimuli_Rocks480/S_Rock Gypsum_04.png","response":null,"trial_type":"image-keyboard-response","trial_index":46,"plugin_version":"2.1.0","time_elapsed":82351,"subject_id":"91918","group":"Group1","condition":"1_Rep","full_date":"2026-02-17T20:05:02.120Z","date":"2026-02-17","time":"20:05:02"},{"rt":null,"stimulus":"<p style=\"font-size: 50px; margin: 0; text-align: center;\">+</p>","response":null,"trial_type":"html-keyboard-response","trial_index":47,"plugin_version":"2.1.0","time_elapsed":83354,"subject_id":"91918","group":"Group1","condition":"1_Rep","full_date":"2026-02-17T20:05:02.120Z","date":"2026-02-17","time":"20:05:02"},{"task":"memory_phase","broad_category":"S","image_png":"S_Shale_12.png","image_id":476,"category_name":"Shale","category":30,"distinct_rating":2.48,"distinct_type":"Bottom","rt":null,"stimulus":"Stimuli_Rocks480/S_Shale_12.png","response":null,"trial_type":"image-keyboard-response","trial_index":48,"plugin_version":"2.1.0","time_elapsed":85858,"subject_id":"91918","group":"Group1","condition":"1_Rep","full_date":"2026-02-17T20:05:02.120Z","date":"2026-02-17","time":"20:05:02"},{"rt":null,"stimulus":"<p style=\"font-size: 50px; margin: 0; text-align: center;\">+</p>","response":null,"trial_type":"html-keyboard-response","trial_index":49,"plugin_version":"2.1.0","time_elapsed":86861,"subject_id":"91918","group":"Group1","condition":"1_Rep","full_date":"2026-02-17T20:05:02.120Z","date":"2026-02-17","time":"20:05:02"},{"task":"memory_phase","broad_category":"M","image_png":"M_Marble_06.png","image_id":230,"category_name":"Marble","category":15,"distinct_rating":3.4,"distinct_type":"Bottom","rt":null,"stimulus":"Stimuli_Rocks480/M_Marble_06.png","response":null,"trial_type":"image-keyboard-response","trial_index":50,"plugin_version":"2.1.0","time_elapsed":89366,"subject_id":"91918","group":"Group1","condition":"1_Rep","full_date":"2026-02-17T20:05:02.120Z","date":"2026-02-17","time":"20:05:02"},{"rt":null,"stimulus":"<p style=\"font-size: 50px; margin: 0; text-align: center;\">+</p>","response":null,"trial_type":"html-keyboard-response","trial_index":51,"plugin_version":"2.1.0","time_elapsed":90368,"subject_id":"91918","group":"Group1","condition":"1_Rep","full_date":"2026-02-17T20:05:02.120Z","date":"2026-02-17","time":"20:05:02"},{"task":"memory_phase","broad_category":"S","image_png":"S_Dolomite_14.png","image_id":398,"category_name":"Dolomite","category":25,"distinct_rating":1.43,"distinct_type":"Bottom","rt":null,"stimulus":"Stimuli_Rocks480/S_Dolomite_14.png","response":null,"trial_type":"image-keyboard-response","trial_index":52,"plugin_version":"2.1.0","time_elapsed":92873,"subject_id":"91918","group":"Group1","condition":"1_Rep","full_date":"2026-02-17T20:05:02.120Z","date":"2026-02-17","time":"20:05:02"},{"rt":null,"stimulus":"<p style=\"font-size: 50px; margin: 0; text-align: center;\">+</p>","response":null,"trial_type":"html-keyboard-response","trial_index":53,"plugin_version":"2.1.0","time_elapsed":93876,"subject_id":"91918","group":"Group1","condition":"1_Rep","full_date":"2026-02-17T20:05:02.120Z","date":"2026-02-17","time":"20:05:02"},{"task":"memory_phase","broad_category":"I","image_png":"I_Pumice_11.png","image_id":139,"category_name":"Pumice","category":9,"distinct_rating":1.74,"distinct_type":"Bottom","rt":null,"stimulus":"Stimuli_Rocks480/I_Pumice_11.png","response":null,"trial_type":"image-keyboard-response","trial_index":54,"plugin_version":"2.1.0","time_elapsed":96380,"subject_id":"91918","group":"Group1","condition":"1_Rep","full_date":"2026-02-17T20:05:02.120Z","date":"2026-02-17","time":"20:05:02"},{"rt":4701,"stimulus":"<p style=\"max-width: 760px; margin: auto; font-size: 35px; line-height: 1.5;\">\n                Press SPACE to continue study phase\n              </p>","response":" ","trial_type":"html-keyboard-response","trial_index":55,"plugin_version":"2.1.0","time_elapsed":101083,"subject_id":"91918","group":"Group1","condition":"1_Rep","full_date":"2026-02-17T20:05:02.120Z","date":"2026-02-17","time":"20:05:02"},{"rt":null,"stimulus":"<p style=\"font-size: 50px; margin: 0; text-align: center;\">+</p>","response":null,"trial_type":"html-keyboard-response","trial_index":56,"plugin_version":"2.1.0","time_elapsed":102084,"subject_id":"91918","group":"Group1","condition":"1_Rep","full_date":"2026-02-17T20:05:02.120Z","date":"2026-02-17","time":"20:05:02"},{"task":"memory_phase","broad_category":"M","image_png":"M_Quartzite_08.png","image_id":280,"category_name":"Quartzite","category":18,"distinct_rating":2.15,"distinct_type":"Bottom","rt":null,"stimulus":"Stimuli_Rocks480/M_Quartzite_08.png","response":null,"trial_type":"image-keyboard-response","trial_index":57,"plugin_version":"2.1.0","time_elapsed":104588,"subject_id":"91918","group":"Group1","condition":"1_Rep","full_date":"2026-02-17T20:05:02.120Z","date":"2026-02-17","time":"20:05:02"},{"rt":null,"stimulus":"<p style=\"font-size: 50px; margin: 0; text-align: center;\">+</p>","response":null,"trial_type":"html-keyboard-response","trial_index":58,"plugin_version":"2.1.0","time_elapsed":105591,"subject_id":"91918","group":"Group1","condition":"1_Rep","full_date":"2026-02-17T20:05:02.120Z","date":"2026-02-17","time":"20:05:02"},{"task":"memory_phase","broad_category":"I","image_png":"I_Diorite_03.png","image_id":35,"category_name":"Diorite","category":3,"distinct_rating":3.14,"distinct_type":"Bottom","rt":null,"stimulus":"Stimuli_Rocks480/I_Diorite_03.png","response":null,"trial_type":"image-keyboard-response","trial_index":59,"plugin_version":"2.1.0","time_elapsed":108095,"subject_id":"91918","group":"Group1","condition":"1_Rep","full_date":"2026-02-17T20:05:02.120Z","date":"2026-02-17","time":"20:05:02"},{"rt":null,"stimulus":"<p style=\"font-size: 50px; margin: 0; text-align: center;\">+</p>","response":null,"trial_type":"html-keyboard-response","trial_index":60,"plugin_version":"2.1.0","time_elapsed":109097,"subject_id":"91918","group":"Group1","condition":"1_Rep","full_date":"2026-02-17T20:05:02.120Z","date":"2026-02-17","time":"20:05:02"},{"task":"memory_phase","broad_category":"I","image_png":"I_Pegmatite_10.png","image_id":106,"category_name":"Pegmatite","category":7,"distinct_rating":7.66,"distinct_type":"Top","rt":null,"stimulus":"Stimuli_Rocks480/I_Pegmatite_10.png","response":null,"trial_type":"image-keyboard-response","trial_index":61,"plugin_version":"2.1.0","time_elapsed":111601,"subject_id":"91918","group":"Group1","condition":"1_Rep","full_date":"2026-02-17T20:05:02.120Z","date":"2026-02-17","time":"20:05:02"},{"rt":null,"stimulus":"<p style=\"font-size: 50px; margin: 0; text-align: center;\">+</p>","response":null,"trial_type":"html-keyboard-response","trial_index":62,"plugin_version":"2.1.0","time_elapsed":112604,"subject_id":"91918","group":"Group1","condition":"1_Rep","full_date":"2026-02-17T20:05:02.120Z","date":"2026-02-17","time":"20:05:02"},{"task":"memory_phase","broad_category":"I","image_png":"I_Rhyolite_11.png","image_id":155,"category_name":"Rhyolite","category":10,"distinct_rating":1.73,"distinct_type":"Bottom","rt":null,"stimulus":"Stimuli_Rocks480/I_Rhyolite_11.png","response":null,"trial_type":"image-keyboard-response","trial_index":63,"plugin_version":"2.1.0","time_elapsed":115109,"subject_id":"91918","group":"Group1","condition":"1_Rep","full_date":"2026-02-17T20:05:02.120Z","date":"2026-02-17","time":"20:05:02"},{"rt":null,"stimulus":"<p style=\"font-size: 50px; margin: 0; text-align: center;\">+</p>","response":null,"trial_type":"html-keyboard-response","trial_index":64,"plugin_version":"2.1.0","time_elapsed":116111,"subject_id":"91918","group":"Group1","condition":"1_Rep","full_date":"2026-02-17T20:05:02.120Z","date":"2026-02-17","time":"20:05:02"},{"task":"memory_phase","broad_category":"I","image_png":"I_Gabbro_08.png","image_id":56,"category_name":"Gabbro","category":4,"distinct_rating":3.02,"distinct_type":"Bottom","rt":null,"stimulus":"Stimuli_Rocks480/I_Gabbro_08.png","response":null,"trial_type":"image-keyboard-response","trial_index":65,"plugin_version":"2.1.0","time_elapsed":118615,"subject_id":"91918","group":"Group1","condition":"1_Rep","full_date":"2026-02-17T20:05:02.120Z","date":"2026-02-17","time":"20:05:02"},{"rt":null,"stimulus":"<p style=\"font-size: 50px; margin: 0; text-align: center;\">+</p>","response":null,"trial_type":"html-keyboard-response","trial_index":66,"plugin_version":"2.1.0","time_elapsed":119618,"subject_id":"91918","group":"Group1","condition":"1_Rep","full_date":"2026-02-17T20:05:02.120Z","date":"2026-02-17","time":"20:05:02"},{"task":"memory_phase","broad_category":"S","image_png":"S_Sandstone_03.png","image_id":451,"category_name":"Sandstone","category":29,"distinct_rating":1.86,"distinct_type":"Bottom","rt":null,"stimulus":"Stimuli_Rocks480/S_Sandstone_03.png","response":null,"trial_type":"image-keyboard-response","trial_index":67,"plugin_version":"2.1.0","time_elapsed":122121,"subject_id":"91918","group":"Group1","condition":"1_Rep","full_date":"2026-02-17T20:05:02.120Z","date":"2026-02-17","time":"20:05:02"},{"rt":null,"stimulus":"<p style=\"font-size: 50px; margin: 0; text-align: center;\">+</p>","response":null,"trial_type":"html-keyboard-response","trial_index":68,"plugin_version":"2.1.0","time_elapsed":123123,"subject_id":"91918","group":"Group1","condition":"1_Rep","full_date":"2026-02-17T20:05:02.120Z","date":"2026-02-17","time":"20:05:02"},{"task":"memory_phase","broad_category":"M","image_png":"M_Gneiss_13.png","image_id":205,"category_name":"Gneiss","category":13,"distinct_rating":3.26,"distinct_type":"Bottom","rt":null,"stimulus":"Stimuli_Rocks480/M_Gneiss_13.png","response":null,"trial_type":"image-keyboard-response","trial_index":69,"plugin_version":"2.1.0","time_elapsed":125626,"subject_id":"91918","group":"Group1","condition":"1_Rep","full_date":"2026-02-17T20:05:02.120Z","date":"2026-02-17","time":"20:05:02"},{"rt":null,"stimulus":"<p style=\"font-size: 50px; margin: 0; text-align: center;\">+</p>","response":null,"trial_type":"html-keyboard-response","trial_index":70,"plugin_version":"2.1.0","time_elapsed":126630,"subject_id":"91918","group":"Group1","condition":"1_Rep","full_date":"2026-02-17T20:05:02.120Z","date":"2026-02-17","time":"20:05:02"},{"task":"memory_phase","broad_category":"S","image_png":"S_Shale_01.png","image_id":465,"category_name":"Shale","category":30,"distinct_rating":2.7,"distinct_type":"Bottom","rt":null,"stimulus":"Stimuli_Rocks480/S_Shale_01.png","response":null,"trial_type":"image-keyboard-response","trial_index":71,"plugin_version":"2.1.0","time_elapsed":129134,"subject_id":"91918","group":"Group1","condition":"1_Rep","full_date":"2026-02-17T20:05:02.120Z","date":"2026-02-17","time":"20:05:02"},{"rt":null,"stimulus":"<p style=\"font-size: 50px; margin: 0; text-align: center;\">+</p>","response":null,"trial_type":"html-keyboard-response","trial_index":72,"plugin_version":"2.1.0","time_elapsed":130137,"subject_id":"91918","group":"Group1","condition":"1_Rep","full_date":"2026-02-17T20:05:02.120Z","date":"2026-02-17","time":"20:05:02"},{"task":"memory_phase","broad_category":"I","image_png":"I_Andesite_08.png","image_id":8,"category_name":"Andesite","category":1,"distinct_rating":1.95,"distinct_type":"Bottom","rt":null,"stimulus":"Stimuli_Rocks480/I_Andesite_08.png","response":null,"trial_type":"image-keyboard-response","trial_index":73,"plugin_version":"2.1.0","time_elapsed":132641,"subject_id":"91918","group":"Group1","condition":"1_Rep","full_date":"2026-02-17T20:05:02.120Z","date":"2026-02-17","time":"20:05:02"},{"rt":null,"stimulus":"<p style=\"font-size: 50px; margin: 0; text-align: center;\">+</p>","response":null,"trial_type":"html-keyboard-response","trial_index":74,"plugin_version":"2.1.0","time_elapsed":133644,"subject_id":"91918","group":"Group1","condition":"1_Rep","full_date":"2026-02-17T20:05:02.120Z","date":"2026-02-17","time":"20:05:02"},{"task":"memory_phase","broad_category":"I","image_png":"I_Rhyolite_14.png","image_id":158,"category_name":"Rhyolite","category":10,"distinct_rating":2.59,"distinct_type":"Bottom","rt":null,"stimulus":"Stimuli_Rocks480/I_Rhyolite_14.png","response":null,"trial_type":"image-keyboard-response","trial_index":75,"plugin_version":"2.1.0","time_elapsed":136148,"subject_id":"91918","group":"Group1","condition":"1_Rep","full_date":"2026-02-17T20:05:02.120Z","date":"2026-02-17","time":"20:05:02"},{"rt":null,"stimulus":"<p style=\"font-size: 50px; margin: 0; text-align: center;\">+</p>","response":null,"trial_type":"html-keyboard-response","trial_index":76,"plugin_version":"2.1.0","time_elapsed":137151,"subject_id":"91918","group":"Group1","condition":"1_Rep","full_date":"2026-02-17T20:05:02.120Z","date":"2026-02-17","time":"20:05:02"},{"task":"memory_phase","broad_category":"I","image_png":"I_Diorite_05.png","image_id":37,"category_name":"Diorite","category":3,"distinct_rating":3.08,"distinct_type":"Bottom","rt":null,"stimulus":"Stimuli_Rocks480/I_Diorite_05.png","response":null,"trial_type":"image-keyboard-response","trial_index":77,"plugin_version":"2.1.0","time_elapsed":139655,"subject_id":"91918","group":"Group1","condition":"1_Rep","full_date":"2026-02-17T20:05:02.120Z","date":"2026-02-17","time":"20:05:02"},{"rt":null,"stimulus":"<p style=\"font-size: 50px; margin: 0; text-align: center;\">+</p>","response":null,"trial_type":"html-keyboard-response","trial_index":78,"plugin_version":"2.1.0","time_elapsed":140658,"subject_id":"91918","group":"Group1","condition":"1_Rep","full_date":"2026-02-17T20:05:02.120Z","date":"2026-02-17","time":"20:05:02"},{"task":"memory_phase","broad_category":"M","image_png":"M_Slate_15.png","image_id":319,"category_name":"Slate","category":20,"distinct_rating":2.13,"distinct_type":"Bottom","rt":null,"stimulus":"Stimuli_Rocks480/M_Slate_15.png","response":null,"trial_type":"image-keyboard-response","trial_index":79,"plugin_version":"2.1.0","time_elapsed":143161,"subject_id":"91918","group":"Group1","condition":"1_Rep","full_date":"2026-02-17T20:05:02.120Z","date":"2026-02-17","time":"20:05:02"},{"rt":null,"stimulus":"<p style=\"font-size: 50px; margin: 0; text-align: center;\">+</p>","response":null,"trial_type":"html-keyboard-response","trial_index":80,"plugin_version":"2.1.0","time_elapsed":144164,"subject_id":"91918","group":"Group1","condition":"1_Rep","full_date":"2026-02-17T20:05:02.120Z","date":"2026-02-17","time":"20:05:02"},{"task":"memory_phase","broad_category":"M","image_png":"M_Phyllite_10.png","image_id":266,"category_name":"Phyllite","category":17,"distinct_rating":2.6,"distinct_type":"Bottom","rt":null,"stimulus":"Stimuli_Rocks480/M_Phyllite_10.png","response":null,"trial_type":"image-keyboard-response","trial_index":81,"plugin_version":"2.1.0","time_elapsed":146667,"subject_id":"91918","group":"Group1","condition":"1_Rep","full_date":"2026-02-17T20:05:02.120Z","date":"2026-02-17","time":"20:05:02"},{"rt":null,"stimulus":"<p style=\"font-size: 50px; margin: 0; text-align: center;\">+</p>","response":null,"trial_type":"html-keyboard-response","trial_index":82,"plugin_version":"2.1.0","time_elapsed":147669,"subject_id":"91918","group":"Group1","condition":"1_Rep","full_date":"2026-02-17T20:05:02.120Z","date":"2026-02-17","time":"20:05:02"},{"task":"memory_phase","broad_category":"I","image_png":"I_Pumice_12.png","image_id":140,"category_name":"Pumice","category":9,"distinct_rating":2.97,"distinct_type":"Bottom","rt":null,"stimulus":"Stimuli_Rocks480/I_Pumice_12.png","response":null,"trial_type":"image-keyboard-response","trial_index":83,"plugin_version":"2.1.0","time_elapsed":150173,"subject_id":"91918","group":"Group1","condition":"1_Rep","full_date":"2026-02-17T20:05:02.120Z","date":"2026-02-17","time":"20:05:02"},{"rt":null,"stimulus":"<p style=\"font-size: 50px; margin: 0; text-align: center;\">+</p>","response":null,"trial_type":"html-keyboard-response","trial_index":84,"plugin_version":"2.1.0","time_elapsed":151175,"subject_id":"91918","group":"Group1","condition":"1_Rep","full_date":"2026-02-17T20:05:02.120Z","date":"2026-02-17","time":"20:05:02"},{"task":"memory_phase","broad_category":"I","image_png":"I_Gabbro_11.png","image_id":59,"category_name":"Gabbro","category":4,"distinct_rating":1.99,"distinct_type":"Bottom","rt":null,"stimulus":"Stimuli_Rocks480/I_Gabbro_11.png","response":null,"trial_type":"image-keyboard-response","trial_index":85,"plugin_version":"2.1.0","time_elapsed":153678,"subject_id":"91918","group":"Group1","condition":"1_Rep","full_date":"2026-02-17T20:05:02.120Z","date":"2026-02-17","time":"20:05:02"},{"rt":null,"stimulus":"<p style=\"font-size: 50px; margin: 0; text-align: center;\">+</p>","response":null,"trial_type":"html-keyboard-response","trial_index":86,"plugin_version":"2.1.0","time_elapsed":154682,"subject_id":"91918","group":"Group1","condition":"1_Rep","full_date":"2026-02-17T20:05:02.120Z","date":"2026-02-17","time":"20:05:02"},{"task":"memory_phase","broad_category":"M","image_png":"M_Marble_16.png","image_id":240,"category_name":"Marble","category":15,"distinct_rating":2.57,"distinct_type":"Bottom","rt":null,"stimulus":"Stimuli_Rocks480/M_Marble_16.png","response":null,"trial_type":"image-keyboard-response","trial_index":87,"plugin_version":"2.1.0","time_elapsed":157185,"subject_id":"91918","group":"Group1","condition":"1_Rep","full_date":"2026-02-17T20:05:02.120Z","date":"2026-02-17","time":"20:05:02"},{"rt":null,"stimulus":"<p style=\"font-size: 50px; margin: 0; text-align: center;\">+</p>","response":null,"trial_type":"html-keyboard-response","trial_index":88,"plugin_version":"2.1.0","time_elapsed":158189,"subject_id":"91918","group":"Group1","condition":"1_Rep","full_date":"2026-02-17T20:05:02.120Z","date":"2026-02-17","time":"20:05:02"},{"task":"memory_phase","broad_category":"S","image_png":"S_Dolomite_13.png","image_id":397,"category_name":"Dolomite","category":25,"distinct_rating":1.77,"distinct_type":"Bottom","rt":null,"stimulus":"Stimuli_Rocks480/S_Dolomite_13.png","response":null,"trial_type":"image-keyboard-response","trial_index":89,"plugin_version":"2.1.0","time_elapsed":160692,"subject_id":"91918","group":"Group1","condition":"1_Rep","full_date":"2026-02-17T20:05:02.120Z","date":"2026-02-17","time":"20:05:02"},{"rt":null,"stimulus":"<p style=\"font-size: 50px; margin: 0; text-align: center;\">+</p>","response":null,"trial_type":"html-keyboard-response","trial_index":90,"plugin_version":"2.1.0","time_elapsed":161696,"subject_id":"91918","group":"Group1","condition":"1_Rep","full_date":"2026-02-17T20:05:02.120Z","date":"2026-02-17","time":"20:05:02"},{"task":"memory_phase","broad_category":"I","image_png":"I_Andesite_06.png","image_id":6,"category_name":"Andesite","category":1,"distinct_rating":3.17,"distinct_type":"Bottom","rt":null,"stimulus":"Stimuli_Rocks480/I_Andesite_06.png","response":null,"trial_type":"image-keyboard-response","trial_index":91,"plugin_version":"2.1.0","time_elapsed":164199,"subject_id":"91918","group":"Group1","condition":"1_Rep","full_date":"2026-02-17T20:05:02.120Z","date":"2026-02-17","time":"20:05:02"},{"rt":null,"stimulus":"<p style=\"font-size: 50px; margin: 0; text-align: center;\">+</p>","response":null,"trial_type":"html-keyboard-response","trial_index":92,"plugin_version":"2.1.0","time_elapsed":165202,"subject_id":"91918","group":"Group1","condition":"1_Rep","full_date":"2026-02-17T20:05:02.120Z","date":"2026-02-17","time":"20:05:02"},{"task":"memory_phase","broad_category":"M","image_png":"M_Gneiss_06.png","image_id":198,"category_name":"Gneiss","category":13,"distinct_rating":2.65,"distinct_type":"Bottom","rt":null,"stimulus":"Stimuli_Rocks480/M_Gneiss_06.png","response":null,"trial_type":"image-keyboard-response","trial_index":93,"plugin_version":"2.1.0","time_elapsed":167706,"subject_id":"91918","group":"Group1","condition":"1_Rep","full_date":"2026-02-17T20:05:02.120Z","date":"2026-02-17","time":"20:05:02"},{"rt":null,"stimulus":"<p style=\"font-size: 50px; margin: 0; text-align: center;\">+</p>","response":null,"trial_type":"html-keyboard-response","trial_index":94,"plugin_version":"2.1.0","time_elapsed":168709,"subject_id":"91918","group":"Group1","condition":"1_Rep","full_date":"2026-02-17T20:05:02.120Z","date":"2026-02-17","time":"20:05:02"},{"task":"memory_phase","broad_category":"M","image_png":"M_Marble_04.png","image_id":228,"category_name":"Marble","category":15,"distinct_rating":3.15,"distinct_type":"Bottom","rt":null,"stimulus":"Stimuli_Rocks480/M_Marble_04.png","response":null,"trial_type":"image-keyboard-response","trial_index":95,"plugin_version":"2.1.0","time_elapsed":171212,"subject_id":"91918","group":"Group1","condition":"1_Rep","full_date":"2026-02-17T20:05:02.120Z","date":"2026-02-17","time":"20:05:02"},{"rt":null,"stimulus":"<p style=\"font-size: 50px; margin: 0; text-align: center;\">+</p>","response":null,"trial_type":"html-keyboard-response","trial_index":96,"plugin_version":"2.1.0","time_elapsed":172215,"subject_id":"91918","group":"Group1","condition":"1_Rep","full_date":"2026-02-17T20:05:02.120Z","date":"2026-02-17","time":"20:05:02"},{"task":"memory_phase","broad_category":"S","image_png":"S_Conglomerate_05.png","image_id":373,"category_name":"Conglomerate","category":24,"distinct_rating":7.32,"distinct_type":"Top","rt":null,"stimulus":"Stimuli_Rocks480/S_Conglomerate_05.png","response":null,"trial_type":"image-keyboard-response","trial_index":97,"plugin_version":"2.1.0","time_elapsed":174719,"subject_id":"91918","group":"Group1","condition":"1_Rep","full_date":"2026-02-17T20:05:02.120Z","date":"2026-02-17","time":"20:05:02"},{"rt":null,"stimulus":"<p style=\"font-size: 50px; margin: 0; text-align: center;\">+</p>","response":null,"trial_type":"html-keyboard-response","trial_index":98,"plugin_version":"2.1.0","time_elapsed":175723,"subject_id":"91918","group":"Group1","condition":"1_Rep","full_date":"2026-02-17T20:05:02.120Z","date":"2026-02-17","time":"20:05:02"},{"task":"memory_phase","broad_category":"I","image_png":"I_Diorite_04.png","image_id":36,"category_name":"Diorite","category":3,"distinct_rating":2.98,"distinct_type":"Bottom","rt":null,"stimulus":"Stimuli_Rocks480/I_Diorite_04.png","response":null,"trial_type":"image-keyboard-response","trial_index":99,"plugin_version":"2.1.0","time_elapsed":178226,"subject_id":"91918","group":"Group1","condition":"1_Rep","full_date":"2026-02-17T20:05:02.120Z","date":"2026-02-17","time":"20:05:02"},{"rt":null,"stimulus":"<p style=\"font-size: 50px; margin: 0; text-align: center;\">+</p>","response":null,"trial_type":"html-keyboard-response","trial_index":100,"plugin_version":"2.1.0","time_elapsed":179229,"subject_id":"91918","group":"Group1","condition":"1_Rep","full_date":"2026-02-17T20:05:02.120Z","date":"2026-02-17","time":"20:05:02"},{"task":"memory_phase","broad_category":"S","image_png":"S_Dolomite_12.png","image_id":396,"category_name":"Dolomite","category":25,"distinct_rating":1.85,"distinct_type":"Bottom","rt":null,"stimulus":"Stimuli_Rocks480/S_Dolomite_12.png","response":null,"trial_type":"image-keyboard-response","trial_index":101,"plugin_version":"2.1.0","time_elapsed":181733,"subject_id":"91918","group":"Group1","condition":"1_Rep","full_date":"2026-02-17T20:05:02.120Z","date":"2026-02-17","time":"20:05:02"},{"rt":null,"stimulus":"<p style=\"font-size: 50px; margin: 0; text-align: center;\">+</p>","response":null,"trial_type":"html-keyboard-response","trial_index":102,"plugin_version":"2.1.0","time_elapsed":182736,"subject_id":"91918","group":"Group1","condition":"1_Rep","full_date":"2026-02-17T20:05:02.120Z","date":"2026-02-17","time":"20:05:02"},{"task":"memory_phase","broad_category":"I","image_png":"I_Pumice_08.png","image_id":136,"category_name":"Pumice","category":9,"distinct_rating":3.1,"distinct_type":"Bottom","rt":null,"stimulus":"Stimuli_Rocks480/I_Pumice_08.png","response":null,"trial_type":"image-keyboard-response","trial_index":103,"plugin_version":"2.1.0","time_elapsed":185240,"subject_id":"91918","group":"Group1","condition":"1_Rep","full_date":"2026-02-17T20:05:02.120Z","date":"2026-02-17","time":"20:05:02"},{"rt":null,"stimulus":"<p style=\"font-size: 50px; margin: 0; text-align: center;\">+</p>","response":null,"trial_type":"html-keyboard-response","trial_index":104,"plugin_version":"2.1.0","time_elapsed":186243,"subject_id":"91918","group":"Group1","condition":"1_Rep","full_date":"2026-02-17T20:05:02.120Z","date":"2026-02-17","time":"20:05:02"},{"task":"memory_phase","broad_category":"S","image_png":"S_Breccia_11.png","image_id":347,"category_name":"Breccia","category":22,"distinct_rating":6.7,"distinct_type":"Top","rt":null,"stimulus":"Stimuli_Rocks480/S_Breccia_11.png","response":null,"trial_type":"image-keyboard-response","trial_index":105,"plugin_version":"2.1.0","time_elapsed":188748,"subject_id":"91918","group":"Group1","condition":"1_Rep","full_date":"2026-02-17T20:05:02.120Z","date":"2026-02-17","time":"20:05:02"},{"rt":1976,"stimulus":"<div style=\"max-width: 760px; margin: auto; font-size: 20px; line-height: 1.5;\">\n      <h1 style=\"text-align:center; font-size: 30px;\">Instructions for the Test Phase</h1>\n      <p>\n        The study phase is now complete.\n      </p>\n      <p>\n        In the test phase, you will again see a series of rock images. \n        Some will be ones you saw before - during the study phase, while others will be new.  \n        <b>Your task</b> is to decide whether you have seen each image before by pressing the corresponding key on your keyboard:<br><br>\n          <b>A</b> - NO (you did not see this image before)<br>\n          <b>L</b> - YES (you saw this image before)<br><br>\n        The test will proceed at your own pace. You will receive feedback after each response.  \n        Please try to respond <b>as accurately as possible</b>.\n      </p>\n      <p>\n        <b>Reminder:</b> If your computer has multiple language settings (e.g., English and another language),\n        please ensure it is set to English during the test phase.\n      </p>\n      <p>\n        You can track your progress using the <b>completion bar</b> at the top of the screen.  \n        Note that it has been refreshed to reflect your progress during this final phase.\n      </p>\n      <p>\n        Press the button below when you are ready to continue.\n      </p>\n    </div>","response":0,"trial_type":"html-button-response","trial_index":106,"plugin_version":"2.1.0","time_elapsed":190729,"subject_id":"91918","group":"Group1","condition":"1_Rep","full_date":"2026-02-17T20:05:02.120Z","date":"2026-02-17","time":"20:05:02"},{"correct_response":"a","task":"test_phase","broad_category":"I","image_png":"I_Pumice_14.png","image_id":142,"category_name":"Pumice","category":9,"distinct_rating":3.22,"distinct_type":"Bottom","item_type":"Foil","rt":4119,"stimulus":"Stimuli_Rocks480/I_Pumice_14.png","response":"a","trial_type":"image-keyboard-response","trial_index":107,"plugin_version":"2.1.0","time_elapsed":194851,"subject_id":"91918","group":"Group1","condition":"1_Rep","full_date":"2026-02-17T20:05:02.120Z","date":"2026-02-17","time":"20:05:02","cor_ans":true},{"trial_type":"html-keyboard-response","rt":null,"stimulus":"<p style=\"color: green; font-size: 50px; font-weight: bold;\">Correct</p>","response":null,"trial_index":108,"plugin_version":"2.1.0","time_elapsed":195353,"subject_id":"91918","group":"Group1","condition":"1_Rep","full_date":"2026-02-17T20:05:02.120Z","date":"2026-02-17","time":"20:05:02"},{"correct_response":"a","task":"test_phase","broad_category":"M","image_png":"M_Slate_10.png","image_id":314,"category_name":"Slate","category":20,"distinct_rating":1.94,"distinct_type":"Bottom","item_type":"Foil","rt":2463,"stimulus":"Stimuli_Rocks480/M_Slate_10.png","response":"l","trial_type":"image-keyboard-response","trial_index":109,"plugin_version":"2.1.0","time_elapsed":197818,"subject_id":"91918","group":"Group1","condition":"1_Rep","full_date":"2026-02-17T20:05:02.120Z","date":"2026-02-17","time":"20:05:02","cor_ans":false},{"trial_type":"html-keyboard-response","rt":null,"stimulus":"<p style=\"color: red; font-size: 50px; font-weight: bold;\">Incorrect</p>","response":null,"trial_index":110,"plugin_version":"2.1.0","time_elapsed":198321,"subject_id":"91918","group":"Group1","condition":"1_Rep","full_date":"2026-02-17T20:05:02.120Z","date":"2026-02-17","time":"20:05:02"},{"correct_response":"l","task":"test_phase","broad_category":"I","image_png":"I_Basalt_09.png","image_id":25,"category_name":"Basalt","category":2,"distinct_rating":1.89,"distinct_type":"Bottom","item_type":"Target","rt":2130,"stimulus":"Stimuli_Rocks480/I_Basalt_09.png","response":"l","trial_type":"image-keyboard-response","trial_index":111,"plugin_version":"2.1.0","time_elapsed":200453,"subject_id":"91918","group":"Group1","condition":"1_Rep","full_date":"2026-02-17T20:05:02.120Z","date":"2026-02-17","time":"20:05:02","cor_ans":true},{"trial_type":"html-keyboard-response","rt":null,"stimulus":"<p style=\"color: green; font-size: 50px; font-weight: bold;\">Correct</p>","response":null,"trial_index":112,"plugin_version":"2.1.0","time_elapsed":200955,"subject_id":"91918","group":"Group1","condition":"1_Rep","full_date":"2026-02-17T20:05:02.120Z","date":"2026-02-17","time":"20:05:02"},{"correct_response":"a","task":"test_phase","broad_category":"M","image_png":"M_Slate_04.png","image_id":308,"category_name":"Slate","category":20,"distinct_rating":2.2,"distinct_type":"Bottom","item_type":"Foil","rt":1864,"stimulus":"Stimuli_Rocks480/M_Slate_04.png","response":"a","trial_type":"image-keyboard-response","trial_index":113,"plugin_version":"2.1.0","time_elapsed":202821,"subject_id":"91918","group":"Group1","condition":"1_Rep","full_date":"2026-02-17T20:05:02.120Z","date":"2026-02-17","time":"20:05:02","cor_ans":true},{"trial_type":"html-keyboard-response","rt":null,"stimulus":"<p style=\"color: green; font-size: 50px; font-weight: bold;\">Correct</p>","response":null,"trial_index":114,"plugin_version":"2.1.0","time_elapsed":203323,"subject_id":"91918","group":"Group1","condition":"1_Rep","full_date":"2026-02-17T20:05:02.120Z","date":"2026-02-17","time":"20:05:02"},{"correct_response":"a","task":"test_phase","broad_category":"S","image_png":"S_Conglomerate_14.png","image_id":382,"category_name":"Conglomerate","category":24,"distinct_rating":6.86,"distinct_type":"Top","item_type":"Foil","rt":1118,"stimulus":"Stimuli_Rocks480/S_Conglomerate_14.png","response":"a","trial_type":"image-keyboard-response","trial_index":115,"plugin_version":"2.1.0","time_elapsed":204443,"subject_id":"91918","group":"Group1","condition":"1_Rep","full_date":"2026-02-17T20:05:02.120Z","date":"2026-02-17","time":"20:05:02","cor_ans":true},{"trial_type":"html-keyboard-response","rt":null,"stimulus":"<p style=\"color: green; font-size: 50px; font-weight: bold;\">Correct</p>","response":null,"trial_index":116,"plugin_version":"2.1.0","time_elapsed":204946,"subject_id":"91918","group":"Group1","condition":"1_Rep","full_date":"2026-02-17T20:05:02.120Z","date":"2026-02-17","time":"20:05:02"},{"correct_response":"a","task":"test_phase","broad_category":"M","image_png":"M_Marble_02.png","image_id":226,"category_name":"Marble","category":15,"distinct_rating":3.2,"distinct_type":"Bottom","item_type":"Foil","rt":903,"stimulus":"Stimuli_Rocks480/M_Marble_02.png","response":"a","trial_type":"image-keyboard-response","trial_index":117,"plugin_version":"2.1.0","time_elapsed":205851,"subject_id":"91918","group":"Group1","condition":"1_Rep","full_date":"2026-02-17T20:05:02.120Z","date":"2026-02-17","time":"20:05:02","cor_ans":true},{"trial_type":"html-keyboard-response","rt":null,"stimulus":"<p style=\"color: green; font-size: 50px; font-weight: bold;\">Correct</p>","response":null,"trial_index":118,"plugin_version":"2.1.0","time_elapsed":206354,"subject_id":"91918","group":"Group1","condition":"1_Rep","full_date":"2026-02-17T20:05:02.120Z","date":"2026-02-17","time":"20:05:02"},{"correct_response":"a","task":"test_phase","broad_category":"M","image_png":"M_Gneiss_15.png","image_id":207,"category_name":"Gneiss","category":13,"distinct_rating":3.11,"distinct_type":"Bottom","item_type":"Foil","rt":1442,"stimulus":"Stimuli_Rocks480/M_Gneiss_15.png","response":"a","trial_type":"image-keyboard-response","trial_index":119,"plugin_version":"2.1.0","time_elapsed":207799,"subject_id":"91918","group":"Group1","condition":"1_Rep","full_date":"2026-02-17T20:05:02.120Z","date":"2026-02-17","time":"20:05:02","cor_ans":true},{"trial_type":"html-keyboard-response","rt":null,"stimulus":"<p style=\"color: green; font-size: 50px; font-weight: bold;\">Correct</p>","response":null,"trial_index":120,"plugin_version":"2.1.0","time_elapsed":208301,"subject_id":"91918","group":"Group1","condition":"1_Rep","full_date":"2026-02-17T20:05:02.120Z","date":"2026-02-17","time":"20:05:02"},{"correct_response":"l","task":"test_phase","broad_category":"M","image_png":"M_Quartzite_13.png","image_id":285,"category_name":"Quartzite","category":18,"distinct_rating":2.27,"distinct_type":"Bottom","item_type":"Target","rt":1746,"stimulus":"Stimuli_Rocks480/M_Quartzite_13.png","response":"a","trial_type":"image-keyboard-response","trial_index":121,"plugin_version":"2.1.0","time_elapsed":210050,"subject_id":"91918","group":"Group1","condition":"1_Rep","full_date":"2026-02-17T20:05:02.120Z","date":"2026-02-17","time":"20:05:02","cor_ans":false},{"trial_type":"html-keyboard-response","rt":null,"stimulus":"<p style=\"color: red; font-size: 50px; font-weight: bold;\">Incorrect</p>","response":null,"trial_index":122,"plugin_version":"2.1.0","time_elapsed":210551,"subject_id":"91918","group":"Group1","condition":"1_Rep","full_date":"2026-02-17T20:05:02.120Z","date":"2026-02-17","time":"20:05:02"},{"correct_response":"a","task":"test_phase","broad_category":"M","image_png":"M_Gneiss_10.png","image_id":202,"category_name":"Gneiss","category":13,"distinct_rating":3.09,"distinct_type":"Bottom","item_type":"Foil","rt":1403,"stimulus":"Stimuli_Rocks480/M_Gneiss_10.png","response":"l","trial_type":"image-keyboard-response","trial_index":123,"plugin_version":"2.1.0","time_elapsed":211957,"subject_id":"91918","group":"Group1","condition":"1_Rep","full_date":"2026-02-17T20:05:02.120Z","date":"2026-02-17","time":"20:05:02","cor_ans":false},{"trial_type":"html-keyboard-response","rt":null,"stimulus":"<p style=\"color: red; font-size: 50px; font-weight: bold;\">Incorrect</p>","response":null,"trial_index":124,"plugin_version":"2.1.0","time_elapsed":212459,"subject_id":"91918","group":"Group1","condition":"1_Rep","full_date":"2026-02-17T20:05:02.120Z","date":"2026-02-17","time":"20:05:02"},{"correct_response":"a","task":"test_phase","broad_category":"S","image_png":"S_Dolomite_01.png","image_id":385,"category_name":"Dolomite","category":25,"distinct_rating":1.43,"distinct_type":"Bottom","item_type":"Foil","rt":1425,"stimulus":"Stimuli_Rocks480/S_Dolomite_01.png","response":"a","trial_type":"image-keyboard-response","trial_index":125,"plugin_version":"2.1.0","time_elapsed":213887,"subject_id":"91918","group":"Group1","condition":"1_Rep","full_date":"2026-02-17T20:05:02.120Z","date":"2026-02-17","time":"20:05:02","cor_ans":true},{"trial_type":"html-keyboard-response","rt":null,"stimulus":"<p style=\"color: green; font-size: 50px; font-weight: bold;\">Correct</p>","response":null,"trial_index":126,"plugin_version":"2.1.0","time_elapsed":214389,"subject_id":"91918","group":"Group1","condition":"1_Rep","full_date":"2026-02-17T20:05:02.120Z","date":"2026-02-17","time":"20:05:02"},{"correct_response":"l","task":"test_phase","broad_category":"M","image_png":"M_Quartzite_05.png","image_id":277,"category_name":"Quartzite","category":18,"distinct_rating":2.23,"distinct_type":"Bottom","item_type":"Target","rt":1196,"stimulus":"Stimuli_Rocks480/M_Quartzite_05.png","response":"l","trial_type":"image-keyboard-response","trial_index":127,"plugin_version":"2.1.0","time_elapsed":215588,"subject_id":"91918","group":"Group1","condition":"1_Rep","full_date":"2026-02-17T20:05:02.120Z","date":"2026-02-17","time":"20:05:02","cor_ans":true},{"trial_type":"html-keyboard-response","rt":null,"stimulus":"<p style=\"color: green; font-size: 50px; font-weight: bold;\">Correct</p>","response":null,"trial_index":128,"plugin_version":"2.1.0","time_elapsed":216089,"subject_id":"91918","group":"Group1","condition":"1_Rep","full_date":"2026-02-17T20:05:02.120Z","date":"2026-02-17","time":"20:05:02"},{"correct_response":"a","task":"test_phase","broad_category":"I","image_png":"I_Pegmatite_11.png","image_id":107,"category_name":"Pegmatite","category":7,"distinct_rating":7.11,"distinct_type":"Top","item_type":"Foil","rt":828,"stimulus":"Stimuli_Rocks480/I_Pegmatite_11.png","response":"a","trial_type":"image-keyboard-response","trial_index":129,"plugin_version":"2.1.0","time_elapsed":216920,"subject_id":"91918","group":"Group1","condition":"1_Rep","full_date":"2026-02-17T20:05:02.120Z","date":"2026-02-17","time":"20:05:02","cor_ans":true},{"trial_type":"html-keyboard-response","rt":null,"stimulus":"<p style=\"color: green; font-size: 50px; font-weight: bold;\">Correct</p>","response":null,"trial_index":130,"plugin_version":"2.1.0","time_elapsed":217422,"subject_id":"91918","group":"Group1","condition":"1_Rep","full_date":"2026-02-17T20:05:02.120Z","date":"2026-02-17","time":"20:05:02"},{"correct_response":"l","task":"test_phase","broad_category":"M","image_png":"M_Slate_15.png","image_id":319,"category_name":"Slate","category":20,"distinct_rating":2.13,"distinct_type":"Bottom","item_type":"Target","rt":2256,"stimulus":"Stimuli_Rocks480/M_Slate_15.png","response":"l","trial_type":"image-keyboard-response","trial_index":131,"plugin_version":"2.1.0","time_elapsed":219680,"subject_id":"91918","group":"Group1","condition":"1_Rep","full_date":"2026-02-17T20:05:02.120Z","date":"2026-02-17","time":"20:05:02","cor_ans":true},{"trial_type":"html-keyboard-response","rt":null,"stimulus":"<p style=\"color: green; font-size: 50px; font-weight: bold;\">Correct</p>","response":null,"trial_index":132,"plugin_version":"2.1.0","time_elapsed":220182,"subject_id":"91918","group":"Group1","condition":"1_Rep","full_date":"2026-02-17T20:05:02.120Z","date":"2026-02-17","time":"20:05:02"},{"correct_response":"a","task":"test_phase","broad_category":"I","image_png":"I_Gabbro_14.png","image_id":62,"category_name":"Gabbro","category":4,"distinct_rating":2.95,"distinct_type":"Bottom","item_type":"Foil","rt":1271,"stimulus":"Stimuli_Rocks480/I_Gabbro_14.png","response":"a","trial_type":"image-keyboard-response","trial_index":133,"plugin_version":"2.1.0","time_elapsed":221455,"subject_id":"91918","group":"Group1","condition":"1_Rep","full_date":"2026-02-17T20:05:02.120Z","date":"2026-02-17","time":"20:05:02","cor_ans":true},{"trial_type":"html-keyboard-response","rt":null,"stimulus":"<p style=\"color: green; font-size: 50px; font-weight: bold;\">Correct</p>","response":null,"trial_index":134,"plugin_version":"2.1.0","time_elapsed":221956,"subject_id":"91918","group":"Group1","condition":"1_Rep","full_date":"2026-02-17T20:05:02.120Z","date":"2026-02-17","time":"20:05:02"},{"correct_response":"l","task":"test_phase","broad_category":"S","image_png":"S_Dolomite_14.png","image_id":398,"category_name":"Dolomite","category":25,"distinct_rating":1.43,"distinct_type":"Bottom","item_type":"Target","rt":1109,"stimulus":"Stimuli_Rocks480/S_Dolomite_14.png","response":"l","trial_type":"image-keyboard-response","trial_index":135,"plugin_version":"2.1.0","time_elapsed":223068,"subject_id":"91918","group":"Group1","condition":"1_Rep","full_date":"2026-02-17T20:05:02.120Z","date":"2026-02-17","time":"20:05:02","cor_ans":true},{"trial_type":"html-keyboard-response","rt":null,"stimulus":"<p style=\"color: green; font-size: 50px; font-weight: bold;\">Correct</p>","response":null,"trial_index":136,"plugin_version":"2.1.0","time_elapsed":223569,"subject_id":"91918","group":"Group1","condition":"1_Rep","full_date":"2026-02-17T20:05:02.120Z","date":"2026-02-17","time":"20:05:02"},{"correct_response":"l","task":"test_phase","broad_category":"I","image_png":"I_Rhyolite_14.png","image_id":158,"category_name":"Rhyolite","category":10,"distinct_rating":2.59,"distinct_type":"Bottom","item_type":"Target","rt":950,"stimulus":"Stimuli_Rocks480/I_Rhyolite_14.png","response":"a","trial_type":"image-keyboard-response","trial_index":137,"plugin_version":"2.1.0","time_elapsed":224522,"subject_id":"91918","group":"Group1","condition":"1_Rep","full_date":"2026-02-17T20:05:02.120Z","date":"2026-02-17","time":"20:05:02","cor_ans":false},{"trial_type":"html-keyboard-response","rt":null,"stimulus":"<p style=\"color: red; font-size: 50px; font-weight: bold;\">Incorrect</p>","response":null,"trial_index":138,"plugin_version":"2.1.0","time_elapsed":225023,"subject_id":"91918","group":"Group1","condition":"1_Rep","full_date":"2026-02-17T20:05:02.120Z","date":"2026-02-17","time":"20:05:02"},{"correct_response":"a","task":"test_phase","broad_category":"I","image_png":"I_Diorite_10.png","image_id":42,"category_name":"Diorite","category":3,"distinct_rating":2.84,"distinct_type":"Bottom","item_type":"Foil","rt":1473,"stimulus":"Stimuli_Rocks480/I_Diorite_10.png","response":"a","trial_type":"image-keyboard-response","trial_index":139,"plugin_version":"2.1.0","time_elapsed":226499,"subject_id":"91918","group":"Group1","condition":"1_Rep","full_date":"2026-02-17T20:05:02.120Z","date":"2026-02-17","time":"20:05:02","cor_ans":true},{"trial_type":"html-keyboard-response","rt":null,"stimulus":"<p style=\"color: green; font-size: 50px; font-weight: bold;\">Correct</p>","response":null,"trial_index":140,"plugin_version":"2.1.0","time_elapsed":227001,"subject_id":"91918","group":"Group1","condition":"1_Rep","full_date":"2026-02-17T20:05:02.120Z","date":"2026-02-17","time":"20:05:02"},{"correct_response":"l","task":"test_phase","broad_category":"I","image_png":"I_Gabbro_16.png","image_id":64,"category_name":"Gabbro","category":4,"distinct_rating":2.52,"distinct_type":"Bottom","item_type":"Target","rt":1560,"stimulus":"Stimuli_Rocks480/I_Gabbro_16.png","response":"a","trial_type":"image-keyboard-response","trial_index":141,"plugin_version":"2.1.0","time_elapsed":228564,"subject_id":"91918","group":"Group1","condition":"1_Rep","full_date":"2026-02-17T20:05:02.120Z","date":"2026-02-17","time":"20:05:02","cor_ans":false},{"trial_type":"html-keyboard-response","rt":null,"stimulus":"<p style=\"color: red; font-size: 50px; font-weight: bold;\">Incorrect</p>","response":null,"trial_index":142,"plugin_version":"2.1.0","time_elapsed":229066,"subject_id":"91918","group":"Group1","condition":"1_Rep","full_date":"2026-02-17T20:05:02.120Z","date":"2026-02-17","time":"20:05:02"},{"correct_response":"a","task":"test_phase","broad_category":"I","image_png":"I_Gabbro_02.png","image_id":50,"category_name":"Gabbro","category":4,"distinct_rating":2.73,"distinct_type":"Bottom","item_type":"Foil","rt":770,"stimulus":"Stimuli_Rocks480/I_Gabbro_02.png","response":"l","trial_type":"image-keyboard-response","trial_index":143,"plugin_version":"2.1.0","time_elapsed":229838,"subject_id":"91918","group":"Group1","condition":"1_Rep","full_date":"2026-02-17T20:05:02.120Z","date":"2026-02-17","time":"20:05:02","cor_ans":false},{"trial_type":"html-keyboard-response","rt":null,"stimulus":"<p style=\"color: red; font-size: 50px; font-weight: bold;\">Incorrect</p>","response":null,"trial_index":144,"plugin_version":"2.1.0","time_elapsed":230339,"subject_id":"91918","group":"Group1","condition":"1_Rep","full_date":"2026-02-17T20:05:02.120Z","date":"2026-02-17","time":"20:05:02"},{"correct_response":"l","task":"test_phase","broad_category":"M","image_png":"M_Marble_06.png","image_id":230,"category_name":"Marble","category":15,"distinct_rating":3.4,"distinct_type":"Bottom","item_type":"Target","rt":1171,"stimulus":"Stimuli_Rocks480/M_Marble_06.png","response":"a","trial_type":"image-keyboard-response","trial_index":145,"plugin_version":"2.1.0","time_elapsed":231512,"subject_id":"91918","group":"Group1","condition":"1_Rep","full_date":"2026-02-17T20:05:02.120Z","date":"2026-02-17","time":"20:05:02","cor_ans":false},{"trial_type":"html-keyboard-response","rt":null,"stimulus":"<p style=\"color: red; font-size: 50px; font-weight: bold;\">Incorrect</p>","response":null,"trial_index":146,"plugin_version":"2.1.0","time_elapsed":232014,"subject_id":"91918","group":"Group1","condition":"1_Rep","full_date":"2026-02-17T20:05:02.120Z","date":"2026-02-17","time":"20:05:02"},{"correct_response":"l","task":"test_phase","broad_category":"S","image_png":"S_Breccia_11.png","image_id":347,"category_name":"Breccia","category":22,"distinct_rating":6.7,"distinct_type":"Top","item_type":"Target","rt":1644,"stimulus":"Stimuli_Rocks480/S_Breccia_11.png","response":"a","trial_type":"image-keyboard-response","trial_index":147,"plugin_version":"2.1.0","time_elapsed":233661,"subject_id":"91918","group":"Group1","condition":"1_Rep","full_date":"2026-02-17T20:05:02.120Z","date":"2026-02-17","time":"20:05:02","cor_ans":false},{"trial_type":"html-keyboard-response","rt":null,"stimulus":"<p style=\"color: red; font-size: 50px; font-weight: bold;\">Incorrect</p>","response":null,"trial_index":148,"plugin_version":"2.1.0","time_elapsed":234163,"subject_id":"91918","group":"Group1","condition":"1_Rep","full_date":"2026-02-17T20:05:02.120Z","date":"2026-02-17","time":"20:05:02"},{"correct_response":"a","task":"test_phase","broad_category":"I","image_png":"I_Basalt_10.png","image_id":26,"category_name":"Basalt","category":2,"distinct_rating":2.76,"distinct_type":"Bottom","item_type":"Foil","rt":2235,"stimulus":"Stimuli_Rocks480/I_Basalt_10.png","response":"a","trial_type":"image-keyboard-response","trial_index":149,"plugin_version":"2.1.0","time_elapsed":236400,"subject_id":"91918","group":"Group1","condition":"1_Rep","full_date":"2026-02-17T20:05:02.120Z","date":"2026-02-17","time":"20:05:02","cor_ans":true},{"trial_type":"html-keyboard-response","rt":null,"stimulus":"<p style=\"color: green; font-size: 50px; font-weight: bold;\">Correct</p>","response":null,"trial_index":150,"plugin_version":"2.1.0","time_elapsed":236903,"subject_id":"91918","group":"Group1","condition":"1_Rep","full_date":"2026-02-17T20:05:02.120Z","date":"2026-02-17","time":"20:05:02"},{"correct_response":"a","task":"test_phase","broad_category":"S","image_png":"S_Rock Salt_15.png","image_id":447,"category_name":"Rock Salt","category":28,"distinct_rating":7.79,"distinct_type":"Top","item_type":"Foil","rt":1083,"stimulus":"Stimuli_Rocks480/S_Rock Salt_15.png","response":"a","trial_type":"image-keyboard-response","trial_index":151,"plugin_version":"2.1.0","time_elapsed":237988,"subject_id":"91918","group":"Group1","condition":"1_Rep","full_date":"2026-02-17T20:05:02.120Z","date":"2026-02-17","time":"20:05:02","cor_ans":true},{"trial_type":"html-keyboard-response","rt":null,"stimulus":"<p style=\"color: green; font-size: 50px; font-weight: bold;\">Correct</p>","response":null,"trial_index":152,"plugin_version":"2.1.0","time_elapsed":238490,"subject_id":"91918","group":"Group1","condition":"1_Rep","full_date":"2026-02-17T20:05:02.120Z","date":"2026-02-17","time":"20:05:02"},{"correct_response":"a","task":"test_phase","broad_category":"I","image_png":"I_Pumice_01.png","image_id":129,"category_name":"Pumice","category":9,"distinct_rating":3.25,"distinct_type":"Bottom","item_type":"Foil","rt":1846,"stimulus":"Stimuli_Rocks480/I_Pumice_01.png","response":"a","trial_type":"image-keyboard-response","trial_index":153,"plugin_version":"2.1.0","time_elapsed":240339,"subject_id":"91918","group":"Group1","condition":"1_Rep","full_date":"2026-02-17T20:05:02.120Z","date":"2026-02-17","time":"20:05:02","cor_ans":true},{"trial_type":"html-keyboard-response","rt":null,"stimulus":"<p style=\"color: green; font-size: 50px; font-weight: bold;\">Correct</p>","response":null,"trial_index":154,"plugin_version":"2.1.0","time_elapsed":240840,"subject_id":"91918","group":"Group1","condition":"1_Rep","full_date":"2026-02-17T20:05:02.120Z","date":"2026-02-17","time":"20:05:02"},{"correct_response":"a","task":"test_phase","broad_category":"I","image_png":"I_Pegmatite_03.png","image_id":99,"category_name":"Pegmatite","category":7,"distinct_rating":7.24,"distinct_type":"Top","item_type":"Foil","rt":1029,"stimulus":"Stimuli_Rocks480/I_Pegmatite_03.png","response":"a","trial_type":"image-keyboard-response","trial_index":155,"plugin_version":"2.1.0","time_elapsed":241872,"subject_id":"91918","group":"Group1","condition":"1_Rep","full_date":"2026-02-17T20:05:02.120Z","date":"2026-02-17","time":"20:05:02","cor_ans":true},{"trial_type":"html-keyboard-response","rt":null,"stimulus":"<p style=\"color: green; font-size: 50px; font-weight: bold;\">Correct</p>","response":null,"trial_index":156,"plugin_version":"2.1.0","time_elapsed":242374,"subject_id":"91918","group":"Group1","condition":"1_Rep","full_date":"2026-02-17T20:05:02.120Z","date":"2026-02-17","time":"20:05:02"},{"correct_response":"l","task":"test_phase","broad_category":"I","image_png":"I_Andesite_10.png","image_id":10,"category_name":"Andesite","category":1,"distinct_rating":3.15,"distinct_type":"Bottom","item_type":"Target","rt":1699,"stimulus":"Stimuli_Rocks480/I_Andesite_10.png","response":"l","trial_type":"image-keyboard-response","trial_index":157,"plugin_version":"2.1.0","time_elapsed":244075,"subject_id":"91918","group":"Group1","condition":"1_Rep","full_date":"2026-02-17T20:05:02.120Z","date":"2026-02-17","time":"20:05:02","cor_ans":true},{"trial_type":"html-keyboard-response","rt":null,"stimulus":"<p style=\"color: green; font-size: 50px; font-weight: bold;\">Correct</p>","response":null,"trial_index":158,"plugin_version":"2.1.0","time_elapsed":244577,"subject_id":"91918","group":"Group1","condition":"1_Rep","full_date":"2026-02-17T20:05:02.120Z","date":"2026-02-17","time":"20:05:02"},{"correct_response":"l","task":"test_phase","broad_category":"I","image_png":"I_Pegmatite_16.png","image_id":112,"category_name":"Pegmatite","category":7,"distinct_rating":7.03,"distinct_type":"Top","item_type":"Target","rt":788,"stimulus":"Stimuli_Rocks480/I_Pegmatite_16.png","response":"a","trial_type":"image-keyboard-response","trial_index":159,"plugin_version":"2.1.0","time_elapsed":245368,"subject_id":"91918","group":"Group1","condition":"1_Rep","full_date":"2026-02-17T20:05:02.120Z","date":"2026-02-17","time":"20:05:02","cor_ans":false},{"trial_type":"html-keyboard-response","rt":null,"stimulus":"<p style=\"color: red; font-size: 50px; font-weight: bold;\">Incorrect</p>","response":null,"trial_index":160,"plugin_version":"2.1.0","time_elapsed":245870,"subject_id":"91918","group":"Group1","condition":"1_Rep","full_date":"2026-02-17T20:05:02.120Z","date":"2026-02-17","time":"20:05:02"},{"correct_response":"l","task":"test_phase","broad_category":"S","image_png":"S_Sandstone_16.png","image_id":464,"category_name":"Sandstone","category":29,"distinct_rating":1.93,"distinct_type":"Bottom","item_type":"Target","rt":933,"stimulus":"Stimuli_Rocks480/S_Sandstone_16.png","response":"a","trial_type":"image-keyboard-response","trial_index":161,"plugin_version":"2.1.0","time_elapsed":246805,"subject_id":"91918","group":"Group1","condition":"1_Rep","full_date":"2026-02-17T20:05:02.120Z","date":"2026-02-17","time":"20:05:02","cor_ans":false},{"trial_type":"html-keyboard-response","rt":null,"stimulus":"<p style=\"color: red; font-size: 50px; font-weight: bold;\">Incorrect</p>","response":null,"trial_index":162,"plugin_version":"2.1.0","time_elapsed":247307,"subject_id":"91918","group":"Group1","condition":"1_Rep","full_date":"2026-02-17T20:05:02.120Z","date":"2026-02-17","time":"20:05:02"},{"correct_response":"a","task":"test_phase","broad_category":"I","image_png":"I_Gabbro_12.png","image_id":60,"category_name":"Gabbro","category":4,"distinct_rating":2.6,"distinct_type":"Bottom","item_type":"Foil","rt":1097,"stimulus":"Stimuli_Rocks480/I_Gabbro_12.png","response":"a","trial_type":"image-keyboard-response","trial_index":163,"plugin_version":"2.1.0","time_elapsed":248406,"subject_id":"91918","group":"Group1","condition":"1_Rep","full_date":"2026-02-17T20:05:02.120Z","date":"2026-02-17","time":"20:05:02","cor_ans":true},{"trial_type":"html-keyboard-response","rt":null,"stimulus":"<p style=\"color: green; font-size: 50px; font-weight: bold;\">Correct</p>","response":null,"trial_index":164,"plugin_version":"2.1.0","time_elapsed":248908,"subject_id":"91918","group":"Group1","condition":"1_Rep","full_date":"2026-02-17T20:05:02.120Z","date":"2026-02-17","time":"20:05:02"},{"correct_response":"l","task":"test_phase","broad_category":"I","image_png":"I_Pumice_11.png","image_id":139,"category_name":"Pumice","category":9,"distinct_rating":1.74,"distinct_type":"Bottom","item_type":"Target","rt":826,"stimulus":"Stimuli_Rocks480/I_Pumice_11.png","response":"l","trial_type":"image-keyboard-response","trial_index":165,"plugin_version":"2.1.0","time_elapsed":249736,"subject_id":"91918","group":"Group1","condition":"1_Rep","full_date":"2026-02-17T20:05:02.120Z","date":"2026-02-17","time":"20:05:02","cor_ans":true},{"trial_type":"html-keyboard-response","rt":null,"stimulus":"<p style=\"color: green; font-size: 50px; font-weight: bold;\">Correct</p>","response":null,"trial_index":166,"plugin_version":"2.1.0","time_elapsed":250238,"subject_id":"91918","group":"Group1","condition":"1_Rep","full_date":"2026-02-17T20:05:02.120Z","date":"2026-02-17","time":"20:05:02"},{"correct_response":"l","task":"test_phase","broad_category":"M","image_png":"M_Phyllite_10.png","image_id":266,"category_name":"Phyllite","category":17,"distinct_rating":2.6,"distinct_type":"Bottom","item_type":"Target","rt":911,"stimulus":"Stimuli_Rocks480/M_Phyllite_10.png","response":"a","trial_type":"image-keyboard-response","trial_index":167,"plugin_version":"2.1.0","time_elapsed":251151,"subject_id":"91918","group":"Group1","condition":"1_Rep","full_date":"2026-02-17T20:05:02.120Z","date":"2026-02-17","time":"20:05:02","cor_ans":false},{"trial_type":"html-keyboard-response","rt":null,"stimulus":"<p style=\"color: red; font-size: 50px; font-weight: bold;\">Incorrect</p>","response":null,"trial_index":168,"plugin_version":"2.1.0","time_elapsed":251653,"subject_id":"91918","group":"Group1","condition":"1_Rep","full_date":"2026-02-17T20:05:02.120Z","date":"2026-02-17","time":"20:05:02"},{"correct_response":"l","task":"test_phase","broad_category":"I","image_png":"I_Rhyolite_16.png","image_id":160,"category_name":"Rhyolite","category":10,"distinct_rating":2.19,"distinct_type":"Bottom","item_type":"Target","rt":2513,"stimulus":"Stimuli_Rocks480/I_Rhyolite_16.png","response":"a","trial_type":"image-keyboard-response","trial_index":169,"plugin_version":"2.1.0","time_elapsed":254169,"subject_id":"91918","group":"Group1","condition":"1_Rep","full_date":"2026-02-17T20:05:02.120Z","date":"2026-02-17","time":"20:05:02","cor_ans":false},{"trial_type":"html-keyboard-response","rt":null,"stimulus":"<p style=\"color: red; font-size: 50px; font-weight: bold;\">Incorrect</p>","response":null,"trial_index":170,"plugin_version":"2.1.0","time_elapsed":254671,"subject_id":"91918","group":"Group1","condition":"1_Rep","full_date":"2026-02-17T20:05:02.120Z","date":"2026-02-17","time":"20:05:02"},{"correct_response":"a","task":"test_phase","broad_category":"S","image_png":"S_Dolomite_16.png","image_id":400,"category_name":"Dolomite","category":25,"distinct_rating":1.71,"distinct_type":"Bottom","item_type":"Foil","rt":1005,"stimulus":"Stimuli_Rocks480/S_Dolomite_16.png","response":"a","trial_type":"image-keyboard-response","trial_index":171,"plugin_version":"2.1.0","time_elapsed":255678,"subject_id":"91918","group":"Group1","condition":"1_Rep","full_date":"2026-02-17T20:05:02.120Z","date":"2026-02-17","time":"20:05:02","cor_ans":true},{"trial_type":"html-keyboard-response","rt":null,"stimulus":"<p style=\"color: green; font-size: 50px; font-weight: bold;\">Correct</p>","response":null,"trial_index":172,"plugin_version":"2.1.0","time_elapsed":256179,"subject_id":"91918","group":"Group1","condition":"1_Rep","full_date":"2026-02-17T20:05:02.120Z","date":"2026-02-17","time":"20:05:02"},{"correct_response":"l","task":"test_phase","broad_category":"M","image_png":"M_Marble_04.png","image_id":228,"category_name":"Marble","category":15,"distinct_rating":3.15,"distinct_type":"Bottom","item_type":"Target","rt":1325,"stimulus":"Stimuli_Rocks480/M_Marble_04.png","response":"a","trial_type":"image-keyboard-response","trial_index":173,"plugin_version":"2.1.0","time_elapsed":257506,"subject_id":"91918","group":"Group1","condition":"1_Rep","full_date":"2026-02-17T20:05:02.120Z","date":"2026-02-17","time":"20:05:02","cor_ans":false},{"trial_type":"html-keyboard-response","rt":null,"stimulus":"<p style=\"color: red; font-size: 50px; font-weight: bold;\">Incorrect</p>","response":null,"trial_index":174,"plugin_version":"2.1.0","time_elapsed":258008,"subject_id":"91918","group":"Group1","condition":"1_Rep","full_date":"2026-02-17T20:05:02.120Z","date":"2026-02-17","time":"20:05:02"},{"correct_response":"a","task":"test_phase","broad_category":"I","image_png":"I_Basalt_08.png","image_id":24,"category_name":"Basalt","category":2,"distinct_rating":2.31,"distinct_type":"Bottom","item_type":"Foil","rt":1268,"stimulus":"Stimuli_Rocks480/I_Basalt_08.png","response":"a","trial_type":"image-keyboard-response","trial_index":175,"plugin_version":"2.1.0","time_elapsed":259278,"subject_id":"91918","group":"Group1","condition":"1_Rep","full_date":"2026-02-17T20:05:02.120Z","date":"2026-02-17","time":"20:05:02","cor_ans":true},{"trial_type":"html-keyboard-response","rt":null,"stimulus":"<p style=\"color: green; font-size: 50px; font-weight: bold;\">Correct</p>","response":null,"trial_index":176,"plugin_version":"2.1.0","time_elapsed":259780,"subject_id":"91918","group":"Group1","condition":"1_Rep","full_date":"2026-02-17T20:05:02.120Z","date":"2026-02-17","time":"20:05:02"},{"correct_response":"a","task":"test_phase","broad_category":"I","image_png":"I_Rhyolite_10.png","image_id":154,"category_name":"Rhyolite","category":10,"distinct_rating":2.88,"distinct_type":"Bottom","item_type":"Foil","rt":850,"stimulus":"Stimuli_Rocks480/I_Rhyolite_10.png","response":"l","trial_type":"image-keyboard-response","trial_index":177,"plugin_version":"2.1.0","time_elapsed":260632,"subject_id":"91918","group":"Group1","condition":"1_Rep","full_date":"2026-02-17T20:05:02.120Z","date":"2026-02-17","time":"20:05:02","cor_ans":false},{"trial_type":"html-keyboard-response","rt":null,"stimulus":"<p style=\"color: red; font-size: 50px; font-weight: bold;\">Incorrect</p>","response":null,"trial_index":178,"plugin_version":"2.1.0","time_elapsed":261134,"subject_id":"91918","group":"Group1","condition":"1_Rep","full_date":"2026-02-17T20:05:02.120Z","date":"2026-02-17","time":"20:05:02"},{"correct_response":"l","task":"test_phase","broad_category":"S","image_png":"S_Dolomite_13.png","image_id":397,"category_name":"Dolomite","category":25,"distinct_rating":1.77,"distinct_type":"Bottom","item_type":"Target","rt":817,"stimulus":"Stimuli_Rocks480/S_Dolomite_13.png","response":"a","trial_type":"image-keyboard-response","trial_index":179,"plugin_version":"2.1.0","time_elapsed":261953,"subject_id":"91918","group":"Group1","condition":"1_Rep","full_date":"2026-02-17T20:05:02.120Z","date":"2026-02-17","time":"20:05:02","cor_ans":false},{"trial_type":"html-keyboard-response","rt":null,"stimulus":"<p style=\"color: red; font-size: 50px; font-weight: bold;\">Incorrect</p>","response":null,"trial_index":180,"plugin_version":"2.1.0","time_elapsed":262455,"subject_id":"91918","group":"Group1","condition":"1_Rep","full_date":"2026-02-17T20:05:02.120Z","date":"2026-02-17","time":"20:05:02"},{"correct_response":"a","task":"test_phase","broad_category":"M","image_png":"M_Marble_03.png","image_id":227,"category_name":"Marble","category":15,"distinct_rating":2.67,"distinct_type":"Bottom","item_type":"Foil","rt":1724,"stimulus":"Stimuli_Rocks480/M_Marble_03.png","response":"a","trial_type":"image-keyboard-response","trial_index":181,"plugin_version":"2.1.0","time_elapsed":264181,"subject_id":"91918","group":"Group1","condition":"1_Rep","full_date":"2026-02-17T20:05:02.120Z","date":"2026-02-17","time":"20:05:02","cor_ans":true},{"trial_type":"html-keyboard-response","rt":null,"stimulus":"<p style=\"color: green; font-size: 50px; font-weight: bold;\">Correct</p>","response":null,"trial_index":182,"plugin_version":"2.1.0","time_elapsed":264683,"subject_id":"91918","group":"Group1","condition":"1_Rep","full_date":"2026-02-17T20:05:02.120Z","date":"2026-02-17","time":"20:05:02"},{"correct_response":"l","task":"test_phase","broad_category":"I","image_png":"I_Pumice_12.png","image_id":140,"category_name":"Pumice","category":9,"distinct_rating":2.97,"distinct_type":"Bottom","item_type":"Target","rt":1100,"stimulus":"Stimuli_Rocks480/I_Pumice_12.png","response":"l","trial_type":"image-keyboard-response","trial_index":183,"plugin_version":"2.1.0","time_elapsed":265785,"subject_id":"91918","group":"Group1","condition":"1_Rep","full_date":"2026-02-17T20:05:02.120Z","date":"2026-02-17","time":"20:05:02","cor_ans":true},{"trial_type":"html-keyboard-response","rt":null,"stimulus":"<p style=\"color: green; font-size: 50px; font-weight: bold;\">Correct</p>","response":null,"trial_index":184,"plugin_version":"2.1.0","time_elapsed":266287,"subject_id":"91918","group":"Group1","condition":"1_Rep","full_date":"2026-02-17T20:05:02.120Z","date":"2026-02-17","time":"20:05:02"},{"correct_response":"l","task":"test_phase","broad_category":"I","image_png":"I_Andesite_06.png","image_id":6,"category_name":"Andesite","category":1,"distinct_rating":3.17,"distinct_type":"Bottom","item_type":"Target","rt":1050,"stimulus":"Stimuli_Rocks480/I_Andesite_06.png","response":"l","trial_type":"image-keyboard-response","trial_index":185,"plugin_version":"2.1.0","time_elapsed":267340,"subject_id":"91918","group":"Group1","condition":"1_Rep","full_date":"2026-02-17T20:05:02.120Z","date":"2026-02-17","time":"20:05:02","cor_ans":true},{"trial_type":"html-keyboard-response","rt":null,"stimulus":"<p style=\"color: green; font-size: 50px; font-weight: bold;\">Correct</p>","response":null,"trial_index":186,"plugin_version":"2.1.0","time_elapsed":267841,"subject_id":"91918","group":"Group1","condition":"1_Rep","full_date":"2026-02-17T20:05:02.120Z","date":"2026-02-17","time":"20:05:02"},{"correct_response":"a","task":"test_phase","broad_category":"M","image_png":"M_Marble_14.png","image_id":238,"category_name":"Marble","category":15,"distinct_rating":3.31,"distinct_type":"Bottom","item_type":"Foil","rt":1016,"stimulus":"Stimuli_Rocks480/M_Marble_14.png","response":"l","trial_type":"image-keyboard-response","trial_index":187,"plugin_version":"2.1.0","time_elapsed":268860,"subject_id":"91918","group":"Group1","condition":"1_Rep","full_date":"2026-02-17T20:05:02.120Z","date":"2026-02-17","time":"20:05:02","cor_ans":false},{"trial_type":"html-keyboard-response","rt":null,"stimulus":"<p style=\"color: red; font-size: 50px; font-weight: bold;\">Incorrect</p>","response":null,"trial_index":188,"plugin_version":"2.1.0","time_elapsed":269362,"subject_id":"91918","group":"Group1","condition":"1_Rep","full_date":"2026-02-17T20:05:02.120Z","date":"2026-02-17","time":"20:05:02"},{"correct_response":"a","task":"test_phase","broad_category":"S","image_png":"S_Sandstone_08.png","image_id":456,"category_name":"Sandstone","category":29,"distinct_rating":1.5,"distinct_type":"Bottom","item_type":"Foil","rt":881,"stimulus":"Stimuli_Rocks480/S_Sandstone_08.png","response":"a","trial_type":"image-keyboard-response","trial_index":189,"plugin_version":"2.1.0","time_elapsed":270246,"subject_id":"91918","group":"Group1","condition":"1_Rep","full_date":"2026-02-17T20:05:02.120Z","date":"2026-02-17","time":"20:05:02","cor_ans":true},{"trial_type":"html-keyboard-response","rt":null,"stimulus":"<p style=\"color: green; font-size: 50px; font-weight: bold;\">Correct</p>","response":null,"trial_index":190,"plugin_version":"2.1.0","time_elapsed":270748,"subject_id":"91918","group":"Group1","condition":"1_Rep","full_date":"2026-02-17T20:05:02.120Z","date":"2026-02-17","time":"20:05:02"},{"correct_response":"a","task":"test_phase","broad_category":"M","image_png":"M_Quartzite_15.png","image_id":287,"category_name":"Quartzite","category":18,"distinct_rating":2.19,"distinct_type":"Bottom","item_type":"Foil","rt":862,"stimulus":"Stimuli_Rocks480/M_Quartzite_15.png","response":"a","trial_type":"image-keyboard-response","trial_index":191,"plugin_version":"2.1.0","time_elapsed":271612,"subject_id":"91918","group":"Group1","condition":"1_Rep","full_date":"2026-02-17T20:05:02.120Z","date":"2026-02-17","time":"20:05:02","cor_ans":true},{"trial_type":"html-keyboard-response","rt":null,"stimulus":"<p style=\"color: green; font-size: 50px; font-weight: bold;\">Correct</p>","response":null,"trial_index":192,"plugin_version":"2.1.0","time_elapsed":272114,"subject_id":"91918","group":"Group1","condition":"1_Rep","full_date":"2026-02-17T20:05:02.120Z","date":"2026-02-17","time":"20:05:02"},{"correct_response":"l","task":"test_phase","broad_category":"M","image_png":"M_Marble_16.png","image_id":240,"category_name":"Marble","category":15,"distinct_rating":2.57,"distinct_type":"Bottom","item_type":"Target","rt":946,"stimulus":"Stimuli_Rocks480/M_Marble_16.png","response":"l","trial_type":"image-keyboard-response","trial_index":193,"plugin_version":"2.1.0","time_elapsed":273063,"subject_id":"91918","group":"Group1","condition":"1_Rep","full_date":"2026-02-17T20:05:02.120Z","date":"2026-02-17","time":"20:05:02","cor_ans":true},{"trial_type":"html-keyboard-response","rt":null,"stimulus":"<p style=\"color: green; font-size: 50px; font-weight: bold;\">Correct</p>","response":null,"trial_index":194,"plugin_version":"2.1.0","time_elapsed":273565,"subject_id":"91918","group":"Group1","condition":"1_Rep","full_date":"2026-02-17T20:05:02.120Z","date":"2026-02-17","time":"20:05:02"},{"correct_response":"a","task":"test_phase","broad_category":"M","image_png":"M_Quartzite_07.png","image_id":279,"category_name":"Quartzite","category":18,"distinct_rating":1.97,"distinct_type":"Bottom","item_type":"Foil","rt":1591,"stimulus":"Stimuli_Rocks480/M_Quartzite_07.png","response":"a","trial_type":"image-keyboard-response","trial_index":195,"plugin_version":"2.1.0","time_elapsed":275159,"subject_id":"91918","group":"Group1","condition":"1_Rep","full_date":"2026-02-17T20:05:02.120Z","date":"2026-02-17","time":"20:05:02","cor_ans":true},{"trial_type":"html-keyboard-response","rt":null,"stimulus":"<p style=\"color: green; font-size: 50px; font-weight: bold;\">Correct</p>","response":null,"trial_index":196,"plugin_version":"2.1.0","time_elapsed":275661,"subject_id":"91918","group":"Group1","condition":"1_Rep","full_date":"2026-02-17T20:05:02.120Z","date":"2026-02-17","time":"20:05:02"},{"correct_response":"a","task":"test_phase","broad_category":"I","image_png":"I_Pumice_13.png","image_id":141,"category_name":"Pumice","category":9,"distinct_rating":3.12,"distinct_type":"Bottom","item_type":"Foil","rt":1195,"stimulus":"Stimuli_Rocks480/I_Pumice_13.png","response":"l","trial_type":"image-keyboard-response","trial_index":197,"plugin_version":"2.1.0","time_elapsed":276858,"subject_id":"91918","group":"Group1","condition":"1_Rep","full_date":"2026-02-17T20:05:02.120Z","date":"2026-02-17","time":"20:05:02","cor_ans":false},{"trial_type":"html-keyboard-response","rt":null,"stimulus":"<p style=\"color: red; font-size: 50px; font-weight: bold;\">Incorrect</p>","response":null,"trial_index":198,"plugin_version":"2.1.0","time_elapsed":277360,"subject_id":"91918","group":"Group1","condition":"1_Rep","full_date":"2026-02-17T20:05:02.120Z","date":"2026-02-17","time":"20:05:02"},{"correct_response":"a","task":"test_phase","broad_category":"S","image_png":"S_Sandstone_04.png","image_id":452,"category_name":"Sandstone","category":29,"distinct_rating":1.8,"distinct_type":"Bottom","item_type":"Foil","rt":8480,"stimulus":"Stimuli_Rocks480/S_Sandstone_04.png","response":"a","trial_type":"image-keyboard-response","trial_index":199,"plugin_version":"2.1.0","time_elapsed":285842,"subject_id":"91918","group":"Group1","condition":"1_Rep","full_date":"2026-02-17T20:05:02.120Z","date":"2026-02-17","time":"20:05:02","cor_ans":true},{"trial_type":"html-keyboard-response","rt":null,"stimulus":"<p style=\"color: green; font-size: 50px; font-weight: bold;\">Correct</p>","response":null,"trial_index":200,"plugin_version":"2.1.0","time_elapsed":286343,"subject_id":"91918","group":"Group1","condition":"1_Rep","full_date":"2026-02-17T20:05:02.120Z","date":"2026-02-17","time":"20:05:02"},{"correct_response":"a","task":"test_phase","broad_category":"S","image_png":"S_Dolomite_07.png","image_id":391,"category_name":"Dolomite","category":25,"distinct_rating":1.73,"distinct_type":"Bottom","item_type":"Foil","rt":1238,"stimulus":"Stimuli_Rocks480/S_Dolomite_07.png","response":"l","trial_type":"image-keyboard-response","trial_index":201,"plugin_version":"2.1.0","time_elapsed":287583,"subject_id":"91918","group":"Group1","condition":"1_Rep","full_date":"2026-02-17T20:05:02.120Z","date":"2026-02-17","time":"20:05:02","cor_ans":false},{"trial_type":"html-keyboard-response","rt":null,"stimulus":"<p style=\"color: red; font-size: 50px; font-weight: bold;\">Incorrect</p>","response":null,"trial_index":202,"plugin_version":"2.1.0","time_elapsed":288085,"subject_id":"91918","group":"Group1","condition":"1_Rep","full_date":"2026-02-17T20:05:02.120Z","date":"2026-02-17","time":"20:05:02"},{"correct_response":"l","task":"test_phase","broad_category":"M","image_png":"M_Gneiss_13.png","image_id":205,"category_name":"Gneiss","category":13,"distinct_rating":3.26,"distinct_type":"Bottom","item_type":"Target","rt":1132,"stimulus":"Stimuli_Rocks480/M_Gneiss_13.png","response":"a","trial_type":"image-keyboard-response","trial_index":203,"plugin_version":"2.1.0","time_elapsed":289220,"subject_id":"91918","group":"Group1","condition":"1_Rep","full_date":"2026-02-17T20:05:02.120Z","date":"2026-02-17","time":"20:05:02","cor_ans":false},{"trial_type":"html-keyboard-response","rt":null,"stimulus":"<p style=\"color: red; font-size: 50px; font-weight: bold;\">Incorrect</p>","response":null,"trial_index":204,"plugin_version":"2.1.0","time_elapsed":289721,"subject_id":"91918","group":"Group1","condition":"1_Rep","full_date":"2026-02-17T20:05:02.120Z","date":"2026-02-17","time":"20:05:02"},{"correct_response":"a","task":"test_phase","broad_category":"I","image_png":"I_Rhyolite_05.png","image_id":149,"category_name":"Rhyolite","category":10,"distinct_rating":3.02,"distinct_type":"Bottom","item_type":"Foil","rt":1277,"stimulus":"Stimuli_Rocks480/I_Rhyolite_05.png","response":"l","trial_type":"image-keyboard-response","trial_index":205,"plugin_version":"2.1.0","time_elapsed":291001,"subject_id":"91918","group":"Group1","condition":"1_Rep","full_date":"2026-02-17T20:05:02.120Z","date":"2026-02-17","time":"20:05:02","cor_ans":false},{"trial_type":"html-keyboard-response","rt":null,"stimulus":"<p style=\"color: red; font-size: 50px; font-weight: bold;\">Incorrect</p>","response":null,"trial_index":206,"plugin_version":"2.1.0","time_elapsed":291502,"subject_id":"91918","group":"Group1","condition":"1_Rep","full_date":"2026-02-17T20:05:02.120Z","date":"2026-02-17","time":"20:05:02"},{"correct_response":"l","task":"test_phase","broad_category":"S","image_png":"S_Rock Gypsum_04.png","image_id":420,"category_name":"Rock Gypsum","category":27,"distinct_rating":7.61,"distinct_type":"Top","item_type":"Target","rt":1471,"stimulus":"Stimuli_Rocks480/S_Rock Gypsum_04.png","response":"a","trial_type":"image-keyboard-response","trial_index":207,"plugin_version":"2.1.0","time_elapsed":292976,"subject_id":"91918","group":"Group1","condition":"1_Rep","full_date":"2026-02-17T20:05:02.120Z","date":"2026-02-17","time":"20:05:02","cor_ans":false},{"trial_type":"html-keyboard-response","rt":null,"stimulus":"<p style=\"color: red; font-size: 50px; font-weight: bold;\">Incorrect</p>","response":null,"trial_index":208,"plugin_version":"2.1.0","time_elapsed":293478,"subject_id":"91918","group":"Group1","condition":"1_Rep","full_date":"2026-02-17T20:05:02.120Z","date":"2026-02-17","time":"20:05:02"},{"correct_response":"l","task":"test_phase","broad_category":"I","image_png":"I_Gabbro_11.png","image_id":59,"category_name":"Gabbro","category":4,"distinct_rating":1.99,"distinct_type":"Bottom","item_type":"Target","rt":8683,"stimulus":"Stimuli_Rocks480/I_Gabbro_11.png","response":"l","trial_type":"image-keyboard-response","trial_index":209,"plugin_version":"2.1.0","time_elapsed":302163,"subject_id":"91918","group":"Group1","condition":"1_Rep","full_date":"2026-02-17T20:05:02.120Z","date":"2026-02-17","time":"20:05:02","cor_ans":true},{"trial_type":"html-keyboard-response","rt":null,"stimulus":"<p style=\"color: green; font-size: 50px; font-weight: bold;\">Correct</p>","response":null,"trial_index":210,"plugin_version":"2.1.0","time_elapsed":302666,"subject_id":"91918","group":"Group1","condition":"1_Rep","full_date":"2026-02-17T20:05:02.120Z","date":"2026-02-17","time":"20:05:02"},{"correct_response":"a","task":"test_phase","broad_category":"I","image_png":"I_Basalt_13.png","image_id":29,"category_name":"Basalt","category":2,"distinct_rating":2.68,"distinct_type":"Bottom","item_type":"Foil","rt":1972,"stimulus":"Stimuli_Rocks480/I_Basalt_13.png","response":"l","trial_type":"image-keyboard-response","trial_index":211,"plugin_version":"2.1.0","time_elapsed":304641,"subject_id":"91918","group":"Group1","condition":"1_Rep","full_date":"2026-02-17T20:05:02.120Z","date":"2026-02-17","time":"20:05:02","cor_ans":false},{"trial_type":"html-keyboard-response","rt":null,"stimulus":"<p style=\"color: red; font-size: 50px; font-weight: bold;\">Incorrect</p>","response":null,"trial_index":212,"plugin_version":"2.1.0","time_elapsed":305142,"subject_id":"91918","group":"Group1","condition":"1_Rep","full_date":"2026-02-17T20:05:02.120Z","date":"2026-02-17","time":"20:05:02"},{"correct_response":"a","task":"test_phase","broad_category":"S","image_png":"S_Chert_13.png","image_id":365,"category_name":"Chert","category":23,"distinct_rating":6.57,"distinct_type":"Top","item_type":"Foil","rt":1312,"stimulus":"Stimuli_Rocks480/S_Chert_13.png","response":"a","trial_type":"image-keyboard-response","trial_index":213,"plugin_version":"2.1.0","time_elapsed":306456,"subject_id":"91918","group":"Group1","condition":"1_Rep","full_date":"2026-02-17T20:05:02.120Z","date":"2026-02-17","time":"20:05:02","cor_ans":true},{"trial_type":"html-keyboard-response","rt":null,"stimulus":"<p style=\"color: green; font-size: 50px; font-weight: bold;\">Correct</p>","response":null,"trial_index":214,"plugin_version":"2.1.0","time_elapsed":306959,"subject_id":"91918","group":"Group1","condition":"1_Rep","full_date":"2026-02-17T20:05:02.120Z","date":"2026-02-17","time":"20:05:02"},{"correct_response":"a","task":"test_phase","broad_category":"I","image_png":"I_Peridotite_13.png","image_id":125,"category_name":"Peridotite","category":8,"distinct_rating":7.28,"distinct_type":"Top","item_type":"Foil","rt":806,"stimulus":"Stimuli_Rocks480/I_Peridotite_13.png","response":"a","trial_type":"image-keyboard-response","trial_index":215,"plugin_version":"2.1.0","time_elapsed":307767,"subject_id":"91918","group":"Group1","condition":"1_Rep","full_date":"2026-02-17T20:05:02.120Z","date":"2026-02-17","time":"20:05:02","cor_ans":true},{"trial_type":"html-keyboard-response","rt":null,"stimulus":"<p style=\"color: green; font-size: 50px; font-weight: bold;\">Correct</p>","response":null,"trial_index":216,"plugin_version":"2.1.0","time_elapsed":308269,"subject_id":"91918","group":"Group1","condition":"1_Rep","full_date":"2026-02-17T20:05:02.120Z","date":"2026-02-17","time":"20:05:02"},{"correct_response":"l","task":"test_phase","broad_category":"M","image_png":"M_Phyllite_03.png","image_id":259,"category_name":"Phyllite","category":17,"distinct_rating":2.5,"distinct_type":"Bottom","item_type":"Target","rt":989,"stimulus":"Stimuli_Rocks480/M_Phyllite_03.png","response":"l","trial_type":"image-keyboard-response","trial_index":217,"plugin_version":"2.1.0","time_elapsed":309260,"subject_id":"91918","group":"Group1","condition":"1_Rep","full_date":"2026-02-17T20:05:02.120Z","date":"2026-02-17","time":"20:05:02","cor_ans":true},{"trial_type":"html-keyboard-response","rt":null,"stimulus":"<p style=\"color: green; font-size: 50px; font-weight: bold;\">Correct</p>","response":null,"trial_index":218,"plugin_version":"2.1.0","time_elapsed":309762,"subject_id":"91918","group":"Group1","condition":"1_Rep","full_date":"2026-02-17T20:05:02.120Z","date":"2026-02-17","time":"20:05:02"},{"correct_response":"l","task":"test_phase","broad_category":"I","image_png":"I_Gabbro_08.png","image_id":56,"category_name":"Gabbro","category":4,"distinct_rating":3.02,"distinct_type":"Bottom","item_type":"Target","rt":942,"stimulus":"Stimuli_Rocks480/I_Gabbro_08.png","response":"a","trial_type":"image-keyboard-response","trial_index":219,"plugin_version":"2.1.0","time_elapsed":310707,"subject_id":"91918","group":"Group1","condition":"1_Rep","full_date":"2026-02-17T20:05:02.120Z","date":"2026-02-17","time":"20:05:02","cor_ans":false},{"trial_type":"html-keyboard-response","rt":null,"stimulus":"<p style=\"color: red; font-size: 50px; font-weight: bold;\">Incorrect</p>","response":null,"trial_index":220,"plugin_version":"2.1.0","time_elapsed":311209,"subject_id":"91918","group":"Group1","condition":"1_Rep","full_date":"2026-02-17T20:05:02.120Z","date":"2026-02-17","time":"20:05:02"},{"correct_response":"a","task":"test_phase","broad_category":"M","image_png":"M_Phyllite_05.png","image_id":261,"category_name":"Phyllite","category":17,"distinct_rating":2.14,"distinct_type":"Bottom","item_type":"Foil","rt":1385,"stimulus":"Stimuli_Rocks480/M_Phyllite_05.png","response":"a","trial_type":"image-keyboard-response","trial_index":221,"plugin_version":"2.1.0","time_elapsed":312596,"subject_id":"91918","group":"Group1","condition":"1_Rep","full_date":"2026-02-17T20:05:02.120Z","date":"2026-02-17","time":"20:05:02","cor_ans":true},{"trial_type":"html-keyboard-response","rt":null,"stimulus":"<p style=\"color: green; font-size: 50px; font-weight: bold;\">Correct</p>","response":null,"trial_index":222,"plugin_version":"2.1.0","time_elapsed":313098,"subject_id":"91918","group":"Group1","condition":"1_Rep","full_date":"2026-02-17T20:05:02.120Z","date":"2026-02-17","time":"20:05:02"},{"correct_response":"l","task":"test_phase","broad_category":"I","image_png":"I_Rhyolite_11.png","image_id":155,"category_name":"Rhyolite","category":10,"distinct_rating":1.73,"distinct_type":"Bottom","item_type":"Target","rt":1038,"stimulus":"Stimuli_Rocks480/I_Rhyolite_11.png","response":"l","trial_type":"image-keyboard-response","trial_index":223,"plugin_version":"2.1.0","time_elapsed":314139,"subject_id":"91918","group":"Group1","condition":"1_Rep","full_date":"2026-02-17T20:05:02.120Z","date":"2026-02-17","time":"20:05:02","cor_ans":true},{"trial_type":"html-keyboard-response","rt":null,"stimulus":"<p style=\"color: green; font-size: 50px; font-weight: bold;\">Correct</p>","response":null,"trial_index":224,"plugin_version":"2.1.0","time_elapsed":314641,"subject_id":"91918","group":"Group1","condition":"1_Rep","full_date":"2026-02-17T20:05:02.120Z","date":"2026-02-17","time":"20:05:02"},{"correct_response":"a","task":"test_phase","broad_category":"S","image_png":"S_Sh