[{"width":1432,"height":828,"webaudio":true,"browser":"edge-chromium","browser_version":"144.0.0","mobile":false,"os":"Windows 10","fullscreen":true,"vsync_rate":60.39,"webcam":true,"microphone":true,"trial_type":"browser-check","trial_index":0,"plugin_version":"2.1.0","time_elapsed":1043,"subject_id":"91362","group":"Group1","condition":"1_Rep","full_date":"2026-02-01T04:13:21.932Z","date":"2026-02-01","time":"04:13:21"},{"success":true,"timeout":false,"failed_images":[],"failed_audio":[],"failed_video":[],"trial_type":"preload","trial_index":1,"plugin_version":"2.1.0","time_elapsed":2823,"subject_id":"91362","group":"Group1","condition":"1_Rep","full_date":"2026-02-01T04:13:21.932Z","date":"2026-02-01","time":"04:13:21"},{"rt":41760,"url":"SONA_consent_memorability.html","trial_type":"external-html","trial_index":2,"plugin_version":"2.1.0","time_elapsed":44644,"subject_id":"91362","group":"Group1","condition":"1_Rep","full_date":"2026-02-01T04:13:21.932Z","date":"2026-02-01","time":"04:13:21"},{"success":true,"rt":2824,"trial_type":"fullscreen","trial_index":3,"plugin_version":"2.1.0","time_elapsed":48479,"subject_id":"91362","group":"Group1","condition":"1_Rep","full_date":"2026-02-01T04:13:21.932Z","date":"2026-02-01","time":"04:13:21"},{"rt":49514,"stimulus":"<div style=\"max-width: 760px; margin: auto; font-size: 20px; line-height: 1.5;\">\n      <h1 style=\"text-align:center; font-size: 30px;\">Instructions</h1>\n      <p>\n        Welcome to the study on <b>visual memory</b>. This experiment consists of <b>two phases</b>: \n        a <b>study phase</b> and a <b>test phase</b>.\n      </p>\n      <p>\n        In the study phase, you will see a series of rock images along with their category labels.\n        The images will appear one at a time.\n        <b>Your task</b> is to learn the categories to which the rock images belong \n        and to remember each image as accurately as possible.\n      </p> \n      <p>\n        Note that you will see each image only <b>once</b> during the study phase. \n          So, please pay close attention and try to remember each image carefully.\n      </p>\n      <p>\n        After the study phase, <b>your memory will be tested</b>. \n        Additional instructions for the test phase will be provided at that time.\n      </p>\n      <p>\n        If your computer has multiple <b>language settings</b> (e.g., English and another language),\n        please make sure it is set to English before starting.\n      </p>\n      <p>\n        You can track your progress using the <b>completion bar</b> at the top of the screen. \n        Please note that the bar will refresh when the test phase begins \n        to give you an accurate sense of your progress in both phases.\n      </p> \n      <p>\n        Press the button below when you are ready to begin.\n      </p>\n    </div>","response":0,"trial_type":"html-button-response","trial_index":4,"plugin_version":"2.1.0","time_elapsed":97994,"subject_id":"91362","group":"Group1","condition":"1_Rep","full_date":"2026-02-01T04:13:21.932Z","date":"2026-02-01","time":"04:13:21"},{"rt":null,"stimulus":"<p style=\"font-size: 50px; margin: 0; text-align: center;\">+</p>","response":null,"trial_type":"html-keyboard-response","trial_index":5,"plugin_version":"2.1.0","time_elapsed":99007,"subject_id":"91362","group":"Group1","condition":"1_Rep","full_date":"2026-02-01T04:13:21.932Z","date":"2026-02-01","time":"04:13:21"},{"task":"memory_phase","broad_category":"I","image_png":"I_Gabbro_16.png","image_id":64,"category_name":"Gabbro","category":4,"distinct_rating":2.52,"distinct_type":"Bottom","rt":null,"stimulus":"Stimuli_Rocks480/I_Gabbro_16.png","response":null,"trial_type":"image-keyboard-response","trial_index":6,"plugin_version":"2.1.0","time_elapsed":101526,"subject_id":"91362","group":"Group1","condition":"1_Rep","full_date":"2026-02-01T04:13:21.932Z","date":"2026-02-01","time":"04:13:21"},{"rt":null,"stimulus":"<p style=\"font-size: 50px; margin: 0; text-align: center;\">+</p>","response":null,"trial_type":"html-keyboard-response","trial_index":7,"plugin_version":"2.1.0","time_elapsed":102532,"subject_id":"91362","group":"Group1","condition":"1_Rep","full_date":"2026-02-01T04:13:21.932Z","date":"2026-02-01","time":"04:13:21"},{"task":"memory_phase","broad_category":"M","image_png":"M_Marble_04.png","image_id":228,"category_name":"Marble","category":15,"distinct_rating":3.15,"distinct_type":"Bottom","rt":null,"stimulus":"Stimuli_Rocks480/M_Marble_04.png","response":null,"trial_type":"image-keyboard-response","trial_index":8,"plugin_version":"2.1.0","time_elapsed":105037,"subject_id":"91362","group":"Group1","condition":"1_Rep","full_date":"2026-02-01T04:13:21.932Z","date":"2026-02-01","time":"04:13:21"},{"rt":null,"stimulus":"<p style=\"font-size: 50px; margin: 0; text-align: center;\">+</p>","response":null,"trial_type":"html-keyboard-response","trial_index":9,"plugin_version":"2.1.0","time_elapsed":106043,"subject_id":"91362","group":"Group1","condition":"1_Rep","full_date":"2026-02-01T04:13:21.932Z","date":"2026-02-01","time":"04:13:21"},{"task":"memory_phase","broad_category":"S","image_png":"S_Dolomite_13.png","image_id":397,"category_name":"Dolomite","category":25,"distinct_rating":1.77,"distinct_type":"Bottom","rt":null,"stimulus":"Stimuli_Rocks480/S_Dolomite_13.png","response":null,"trial_type":"image-keyboard-response","trial_index":10,"plugin_version":"2.1.0","time_elapsed":108557,"subject_id":"91362","group":"Group1","condition":"1_Rep","full_date":"2026-02-01T04:13:21.932Z","date":"2026-02-01","time":"04:13:21"},{"rt":null,"stimulus":"<p style=\"font-size: 50px; margin: 0; text-align: center;\">+</p>","response":null,"trial_type":"html-keyboard-response","trial_index":11,"plugin_version":"2.1.0","time_elapsed":109562,"subject_id":"91362","group":"Group1","condition":"1_Rep","full_date":"2026-02-01T04:13:21.932Z","date":"2026-02-01","time":"04:13:21"},{"task":"memory_phase","broad_category":"M","image_png":"M_Quartzite_08.png","image_id":280,"category_name":"Quartzite","category":18,"distinct_rating":2.15,"distinct_type":"Bottom","rt":null,"stimulus":"Stimuli_Rocks480/M_Quartzite_08.png","response":null,"trial_type":"image-keyboard-response","trial_index":12,"plugin_version":"2.1.0","time_elapsed":112076,"subject_id":"91362","group":"Group1","condition":"1_Rep","full_date":"2026-02-01T04:13:21.932Z","date":"2026-02-01","time":"04:13:21"},{"rt":null,"stimulus":"<p style=\"font-size: 50px; margin: 0; text-align: center;\">+</p>","response":null,"trial_type":"html-keyboard-response","trial_index":13,"plugin_version":"2.1.0","time_elapsed":113082,"subject_id":"91362","group":"Group1","condition":"1_Rep","full_date":"2026-02-01T04:13:21.932Z","date":"2026-02-01","time":"04:13:21"},{"task":"memory_phase","broad_category":"M","image_png":"M_Quartzite_13.png","image_id":285,"category_name":"Quartzite","category":18,"distinct_rating":2.27,"distinct_type":"Bottom","rt":null,"stimulus":"Stimuli_Rocks480/M_Quartzite_13.png","response":null,"trial_type":"image-keyboard-response","trial_index":14,"plugin_version":"2.1.0","time_elapsed":115593,"subject_id":"91362","group":"Group1","condition":"1_Rep","full_date":"2026-02-01T04:13:21.932Z","date":"2026-02-01","time":"04:13:21"},{"rt":null,"stimulus":"<p style=\"font-size: 50px; margin: 0; text-align: center;\">+</p>","response":null,"trial_type":"html-keyboard-response","trial_index":15,"plugin_version":"2.1.0","time_elapsed":116598,"subject_id":"91362","group":"Group1","condition":"1_Rep","full_date":"2026-02-01T04:13:21.932Z","date":"2026-02-01","time":"04:13:21"},{"task":"memory_phase","broad_category":"M","image_png":"M_Phyllite_03.png","image_id":259,"category_name":"Phyllite","category":17,"distinct_rating":2.5,"distinct_type":"Bottom","rt":null,"stimulus":"Stimuli_Rocks480/M_Phyllite_03.png","response":null,"trial_type":"image-keyboard-response","trial_index":16,"plugin_version":"2.1.0","time_elapsed":119113,"subject_id":"91362","group":"Group1","condition":"1_Rep","full_date":"2026-02-01T04:13:21.932Z","date":"2026-02-01","time":"04:13:21"},{"rt":null,"stimulus":"<p style=\"font-size: 50px; margin: 0; text-align: center;\">+</p>","response":null,"trial_type":"html-keyboard-response","trial_index":17,"plugin_version":"2.1.0","time_elapsed":120121,"subject_id":"91362","group":"Group1","condition":"1_Rep","full_date":"2026-02-01T04:13:21.932Z","date":"2026-02-01","time":"04:13:21"},{"task":"memory_phase","broad_category":"M","image_png":"M_Marble_16.png","image_id":240,"category_name":"Marble","category":15,"distinct_rating":2.57,"distinct_type":"Bottom","rt":null,"stimulus":"Stimuli_Rocks480/M_Marble_16.png","response":null,"trial_type":"image-keyboard-response","trial_index":18,"plugin_version":"2.1.0","time_elapsed":122626,"subject_id":"91362","group":"Group1","condition":"1_Rep","full_date":"2026-02-01T04:13:21.932Z","date":"2026-02-01","time":"04:13:21"},{"rt":null,"stimulus":"<p style=\"font-size: 50px; margin: 0; text-align: center;\">+</p>","response":null,"trial_type":"html-keyboard-response","trial_index":19,"plugin_version":"2.1.0","time_elapsed":123638,"subject_id":"91362","group":"Group1","condition":"1_Rep","full_date":"2026-02-01T04:13:21.932Z","date":"2026-02-01","time":"04:13:21"},{"task":"memory_phase","broad_category":"S","image_png":"S_Sandstone_16.png","image_id":464,"category_name":"Sandstone","category":29,"distinct_rating":1.93,"distinct_type":"Bottom","rt":null,"stimulus":"Stimuli_Rocks480/S_Sandstone_16.png","response":null,"trial_type":"image-keyboard-response","trial_index":20,"plugin_version":"2.1.0","time_elapsed":126142,"subject_id":"91362","group":"Group1","condition":"1_Rep","full_date":"2026-02-01T04:13:21.932Z","date":"2026-02-01","time":"04:13:21"},{"rt":null,"stimulus":"<p style=\"font-size: 50px; margin: 0; text-align: center;\">+</p>","response":null,"trial_type":"html-keyboard-response","trial_index":21,"plugin_version":"2.1.0","time_elapsed":127153,"subject_id":"91362","group":"Group1","condition":"1_Rep","full_date":"2026-02-01T04:13:21.932Z","date":"2026-02-01","time":"04:13:21"},{"task":"memory_phase","broad_category":"M","image_png":"M_Phyllite_07.png","image_id":263,"category_name":"Phyllite","category":17,"distinct_rating":2.59,"distinct_type":"Bottom","rt":null,"stimulus":"Stimuli_Rocks480/M_Phyllite_07.png","response":null,"trial_type":"image-keyboard-response","trial_index":22,"plugin_version":"2.1.0","time_elapsed":129666,"subject_id":"91362","group":"Group1","condition":"1_Rep","full_date":"2026-02-01T04:13:21.932Z","date":"2026-02-01","time":"04:13:21"},{"rt":null,"stimulus":"<p style=\"font-size: 50px; margin: 0; text-align: center;\">+</p>","response":null,"trial_type":"html-keyboard-response","trial_index":23,"plugin_version":"2.1.0","time_elapsed":130679,"subject_id":"91362","group":"Group1","condition":"1_Rep","full_date":"2026-02-01T04:13:21.932Z","date":"2026-02-01","time":"04:13:21"},{"task":"memory_phase","broad_category":"S","image_png":"S_Dolomite_14.png","image_id":398,"category_name":"Dolomite","category":25,"distinct_rating":1.43,"distinct_type":"Bottom","rt":null,"stimulus":"Stimuli_Rocks480/S_Dolomite_14.png","response":null,"trial_type":"image-keyboard-response","trial_index":24,"plugin_version":"2.1.0","time_elapsed":133196,"subject_id":"91362","group":"Group1","condition":"1_Rep","full_date":"2026-02-01T04:13:21.932Z","date":"2026-02-01","time":"04:13:21"},{"rt":null,"stimulus":"<p style=\"font-size: 50px; margin: 0; text-align: center;\">+</p>","response":null,"trial_type":"html-keyboard-response","trial_index":25,"plugin_version":"2.1.0","time_elapsed":134203,"subject_id":"91362","group":"Group1","condition":"1_Rep","full_date":"2026-02-01T04:13:21.932Z","date":"2026-02-01","time":"04:13:21"},{"task":"memory_phase","broad_category":"I","image_png":"I_Pumice_12.png","image_id":140,"category_name":"Pumice","category":9,"distinct_rating":2.97,"distinct_type":"Bottom","rt":null,"stimulus":"Stimuli_Rocks480/I_Pumice_12.png","response":null,"trial_type":"image-keyboard-response","trial_index":26,"plugin_version":"2.1.0","time_elapsed":136718,"subject_id":"91362","group":"Group1","condition":"1_Rep","full_date":"2026-02-01T04:13:21.932Z","date":"2026-02-01","time":"04:13:21"},{"rt":null,"stimulus":"<p style=\"font-size: 50px; margin: 0; text-align: center;\">+</p>","response":null,"trial_type":"html-keyboard-response","trial_index":27,"plugin_version":"2.1.0","time_elapsed":137732,"subject_id":"91362","group":"Group1","condition":"1_Rep","full_date":"2026-02-01T04:13:21.932Z","date":"2026-02-01","time":"04:13:21"},{"task":"memory_phase","broad_category":"I","image_png":"I_Andesite_10.png","image_id":10,"category_name":"Andesite","category":1,"distinct_rating":3.15,"distinct_type":"Bottom","rt":null,"stimulus":"Stimuli_Rocks480/I_Andesite_10.png","response":null,"trial_type":"image-keyboard-response","trial_index":28,"plugin_version":"2.1.0","time_elapsed":140237,"subject_id":"91362","group":"Group1","condition":"1_Rep","full_date":"2026-02-01T04:13:21.932Z","date":"2026-02-01","time":"04:13:21"},{"rt":null,"stimulus":"<p style=\"font-size: 50px; margin: 0; text-align: center;\">+</p>","response":null,"trial_type":"html-keyboard-response","trial_index":29,"plugin_version":"2.1.0","time_elapsed":141250,"subject_id":"91362","group":"Group1","condition":"1_Rep","full_date":"2026-02-01T04:13:21.932Z","date":"2026-02-01","time":"04:13:21"},{"task":"memory_phase","broad_category":"I","image_png":"I_Pumice_08.png","image_id":136,"category_name":"Pumice","category":9,"distinct_rating":3.1,"distinct_type":"Bottom","rt":null,"stimulus":"Stimuli_Rocks480/I_Pumice_08.png","response":null,"trial_type":"image-keyboard-response","trial_index":30,"plugin_version":"2.1.0","time_elapsed":143766,"subject_id":"91362","group":"Group1","condition":"1_Rep","full_date":"2026-02-01T04:13:21.932Z","date":"2026-02-01","time":"04:13:21"},{"rt":null,"stimulus":"<p style=\"font-size: 50px; margin: 0; text-align: center;\">+</p>","response":null,"trial_type":"html-keyboard-response","trial_index":31,"plugin_version":"2.1.0","time_elapsed":144777,"subject_id":"91362","group":"Group1","condition":"1_Rep","full_date":"2026-02-01T04:13:21.932Z","date":"2026-02-01","time":"04:13:21"},{"task":"memory_phase","broad_category":"S","image_png":"S_Chert_10.png","image_id":362,"category_name":"Chert","category":23,"distinct_rating":7.17,"distinct_type":"Top","rt":null,"stimulus":"Stimuli_Rocks480/S_Chert_10.png","response":null,"trial_type":"image-keyboard-response","trial_index":32,"plugin_version":"2.1.0","time_elapsed":147291,"subject_id":"91362","group":"Group1","condition":"1_Rep","full_date":"2026-02-01T04:13:21.932Z","date":"2026-02-01","time":"04:13:21"},{"rt":null,"stimulus":"<p style=\"font-size: 50px; margin: 0; text-align: center;\">+</p>","response":null,"trial_type":"html-keyboard-response","trial_index":33,"plugin_version":"2.1.0","time_elapsed":148298,"subject_id":"91362","group":"Group1","condition":"1_Rep","full_date":"2026-02-01T04:13:21.932Z","date":"2026-02-01","time":"04:13:21"},{"task":"memory_phase","broad_category":"S","image_png":"S_Sandstone_15.png","image_id":463,"category_name":"Sandstone","category":29,"distinct_rating":2,"distinct_type":"Bottom","rt":null,"stimulus":"Stimuli_Rocks480/S_Sandstone_15.png","response":null,"trial_type":"image-keyboard-response","trial_index":34,"plugin_version":"2.1.0","time_elapsed":150807,"subject_id":"91362","group":"Group1","condition":"1_Rep","full_date":"2026-02-01T04:13:21.932Z","date":"2026-02-01","time":"04:13:21"},{"rt":null,"stimulus":"<p style=\"font-size: 50px; margin: 0; text-align: center;\">+</p>","response":null,"trial_type":"html-keyboard-response","trial_index":35,"plugin_version":"2.1.0","time_elapsed":151822,"subject_id":"91362","group":"Group1","condition":"1_Rep","full_date":"2026-02-01T04:13:21.932Z","date":"2026-02-01","time":"04:13:21"},{"task":"memory_phase","broad_category":"M","image_png":"M_Gneiss_05.png","image_id":197,"category_name":"Gneiss","category":13,"distinct_rating":2.97,"distinct_type":"Bottom","rt":null,"stimulus":"Stimuli_Rocks480/M_Gneiss_05.png","response":null,"trial_type":"image-keyboard-response","trial_index":36,"plugin_version":"2.1.0","time_elapsed":154324,"subject_id":"91362","group":"Group1","condition":"1_Rep","full_date":"2026-02-01T04:13:21.932Z","date":"2026-02-01","time":"04:13:21"},{"rt":null,"stimulus":"<p style=\"font-size: 50px; margin: 0; text-align: center;\">+</p>","response":null,"trial_type":"html-keyboard-response","trial_index":37,"plugin_version":"2.1.0","time_elapsed":155326,"subject_id":"91362","group":"Group1","condition":"1_Rep","full_date":"2026-02-01T04:13:21.932Z","date":"2026-02-01","time":"04:13:21"},{"task":"memory_phase","broad_category":"I","image_png":"I_Pumice_11.png","image_id":139,"category_name":"Pumice","category":9,"distinct_rating":1.74,"distinct_type":"Bottom","rt":null,"stimulus":"Stimuli_Rocks480/I_Pumice_11.png","response":null,"trial_type":"image-keyboard-response","trial_index":38,"plugin_version":"2.1.0","time_elapsed":157842,"subject_id":"91362","group":"Group1","condition":"1_Rep","full_date":"2026-02-01T04:13:21.932Z","date":"2026-02-01","time":"04:13:21"},{"rt":null,"stimulus":"<p style=\"font-size: 50px; margin: 0; text-align: center;\">+</p>","response":null,"trial_type":"html-keyboard-response","trial_index":39,"plugin_version":"2.1.0","time_elapsed":158854,"subject_id":"91362","group":"Group1","condition":"1_Rep","full_date":"2026-02-01T04:13:21.932Z","date":"2026-02-01","time":"04:13:21"},{"task":"memory_phase","broad_category":"S","image_png":"S_Rock Gypsum_04.png","image_id":420,"category_name":"Rock Gypsum","category":27,"distinct_rating":7.61,"distinct_type":"Top","rt":null,"stimulus":"Stimuli_Rocks480/S_Rock Gypsum_04.png","response":null,"trial_type":"image-keyboard-response","trial_index":40,"plugin_version":"2.1.0","time_elapsed":161367,"subject_id":"91362","group":"Group1","condition":"1_Rep","full_date":"2026-02-01T04:13:21.932Z","date":"2026-02-01","time":"04:13:21"},{"rt":null,"stimulus":"<p style=\"font-size: 50px; margin: 0; text-align: center;\">+</p>","response":null,"trial_type":"html-keyboard-response","trial_index":41,"plugin_version":"2.1.0","time_elapsed":162382,"subject_id":"91362","group":"Group1","condition":"1_Rep","full_date":"2026-02-01T04:13:21.932Z","date":"2026-02-01","time":"04:13:21"},{"task":"memory_phase","broad_category":"I","image_png":"I_Andesite_08.png","image_id":8,"category_name":"Andesite","category":1,"distinct_rating":1.95,"distinct_type":"Bottom","rt":null,"stimulus":"Stimuli_Rocks480/I_Andesite_08.png","response":null,"trial_type":"image-keyboard-response","trial_index":42,"plugin_version":"2.1.0","time_elapsed":164894,"subject_id":"91362","group":"Group1","condition":"1_Rep","full_date":"2026-02-01T04:13:21.932Z","date":"2026-02-01","time":"04:13:21"},{"rt":null,"stimulus":"<p style=\"font-size: 50px; margin: 0; text-align: center;\">+</p>","response":null,"trial_type":"html-keyboard-response","trial_index":43,"plugin_version":"2.1.0","time_elapsed":165909,"subject_id":"91362","group":"Group1","condition":"1_Rep","full_date":"2026-02-01T04:13:21.932Z","date":"2026-02-01","time":"04:13:21"},{"task":"memory_phase","broad_category":"I","image_png":"I_Rhyolite_14.png","image_id":158,"category_name":"Rhyolite","category":10,"distinct_rating":2.59,"distinct_type":"Bottom","rt":null,"stimulus":"Stimuli_Rocks480/I_Rhyolite_14.png","response":null,"trial_type":"image-keyboard-response","trial_index":44,"plugin_version":"2.1.0","time_elapsed":168423,"subject_id":"91362","group":"Group1","condition":"1_Rep","full_date":"2026-02-01T04:13:21.932Z","date":"2026-02-01","time":"04:13:21"},{"rt":null,"stimulus":"<p style=\"font-size: 50px; margin: 0; text-align: center;\">+</p>","response":null,"trial_type":"html-keyboard-response","trial_index":45,"plugin_version":"2.1.0","time_elapsed":169434,"subject_id":"91362","group":"Group1","condition":"1_Rep","full_date":"2026-02-01T04:13:21.932Z","date":"2026-02-01","time":"04:13:21"},{"task":"memory_phase","broad_category":"M","image_png":"M_Slate_15.png","image_id":319,"category_name":"Slate","category":20,"distinct_rating":2.13,"distinct_type":"Bottom","rt":null,"stimulus":"Stimuli_Rocks480/M_Slate_15.png","response":null,"trial_type":"image-keyboard-response","trial_index":46,"plugin_version":"2.1.0","time_elapsed":171947,"subject_id":"91362","group":"Group1","condition":"1_Rep","full_date":"2026-02-01T04:13:21.932Z","date":"2026-02-01","time":"04:13:21"},{"rt":null,"stimulus":"<p style=\"font-size: 50px; margin: 0; text-align: center;\">+</p>","response":null,"trial_type":"html-keyboard-response","trial_index":47,"plugin_version":"2.1.0","time_elapsed":172954,"subject_id":"91362","group":"Group1","condition":"1_Rep","full_date":"2026-02-01T04:13:21.932Z","date":"2026-02-01","time":"04:13:21"},{"task":"memory_phase","broad_category":"M","image_png":"M_Marble_06.png","image_id":230,"category_name":"Marble","category":15,"distinct_rating":3.4,"distinct_type":"Bottom","rt":null,"stimulus":"Stimuli_Rocks480/M_Marble_06.png","response":null,"trial_type":"image-keyboard-response","trial_index":48,"plugin_version":"2.1.0","time_elapsed":175471,"subject_id":"91362","group":"Group1","condition":"1_Rep","full_date":"2026-02-01T04:13:21.932Z","date":"2026-02-01","time":"04:13:21"},{"rt":null,"stimulus":"<p style=\"font-size: 50px; margin: 0; text-align: center;\">+</p>","response":null,"trial_type":"html-keyboard-response","trial_index":49,"plugin_version":"2.1.0","time_elapsed":176480,"subject_id":"91362","group":"Group1","condition":"1_Rep","full_date":"2026-02-01T04:13:21.932Z","date":"2026-02-01","time":"04:13:21"},{"task":"memory_phase","broad_category":"I","image_png":"I_Diorite_04.png","image_id":36,"category_name":"Diorite","category":3,"distinct_rating":2.98,"distinct_type":"Bottom","rt":null,"stimulus":"Stimuli_Rocks480/I_Diorite_04.png","response":null,"trial_type":"image-keyboard-response","trial_index":50,"plugin_version":"2.1.0","time_elapsed":178984,"subject_id":"91362","group":"Group1","condition":"1_Rep","full_date":"2026-02-01T04:13:21.932Z","date":"2026-02-01","time":"04:13:21"},{"rt":null,"stimulus":"<p style=\"font-size: 50px; margin: 0; text-align: center;\">+</p>","response":null,"trial_type":"html-keyboard-response","trial_index":51,"plugin_version":"2.1.0","time_elapsed":179994,"subject_id":"91362","group":"Group1","condition":"1_Rep","full_date":"2026-02-01T04:13:21.932Z","date":"2026-02-01","time":"04:13:21"},{"task":"memory_phase","broad_category":"S","image_png":"S_Shale_01.png","image_id":465,"category_name":"Shale","category":30,"distinct_rating":2.7,"distinct_type":"Bottom","rt":null,"stimulus":"Stimuli_Rocks480/S_Shale_01.png","response":null,"trial_type":"image-keyboard-response","trial_index":52,"plugin_version":"2.1.0","time_elapsed":182505,"subject_id":"91362","group":"Group1","condition":"1_Rep","full_date":"2026-02-01T04:13:21.932Z","date":"2026-02-01","time":"04:13:21"},{"rt":null,"stimulus":"<p style=\"font-size: 50px; margin: 0; text-align: center;\">+</p>","response":null,"trial_type":"html-keyboard-response","trial_index":53,"plugin_version":"2.1.0","time_elapsed":183520,"subject_id":"91362","group":"Group1","condition":"1_Rep","full_date":"2026-02-01T04:13:21.932Z","date":"2026-02-01","time":"04:13:21"},{"task":"memory_phase","broad_category":"M","image_png":"M_Slate_11.png","image_id":315,"category_name":"Slate","category":20,"distinct_rating":2.75,"distinct_type":"Bottom","rt":null,"stimulus":"Stimuli_Rocks480/M_Slate_11.png","response":null,"trial_type":"image-keyboard-response","trial_index":54,"plugin_version":"2.1.0","time_elapsed":186031,"subject_id":"91362","group":"Group1","condition":"1_Rep","full_date":"2026-02-01T04:13:21.932Z","date":"2026-02-01","time":"04:13:21"},{"rt":2241,"stimulus":"<p style=\"max-width: 760px; margin: auto; font-size: 35px; line-height: 1.5;\">\n                Press SPACE to continue study phase\n              </p>","response":" ","trial_type":"html-keyboard-response","trial_index":55,"plugin_version":"2.1.0","time_elapsed":188272,"subject_id":"91362","group":"Group1","condition":"1_Rep","full_date":"2026-02-01T04:13:21.932Z","date":"2026-02-01","time":"04:13:21"},{"rt":null,"stimulus":"<p style=\"font-size: 50px; margin: 0; text-align: center;\">+</p>","response":null,"trial_type":"html-keyboard-response","trial_index":56,"plugin_version":"2.1.0","time_elapsed":189278,"subject_id":"91362","group":"Group1","condition":"1_Rep","full_date":"2026-02-01T04:13:21.932Z","date":"2026-02-01","time":"04:13:21"},{"task":"memory_phase","broad_category":"M","image_png":"M_Gneiss_06.png","image_id":198,"category_name":"Gneiss","category":13,"distinct_rating":2.65,"distinct_type":"Bottom","rt":null,"stimulus":"Stimuli_Rocks480/M_Gneiss_06.png","response":null,"trial_type":"image-keyboard-response","trial_index":57,"plugin_version":"2.1.0","time_elapsed":191791,"subject_id":"91362","group":"Group1","condition":"1_Rep","full_date":"2026-02-01T04:13:21.932Z","date":"2026-02-01","time":"04:13:21"},{"rt":null,"stimulus":"<p style=\"font-size: 50px; margin: 0; text-align: center;\">+</p>","response":null,"trial_type":"html-keyboard-response","trial_index":58,"plugin_version":"2.1.0","time_elapsed":192794,"subject_id":"91362","group":"Group1","condition":"1_Rep","full_date":"2026-02-01T04:13:21.932Z","date":"2026-02-01","time":"04:13:21"},{"task":"memory_phase","broad_category":"S","image_png":"S_Dolomite_12.png","image_id":396,"category_name":"Dolomite","category":25,"distinct_rating":1.85,"distinct_type":"Bottom","rt":null,"stimulus":"Stimuli_Rocks480/S_Dolomite_12.png","response":null,"trial_type":"image-keyboard-response","trial_index":59,"plugin_version":"2.1.0","time_elapsed":195297,"subject_id":"91362","group":"Group1","condition":"1_Rep","full_date":"2026-02-01T04:13:21.932Z","date":"2026-02-01","time":"04:13:21"},{"rt":null,"stimulus":"<p style=\"font-size: 50px; margin: 0; text-align: center;\">+</p>","response":null,"trial_type":"html-keyboard-response","trial_index":60,"plugin_version":"2.1.0","time_elapsed":196312,"subject_id":"91362","group":"Group1","condition":"1_Rep","full_date":"2026-02-01T04:13:21.932Z","date":"2026-02-01","time":"04:13:21"},{"task":"memory_phase","broad_category":"M","image_png":"M_Quartzite_05.png","image_id":277,"category_name":"Quartzite","category":18,"distinct_rating":2.23,"distinct_type":"Bottom","rt":null,"stimulus":"Stimuli_Rocks480/M_Quartzite_05.png","response":null,"trial_type":"image-keyboard-response","trial_index":61,"plugin_version":"2.1.0","time_elapsed":198828,"subject_id":"91362","group":"Group1","condition":"1_Rep","full_date":"2026-02-01T04:13:21.932Z","date":"2026-02-01","time":"04:13:21"},{"rt":null,"stimulus":"<p style=\"font-size: 50px; margin: 0; text-align: center;\">+</p>","response":null,"trial_type":"html-keyboard-response","trial_index":62,"plugin_version":"2.1.0","time_elapsed":199830,"subject_id":"91362","group":"Group1","condition":"1_Rep","full_date":"2026-02-01T04:13:21.932Z","date":"2026-02-01","time":"04:13:21"},{"task":"memory_phase","broad_category":"I","image_png":"I_Pegmatite_10.png","image_id":106,"category_name":"Pegmatite","category":7,"distinct_rating":7.66,"distinct_type":"Top","rt":null,"stimulus":"Stimuli_Rocks480/I_Pegmatite_10.png","response":null,"trial_type":"image-keyboard-response","trial_index":63,"plugin_version":"2.1.0","time_elapsed":202344,"subject_id":"91362","group":"Group1","condition":"1_Rep","full_date":"2026-02-01T04:13:21.932Z","date":"2026-02-01","time":"04:13:21"},{"rt":null,"stimulus":"<p style=\"font-size: 50px; margin: 0; text-align: center;\">+</p>","response":null,"trial_type":"html-keyboard-response","trial_index":64,"plugin_version":"2.1.0","time_elapsed":203359,"subject_id":"91362","group":"Group1","condition":"1_Rep","full_date":"2026-02-01T04:13:21.932Z","date":"2026-02-01","time":"04:13:21"},{"task":"memory_phase","broad_category":"I","image_png":"I_Diorite_05.png","image_id":37,"category_name":"Diorite","category":3,"distinct_rating":3.08,"distinct_type":"Bottom","rt":null,"stimulus":"Stimuli_Rocks480/I_Diorite_05.png","response":null,"trial_type":"image-keyboard-response","trial_index":65,"plugin_version":"2.1.0","time_elapsed":205871,"subject_id":"91362","group":"Group1","condition":"1_Rep","full_date":"2026-02-01T04:13:21.932Z","date":"2026-02-01","time":"04:13:21"},{"rt":null,"stimulus":"<p style=\"font-size: 50px; margin: 0; text-align: center;\">+</p>","response":null,"trial_type":"html-keyboard-response","trial_index":66,"plugin_version":"2.1.0","time_elapsed":206887,"subject_id":"91362","group":"Group1","condition":"1_Rep","full_date":"2026-02-01T04:13:21.932Z","date":"2026-02-01","time":"04:13:21"},{"task":"memory_phase","broad_category":"I","image_png":"I_Diorite_03.png","image_id":35,"category_name":"Diorite","category":3,"distinct_rating":3.14,"distinct_type":"Bottom","rt":null,"stimulus":"Stimuli_Rocks480/I_Diorite_03.png","response":null,"trial_type":"image-keyboard-response","trial_index":67,"plugin_version":"2.1.0","time_elapsed":209395,"subject_id":"91362","group":"Group1","condition":"1_Rep","full_date":"2026-02-01T04:13:21.932Z","date":"2026-02-01","time":"04:13:21"},{"rt":null,"stimulus":"<p style=\"font-size: 50px; margin: 0; text-align: center;\">+</p>","response":null,"trial_type":"html-keyboard-response","trial_index":68,"plugin_version":"2.1.0","time_elapsed":210402,"subject_id":"91362","group":"Group1","condition":"1_Rep","full_date":"2026-02-01T04:13:21.932Z","date":"2026-02-01","time":"04:13:21"},{"task":"memory_phase","broad_category":"S","image_png":"S_Rock Salt_01.png","image_id":433,"category_name":"Rock Salt","category":28,"distinct_rating":7.18,"distinct_type":"Top","rt":null,"stimulus":"Stimuli_Rocks480/S_Rock Salt_01.png","response":null,"trial_type":"image-keyboard-response","trial_index":69,"plugin_version":"2.1.0","time_elapsed":212919,"subject_id":"91362","group":"Group1","condition":"1_Rep","full_date":"2026-02-01T04:13:21.932Z","date":"2026-02-01","time":"04:13:21"},{"rt":null,"stimulus":"<p style=\"font-size: 50px; margin: 0; text-align: center;\">+</p>","response":null,"trial_type":"html-keyboard-response","trial_index":70,"plugin_version":"2.1.0","time_elapsed":213934,"subject_id":"91362","group":"Group1","condition":"1_Rep","full_date":"2026-02-01T04:13:21.932Z","date":"2026-02-01","time":"04:13:21"},{"task":"memory_phase","broad_category":"S","image_png":"S_Shale_08.png","image_id":472,"category_name":"Shale","category":30,"distinct_rating":2.55,"distinct_type":"Bottom","rt":null,"stimulus":"Stimuli_Rocks480/S_Shale_08.png","response":null,"trial_type":"image-keyboard-response","trial_index":71,"plugin_version":"2.1.0","time_elapsed":216448,"subject_id":"91362","group":"Group1","condition":"1_Rep","full_date":"2026-02-01T04:13:21.932Z","date":"2026-02-01","time":"04:13:21"},{"rt":null,"stimulus":"<p style=\"font-size: 50px; margin: 0; text-align: center;\">+</p>","response":null,"trial_type":"html-keyboard-response","trial_index":72,"plugin_version":"2.1.0","time_elapsed":217454,"subject_id":"91362","group":"Group1","condition":"1_Rep","full_date":"2026-02-01T04:13:21.932Z","date":"2026-02-01","time":"04:13:21"},{"task":"memory_phase","broad_category":"I","image_png":"I_Gabbro_11.png","image_id":59,"category_name":"Gabbro","category":4,"distinct_rating":1.99,"distinct_type":"Bottom","rt":null,"stimulus":"Stimuli_Rocks480/I_Gabbro_11.png","response":null,"trial_type":"image-keyboard-response","trial_index":73,"plugin_version":"2.1.0","time_elapsed":219963,"subject_id":"91362","group":"Group1","condition":"1_Rep","full_date":"2026-02-01T04:13:21.932Z","date":"2026-02-01","time":"04:13:21"},{"rt":null,"stimulus":"<p style=\"font-size: 50px; margin: 0; text-align: center;\">+</p>","response":null,"trial_type":"html-keyboard-response","trial_index":74,"plugin_version":"2.1.0","time_elapsed":220982,"subject_id":"91362","group":"Group1","condition":"1_Rep","full_date":"2026-02-01T04:13:21.932Z","date":"2026-02-01","time":"04:13:21"},{"task":"memory_phase","broad_category":"I","image_png":"I_Pegmatite_16.png","image_id":112,"category_name":"Pegmatite","category":7,"distinct_rating":7.03,"distinct_type":"Top","rt":null,"stimulus":"Stimuli_Rocks480/I_Pegmatite_16.png","response":null,"trial_type":"image-keyboard-response","trial_index":75,"plugin_version":"2.1.0","time_elapsed":223490,"subject_id":"91362","group":"Group1","condition":"1_Rep","full_date":"2026-02-01T04:13:21.932Z","date":"2026-02-01","time":"04:13:21"},{"rt":null,"stimulus":"<p style=\"font-size: 50px; margin: 0; text-align: center;\">+</p>","response":null,"trial_type":"html-keyboard-response","trial_index":76,"plugin_version":"2.1.0","time_elapsed":224498,"subject_id":"91362","group":"Group1","condition":"1_Rep","full_date":"2026-02-01T04:13:21.932Z","date":"2026-02-01","time":"04:13:21"},{"task":"memory_phase","broad_category":"S","image_png":"S_Shale_12.png","image_id":476,"category_name":"Shale","category":30,"distinct_rating":2.48,"distinct_type":"Bottom","rt":null,"stimulus":"Stimuli_Rocks480/S_Shale_12.png","response":null,"trial_type":"image-keyboard-response","trial_index":77,"plugin_version":"2.1.0","time_elapsed":227007,"subject_id":"91362","group":"Group1","condition":"1_Rep","full_date":"2026-02-01T04:13:21.932Z","date":"2026-02-01","time":"04:13:21"},{"rt":null,"stimulus":"<p style=\"font-size: 50px; margin: 0; text-align: center;\">+</p>","response":null,"trial_type":"html-keyboard-response","trial_index":78,"plugin_version":"2.1.0","time_elapsed":228014,"subject_id":"91362","group":"Group1","condition":"1_Rep","full_date":"2026-02-01T04:13:21.932Z","date":"2026-02-01","time":"04:13:21"},{"task":"memory_phase","broad_category":"M","image_png":"M_Gneiss_13.png","image_id":205,"category_name":"Gneiss","category":13,"distinct_rating":3.26,"distinct_type":"Bottom","rt":null,"stimulus":"Stimuli_Rocks480/M_Gneiss_13.png","response":null,"trial_type":"image-keyboard-response","trial_index":79,"plugin_version":"2.1.0","time_elapsed":230521,"subject_id":"91362","group":"Group1","condition":"1_Rep","full_date":"2026-02-01T04:13:21.932Z","date":"2026-02-01","time":"04:13:21"},{"rt":null,"stimulus":"<p style=\"font-size: 50px; margin: 0; text-align: center;\">+</p>","response":null,"trial_type":"html-keyboard-response","trial_index":80,"plugin_version":"2.1.0","time_elapsed":231535,"subject_id":"91362","group":"Group1","condition":"1_Rep","full_date":"2026-02-01T04:13:21.932Z","date":"2026-02-01","time":"04:13:21"},{"task":"memory_phase","broad_category":"I","image_png":"I_Rhyolite_16.png","image_id":160,"category_name":"Rhyolite","category":10,"distinct_rating":2.19,"distinct_type":"Bottom","rt":null,"stimulus":"Stimuli_Rocks480/I_Rhyolite_16.png","response":null,"trial_type":"image-keyboard-response","trial_index":81,"plugin_version":"2.1.0","time_elapsed":234050,"subject_id":"91362","group":"Group1","condition":"1_Rep","full_date":"2026-02-01T04:13:21.932Z","date":"2026-02-01","time":"04:13:21"},{"rt":null,"stimulus":"<p style=\"font-size: 50px; margin: 0; text-align: center;\">+</p>","response":null,"trial_type":"html-keyboard-response","trial_index":82,"plugin_version":"2.1.0","time_elapsed":235065,"subject_id":"91362","group":"Group1","condition":"1_Rep","full_date":"2026-02-01T04:13:21.932Z","date":"2026-02-01","time":"04:13:21"},{"task":"memory_phase","broad_category":"M","image_png":"M_Slate_03.png","image_id":307,"category_name":"Slate","category":20,"distinct_rating":1.87,"distinct_type":"Bottom","rt":null,"stimulus":"Stimuli_Rocks480/M_Slate_03.png","response":null,"trial_type":"image-keyboard-response","trial_index":83,"plugin_version":"2.1.0","time_elapsed":237576,"subject_id":"91362","group":"Group1","condition":"1_Rep","full_date":"2026-02-01T04:13:21.932Z","date":"2026-02-01","time":"04:13:21"},{"rt":null,"stimulus":"<p style=\"font-size: 50px; margin: 0; text-align: center;\">+</p>","response":null,"trial_type":"html-keyboard-response","trial_index":84,"plugin_version":"2.1.0","time_elapsed":238591,"subject_id":"91362","group":"Group1","condition":"1_Rep","full_date":"2026-02-01T04:13:21.932Z","date":"2026-02-01","time":"04:13:21"},{"task":"memory_phase","broad_category":"I","image_png":"I_Gabbro_08.png","image_id":56,"category_name":"Gabbro","category":4,"distinct_rating":3.02,"distinct_type":"Bottom","rt":null,"stimulus":"Stimuli_Rocks480/I_Gabbro_08.png","response":null,"trial_type":"image-keyboard-response","trial_index":85,"plugin_version":"2.1.0","time_elapsed":241099,"subject_id":"91362","group":"Group1","condition":"1_Rep","full_date":"2026-02-01T04:13:21.932Z","date":"2026-02-01","time":"04:13:21"},{"rt":null,"stimulus":"<p style=\"font-size: 50px; margin: 0; text-align: center;\">+</p>","response":null,"trial_type":"html-keyboard-response","trial_index":86,"plugin_version":"2.1.0","time_elapsed":242117,"subject_id":"91362","group":"Group1","condition":"1_Rep","full_date":"2026-02-01T04:13:21.932Z","date":"2026-02-01","time":"04:13:21"},{"task":"memory_phase","broad_category":"I","image_png":"I_Basalt_02.png","image_id":18,"category_name":"Basalt","category":2,"distinct_rating":1.84,"distinct_type":"Bottom","rt":null,"stimulus":"Stimuli_Rocks480/I_Basalt_02.png","response":null,"trial_type":"image-keyboard-response","trial_index":87,"plugin_version":"2.1.0","time_elapsed":244620,"subject_id":"91362","group":"Group1","condition":"1_Rep","full_date":"2026-02-01T04:13:21.932Z","date":"2026-02-01","time":"04:13:21"},{"rt":null,"stimulus":"<p style=\"font-size: 50px; margin: 0; text-align: center;\">+</p>","response":null,"trial_type":"html-keyboard-response","trial_index":88,"plugin_version":"2.1.0","time_elapsed":245637,"subject_id":"91362","group":"Group1","condition":"1_Rep","full_date":"2026-02-01T04:13:21.932Z","date":"2026-02-01","time":"04:13:21"},{"task":"memory_phase","broad_category":"I","image_png":"I_Basalt_01.png","image_id":17,"category_name":"Basalt","category":2,"distinct_rating":1.92,"distinct_type":"Bottom","rt":null,"stimulus":"Stimuli_Rocks480/I_Basalt_01.png","response":null,"trial_type":"image-keyboard-response","trial_index":89,"plugin_version":"2.1.0","time_elapsed":248146,"subject_id":"91362","group":"Group1","condition":"1_Rep","full_date":"2026-02-01T04:13:21.932Z","date":"2026-02-01","time":"04:13:21"},{"rt":null,"stimulus":"<p style=\"font-size: 50px; margin: 0; text-align: center;\">+</p>","response":null,"trial_type":"html-keyboard-response","trial_index":90,"plugin_version":"2.1.0","time_elapsed":249151,"subject_id":"91362","group":"Group1","condition":"1_Rep","full_date":"2026-02-01T04:13:21.932Z","date":"2026-02-01","time":"04:13:21"},{"task":"memory_phase","broad_category":"S","image_png":"S_Breccia_11.png","image_id":347,"category_name":"Breccia","category":22,"distinct_rating":6.7,"distinct_type":"Top","rt":null,"stimulus":"Stimuli_Rocks480/S_Breccia_11.png","response":null,"trial_type":"image-keyboard-response","trial_index":91,"plugin_version":"2.1.0","time_elapsed":251665,"subject_id":"91362","group":"Group1","condition":"1_Rep","full_date":"2026-02-01T04:13:21.932Z","date":"2026-02-01","time":"04:13:21"},{"rt":null,"stimulus":"<p style=\"font-size: 50px; margin: 0; text-align: center;\">+</p>","response":null,"trial_type":"html-keyboard-response","trial_index":92,"plugin_version":"2.1.0","time_elapsed":252679,"subject_id":"91362","group":"Group1","condition":"1_Rep","full_date":"2026-02-01T04:13:21.932Z","date":"2026-02-01","time":"04:13:21"},{"task":"memory_phase","broad_category":"I","image_png":"I_Basalt_09.png","image_id":25,"category_name":"Basalt","category":2,"distinct_rating":1.89,"distinct_type":"Bottom","rt":null,"stimulus":"Stimuli_Rocks480/I_Basalt_09.png","response":null,"trial_type":"image-keyboard-response","trial_index":93,"plugin_version":"2.1.0","time_elapsed":255188,"subject_id":"91362","group":"Group1","condition":"1_Rep","full_date":"2026-02-01T04:13:21.932Z","date":"2026-02-01","time":"04:13:21"},{"rt":null,"stimulus":"<p style=\"font-size: 50px; margin: 0; text-align: center;\">+</p>","response":null,"trial_type":"html-keyboard-response","trial_index":94,"plugin_version":"2.1.0","time_elapsed":256194,"subject_id":"91362","group":"Group1","condition":"1_Rep","full_date":"2026-02-01T04:13:21.932Z","date":"2026-02-01","time":"04:13:21"},{"task":"memory_phase","broad_category":"S","image_png":"S_Sandstone_03.png","image_id":451,"category_name":"Sandstone","category":29,"distinct_rating":1.86,"distinct_type":"Bottom","rt":null,"stimulus":"Stimuli_Rocks480/S_Sandstone_03.png","response":null,"trial_type":"image-keyboard-response","trial_index":95,"plugin_version":"2.1.0","time_elapsed":258701,"subject_id":"91362","group":"Group1","condition":"1_Rep","full_date":"2026-02-01T04:13:21.932Z","date":"2026-02-01","time":"04:13:21"},{"rt":null,"stimulus":"<p style=\"font-size: 50px; margin: 0; text-align: center;\">+</p>","response":null,"trial_type":"html-keyboard-response","trial_index":96,"plugin_version":"2.1.0","time_elapsed":259716,"subject_id":"91362","group":"Group1","condition":"1_Rep","full_date":"2026-02-01T04:13:21.932Z","date":"2026-02-01","time":"04:13:21"},{"task":"memory_phase","broad_category":"I","image_png":"I_Obsidian_05.png","image_id":85,"category_name":"Obsidian","category":6,"distinct_rating":7.32,"distinct_type":"Top","rt":null,"stimulus":"Stimuli_Rocks480/I_Obsidian_05.png","response":null,"trial_type":"image-keyboard-response","trial_index":97,"plugin_version":"2.1.0","time_elapsed":262221,"subject_id":"91362","group":"Group1","condition":"1_Rep","full_date":"2026-02-01T04:13:21.932Z","date":"2026-02-01","time":"04:13:21"},{"rt":null,"stimulus":"<p style=\"font-size: 50px; margin: 0; text-align: center;\">+</p>","response":null,"trial_type":"html-keyboard-response","trial_index":98,"plugin_version":"2.1.0","time_elapsed":263226,"subject_id":"91362","group":"Group1","condition":"1_Rep","full_date":"2026-02-01T04:13:21.932Z","date":"2026-02-01","time":"04:13:21"},{"task":"memory_phase","broad_category":"I","image_png":"I_Andesite_06.png","image_id":6,"category_name":"Andesite","category":1,"distinct_rating":3.17,"distinct_type":"Bottom","rt":null,"stimulus":"Stimuli_Rocks480/I_Andesite_06.png","response":null,"trial_type":"image-keyboard-response","trial_index":99,"plugin_version":"2.1.0","time_elapsed":265729,"subject_id":"91362","group":"Group1","condition":"1_Rep","full_date":"2026-02-01T04:13:21.932Z","date":"2026-02-01","time":"04:13:21"},{"rt":null,"stimulus":"<p style=\"font-size: 50px; margin: 0; text-align: center;\">+</p>","response":null,"trial_type":"html-keyboard-response","trial_index":100,"plugin_version":"2.1.0","time_elapsed":266732,"subject_id":"91362","group":"Group1","condition":"1_Rep","full_date":"2026-02-01T04:13:21.932Z","date":"2026-02-01","time":"04:13:21"},{"task":"memory_phase","broad_category":"S","image_png":"S_Conglomerate_05.png","image_id":373,"category_name":"Conglomerate","category":24,"distinct_rating":7.32,"distinct_type":"Top","rt":null,"stimulus":"Stimuli_Rocks480/S_Conglomerate_05.png","response":null,"trial_type":"image-keyboard-response","trial_index":101,"plugin_version":"2.1.0","time_elapsed":269238,"subject_id":"91362","group":"Group1","condition":"1_Rep","full_date":"2026-02-01T04:13:21.932Z","date":"2026-02-01","time":"04:13:21"},{"rt":null,"stimulus":"<p style=\"font-size: 50px; margin: 0; text-align: center;\">+</p>","response":null,"trial_type":"html-keyboard-response","trial_index":102,"plugin_version":"2.1.0","time_elapsed":270241,"subject_id":"91362","group":"Group1","condition":"1_Rep","full_date":"2026-02-01T04:13:21.932Z","date":"2026-02-01","time":"04:13:21"},{"task":"memory_phase","broad_category":"M","image_png":"M_Phyllite_10.png","image_id":266,"category_name":"Phyllite","category":17,"distinct_rating":2.6,"distinct_type":"Bottom","rt":null,"stimulus":"Stimuli_Rocks480/M_Phyllite_10.png","response":null,"trial_type":"image-keyboard-response","trial_index":103,"plugin_version":"2.1.0","time_elapsed":272746,"subject_id":"91362","group":"Group1","condition":"1_Rep","full_date":"2026-02-01T04:13:21.932Z","date":"2026-02-01","time":"04:13:21"},{"rt":null,"stimulus":"<p style=\"font-size: 50px; margin: 0; text-align: center;\">+</p>","response":null,"trial_type":"html-keyboard-response","trial_index":104,"plugin_version":"2.1.0","time_elapsed":273753,"subject_id":"91362","group":"Group1","condition":"1_Rep","full_date":"2026-02-01T04:13:21.932Z","date":"2026-02-01","time":"04:13:21"},{"task":"memory_phase","broad_category":"I","image_png":"I_Rhyolite_11.png","image_id":155,"category_name":"Rhyolite","category":10,"distinct_rating":1.73,"distinct_type":"Bottom","rt":null,"stimulus":"Stimuli_Rocks480/I_Rhyolite_11.png","response":null,"trial_type":"image-keyboard-response","trial_index":105,"plugin_version":"2.1.0","time_elapsed":276267,"subject_id":"91362","group":"Group1","condition":"1_Rep","full_date":"2026-02-01T04:13:21.932Z","date":"2026-02-01","time":"04:13:21"},{"rt":5192,"stimulus":"<div style=\"max-width: 760px; margin: auto; font-size: 20px; line-height: 1.5;\">\n      <h1 style=\"text-align:center; font-size: 30px;\">Instructions for the Test Phase</h1>\n      <p>\n        The study phase is now complete.\n      </p>\n      <p>\n        In the test phase, you will again see a series of rock images. \n        Some will be ones you saw before - during the study phase, while others will be new.  \n        <b>Your task</b> is to decide whether you have seen each image before by pressing the corresponding key on your keyboard:<br><br>\n          <b>A</b> - NO (you did not see this image before)<br>\n          <b>L</b> - YES (you saw this image before)<br><br>\n        The test will proceed at your own pace. You will receive feedback after each response.  \n        Please try to respond <b>as accurately as possible</b>.\n      </p>\n      <p>\n        <b>Reminder:</b> If your computer has multiple language settings (e.g., English and another language),\n        please ensure it is set to English during the test phase.\n      </p>\n      <p>\n        You can track your progress using the <b>completion bar</b> at the top of the screen.  \n        Note that it has been refreshed to reflect your progress during this final phase.\n      </p>\n      <p>\n        Press the button below when you are ready to continue.\n      </p>\n    </div>","response":0,"trial_type":"html-button-response","trial_index":106,"plugin_version":"2.1.0","time_elapsed":281463,"subject_id":"91362","group":"Group1","condition":"1_Rep","full_date":"2026-02-01T04:13:21.932Z","date":"2026-02-01","time":"04:13:21"},{"correct_response":"l","task":"test_phase","broad_category":"I","image_png":"I_Pumice_08.png","image_id":136,"category_name":"Pumice","category":9,"distinct_rating":3.1,"distinct_type":"Bottom","item_type":"Target","rt":2418,"stimulus":"Stimuli_Rocks480/I_Pumice_08.png","response":"l","trial_type":"image-keyboard-response","trial_index":107,"plugin_version":"2.1.0","time_elapsed":283885,"subject_id":"91362","group":"Group1","condition":"1_Rep","full_date":"2026-02-01T04:13:21.932Z","date":"2026-02-01","time":"04:13:21","cor_ans":true},{"trial_type":"html-keyboard-response","rt":null,"stimulus":"<p style=\"color: green; font-size: 50px; font-weight: bold;\">Correct</p>","response":null,"trial_index":108,"plugin_version":"2.1.0","time_elapsed":284389,"subject_id":"91362","group":"Group1","condition":"1_Rep","full_date":"2026-02-01T04:13:21.932Z","date":"2026-02-01","time":"04:13:21"},{"correct_response":"l","task":"test_phase","broad_category":"S","image_png":"S_Chert_10.png","image_id":362,"category_name":"Chert","category":23,"distinct_rating":7.17,"distinct_type":"Top","item_type":"Target","rt":1456,"stimulus":"Stimuli_Rocks480/S_Chert_10.png","response":"l","trial_type":"image-keyboard-response","trial_index":109,"plugin_version":"2.1.0","time_elapsed":285848,"subject_id":"91362","group":"Group1","condition":"1_Rep","full_date":"2026-02-01T04:13:21.932Z","date":"2026-02-01","time":"04:13:21","cor_ans":true},{"trial_type":"html-keyboard-response","rt":null,"stimulus":"<p style=\"color: green; font-size: 50px; font-weight: bold;\">Correct</p>","response":null,"trial_index":110,"plugin_version":"2.1.0","time_elapsed":286363,"subject_id":"91362","group":"Group1","condition":"1_Rep","full_date":"2026-02-01T04:13:21.932Z","date":"2026-02-01","time":"04:13:21"},{"correct_response":"a","task":"test_phase","broad_category":"I","image_png":"I_Andesite_03.png","image_id":3,"category_name":"Andesite","category":1,"distinct_rating":3.17,"distinct_type":"Bottom","item_type":"Foil","rt":5503,"stimulus":"Stimuli_Rocks480/I_Andesite_03.png","response":"l","trial_type":"image-keyboard-response","trial_index":111,"plugin_version":"2.1.0","time_elapsed":291869,"subject_id":"91362","group":"Group1","condition":"1_Rep","full_date":"2026-02-01T04:13:21.932Z","date":"2026-02-01","time":"04:13:21","cor_ans":false},{"trial_type":"html-keyboard-response","rt":null,"stimulus":"<p style=\"color: red; font-size: 50px; font-weight: bold;\">Incorrect</p>","response":null,"trial_index":112,"plugin_version":"2.1.0","time_elapsed":292373,"subject_id":"91362","group":"Group1","condition":"1_Rep","full_date":"2026-02-01T04:13:21.932Z","date":"2026-02-01","time":"04:13:21"},{"correct_response":"a","task":"test_phase","broad_category":"M","image_png":"M_Quartzite_15.png","image_id":287,"category_name":"Quartzite","category":18,"distinct_rating":2.19,"distinct_type":"Bottom","item_type":"Foil","rt":2018,"stimulus":"Stimuli_Rocks480/M_Quartzite_15.png","response":"l","trial_type":"image-keyboard-response","trial_index":113,"plugin_version":"2.1.0","time_elapsed":294394,"subject_id":"91362","group":"Group1","condition":"1_Rep","full_date":"2026-02-01T04:13:21.932Z","date":"2026-02-01","time":"04:13:21","cor_ans":false},{"trial_type":"html-keyboard-response","rt":null,"stimulus":"<p style=\"color: red; font-size: 50px; font-weight: bold;\">Incorrect</p>","response":null,"trial_index":114,"plugin_version":"2.1.0","time_elapsed":294904,"subject_id":"91362","group":"Group1","condition":"1_Rep","full_date":"2026-02-01T04:13:21.932Z","date":"2026-02-01","time":"04:13:21"},{"correct_response":"l","task":"test_phase","broad_category":"I","image_png":"I_Rhyolite_14.png","image_id":158,"category_name":"Rhyolite","category":10,"distinct_rating":2.59,"distinct_type":"Bottom","item_type":"Target","rt":1498,"stimulus":"Stimuli_Rocks480/I_Rhyolite_14.png","response":"l","trial_type":"image-keyboard-response","trial_index":115,"plugin_version":"2.1.0","time_elapsed":296404,"subject_id":"91362","group":"Group1","condition":"1_Rep","full_date":"2026-02-01T04:13:21.932Z","date":"2026-02-01","time":"04:13:21","cor_ans":true},{"trial_type":"html-keyboard-response","rt":null,"stimulus":"<p style=\"color: green; font-size: 50px; font-weight: bold;\">Correct</p>","response":null,"trial_index":116,"plugin_version":"2.1.0","time_elapsed":296920,"subject_id":"91362","group":"Group1","condition":"1_Rep","full_date":"2026-02-01T04:13:21.932Z","date":"2026-02-01","time":"04:13:21"},{"correct_response":"l","task":"test_phase","broad_category":"I","image_png":"I_Basalt_02.png","image_id":18,"category_name":"Basalt","category":2,"distinct_rating":1.84,"distinct_type":"Bottom","item_type":"Target","rt":1198,"stimulus":"Stimuli_Rocks480/I_Basalt_02.png","response":"l","trial_type":"image-keyboard-response","trial_index":117,"plugin_version":"2.1.0","time_elapsed":298120,"subject_id":"91362","group":"Group1","condition":"1_Rep","full_date":"2026-02-01T04:13:21.932Z","date":"2026-02-01","time":"04:13:21","cor_ans":true},{"trial_type":"html-keyboard-response","rt":null,"stimulus":"<p style=\"color: green; font-size: 50px; font-weight: bold;\">Correct</p>","response":null,"trial_index":118,"plugin_version":"2.1.0","time_elapsed":298631,"subject_id":"91362","group":"Group1","condition":"1_Rep","full_date":"2026-02-01T04:13:21.932Z","date":"2026-02-01","time":"04:13:21"},{"correct_response":"a","task":"test_phase","broad_category":"M","image_png":"M_Marble_02.png","image_id":226,"category_name":"Marble","category":15,"distinct_rating":3.2,"distinct_type":"Bottom","item_type":"Foil","rt":1270,"stimulus":"Stimuli_Rocks480/M_Marble_02.png","response":"l","trial_type":"image-keyboard-response","trial_index":119,"plugin_version":"2.1.0","time_elapsed":299904,"subject_id":"91362","group":"Group1","condition":"1_Rep","full_date":"2026-02-01T04:13:21.932Z","date":"2026-02-01","time":"04:13:21","cor_ans":false},{"trial_type":"html-keyboard-response","rt":null,"stimulus":"<p style=\"color: red; font-size: 50px; font-weight: bold;\">Incorrect</p>","response":null,"trial_index":120,"plugin_version":"2.1.0","time_elapsed":300406,"subject_id":"91362","group":"Group1","condition":"1_Rep","full_date":"2026-02-01T04:13:21.932Z","date":"2026-02-01","time":"04:13:21"},{"correct_response":"l","task":"test_phase","broad_category":"M","image_png":"M_Gneiss_05.png","image_id":197,"category_name":"Gneiss","category":13,"distinct_rating":2.97,"distinct_type":"Bottom","item_type":"Target","rt":2950,"stimulus":"Stimuli_Rocks480/M_Gneiss_05.png","response":"l","trial_type":"image-keyboard-response","trial_index":121,"plugin_version":"2.1.0","time_elapsed":303359,"subject_id":"91362","group":"Group1","condition":"1_Rep","full_date":"2026-02-01T04:13:21.932Z","date":"2026-02-01","time":"04:13:21","cor_ans":true},{"trial_type":"html-keyboard-response","rt":null,"stimulus":"<p style=\"color: green; font-size: 50px; font-weight: bold;\">Correct</p>","response":null,"trial_index":122,"plugin_version":"2.1.0","time_elapsed":303874,"subject_id":"91362","group":"Group1","condition":"1_Rep","full_date":"2026-02-01T04:13:21.932Z","date":"2026-02-01","time":"04:13:21"},{"correct_response":"l","task":"test_phase","broad_category":"I","image_png":"I_Gabbro_08.png","image_id":56,"category_name":"Gabbro","category":4,"distinct_rating":3.02,"distinct_type":"Bottom","item_type":"Target","rt":1841,"stimulus":"Stimuli_Rocks480/I_Gabbro_08.png","response":"l","trial_type":"image-keyboard-response","trial_index":123,"plugin_version":"2.1.0","time_elapsed":305718,"subject_id":"91362","group":"Group1","condition":"1_Rep","full_date":"2026-02-01T04:13:21.932Z","date":"2026-02-01","time":"04:13:21","cor_ans":true},{"trial_type":"html-keyboard-response","rt":null,"stimulus":"<p style=\"color: green; font-size: 50px; font-weight: bold;\">Correct</p>","response":null,"trial_index":124,"plugin_version":"2.1.0","time_elapsed":306224,"subject_id":"91362","group":"Group1","condition":"1_Rep","full_date":"2026-02-01T04:13:21.932Z","date":"2026-02-01","time":"04:13:21"},{"correct_response":"a","task":"test_phase","broad_category":"S","image_png":"S_Shale_03.png","image_id":467,"category_name":"Shale","category":30,"distinct_rating":1.95,"distinct_type":"Bottom","item_type":"Foil","rt":3802,"stimulus":"Stimuli_Rocks480/S_Shale_03.png","response":"a","trial_type":"image-keyboard-response","trial_index":125,"plugin_version":"2.1.0","time_elapsed":310028,"subject_id":"91362","group":"Group1","condition":"1_Rep","full_date":"2026-02-01T04:13:21.932Z","date":"2026-02-01","time":"04:13:21","cor_ans":true},{"trial_type":"html-keyboard-response","rt":null,"stimulus":"<p style=\"color: green; font-size: 50px; font-weight: bold;\">Correct</p>","response":null,"trial_index":126,"plugin_version":"2.1.0","time_elapsed":310544,"subject_id":"91362","group":"Group1","condition":"1_Rep","full_date":"2026-02-01T04:13:21.932Z","date":"2026-02-01","time":"04:13:21"},{"correct_response":"l","task":"test_phase","broad_category":"S","image_png":"S_Dolomite_12.png","image_id":396,"category_name":"Dolomite","category":25,"distinct_rating":1.85,"distinct_type":"Bottom","item_type":"Target","rt":2410,"stimulus":"Stimuli_Rocks480/S_Dolomite_12.png","response":"l","trial_type":"image-keyboard-response","trial_index":127,"plugin_version":"2.1.0","time_elapsed":312956,"subject_id":"91362","group":"Group1","condition":"1_Rep","full_date":"2026-02-01T04:13:21.932Z","date":"2026-02-01","time":"04:13:21","cor_ans":true},{"trial_type":"html-keyboard-response","rt":null,"stimulus":"<p style=\"color: green; font-size: 50px; font-weight: bold;\">Correct</p>","response":null,"trial_index":128,"plugin_version":"2.1.0","time_elapsed":313462,"subject_id":"91362","group":"Group1","condition":"1_Rep","full_date":"2026-02-01T04:13:21.932Z","date":"2026-02-01","time":"04:13:21"},{"correct_response":"l","task":"test_phase","broad_category":"I","image_png":"I_Gabbro_16.png","image_id":64,"category_name":"Gabbro","category":4,"distinct_rating":2.52,"distinct_type":"Bottom","item_type":"Target","rt":1623,"stimulus":"Stimuli_Rocks480/I_Gabbro_16.png","response":"a","trial_type":"image-keyboard-response","trial_index":129,"plugin_version":"2.1.0","time_elapsed":315088,"subject_id":"91362","group":"Group1","condition":"1_Rep","full_date":"2026-02-01T04:13:21.932Z","date":"2026-02-01","time":"04:13:21","cor_ans":false},{"trial_type":"html-keyboard-response","rt":null,"stimulus":"<p style=\"color: red; font-size: 50px; font-weight: bold;\">Incorrect</p>","response":null,"trial_index":130,"plugin_version":"2.1.0","time_elapsed":315596,"subject_id":"91362","group":"Group1","condition":"1_Rep","full_date":"2026-02-01T04:13:21.932Z","date":"2026-02-01","time":"04:13:21"},{"correct_response":"l","task":"test_phase","broad_category":"I","image_png":"I_Pumice_11.png","image_id":139,"category_name":"Pumice","category":9,"distinct_rating":1.74,"distinct_type":"Bottom","item_type":"Target","rt":4101,"stimulus":"Stimuli_Rocks480/I_Pumice_11.png","response":"a","trial_type":"image-keyboard-response","trial_index":131,"plugin_version":"2.1.0","time_elapsed":319699,"subject_id":"91362","group":"Group1","condition":"1_Rep","full_date":"2026-02-01T04:13:21.932Z","date":"2026-02-01","time":"04:13:21","cor_ans":false},{"trial_type":"html-keyboard-response","rt":null,"stimulus":"<p style=\"color: red; font-size: 50px; font-weight: bold;\">Incorrect</p>","response":null,"trial_index":132,"plugin_version":"2.1.0","time_elapsed":320208,"subject_id":"91362","group":"Group1","condition":"1_Rep","full_date":"2026-02-01T04:13:21.932Z","date":"2026-02-01","time":"04:13:21"},{"correct_response":"l","task":"test_phase","broad_category":"I","image_png":"I_Pumice_12.png","image_id":140,"category_name":"Pumice","category":9,"distinct_rating":2.97,"distinct_type":"Bottom","item_type":"Target","rt":1194,"stimulus":"Stimuli_Rocks480/I_Pumice_12.png","response":"a","trial_type":"image-keyboard-response","trial_index":133,"plugin_version":"2.1.0","time_elapsed":321404,"subject_id":"91362","group":"Group1","condition":"1_Rep","full_date":"2026-02-01T04:13:21.932Z","date":"2026-02-01","time":"04:13:21","cor_ans":false},{"trial_type":"html-keyboard-response","rt":null,"stimulus":"<p style=\"color: red; font-size: 50px; font-weight: bold;\">Incorrect</p>","response":null,"trial_index":134,"plugin_version":"2.1.0","time_elapsed":321916,"subject_id":"91362","group":"Group1","condition":"1_Rep","full_date":"2026-02-01T04:13:21.932Z","date":"2026-02-01","time":"04:13:21"},{"correct_response":"l","task":"test_phase","broad_category":"I","image_png":"I_Pegmatite_10.png","image_id":106,"category_name":"Pegmatite","category":7,"distinct_rating":7.66,"distinct_type":"Top","item_type":"Target","rt":1123,"stimulus":"Stimuli_Rocks480/I_Pegmatite_10.png","response":"l","trial_type":"image-keyboard-response","trial_index":135,"plugin_version":"2.1.0","time_elapsed":323042,"subject_id":"91362","group":"Group1","condition":"1_Rep","full_date":"2026-02-01T04:13:21.932Z","date":"2026-02-01","time":"04:13:21","cor_ans":true},{"trial_type":"html-keyboard-response","rt":null,"stimulus":"<p style=\"color: green; font-size: 50px; font-weight: bold;\">Correct</p>","response":null,"trial_index":136,"plugin_version":"2.1.0","time_elapsed":323556,"subject_id":"91362","group":"Group1","condition":"1_Rep","full_date":"2026-02-01T04:13:21.932Z","date":"2026-02-01","time":"04:13:21"},{"correct_response":"a","task":"test_phase","broad_category":"S","image_png":"S_Chert_13.png","image_id":365,"category_name":"Chert","category":23,"distinct_rating":6.57,"distinct_type":"Top","item_type":"Foil","rt":1531,"stimulus":"Stimuli_Rocks480/S_Chert_13.png","response":"l","trial_type":"image-keyboard-response","trial_index":137,"plugin_version":"2.1.0","time_elapsed":325089,"subject_id":"91362","group":"Group1","condition":"1_Rep","full_date":"2026-02-01T04:13:21.932Z","date":"2026-02-01","time":"04:13:21","cor_ans":false},{"trial_type":"html-keyboard-response","rt":null,"stimulus":"<p style=\"color: red; font-size: 50px; font-weight: bold;\">Incorrect</p>","response":null,"trial_index":138,"plugin_version":"2.1.0","time_elapsed":325595,"subject_id":"91362","group":"Group1","condition":"1_Rep","full_date":"2026-02-01T04:13:21.932Z","date":"2026-02-01","time":"04:13:21"},{"correct_response":"a","task":"test_phase","broad_category":"I","image_png":"I_Diorite_10.png","image_id":42,"category_name":"Diorite","category":3,"distinct_rating":2.84,"distinct_type":"Bottom","item_type":"Foil","rt":3343,"stimulus":"Stimuli_Rocks480/I_Diorite_10.png","response":"a","trial_type":"image-keyboard-response","trial_index":139,"plugin_version":"2.1.0","time_elapsed":328941,"subject_id":"91362","group":"Group1","condition":"1_Rep","full_date":"2026-02-01T04:13:21.932Z","date":"2026-02-01","time":"04:13:21","cor_ans":true},{"trial_type":"html-keyboard-response","rt":null,"stimulus":"<p style=\"color: green; font-size: 50px; font-weight: bold;\">Correct</p>","response":null,"trial_index":140,"plugin_version":"2.1.0","time_elapsed":329457,"subject_id":"91362","group":"Group1","condition":"1_Rep","full_date":"2026-02-01T04:13:21.932Z","date":"2026-02-01","time":"04:13:21"},{"correct_response":"l","task":"test_phase","broad_category":"I","image_png":"I_Diorite_03.png","image_id":35,"category_name":"Diorite","category":3,"distinct_rating":3.14,"distinct_type":"Bottom","item_type":"Target","rt":1213,"stimulus":"Stimuli_Rocks480/I_Diorite_03.png","response":"l","trial_type":"image-keyboard-response","trial_index":141,"plugin_version":"2.1.0","time_elapsed":330673,"subject_id":"91362","group":"Group1","condition":"1_Rep","full_date":"2026-02-01T04:13:21.932Z","date":"2026-02-01","time":"04:13:21","cor_ans":true},{"trial_type":"html-keyboard-response","rt":null,"stimulus":"<p style=\"color: green; font-size: 50px; font-weight: bold;\">Correct</p>","response":null,"trial_index":142,"plugin_version":"2.1.0","time_elapsed":331183,"subject_id":"91362","group":"Group1","condition":"1_Rep","full_date":"2026-02-01T04:13:21.932Z","date":"2026-02-01","time":"04:13:21"},{"correct_response":"a","task":"test_phase","broad_category":"I","image_png":"I_Diorite_01.png","image_id":33,"category_name":"Diorite","category":3,"distinct_rating":2.97,"distinct_type":"Bottom","item_type":"Foil","rt":1292,"stimulus":"Stimuli_Rocks480/I_Diorite_01.png","response":"l","trial_type":"image-keyboard-response","trial_index":143,"plugin_version":"2.1.0","time_elapsed":332477,"subject_id":"91362","group":"Group1","condition":"1_Rep","full_date":"2026-02-01T04:13:21.932Z","date":"2026-02-01","time":"04:13:21","cor_ans":false},{"trial_type":"html-keyboard-response","rt":null,"stimulus":"<p style=\"color: red; font-size: 50px; font-weight: bold;\">Incorrect</p>","response":null,"trial_index":144,"plugin_version":"2.1.0","time_elapsed":332979,"subject_id":"91362","group":"Group1","condition":"1_Rep","full_date":"2026-02-01T04:13:21.932Z","date":"2026-02-01","time":"04:13:21"},{"correct_response":"l","task":"test_phase","broad_category":"M","image_png":"M_Gneiss_13.png","image_id":205,"category_name":"Gneiss","category":13,"distinct_rating":3.26,"distinct_type":"Bottom","item_type":"Target","rt":1433,"stimulus":"Stimuli_Rocks480/M_Gneiss_13.png","response":"a","trial_type":"image-keyboard-response","trial_index":145,"plugin_version":"2.1.0","time_elapsed":334415,"subject_id":"91362","group":"Group1","condition":"1_Rep","full_date":"2026-02-01T04:13:21.932Z","date":"2026-02-01","time":"04:13:21","cor_ans":false},{"trial_type":"html-keyboard-response","rt":null,"stimulus":"<p style=\"color: red; font-size: 50px; font-weight: bold;\">Incorrect</p>","response":null,"trial_index":146,"plugin_version":"2.1.0","time_elapsed":334926,"subject_id":"91362","group":"Group1","condition":"1_Rep","full_date":"2026-02-01T04:13:21.932Z","date":"2026-02-01","time":"04:13:21"},{"correct_response":"l","task":"test_phase","broad_category":"S","image_png":"S_Rock Gypsum_04.png","image_id":420,"category_name":"Rock Gypsum","category":27,"distinct_rating":7.61,"distinct_type":"Top","item_type":"Target","rt":2339,"stimulus":"Stimuli_Rocks480/S_Rock Gypsum_04.png","response":"l","trial_type":"image-keyboard-response","trial_index":147,"plugin_version":"2.1.0","time_elapsed":337267,"subject_id":"91362","group":"Group1","condition":"1_Rep","full_date":"2026-02-01T04:13:21.932Z","date":"2026-02-01","time":"04:13:21","cor_ans":true},{"trial_type":"html-keyboard-response","rt":null,"stimulus":"<p style=\"color: green; font-size: 50px; font-weight: bold;\">Correct</p>","response":null,"trial_index":148,"plugin_version":"2.1.0","time_elapsed":337775,"subject_id":"91362","group":"Group1","condition":"1_Rep","full_date":"2026-02-01T04:13:21.932Z","date":"2026-02-01","time":"04:13:21"},{"correct_response":"a","task":"test_phase","broad_category":"S","image_png":"S_Dolomite_16.png","image_id":400,"category_name":"Dolomite","category":25,"distinct_rating":1.71,"distinct_type":"Bottom","item_type":"Foil","rt":1909,"stimulus":"Stimuli_Rocks480/S_Dolomite_16.png","response":"l","trial_type":"image-keyboard-response","trial_index":149,"plugin_version":"2.1.0","time_elapsed":339685,"subject_id":"91362","group":"Group1","condition":"1_Rep","full_date":"2026-02-01T04:13:21.932Z","date":"2026-02-01","time":"04:13:21","cor_ans":false},{"trial_type":"html-keyboard-response","rt":null,"stimulus":"<p style=\"color: red; font-size: 50px; font-weight: bold;\">Incorrect</p>","response":null,"trial_index":150,"plugin_version":"2.1.0","time_elapsed":340199,"subject_id":"91362","group":"Group1","condition":"1_Rep","full_date":"2026-02-01T04:13:21.932Z","date":"2026-02-01","time":"04:13:21"},{"correct_response":"l","task":"test_phase","broad_category":"M","image_png":"M_Phyllite_03.png","image_id":259,"category_name":"Phyllite","category":17,"distinct_rating":2.5,"distinct_type":"Bottom","item_type":"Target","rt":852,"stimulus":"Stimuli_Rocks480/M_Phyllite_03.png","response":"l","trial_type":"image-keyboard-response","trial_index":151,"plugin_version":"2.1.0","time_elapsed":341053,"subject_id":"91362","group":"Group1","condition":"1_Rep","full_date":"2026-02-01T04:13:21.932Z","date":"2026-02-01","time":"04:13:21","cor_ans":true},{"trial_type":"html-keyboard-response","rt":null,"stimulus":"<p style=\"color: green; font-size: 50px; font-weight: bold;\">Correct</p>","response":null,"trial_index":152,"plugin_version":"2.1.0","time_elapsed":341568,"subject_id":"91362","group":"Group1","condition":"1_Rep","full_date":"2026-02-01T04:13:21.932Z","date":"2026-02-01","time":"04:13:21"},{"correct_response":"l","task":"test_phase","broad_category":"I","image_png":"I_Obsidian_05.png","image_id":85,"category_name":"Obsidian","category":6,"distinct_rating":7.32,"distinct_type":"Top","item_type":"Target","rt":885,"stimulus":"Stimuli_Rocks480/I_Obsidian_05.png","response":"l","trial_type":"image-keyboard-response","trial_index":153,"plugin_version":"2.1.0","time_elapsed":342455,"subject_id":"91362","group":"Group1","condition":"1_Rep","full_date":"2026-02-01T04:13:21.932Z","date":"2026-02-01","time":"04:13:21","cor_ans":true},{"trial_type":"html-keyboard-response","rt":null,"stimulus":"<p style=\"color: green; font-size: 50px; font-weight: bold;\">Correct</p>","response":null,"trial_index":154,"plugin_version":"2.1.0","time_elapsed":342966,"subject_id":"91362","group":"Group1","condition":"1_Rep","full_date":"2026-02-01T04:13:21.932Z","date":"2026-02-01","time":"04:13:21"},{"correct_response":"a","task":"test_phase","broad_category":"S","image_png":"S_Sandstone_11.png","image_id":459,"category_name":"Sandstone","category":29,"distinct_rating":1.82,"distinct_type":"Bottom","item_type":"Foil","rt":1676,"stimulus":"Stimuli_Rocks480/S_Sandstone_11.png","response":"a","trial_type":"image-keyboard-response","trial_index":155,"plugin_version":"2.1.0","time_elapsed":344645,"subject_id":"91362","group":"Group1","condition":"1_Rep","full_date":"2026-02-01T04:13:21.932Z","date":"2026-02-01","time":"04:13:21","cor_ans":true},{"trial_type":"html-keyboard-response","rt":null,"stimulus":"<p style=\"color: green; font-size: 50px; font-weight: bold;\">Correct</p>","response":null,"trial_index":156,"plugin_version":"2.1.0","time_elapsed":345147,"subject_id":"91362","group":"Group1","condition":"1_Rep","full_date":"2026-02-01T04:13:21.932Z","date":"2026-02-01","time":"04:13:21"},{"correct_response":"a","task":"test_phase","broad_category":"I","image_png":"I_Andesite_04.png","image_id":4,"category_name":"Andesite","category":1,"distinct_rating":3.18,"distinct_type":"Bottom","item_type":"Foil","rt":2571,"stimulus":"Stimuli_Rocks480/I_Andesite_04.png","response":"l","trial_type":"image-keyboard-response","trial_index":157,"plugin_version":"2.1.0","time_elapsed":347721,"subject_id":"91362","group":"Group1","condition":"1_Rep","full_date":"2026-02-01T04:13:21.932Z","date":"2026-02-01","time":"04:13:21","cor_ans":false},{"trial_type":"html-keyboard-response","rt":null,"stimulus":"<p style=\"color: red; font-size: 50px; font-weight: bold;\">Incorrect</p>","response":null,"trial_index":158,"plugin_version":"2.1.0","time_elapsed":348233,"subject_id":"91362","group":"Group1","condition":"1_Rep","full_date":"2026-02-01T04:13:21.932Z","date":"2026-02-01","time":"04:13:21"},{"correct_response":"l","task":"test_phase","broad_category":"S","image_png":"S_Breccia_11.png","image_id":347,"category_name":"Breccia","category":22,"distinct_rating":6.7,"distinct_type":"Top","item_type":"Target","rt":1184,"stimulus":"Stimuli_Rocks480/S_Breccia_11.png","response":"l","trial_type":"image-keyboard-response","trial_index":159,"plugin_version":"2.1.0","time_elapsed":349419,"subject_id":"91362","group":"Group1","condition":"1_Rep","full_date":"2026-02-01T04:13:21.932Z","date":"2026-02-01","time":"04:13:21","cor_ans":true},{"trial_type":"html-keyboard-response","rt":null,"stimulus":"<p style=\"color: green; font-size: 50px; font-weight: bold;\">Correct</p>","response":null,"trial_index":160,"plugin_version":"2.1.0","time_elapsed":349933,"subject_id":"91362","group":"Group1","condition":"1_Rep","full_date":"2026-02-01T04:13:21.932Z","date":"2026-02-01","time":"04:13:21"},{"correct_response":"a","task":"test_phase","broad_category":"I","image_png":"I_Diorite_15.png","image_id":47,"category_name":"Diorite","category":3,"distinct_rating":3.05,"distinct_type":"Bottom","item_type":"Foil","rt":2737,"stimulus":"Stimuli_Rocks480/I_Diorite_15.png","response":"a","trial_type":"image-keyboard-response","trial_index":161,"plugin_version":"2.1.0","time_elapsed":352673,"subject_id":"91362","group":"Group1","condition":"1_Rep","full_date":"2026-02-01T04:13:21.932Z","date":"2026-02-01","time":"04:13:21","cor_ans":true},{"trial_type":"html-keyboard-response","rt":null,"stimulus":"<p style=\"color: green; font-size: 50px; font-weight: bold;\">Correct</p>","response":null,"trial_index":162,"plugin_version":"2.1.0","time_elapsed":353190,"subject_id":"91362","group":"Group1","condition":"1_Rep","full_date":"2026-02-01T04:13:21.932Z","date":"2026-02-01","time":"04:13:21"},{"correct_response":"a","task":"test_phase","broad_category":"M","image_png":"M_Gneiss_10.png","image_id":202,"category_name":"Gneiss","category":13,"distinct_rating":3.09,"distinct_type":"Bottom","item_type":"Foil","rt":1696,"stimulus":"Stimuli_Rocks480/M_Gneiss_10.png","response":"a","trial_type":"image-keyboard-response","trial_index":163,"plugin_version":"2.1.0","time_elapsed":354888,"subject_id":"91362","group":"Group1","condition":"1_Rep","full_date":"2026-02-01T04:13:21.932Z","date":"2026-02-01","time":"04:13:21","cor_ans":true},{"trial_type":"html-keyboard-response","rt":null,"stimulus":"<p style=\"color: green; font-size: 50px; font-weight: bold;\">Correct</p>","response":null,"trial_index":164,"plugin_version":"2.1.0","time_elapsed":355402,"subject_id":"91362","group":"Group1","condition":"1_Rep","full_date":"2026-02-01T04:13:21.932Z","date":"2026-02-01","time":"04:13:21"},{"correct_response":"l","task":"test_phase","broad_category":"I","image_png":"I_Gabbro_11.png","image_id":59,"category_name":"Gabbro","category":4,"distinct_rating":1.99,"distinct_type":"Bottom","item_type":"Target","rt":2476,"stimulus":"Stimuli_Rocks480/I_Gabbro_11.png","response":"l","trial_type":"image-keyboard-response","trial_index":165,"plugin_version":"2.1.0","time_elapsed":357880,"subject_id":"91362","group":"Group1","condition":"1_Rep","full_date":"2026-02-01T04:13:21.932Z","date":"2026-02-01","time":"04:13:21","cor_ans":true},{"trial_type":"html-keyboard-response","rt":null,"stimulus":"<p style=\"color: green; font-size: 50px; font-weight: bold;\">Correct</p>","response":null,"trial_index":166,"plugin_version":"2.1.0","time_elapsed":358382,"subject_id":"91362","group":"Group1","condition":"1_Rep","full_date":"2026-02-01T04:13:21.932Z","date":"2026-02-01","time":"04:13:21"},{"correct_response":"l","task":"test_phase","broad_category":"M","image_png":"M_Quartzite_08.png","image_id":280,"category_name":"Quartzite","category":18,"distinct_rating":2.15,"distinct_type":"Bottom","item_type":"Target","rt":1457,"stimulus":"Stimuli_Rocks480/M_Quartzite_08.png","response":"a","trial_type":"image-keyboard-response","trial_index":167,"plugin_version":"2.1.0","time_elapsed":359842,"subject_id":"91362","group":"Group1","condition":"1_Rep","full_date":"2026-02-01T04:13:21.932Z","date":"2026-02-01","time":"04:13:21","cor_ans":false},{"trial_type":"html-keyboard-response","rt":null,"stimulus":"<p style=\"color: red; font-size: 50px; font-weight: bold;\">Incorrect</p>","response":null,"trial_index":168,"plugin_version":"2.1.0","time_elapsed":360351,"subject_id":"91362","group":"Group1","condition":"1_Rep","full_date":"2026-02-01T04:13:21.932Z","date":"2026-02-01","time":"04:13:21"},{"correct_response":"a","task":"test_phase","broad_category":"S","image_png":"S_Rock Salt_13.png","image_id":445,"category_name":"Rock Salt","category":28,"distinct_rating":7.58,"distinct_type":"Top","item_type":"Foil","rt":931,"stimulus":"Stimuli_Rocks480/S_Rock Salt_13.png","response":"a","trial_type":"image-keyboard-response","trial_index":169,"plugin_version":"2.1.0","time_elapsed":361284,"subject_id":"91362","group":"Group1","condition":"1_Rep","full_date":"2026-02-01T04:13:21.932Z","date":"2026-02-01","time":"04:13:21","cor_ans":true},{"trial_type":"html-keyboard-response","rt":null,"stimulus":"<p style=\"color: green; font-size: 50px; font-weight: bold;\">Correct</p>","response":null,"trial_index":170,"plugin_version":"2.1.0","time_elapsed":361800,"subject_id":"91362","group":"Group1","condition":"1_Rep","full_date":"2026-02-01T04:13:21.932Z","date":"2026-02-01","time":"04:13:21"},{"correct_response":"a","task":"test_phase","broad_category":"M","image_png":"M_Gneiss_14.png","image_id":206,"category_name":"Gneiss","category":13,"distinct_rating":3.41,"distinct_type":"Bottom","item_type":"Foil","rt":1366,"stimulus":"Stimuli_Rocks480/M_Gneiss_14.png","response":"a","trial_type":"image-keyboard-response","trial_index":171,"plugin_version":"2.1.0","time_elapsed":363168,"subject_id":"91362","group":"Group1","condition":"1_Rep","full_date":"2026-02-01T04:13:21.932Z","date":"2026-02-01","time":"04:13:21","cor_ans":true},{"trial_type":"html-keyboard-response","rt":null,"stimulus":"<p style=\"color: green; font-size: 50px; font-weight: bold;\">Correct</p>","response":null,"trial_index":172,"plugin_version":"2.1.0","time_elapsed":363672,"subject_id":"91362","group":"Group1","condition":"1_Rep","full_date":"2026-02-01T04:13:21.932Z","date":"2026-02-01","time":"04:13:21"},{"correct_response":"l","task":"test_phase","broad_category":"S","image_png":"S_Shale_01.png","image_id":465,"category_name":"Shale","category":30,"distinct_rating":2.7,"distinct_type":"Bottom","item_type":"Target","rt":1323,"stimulus":"Stimuli_Rocks480/S_Shale_01.png","response":"l","trial_type":"image-keyboard-response","trial_index":173,"plugin_version":"2.1.0","time_elapsed":364997,"subject_id":"91362","group":"Group1","condition":"1_Rep","full_date":"2026-02-01T04:13:21.932Z","date":"2026-02-01","time":"04:13:21","cor_ans":true},{"trial_type":"html-keyboard-response","rt":null,"stimulus":"<p style=\"color: green; font-size: 50px; font-weight: bold;\">Correct</p>","response":null,"trial_index":174,"plugin_version":"2.1.0","time_elapsed":365512,"subject_id":"91362","group":"Group1","condition":"1_Rep","full_date":"2026-02-01T04:13:21.932Z","date":"2026-02-01","time":"04:13:21"},{"correct_response":"l","task":"test_phase","broad_category":"M","image_png":"M_Marble_04.png","image_id":228,"category_name":"Marble","category":15,"distinct_rating":3.15,"distinct_type":"Bottom","item_type":"Target","rt":757,"stimulus":"Stimuli_Rocks480/M_Marble_04.png","response":"l","trial_type":"image-keyboard-response","trial_index":175,"plugin_version":"2.1.0","time_elapsed":366271,"subject_id":"91362","group":"Group1","condition":"1_Rep","full_date":"2026-02-01T04:13:21.932Z","date":"2026-02-01","time":"04:13:21","cor_ans":true},{"trial_type":"html-keyboard-response","rt":null,"stimulus":"<p style=\"color: green; font-size: 50px; font-weight: bold;\">Correct</p>","response":null,"trial_index":176,"plugin_version":"2.1.0","time_elapsed":366776,"subject_id":"91362","group":"Group1","condition":"1_Rep","full_date":"2026-02-01T04:13:21.932Z","date":"2026-02-01","time":"04:13:21"},{"correct_response":"l","task":"test_phase","broad_category":"I","image_png":"I_Diorite_05.png","image_id":37,"category_name":"Diorite","category":3,"distinct_rating":3.08,"distinct_type":"Bottom","item_type":"Target","rt":870,"stimulus":"Stimuli_Rocks480/I_Diorite_05.png","response":"l","trial_type":"image-keyboard-response","trial_index":177,"plugin_version":"2.1.0","time_elapsed":367648,"subject_id":"91362","group":"Group1","condition":"1_Rep","full_date":"2026-02-01T04:13:21.932Z","date":"2026-02-01","time":"04:13:21","cor_ans":true},{"trial_type":"html-keyboard-response","rt":null,"stimulus":"<p style=\"color: green; font-size: 50px; font-weight: bold;\">Correct</p>","response":null,"trial_index":178,"plugin_version":"2.1.0","time_elapsed":368163,"subject_id":"91362","group":"Group1","condition":"1_Rep","full_date":"2026-02-01T04:13:21.932Z","date":"2026-02-01","time":"04:13:21"},{"correct_response":"a","task":"test_phase","broad_category":"M","image_png":"M_Phyllite_13.png","image_id":269,"category_name":"Phyllite","category":17,"distinct_rating":2.8,"distinct_type":"Bottom","item_type":"Foil","rt":1351,"stimulus":"Stimuli_Rocks480/M_Phyllite_13.png","response":"a","trial_type":"image-keyboard-response","trial_index":179,"plugin_version":"2.1.0","time_elapsed":369517,"subject_id":"91362","group":"Group1","condition":"1_Rep","full_date":"2026-02-01T04:13:21.932Z","date":"2026-02-01","time":"04:13:21","cor_ans":true},{"trial_type":"html-keyboard-response","rt":null,"stimulus":"<p style=\"color: green; font-size: 50px; font-weight: bold;\">Correct</p>","response":null,"trial_index":180,"plugin_version":"2.1.0","time_elapsed":370029,"subject_id":"91362","group":"Group1","condition":"1_Rep","full_date":"2026-02-01T04:13:21.932Z","date":"2026-02-01","time":"04:13:21"},{"correct_response":"l","task":"test_phase","broad_category":"M","image_png":"M_Slate_11.png","image_id":315,"category_name":"Slate","category":20,"distinct_rating":2.75,"distinct_type":"Bottom","item_type":"Target","rt":1000,"stimulus":"Stimuli_Rocks480/M_Slate_11.png","response":"l","trial_type":"image-keyboard-response","trial_index":181,"plugin_version":"2.1.0","time_elapsed":371031,"subject_id":"91362","group":"Group1","condition":"1_Rep","full_date":"2026-02-01T04:13:21.932Z","date":"2026-02-01","time":"04:13:21","cor_ans":true},{"trial_type":"html-keyboard-response","rt":null,"stimulus":"<p style=\"color: green; font-size: 50px; font-weight: bold;\">Correct</p>","response":null,"trial_index":182,"plugin_version":"2.1.0","time_elapsed":371533,"subject_id":"91362","group":"Group1","condition":"1_Rep","full_date":"2026-02-01T04:13:21.932Z","date":"2026-02-01","time":"04:13:21"},{"correct_response":"a","task":"test_phase","broad_category":"M","image_png":"M_Phyllite_05.png","image_id":261,"category_name":"Phyllite","category":17,"distinct_rating":2.14,"distinct_type":"Bottom","item_type":"Foil","rt":1333,"stimulus":"Stimuli_Rocks480/M_Phyllite_05.png","response":"a","trial_type":"image-keyboard-response","trial_index":183,"plugin_version":"2.1.0","time_elapsed":372869,"subject_id":"91362","group":"Group1","condition":"1_Rep","full_date":"2026-02-01T04:13:21.932Z","date":"2026-02-01","time":"04:13:21","cor_ans":true},{"trial_type":"html-keyboard-response","rt":null,"stimulus":"<p style=\"color: green; font-size: 50px; font-weight: bold;\">Correct</p>","response":null,"trial_index":184,"plugin_version":"2.1.0","time_elapsed":373385,"subject_id":"91362","group":"Group1","condition":"1_Rep","full_date":"2026-02-01T04:13:21.932Z","date":"2026-02-01","time":"04:13:21"},{"correct_response":"a","task":"test_phase","broad_category":"M","image_png":"M_Marble_14.png","image_id":238,"category_name":"Marble","category":15,"distinct_rating":3.31,"distinct_type":"Bottom","item_type":"Foil","rt":954,"stimulus":"Stimuli_Rocks480/M_Marble_14.png","response":"l","trial_type":"image-keyboard-response","trial_index":185,"plugin_version":"2.1.0","time_elapsed":374342,"subject_id":"91362","group":"Group1","condition":"1_Rep","full_date":"2026-02-01T04:13:21.932Z","date":"2026-02-01","time":"04:13:21","cor_ans":false},{"trial_type":"html-keyboard-response","rt":null,"stimulus":"<p style=\"color: red; font-size: 50px; font-weight: bold;\">Incorrect</p>","response":null,"trial_index":186,"plugin_version":"2.1.0","time_elapsed":374847,"subject_id":"91362","group":"Group1","condition":"1_Rep","full_date":"2026-02-01T04:13:21.932Z","date":"2026-02-01","time":"04:13:21"},{"correct_response":"l","task":"test_phase","broad_category":"I","image_png":"I_Diorite_04.png","image_id":36,"category_name":"Diorite","category":3,"distinct_rating":2.98,"distinct_type":"Bottom","item_type":"Target","rt":1007,"stimulus":"Stimuli_Rocks480/I_Diorite_04.png","response":"l","trial_type":"image-keyboard-response","trial_index":187,"plugin_version":"2.1.0","time_elapsed":375856,"subject_id":"91362","group":"Group1","condition":"1_Rep","full_date":"2026-02-01T04:13:21.932Z","date":"2026-02-01","time":"04:13:21","cor_ans":true},{"trial_type":"html-keyboard-response","rt":null,"stimulus":"<p style=\"color: green; font-size: 50px; font-weight: bold;\">Correct</p>","response":null,"trial_index":188,"plugin_version":"2.1.0","time_elapsed":376363,"subject_id":"91362","group":"Group1","condition":"1_Rep","full_date":"2026-02-01T04:13:21.932Z","date":"2026-02-01","time":"04:13:21"},{"correct_response":"a","task":"test_phase","broad_category":"I","image_png":"I_Pumice_13.png","image_id":141,"category_name":"Pumice","category":9,"distinct_rating":3.12,"distinct_type":"Bottom","item_type":"Foil","rt":1039,"stimulus":"Stimuli_Rocks480/I_Pumice_13.png","response":"a","trial_type":"image-keyboard-response","trial_index":189,"plugin_version":"2.1.0","time_elapsed":377404,"subject_id":"91362","group":"Group1","condition":"1_Rep","full_date":"2026-02-01T04:13:21.932Z","date":"2026-02-01","time":"04:13:21","cor_ans":true},{"trial_type":"html-keyboard-response","rt":null,"stimulus":"<p style=\"color: green; font-size: 50px; font-weight: bold;\">Correct</p>","response":null,"trial_index":190,"plugin_version":"2.1.0","time_elapsed":377907,"subject_id":"91362","group":"Group1","condition":"1_Rep","full_date":"2026-02-01T04:13:21.932Z","date":"2026-02-01","time":"04:13:21"},{"correct_response":"l","task":"test_phase","broad_category":"S","image_png":"S_Sandstone_03.png","image_id":451,"category_name":"Sandstone","category":29,"distinct_rating":1.86,"distinct_type":"Bottom","item_type":"Target","rt":792,"stimulus":"Stimuli_Rocks480/S_Sandstone_03.png","response":"a","trial_type":"image-keyboard-response","trial_index":191,"plugin_version":"2.1.0","time_elapsed":378701,"subject_id":"91362","group":"Group1","condition":"1_Rep","full_date":"2026-02-01T04:13:21.932Z","date":"2026-02-01","time":"04:13:21","cor_ans":false},{"trial_type":"html-keyboard-response","rt":null,"stimulus":"<p style=\"color: red; font-size: 50px; font-weight: bold;\">Incorrect</p>","response":null,"trial_index":192,"plugin_version":"2.1.0","time_elapsed":379211,"subject_id":"91362","group":"Group1","condition":"1_Rep","full_date":"2026-02-01T04:13:21.932Z","date":"2026-02-01","time":"04:13:21"},{"correct_response":"a","task":"test_phase","broad_category":"I","image_png":"I_Rhyolite_08.png","image_id":152,"category_name":"Rhyolite","category":10,"distinct_rating":1.38,"distinct_type":"Bottom","item_type":"Foil","rt":867,"stimulus":"Stimuli_Rocks480/I_Rhyolite_08.png","response":"a","trial_type":"image-keyboard-response","trial_index":193,"plugin_version":"2.1.0","time_elapsed":380081,"subject_id":"91362","group":"Group1","condition":"1_Rep","full_date":"2026-02-01T04:13:21.932Z","date":"2026-02-01","time":"04:13:21","cor_ans":true},{"trial_type":"html-keyboard-response","rt":null,"stimulus":"<p style=\"color: green; font-size: 50px; font-weight: bold;\">Correct</p>","response":null,"trial_index":194,"plugin_version":"2.1.0","time_elapsed":380583,"subject_id":"91362","group":"Group1","condition":"1_Rep","full_date":"2026-02-01T04:13:21.932Z","date":"2026-02-01","time":"04:13:21"},{"correct_response":"l","task":"test_phase","broad_category":"M","image_png":"M_Phyllite_10.png","image_id":266,"category_name":"Phyllite","category":17,"distinct_rating":2.6,"distinct_type":"Bottom","item_type":"Target","rt":2127,"stimulus":"Stimuli_Rocks480/M_Phyllite_10.png","response":"a","trial_type":"image-keyboard-response","trial_index":195,"plugin_version":"2.1.0","time_elapsed":382712,"subject_id":"91362","group":"Group1","condition":"1_Rep","full_date":"2026-02-01T04:13:21.932Z","date":"2026-02-01","time":"04:13:21","cor_ans":false},{"trial_type":"html-keyboard-response","rt":null,"stimulus":"<p style=\"color: red; font-size: 50px; font-weight: bold;\">Incorrect</p>","response":null,"trial_index":196,"plugin_version":"2.1.0","time_elapsed":383222,"subject_id":"91362","group":"Group1","condition":"1_Rep","full_date":"2026-02-01T04:13:21.932Z","date":"2026-02-01","time":"04:13:21"},{"correct_response":"a","task":"test_phase","broad_category":"S","image_png":"S_Rock Salt_15.png","image_id":447,"category_name":"Rock Salt","category":28,"distinct_rating":7.79,"distinct_type":"Top","item_type":"Foil","rt":2408,"stimulus":"Stimuli_Rocks480/S_Rock Salt_15.png","response":"a","trial_type":"image-keyboard-response","trial_index":197,"plugin_version":"2.1.0","time_elapsed":385633,"subject_id":"91362","group":"Group1","condition":"1_Rep","full_date":"2026-02-01T04:13:21.932Z","date":"2026-02-01","time":"04:13:21","cor_ans":true},{"trial_type":"html-keyboard-response","rt":null,"stimulus":"<p style=\"color: green; font-size: 50px; font-weight: bold;\">Correct</p>","response":null,"trial_index":198,"plugin_version":"2.1.0","time_elapsed":386139,"subject_id":"91362","group":"Group1","condition":"1_Rep","full_date":"2026-02-01T04:13:21.932Z","date":"2026-02-01","time":"04:13:21"},{"correct_response":"a","task":"test_phase","broad_category":"I","image_png":"I_Gabbro_12.png","image_id":60,"category_name":"Gabbro","category":4,"distinct_rating":2.6,"distinct_type":"Bottom","item_type":"Foil","rt":1614,"stimulus":"Stimuli_Rocks480/I_Gabbro_12.png","response":"l","trial_type":"image-keyboard-response","trial_index":199,"plugin_version":"2.1.0","time_elapsed":387756,"subject_id":"91362","group":"Group1","condition":"1_Rep","full_date":"2026-02-01T04:13:21.932Z","date":"2026-02-01","time":"04:13:21","cor_ans":false},{"trial_type":"html-keyboard-response","rt":null,"stimulus":"<p style=\"color: red; font-size: 50px; font-weight: bold;\">Incorrect</p>","response":null,"trial_index":200,"plugin_version":"2.1.0","time_elapsed":388259,"subject_id":"91362","group":"Group1","condition":"1_Rep","full_date":"2026-02-01T04:13:21.932Z","date":"2026-02-01","time":"04:13:21"},{"correct_response":"l","task":"test_phase","broad_category":"I","image_png":"I_Basalt_09.png","image_id":25,"category_name":"Basalt","category":2,"distinct_rating":1.89,"distinct_type":"Bottom","item_type":"Target","rt":676,"stimulus":"Stimuli_Rocks480/I_Basalt_09.png","response":"l","trial_type":"image-keyboard-response","trial_index":201,"plugin_version":"2.1.0","time_elapsed":388938,"subject_id":"91362","group":"Group1","condition":"1_Rep","full_date":"2026-02-01T04:13:21.932Z","date":"2026-02-01","time":"04:13:21","cor_ans":true},{"trial_type":"html-keyboard-response","rt":null,"stimulus":"<p style=\"color: green; font-size: 50px; font-weight: bold;\">Correct</p>","response":null,"trial_index":202,"plugin_version":"2.1.0","time_elapsed":389454,"subject_id":"91362","group":"Group1","condition":"1_Rep","full_date":"2026-02-01T04:13:21.932Z","date":"2026-02-01","time":"04:13:21"},{"correct_response":"a","task":"test_phase","broad_category":"S","image_png":"S_Sandstone_04.png","image_id":452,"category_name":"Sandstone","category":29,"distinct_rating":1.8,"distinct_type":"Bottom","item_type":"Foil","rt":3346,"stimulus":"Stimuli_Rocks480/S_Sandstone_04.png","response":"a","trial_type":"image-keyboard-response","trial_index":203,"plugin_version":"2.1.0","time_elapsed":392803,"subject_id":"91362","group":"Group1","condition":"1_Rep","full_date":"2026-02-01T04:13:21.932Z","date":"2026-02-01","time":"04:13:21","cor_ans":true},{"trial_type":"html-keyboard-response","rt":null,"stimulus":"<p style=\"color: green; font-size: 50px; font-weight: bold;\">Correct</p>","response":null,"trial_index":204,"plugin_version":"2.1.0","time_elapsed":393309,"subject_id":"91362","group":"Group1","condition":"1_Rep","full_date":"2026-02-01T04:13:21.932Z","date":"2026-02-01","time":"04:13:21"},{"correct_response":"a","task":"test_phase","broad_category":"I","image_png":"I_Pegmatite_11.png","image_id":107,"category_name":"Pegmatite","category":7,"distinct_rating":7.11,"distinct_type":"Top","item_type":"Foil","rt":1470,"stimulus":"Stimuli_Rocks480/I_Pegmatite_11.png","response":"a","trial_type":"image-keyboard-response","trial_index":205,"plugin_version":"2.1.0","time_elapsed":394781,"subject_id":"91362","group":"Group1","condition":"1_Rep","full_date":"2026-02-01T04:13:21.932Z","date":"2026-02-01","time":"04:13:21","cor_ans":true},{"trial_type":"html-keyboard-response","rt":null,"stimulus":"<p style=\"color: green; font-size: 50px; font-weight: bold;\">Correct</p>","response":null,"trial_index":206,"plugin_version":"2.1.0","time_elapsed":395298,"subject_id":"91362","group":"Group1","condition":"1_Rep","full_date":"2026-02-01T04:13:21.932Z","date":"2026-02-01","time":"04:13:21"},{"correct_response":"a","task":"test_phase","broad_category":"I","image_png":"I_Pegmatite_03.png","image_id":99,"category_name":"Pegmatite","category":7,"distinct_rating":7.24,"distinct_type":"Top","item_type":"Foil","rt":1048,"stimulus":"Stimuli_Rocks480/I_Pegmatite_03.png","response":"a","trial_type":"image-keyboard-response","trial_index":207,"plugin_version":"2.1.0","time_elapsed":396349,"subject_id":"91362","group":"Group1","condition":"1_Rep","full_date":"2026-02-01T04:13:21.932Z","date":"2026-02-01","time":"04:13:21","cor_ans":true},{"trial_type":"html-keyboard-response","rt":null,"stimulus":"<p style=\"color: green; font-size: 50px; font-weight: bold;\">Correct</p>","response":null,"trial_index":208,"plugin_version":"2.1.0","time_elapsed":396862,"subject_id":"91362","group":"Group1","condition":"1_Rep","full_date":"2026-02-01T04:13:21.932Z","date":"2026-02-01","time":"04:13:21"},{"correct_response":"a","task":"test_phase","broad_category":"I","image_png":"I_Gabbro_02.png","image_id":50,"category_name":"Gabbro","category":4,"distinct_rating":2.73,"distinct_type":"Bottom","item_type":"Foil","rt":1909,"stimulus":"Stimuli_Rocks480/I_Gabbro_02.png","response":"a","trial_type":"image-keyboard-response","trial_index":209,"plugin_version":"2.1.0","time_elapsed":398773,"subject_id":"91362","group":"Group1","condition":"1_Rep","full_date":"2026-02-01T04:13:21.932Z","date":"2026-02-01","time":"04:13:21","cor_ans":true},{"trial_type":"html-keyboard-response","rt":null,"stimulus":"<p style=\"color: green; font-size: 50px; font-weight: bold;\">Correct</p>","response":null,"trial_index":210,"plugin_version":"2.1.0","time_elapsed":399284,"subject_id":"91362","group":"Group1","condition":"1_Rep","full_date":"2026-02-01T04:13:21.932Z","date":"2026-02-01","time":"04:13:21"},{"correct_response":"a","task":"test_phase","broad_category":"S","image_png":"S_Shale_07.png","image_id":471,"category_name":"Shale","category":30,"distinct_rating":2.73,"distinct_type":"Bottom","item_type":"Foil","rt":2277,"stimulus":"Stimuli_Rocks480/S_Shale_07.png","response":"l","trial_type":"image-keyboard-response","trial_index":211,"plugin_version":"2.1.0","time_elapsed":401564,"subject_id":"91362","group":"Group1","condition":"1_Rep","full_date":"2026-02-01T04:13:21.932Z","date":"2026-02-01","time":"04:13:21","cor_ans":false},{"trial_type":"html-keyboard-response","rt":null,"stimulus":"<p style=\"color: red; font-size: 50px; font-weight: bold;\">Incorrect</p>","response":null,"trial_index":212,"plugin_version":"2.1.0","time_elapsed":402074,"subject_id":"91362","group":"Group1","condition":"1_Rep","full_date":"2026-02-01T04:13:21.932Z","date":"2026-02-01","time":"04:13:21"},{"correct_response":"a","task":"test_phase","broad_category":"M","image_png":"M_Phyllite_02.png","image_id":258,"category_name":"Phyllite","category":17,"distinct_rating":2.89,"distinct_type":"Bottom","item_type":"Foil","rt":1310,"stimulus":"Stimuli_Rocks480/M_Phyllite_02.png","response":"a","trial_type":"image-keyboard-response","trial_index":213,"plugin_version":"2.1.0","time_elapsed":403386,"subject_id":"91362","group":"Group1","condition":"1_Rep","full_date":"2026-02-01T04:13:21.932Z","date":"2026-02-01","time":"04:13:21","cor_ans":true},{"trial_type":"html-keyboard-response","rt":null,"stimulus":"<p style=\"color: green; font-size: 50px; font-weight: bold;\">Correct</p>","response":null,"trial_index":214,"plugin_version":"2.1.0","time_elapsed":403898,"subject_id":"91362","group":"Group1","condition":"1_Rep","full_date":"2026-02-01T04:13:21.932Z","date":"2026-02-01","time":"04:13:21"},{"correct_response":"l","task":"test_phase","broad_category":"I","image_png":"I_Basalt_01.png","image_id":17,"category_name":"Basalt","category":2,"distinct_rating":1.92,"distinct_type":"Bottom","item_type":"Target","rt":1660,"stimulus":"Stimuli_Rocks480/I_Basalt_01.png","response":"l","trial_type":"image-keyboard-response","trial_index":215,"plugin_version":"2.1.0","time_elapsed":405560,"subject_id":"91362","group":"Group1","condition":"1_Rep","full_date":"2026-02-01T04:13:21.932Z","date":"2026-02-01","time":"04:13:21","cor_ans":true},{"trial_type":"html-keyboard-response","rt":null,"stimulus":"<p style=\"color: green; font-size: 50px; font-weight: bold;\">Correct</p>","response":null,"trial_index":216,"plugin_version":"2.1.0","time_elapsed":406077,"subject_id":"91362","group":"Group1","condition":"1_Rep","full_date":"2026-02-01T04:13:21.932Z","date":"2026-02-01","time":"04:13:21"},{"correct_response":"a","task":"test_phase","broad_category":"S","image_png":"S_Dolomite_01.png","image_id":385,"category_name":"Dolomite","category":25,"distinct_rating":1.43,"distinct_type":"Bottom","item_type":"Foil","rt":1378,"stimulus":"Stimuli_Rocks480/S_Dolomite_01.png","response":"l","trial_type":"image-keyboard-response","trial_index":217,"plugin_version":"2.1.0","time_elapsed":407457,"subject_id":"91362","group":"Group1","condition":"1_Rep","full_date":"2026-02-01T04:13:21.932Z","date":"2026-02-01","time":"04:13:21","cor_ans":false},{"trial_type":"html-keyboard-response","rt":null,"stimulus":"<p style=\"color: red; font-size: 50px; font-weight: bold;\">Incorrect</p>","response":null,"trial_index":218,"plugin_version":"2.1.0","time_elapsed":407967,"subject_id":"91362","group":"Group1","condition":"1_Rep","full_date":"2026-02-01T04:13:21.932Z","date":"2026-02-01","time":"04:13:21"},{"correct_response":"a","task":"test_phase","broad_category":"I","image_png":"I_Andesite_09.png","image_id":9,"category_name":"Andesite","category":1,"distinct_rating":2.49,"distinct_type":"Bottom","item_type":"Foil","rt":1989,"stimulus":"Stimuli_Rocks480/I_Andesite_09.png","response":"l","trial_type":"image-keyboard-response","trial_index":219,"plugin_version":"2.1.0","time_elapsed":409959,"subject_id":"91362","group":"Group1","condition":"1_Rep","full_date":"2026-02-01T04:13:21.932Z","date":"2026-02-01","time":"04:13:21","cor_ans":false},{"trial_type":"html-keyboard-response","rt":null,"stimulus":"<p style=\"color: red; font-size: 50px; font-weight: bold;\">Incorrect</p>","response":null,"trial_index":220,"plugin_version":"2.1.0","time_elapsed":410463,"subject_id":"91362","group":"Group1","condition":"1_Rep","full_date":"2026-02-01T04:13:21.932Z","date":"2026-02-01","time":"04:13:21"},{"correct_response":"l","task":"test_phase","broad_category":"S","image_png":"S_Conglomerate_05.png","image_id":373,"category_name":"Conglomerate","category":24,"distinct_rating":7.32,"distinct_type":"Top","item_type":"Target","rt":1131,"stimulus":"Stimuli_Rocks480/S_Conglomerate_05.png","response":"l","trial_type":"image-keyboard-response","trial_index":221,"plugin_version":"2.1.0","time_elapsed":411596,"subject_id":"91362","group":"Group1","condition":"1_Rep","full_date":"2026-02-01T04:13:21.932Z","date":"2026-02-01","time":"04:13:21","cor_ans":true},{"trial_type":"html-keyboard-response","rt":null,"stimulus":"<p style=\"color: green; font-size: 50px; font-weight: bold;\">Correct</p>","response":null,"trial_index":222,"plugin_version":"2.1.0","time_elapsed":412099,"subject_id":"91362","group":"Group1","condition":"1_Rep","full_date":"2026-02-01T04:13:21.932Z","date":"2026-02-01","time":"04:13:21"},{"correct_response":"a","task":"test_phase","broad_category":"I","image_png":"I_Basalt_10.png","image_id":26,"category_name":"Basalt","category":2,"distinct_rating":2.76,"distinct_type":"Bottom","item_type":"Foil","rt":1291,"stimulus":"Stimuli_Rocks480/I_Basalt_10.png","response":"a","trial_type":"image-keyboard-response","trial_index":223,"plugin_version":"2.1.0","time_elapsed":413392,"subject_id":"91362","group":"Group1","condition":"1_Rep","full_date":"2026-02-01T04:13:21.932Z","date":"2026-02-01","time":"04:13:21","cor_ans":true},{"trial_type":"html-keyboard-response","rt":null,"stimulus":"<p style=\"color: green; font-size: 50px; font-weight: bold;\">Correct</p>","response":null,"trial_index":224,"plugin_version":"2.1.0","time_elapsed":413903,"subject_id":"91362","group":"Group1","condition":"1_Rep","full_date":"2026-02-01T04:13:21.932Z","date":"2026-02-01","time":"04:13:21"},{"correct_response":"l","task":"test_phase