[{"width":1536,"height":791,"webaudio":true,"browser":"chrome","browser_version":"145.0.0","mobile":false,"os":"Windows 10","fullscreen":true,"vsync_rate":59.68,"webcam":true,"microphone":true,"trial_type":"browser-check","trial_index":0,"plugin_version":"2.1.0","time_elapsed":1019,"subject_id":"92506","group":"Group1","condition":"1_Rep","full_date":"2026-02-23T22:03:28.360Z","date":"2026-02-23","time":"22:03:28"},{"success":true,"timeout":false,"failed_images":[],"failed_audio":[],"failed_video":[],"trial_type":"preload","trial_index":1,"plugin_version":"2.1.0","time_elapsed":3635,"subject_id":"92506","group":"Group1","condition":"1_Rep","full_date":"2026-02-23T22:03:28.360Z","date":"2026-02-23","time":"22:03:28"},{"rt":6427,"url":"SONA_consent_memorability.html","trial_type":"external-html","trial_index":2,"plugin_version":"2.1.0","time_elapsed":10117,"subject_id":"92506","group":"Group1","condition":"1_Rep","full_date":"2026-02-23T22:03:28.360Z","date":"2026-02-23","time":"22:03:28"},{"success":true,"rt":8264,"trial_type":"fullscreen","trial_index":3,"plugin_version":"2.1.0","time_elapsed":19398,"subject_id":"92506","group":"Group1","condition":"1_Rep","full_date":"2026-02-23T22:03:28.360Z","date":"2026-02-23","time":"22:03:28"},{"rt":29583,"stimulus":"<div style=\"max-width: 760px; margin: auto; font-size: 20px; line-height: 1.5;\">\n      <h1 style=\"text-align:center; font-size: 30px;\">Instructions</h1>\n      <p>\n        Welcome to the study on <b>visual memory</b>. This experiment consists of <b>two phases</b>: \n        a <b>study phase</b> and a <b>test phase</b>.\n      </p>\n      <p>\n        In the study phase, you will see a series of rock images along with their category labels.\n        The images will appear one at a time.\n        <b>Your task</b> is to learn the categories to which the rock images belong \n        and to remember each image as accurately as possible.\n      </p> \n      <p>\n        Note that you will see each image only <b>once</b> during the study phase. \n          So, please pay close attention and try to remember each image carefully.\n      </p>\n      <p>\n        After the study phase, <b>your memory will be tested</b>. \n        Additional instructions for the test phase will be provided at that time.\n      </p>\n      <p>\n        If your computer has multiple <b>language settings</b> (e.g., English and another language),\n        please make sure it is set to English before starting.\n      </p>\n      <p>\n        You can track your progress using the <b>completion bar</b> at the top of the screen. \n        Please note that the bar will refresh when the test phase begins \n        to give you an accurate sense of your progress in both phases.\n      </p> \n      <p>\n        Press the button below when you are ready to begin.\n      </p>\n    </div>","response":0,"trial_type":"html-button-response","trial_index":4,"plugin_version":"2.1.0","time_elapsed":48985,"subject_id":"92506","group":"Group1","condition":"1_Rep","full_date":"2026-02-23T22:03:28.360Z","date":"2026-02-23","time":"22:03:28"},{"rt":null,"stimulus":"<p style=\"font-size: 50px; margin: 0; text-align: center;\">+</p>","response":null,"trial_type":"html-keyboard-response","trial_index":5,"plugin_version":"2.1.0","time_elapsed":50005,"subject_id":"92506","group":"Group1","condition":"1_Rep","full_date":"2026-02-23T22:03:28.360Z","date":"2026-02-23","time":"22:03:28"},{"task":"memory_phase","broad_category":"S","image_png":"S_Sandstone_16.png","image_id":464,"category_name":"Sandstone","category":29,"distinct_rating":1.93,"distinct_type":"Bottom","rt":null,"stimulus":"Stimuli_Rocks480/S_Sandstone_16.png","response":null,"trial_type":"image-keyboard-response","trial_index":6,"plugin_version":"2.1.0","time_elapsed":52524,"subject_id":"92506","group":"Group1","condition":"1_Rep","full_date":"2026-02-23T22:03:28.360Z","date":"2026-02-23","time":"22:03:28"},{"rt":null,"stimulus":"<p style=\"font-size: 50px; margin: 0; text-align: center;\">+</p>","response":null,"trial_type":"html-keyboard-response","trial_index":7,"plugin_version":"2.1.0","time_elapsed":53534,"subject_id":"92506","group":"Group1","condition":"1_Rep","full_date":"2026-02-23T22:03:28.360Z","date":"2026-02-23","time":"22:03:28"},{"task":"memory_phase","broad_category":"I","image_png":"I_Pumice_12.png","image_id":140,"category_name":"Pumice","category":9,"distinct_rating":2.97,"distinct_type":"Bottom","rt":null,"stimulus":"Stimuli_Rocks480/I_Pumice_12.png","response":null,"trial_type":"image-keyboard-response","trial_index":8,"plugin_version":"2.1.0","time_elapsed":56053,"subject_id":"92506","group":"Group1","condition":"1_Rep","full_date":"2026-02-23T22:03:28.360Z","date":"2026-02-23","time":"22:03:28"},{"rt":null,"stimulus":"<p style=\"font-size: 50px; margin: 0; text-align: center;\">+</p>","response":null,"trial_type":"html-keyboard-response","trial_index":9,"plugin_version":"2.1.0","time_elapsed":57064,"subject_id":"92506","group":"Group1","condition":"1_Rep","full_date":"2026-02-23T22:03:28.360Z","date":"2026-02-23","time":"22:03:28"},{"task":"memory_phase","broad_category":"I","image_png":"I_Andesite_08.png","image_id":8,"category_name":"Andesite","category":1,"distinct_rating":1.95,"distinct_type":"Bottom","rt":null,"stimulus":"Stimuli_Rocks480/I_Andesite_08.png","response":null,"trial_type":"image-keyboard-response","trial_index":10,"plugin_version":"2.1.0","time_elapsed":59581,"subject_id":"92506","group":"Group1","condition":"1_Rep","full_date":"2026-02-23T22:03:28.360Z","date":"2026-02-23","time":"22:03:28"},{"rt":null,"stimulus":"<p style=\"font-size: 50px; margin: 0; text-align: center;\">+</p>","response":null,"trial_type":"html-keyboard-response","trial_index":11,"plugin_version":"2.1.0","time_elapsed":60592,"subject_id":"92506","group":"Group1","condition":"1_Rep","full_date":"2026-02-23T22:03:28.360Z","date":"2026-02-23","time":"22:03:28"},{"task":"memory_phase","broad_category":"I","image_png":"I_Gabbro_08.png","image_id":56,"category_name":"Gabbro","category":4,"distinct_rating":3.02,"distinct_type":"Bottom","rt":null,"stimulus":"Stimuli_Rocks480/I_Gabbro_08.png","response":null,"trial_type":"image-keyboard-response","trial_index":12,"plugin_version":"2.1.0","time_elapsed":63099,"subject_id":"92506","group":"Group1","condition":"1_Rep","full_date":"2026-02-23T22:03:28.360Z","date":"2026-02-23","time":"22:03:28"},{"rt":null,"stimulus":"<p style=\"font-size: 50px; margin: 0; text-align: center;\">+</p>","response":null,"trial_type":"html-keyboard-response","trial_index":13,"plugin_version":"2.1.0","time_elapsed":64103,"subject_id":"92506","group":"Group1","condition":"1_Rep","full_date":"2026-02-23T22:03:28.360Z","date":"2026-02-23","time":"22:03:28"},{"task":"memory_phase","broad_category":"I","image_png":"I_Gabbro_11.png","image_id":59,"category_name":"Gabbro","category":4,"distinct_rating":1.99,"distinct_type":"Bottom","rt":null,"stimulus":"Stimuli_Rocks480/I_Gabbro_11.png","response":null,"trial_type":"image-keyboard-response","trial_index":14,"plugin_version":"2.1.0","time_elapsed":66612,"subject_id":"92506","group":"Group1","condition":"1_Rep","full_date":"2026-02-23T22:03:28.360Z","date":"2026-02-23","time":"22:03:28"},{"rt":null,"stimulus":"<p style=\"font-size: 50px; margin: 0; text-align: center;\">+</p>","response":null,"trial_type":"html-keyboard-response","trial_index":15,"plugin_version":"2.1.0","time_elapsed":67628,"subject_id":"92506","group":"Group1","condition":"1_Rep","full_date":"2026-02-23T22:03:28.360Z","date":"2026-02-23","time":"22:03:28"},{"task":"memory_phase","broad_category":"S","image_png":"S_Shale_12.png","image_id":476,"category_name":"Shale","category":30,"distinct_rating":2.48,"distinct_type":"Bottom","rt":null,"stimulus":"Stimuli_Rocks480/S_Shale_12.png","response":null,"trial_type":"image-keyboard-response","trial_index":16,"plugin_version":"2.1.0","time_elapsed":70133,"subject_id":"92506","group":"Group1","condition":"1_Rep","full_date":"2026-02-23T22:03:28.360Z","date":"2026-02-23","time":"22:03:28"},{"rt":null,"stimulus":"<p style=\"font-size: 50px; margin: 0; text-align: center;\">+</p>","response":null,"trial_type":"html-keyboard-response","trial_index":17,"plugin_version":"2.1.0","time_elapsed":71140,"subject_id":"92506","group":"Group1","condition":"1_Rep","full_date":"2026-02-23T22:03:28.360Z","date":"2026-02-23","time":"22:03:28"},{"task":"memory_phase","broad_category":"I","image_png":"I_Diorite_03.png","image_id":35,"category_name":"Diorite","category":3,"distinct_rating":3.14,"distinct_type":"Bottom","rt":null,"stimulus":"Stimuli_Rocks480/I_Diorite_03.png","response":null,"trial_type":"image-keyboard-response","trial_index":18,"plugin_version":"2.1.0","time_elapsed":73651,"subject_id":"92506","group":"Group1","condition":"1_Rep","full_date":"2026-02-23T22:03:28.360Z","date":"2026-02-23","time":"22:03:28"},{"rt":null,"stimulus":"<p style=\"font-size: 50px; margin: 0; text-align: center;\">+</p>","response":null,"trial_type":"html-keyboard-response","trial_index":19,"plugin_version":"2.1.0","time_elapsed":74670,"subject_id":"92506","group":"Group1","condition":"1_Rep","full_date":"2026-02-23T22:03:28.360Z","date":"2026-02-23","time":"22:03:28"},{"task":"memory_phase","broad_category":"I","image_png":"I_Diorite_04.png","image_id":36,"category_name":"Diorite","category":3,"distinct_rating":2.98,"distinct_type":"Bottom","rt":null,"stimulus":"Stimuli_Rocks480/I_Diorite_04.png","response":null,"trial_type":"image-keyboard-response","trial_index":20,"plugin_version":"2.1.0","time_elapsed":77187,"subject_id":"92506","group":"Group1","condition":"1_Rep","full_date":"2026-02-23T22:03:28.360Z","date":"2026-02-23","time":"22:03:28"},{"rt":null,"stimulus":"<p style=\"font-size: 50px; margin: 0; text-align: center;\">+</p>","response":null,"trial_type":"html-keyboard-response","trial_index":21,"plugin_version":"2.1.0","time_elapsed":78194,"subject_id":"92506","group":"Group1","condition":"1_Rep","full_date":"2026-02-23T22:03:28.360Z","date":"2026-02-23","time":"22:03:28"},{"task":"memory_phase","broad_category":"M","image_png":"M_Phyllite_07.png","image_id":263,"category_name":"Phyllite","category":17,"distinct_rating":2.59,"distinct_type":"Bottom","rt":null,"stimulus":"Stimuli_Rocks480/M_Phyllite_07.png","response":null,"trial_type":"image-keyboard-response","trial_index":22,"plugin_version":"2.1.0","time_elapsed":80702,"subject_id":"92506","group":"Group1","condition":"1_Rep","full_date":"2026-02-23T22:03:28.360Z","date":"2026-02-23","time":"22:03:28"},{"rt":null,"stimulus":"<p style=\"font-size: 50px; margin: 0; text-align: center;\">+</p>","response":null,"trial_type":"html-keyboard-response","trial_index":23,"plugin_version":"2.1.0","time_elapsed":81714,"subject_id":"92506","group":"Group1","condition":"1_Rep","full_date":"2026-02-23T22:03:28.360Z","date":"2026-02-23","time":"22:03:28"},{"task":"memory_phase","broad_category":"I","image_png":"I_Rhyolite_14.png","image_id":158,"category_name":"Rhyolite","category":10,"distinct_rating":2.59,"distinct_type":"Bottom","rt":null,"stimulus":"Stimuli_Rocks480/I_Rhyolite_14.png","response":null,"trial_type":"image-keyboard-response","trial_index":24,"plugin_version":"2.1.0","time_elapsed":84218,"subject_id":"92506","group":"Group1","condition":"1_Rep","full_date":"2026-02-23T22:03:28.360Z","date":"2026-02-23","time":"22:03:28"},{"rt":null,"stimulus":"<p style=\"font-size: 50px; margin: 0; text-align: center;\">+</p>","response":null,"trial_type":"html-keyboard-response","trial_index":25,"plugin_version":"2.1.0","time_elapsed":85231,"subject_id":"92506","group":"Group1","condition":"1_Rep","full_date":"2026-02-23T22:03:28.360Z","date":"2026-02-23","time":"22:03:28"},{"task":"memory_phase","broad_category":"S","image_png":"S_Conglomerate_05.png","image_id":373,"category_name":"Conglomerate","category":24,"distinct_rating":7.32,"distinct_type":"Top","rt":null,"stimulus":"Stimuli_Rocks480/S_Conglomerate_05.png","response":null,"trial_type":"image-keyboard-response","trial_index":26,"plugin_version":"2.1.0","time_elapsed":87740,"subject_id":"92506","group":"Group1","condition":"1_Rep","full_date":"2026-02-23T22:03:28.360Z","date":"2026-02-23","time":"22:03:28"},{"rt":null,"stimulus":"<p style=\"font-size: 50px; margin: 0; text-align: center;\">+</p>","response":null,"trial_type":"html-keyboard-response","trial_index":27,"plugin_version":"2.1.0","time_elapsed":88747,"subject_id":"92506","group":"Group1","condition":"1_Rep","full_date":"2026-02-23T22:03:28.360Z","date":"2026-02-23","time":"22:03:28"},{"task":"memory_phase","broad_category":"M","image_png":"M_Marble_04.png","image_id":228,"category_name":"Marble","category":15,"distinct_rating":3.15,"distinct_type":"Bottom","rt":null,"stimulus":"Stimuli_Rocks480/M_Marble_04.png","response":null,"trial_type":"image-keyboard-response","trial_index":28,"plugin_version":"2.1.0","time_elapsed":91254,"subject_id":"92506","group":"Group1","condition":"1_Rep","full_date":"2026-02-23T22:03:28.360Z","date":"2026-02-23","time":"22:03:28"},{"rt":null,"stimulus":"<p style=\"font-size: 50px; margin: 0; text-align: center;\">+</p>","response":null,"trial_type":"html-keyboard-response","trial_index":29,"plugin_version":"2.1.0","time_elapsed":92264,"subject_id":"92506","group":"Group1","condition":"1_Rep","full_date":"2026-02-23T22:03:28.360Z","date":"2026-02-23","time":"22:03:28"},{"task":"memory_phase","broad_category":"S","image_png":"S_Dolomite_14.png","image_id":398,"category_name":"Dolomite","category":25,"distinct_rating":1.43,"distinct_type":"Bottom","rt":null,"stimulus":"Stimuli_Rocks480/S_Dolomite_14.png","response":null,"trial_type":"image-keyboard-response","trial_index":30,"plugin_version":"2.1.0","time_elapsed":94769,"subject_id":"92506","group":"Group1","condition":"1_Rep","full_date":"2026-02-23T22:03:28.360Z","date":"2026-02-23","time":"22:03:28"},{"rt":null,"stimulus":"<p style=\"font-size: 50px; margin: 0; text-align: center;\">+</p>","response":null,"trial_type":"html-keyboard-response","trial_index":31,"plugin_version":"2.1.0","time_elapsed":95782,"subject_id":"92506","group":"Group1","condition":"1_Rep","full_date":"2026-02-23T22:03:28.360Z","date":"2026-02-23","time":"22:03:28"},{"task":"memory_phase","broad_category":"I","image_png":"I_Gabbro_16.png","image_id":64,"category_name":"Gabbro","category":4,"distinct_rating":2.52,"distinct_type":"Bottom","rt":null,"stimulus":"Stimuli_Rocks480/I_Gabbro_16.png","response":null,"trial_type":"image-keyboard-response","trial_index":32,"plugin_version":"2.1.0","time_elapsed":98291,"subject_id":"92506","group":"Group1","condition":"1_Rep","full_date":"2026-02-23T22:03:28.360Z","date":"2026-02-23","time":"22:03:28"},{"rt":null,"stimulus":"<p style=\"font-size: 50px; margin: 0; text-align: center;\">+</p>","response":null,"trial_type":"html-keyboard-response","trial_index":33,"plugin_version":"2.1.0","time_elapsed":99311,"subject_id":"92506","group":"Group1","condition":"1_Rep","full_date":"2026-02-23T22:03:28.360Z","date":"2026-02-23","time":"22:03:28"},{"task":"memory_phase","broad_category":"M","image_png":"M_Marble_06.png","image_id":230,"category_name":"Marble","category":15,"distinct_rating":3.4,"distinct_type":"Bottom","rt":null,"stimulus":"Stimuli_Rocks480/M_Marble_06.png","response":null,"trial_type":"image-keyboard-response","trial_index":34,"plugin_version":"2.1.0","time_elapsed":101825,"subject_id":"92506","group":"Group1","condition":"1_Rep","full_date":"2026-02-23T22:03:28.360Z","date":"2026-02-23","time":"22:03:28"},{"rt":null,"stimulus":"<p style=\"font-size: 50px; margin: 0; text-align: center;\">+</p>","response":null,"trial_type":"html-keyboard-response","trial_index":35,"plugin_version":"2.1.0","time_elapsed":102832,"subject_id":"92506","group":"Group1","condition":"1_Rep","full_date":"2026-02-23T22:03:28.360Z","date":"2026-02-23","time":"22:03:28"},{"task":"memory_phase","broad_category":"I","image_png":"I_Rhyolite_16.png","image_id":160,"category_name":"Rhyolite","category":10,"distinct_rating":2.19,"distinct_type":"Bottom","rt":null,"stimulus":"Stimuli_Rocks480/I_Rhyolite_16.png","response":null,"trial_type":"image-keyboard-response","trial_index":36,"plugin_version":"2.1.0","time_elapsed":105339,"subject_id":"92506","group":"Group1","condition":"1_Rep","full_date":"2026-02-23T22:03:28.360Z","date":"2026-02-23","time":"22:03:28"},{"rt":null,"stimulus":"<p style=\"font-size: 50px; margin: 0; text-align: center;\">+</p>","response":null,"trial_type":"html-keyboard-response","trial_index":37,"plugin_version":"2.1.0","time_elapsed":106344,"subject_id":"92506","group":"Group1","condition":"1_Rep","full_date":"2026-02-23T22:03:28.360Z","date":"2026-02-23","time":"22:03:28"},{"task":"memory_phase","broad_category":"M","image_png":"M_Phyllite_03.png","image_id":259,"category_name":"Phyllite","category":17,"distinct_rating":2.5,"distinct_type":"Bottom","rt":null,"stimulus":"Stimuli_Rocks480/M_Phyllite_03.png","response":null,"trial_type":"image-keyboard-response","trial_index":38,"plugin_version":"2.1.0","time_elapsed":108852,"subject_id":"92506","group":"Group1","condition":"1_Rep","full_date":"2026-02-23T22:03:28.360Z","date":"2026-02-23","time":"22:03:28"},{"rt":null,"stimulus":"<p style=\"font-size: 50px; margin: 0; text-align: center;\">+</p>","response":null,"trial_type":"html-keyboard-response","trial_index":39,"plugin_version":"2.1.0","time_elapsed":109861,"subject_id":"92506","group":"Group1","condition":"1_Rep","full_date":"2026-02-23T22:03:28.360Z","date":"2026-02-23","time":"22:03:28"},{"task":"memory_phase","broad_category":"I","image_png":"I_Andesite_06.png","image_id":6,"category_name":"Andesite","category":1,"distinct_rating":3.17,"distinct_type":"Bottom","rt":null,"stimulus":"Stimuli_Rocks480/I_Andesite_06.png","response":null,"trial_type":"image-keyboard-response","trial_index":40,"plugin_version":"2.1.0","time_elapsed":112368,"subject_id":"92506","group":"Group1","condition":"1_Rep","full_date":"2026-02-23T22:03:28.360Z","date":"2026-02-23","time":"22:03:28"},{"rt":null,"stimulus":"<p style=\"font-size: 50px; margin: 0; text-align: center;\">+</p>","response":null,"trial_type":"html-keyboard-response","trial_index":41,"plugin_version":"2.1.0","time_elapsed":113388,"subject_id":"92506","group":"Group1","condition":"1_Rep","full_date":"2026-02-23T22:03:28.360Z","date":"2026-02-23","time":"22:03:28"},{"task":"memory_phase","broad_category":"M","image_png":"M_Gneiss_13.png","image_id":205,"category_name":"Gneiss","category":13,"distinct_rating":3.26,"distinct_type":"Bottom","rt":null,"stimulus":"Stimuli_Rocks480/M_Gneiss_13.png","response":null,"trial_type":"image-keyboard-response","trial_index":42,"plugin_version":"2.1.0","time_elapsed":115897,"subject_id":"92506","group":"Group1","condition":"1_Rep","full_date":"2026-02-23T22:03:28.360Z","date":"2026-02-23","time":"22:03:28"},{"rt":null,"stimulus":"<p style=\"font-size: 50px; margin: 0; text-align: center;\">+</p>","response":null,"trial_type":"html-keyboard-response","trial_index":43,"plugin_version":"2.1.0","time_elapsed":116911,"subject_id":"92506","group":"Group1","condition":"1_Rep","full_date":"2026-02-23T22:03:28.360Z","date":"2026-02-23","time":"22:03:28"},{"task":"memory_phase","broad_category":"M","image_png":"M_Slate_03.png","image_id":307,"category_name":"Slate","category":20,"distinct_rating":1.87,"distinct_type":"Bottom","rt":null,"stimulus":"Stimuli_Rocks480/M_Slate_03.png","response":null,"trial_type":"image-keyboard-response","trial_index":44,"plugin_version":"2.1.0","time_elapsed":119423,"subject_id":"92506","group":"Group1","condition":"1_Rep","full_date":"2026-02-23T22:03:28.360Z","date":"2026-02-23","time":"22:03:28"},{"rt":null,"stimulus":"<p style=\"font-size: 50px; margin: 0; text-align: center;\">+</p>","response":null,"trial_type":"html-keyboard-response","trial_index":45,"plugin_version":"2.1.0","time_elapsed":120432,"subject_id":"92506","group":"Group1","condition":"1_Rep","full_date":"2026-02-23T22:03:28.360Z","date":"2026-02-23","time":"22:03:28"},{"task":"memory_phase","broad_category":"I","image_png":"I_Rhyolite_11.png","image_id":155,"category_name":"Rhyolite","category":10,"distinct_rating":1.73,"distinct_type":"Bottom","rt":null,"stimulus":"Stimuli_Rocks480/I_Rhyolite_11.png","response":null,"trial_type":"image-keyboard-response","trial_index":46,"plugin_version":"2.1.0","time_elapsed":122942,"subject_id":"92506","group":"Group1","condition":"1_Rep","full_date":"2026-02-23T22:03:28.360Z","date":"2026-02-23","time":"22:03:28"},{"rt":null,"stimulus":"<p style=\"font-size: 50px; margin: 0; text-align: center;\">+</p>","response":null,"trial_type":"html-keyboard-response","trial_index":47,"plugin_version":"2.1.0","time_elapsed":123950,"subject_id":"92506","group":"Group1","condition":"1_Rep","full_date":"2026-02-23T22:03:28.360Z","date":"2026-02-23","time":"22:03:28"},{"task":"memory_phase","broad_category":"M","image_png":"M_Slate_11.png","image_id":315,"category_name":"Slate","category":20,"distinct_rating":2.75,"distinct_type":"Bottom","rt":null,"stimulus":"Stimuli_Rocks480/M_Slate_11.png","response":null,"trial_type":"image-keyboard-response","trial_index":48,"plugin_version":"2.1.0","time_elapsed":126454,"subject_id":"92506","group":"Group1","condition":"1_Rep","full_date":"2026-02-23T22:03:28.360Z","date":"2026-02-23","time":"22:03:28"},{"rt":null,"stimulus":"<p style=\"font-size: 50px; margin: 0; text-align: center;\">+</p>","response":null,"trial_type":"html-keyboard-response","trial_index":49,"plugin_version":"2.1.0","time_elapsed":127465,"subject_id":"92506","group":"Group1","condition":"1_Rep","full_date":"2026-02-23T22:03:28.360Z","date":"2026-02-23","time":"22:03:28"},{"task":"memory_phase","broad_category":"S","image_png":"S_Rock Gypsum_04.png","image_id":420,"category_name":"Rock Gypsum","category":27,"distinct_rating":7.61,"distinct_type":"Top","rt":null,"stimulus":"Stimuli_Rocks480/S_Rock Gypsum_04.png","response":null,"trial_type":"image-keyboard-response","trial_index":50,"plugin_version":"2.1.0","time_elapsed":129978,"subject_id":"92506","group":"Group1","condition":"1_Rep","full_date":"2026-02-23T22:03:28.360Z","date":"2026-02-23","time":"22:03:28"},{"rt":null,"stimulus":"<p style=\"font-size: 50px; margin: 0; text-align: center;\">+</p>","response":null,"trial_type":"html-keyboard-response","trial_index":51,"plugin_version":"2.1.0","time_elapsed":130983,"subject_id":"92506","group":"Group1","condition":"1_Rep","full_date":"2026-02-23T22:03:28.360Z","date":"2026-02-23","time":"22:03:28"},{"task":"memory_phase","broad_category":"M","image_png":"M_Marble_16.png","image_id":240,"category_name":"Marble","category":15,"distinct_rating":2.57,"distinct_type":"Bottom","rt":null,"stimulus":"Stimuli_Rocks480/M_Marble_16.png","response":null,"trial_type":"image-keyboard-response","trial_index":52,"plugin_version":"2.1.0","time_elapsed":133499,"subject_id":"92506","group":"Group1","condition":"1_Rep","full_date":"2026-02-23T22:03:28.360Z","date":"2026-02-23","time":"22:03:28"},{"rt":null,"stimulus":"<p style=\"font-size: 50px; margin: 0; text-align: center;\">+</p>","response":null,"trial_type":"html-keyboard-response","trial_index":53,"plugin_version":"2.1.0","time_elapsed":134509,"subject_id":"92506","group":"Group1","condition":"1_Rep","full_date":"2026-02-23T22:03:28.360Z","date":"2026-02-23","time":"22:03:28"},{"task":"memory_phase","broad_category":"I","image_png":"I_Obsidian_05.png","image_id":85,"category_name":"Obsidian","category":6,"distinct_rating":7.32,"distinct_type":"Top","rt":null,"stimulus":"Stimuli_Rocks480/I_Obsidian_05.png","response":null,"trial_type":"image-keyboard-response","trial_index":54,"plugin_version":"2.1.0","time_elapsed":137014,"subject_id":"92506","group":"Group1","condition":"1_Rep","full_date":"2026-02-23T22:03:28.360Z","date":"2026-02-23","time":"22:03:28"},{"rt":3682,"stimulus":"<p style=\"max-width: 760px; margin: auto; font-size: 35px; line-height: 1.5;\">\n                Press SPACE to continue study phase\n              </p>","response":" ","trial_type":"html-keyboard-response","trial_index":55,"plugin_version":"2.1.0","time_elapsed":140698,"subject_id":"92506","group":"Group1","condition":"1_Rep","full_date":"2026-02-23T22:03:28.360Z","date":"2026-02-23","time":"22:03:28"},{"rt":null,"stimulus":"<p style=\"font-size: 50px; margin: 0; text-align: center;\">+</p>","response":null,"trial_type":"html-keyboard-response","trial_index":56,"plugin_version":"2.1.0","time_elapsed":141711,"subject_id":"92506","group":"Group1","condition":"1_Rep","full_date":"2026-02-23T22:03:28.360Z","date":"2026-02-23","time":"22:03:28"},{"task":"memory_phase","broad_category":"M","image_png":"M_Gneiss_06.png","image_id":198,"category_name":"Gneiss","category":13,"distinct_rating":2.65,"distinct_type":"Bottom","rt":null,"stimulus":"Stimuli_Rocks480/M_Gneiss_06.png","response":null,"trial_type":"image-keyboard-response","trial_index":57,"plugin_version":"2.1.0","time_elapsed":144222,"subject_id":"92506","group":"Group1","condition":"1_Rep","full_date":"2026-02-23T22:03:28.360Z","date":"2026-02-23","time":"22:03:28"},{"rt":null,"stimulus":"<p style=\"font-size: 50px; margin: 0; text-align: center;\">+</p>","response":null,"trial_type":"html-keyboard-response","trial_index":58,"plugin_version":"2.1.0","time_elapsed":145231,"subject_id":"92506","group":"Group1","condition":"1_Rep","full_date":"2026-02-23T22:03:28.360Z","date":"2026-02-23","time":"22:03:28"},{"task":"memory_phase","broad_category":"S","image_png":"S_Dolomite_13.png","image_id":397,"category_name":"Dolomite","category":25,"distinct_rating":1.77,"distinct_type":"Bottom","rt":null,"stimulus":"Stimuli_Rocks480/S_Dolomite_13.png","response":null,"trial_type":"image-keyboard-response","trial_index":59,"plugin_version":"2.1.0","time_elapsed":147740,"subject_id":"92506","group":"Group1","condition":"1_Rep","full_date":"2026-02-23T22:03:28.360Z","date":"2026-02-23","time":"22:03:28"},{"rt":null,"stimulus":"<p style=\"font-size: 50px; margin: 0; text-align: center;\">+</p>","response":null,"trial_type":"html-keyboard-response","trial_index":60,"plugin_version":"2.1.0","time_elapsed":148748,"subject_id":"92506","group":"Group1","condition":"1_Rep","full_date":"2026-02-23T22:03:28.360Z","date":"2026-02-23","time":"22:03:28"},{"task":"memory_phase","broad_category":"M","image_png":"M_Quartzite_13.png","image_id":285,"category_name":"Quartzite","category":18,"distinct_rating":2.27,"distinct_type":"Bottom","rt":null,"stimulus":"Stimuli_Rocks480/M_Quartzite_13.png","response":null,"trial_type":"image-keyboard-response","trial_index":61,"plugin_version":"2.1.0","time_elapsed":151254,"subject_id":"92506","group":"Group1","condition":"1_Rep","full_date":"2026-02-23T22:03:28.360Z","date":"2026-02-23","time":"22:03:28"},{"rt":null,"stimulus":"<p style=\"font-size: 50px; margin: 0; text-align: center;\">+</p>","response":null,"trial_type":"html-keyboard-response","trial_index":62,"plugin_version":"2.1.0","time_elapsed":152266,"subject_id":"92506","group":"Group1","condition":"1_Rep","full_date":"2026-02-23T22:03:28.360Z","date":"2026-02-23","time":"22:03:28"},{"task":"memory_phase","broad_category":"I","image_png":"I_Basalt_02.png","image_id":18,"category_name":"Basalt","category":2,"distinct_rating":1.84,"distinct_type":"Bottom","rt":null,"stimulus":"Stimuli_Rocks480/I_Basalt_02.png","response":null,"trial_type":"image-keyboard-response","trial_index":63,"plugin_version":"2.1.0","time_elapsed":154772,"subject_id":"92506","group":"Group1","condition":"1_Rep","full_date":"2026-02-23T22:03:28.360Z","date":"2026-02-23","time":"22:03:28"},{"rt":null,"stimulus":"<p style=\"font-size: 50px; margin: 0; text-align: center;\">+</p>","response":null,"trial_type":"html-keyboard-response","trial_index":64,"plugin_version":"2.1.0","time_elapsed":155779,"subject_id":"92506","group":"Group1","condition":"1_Rep","full_date":"2026-02-23T22:03:28.360Z","date":"2026-02-23","time":"22:03:28"},{"task":"memory_phase","broad_category":"M","image_png":"M_Gneiss_05.png","image_id":197,"category_name":"Gneiss","category":13,"distinct_rating":2.97,"distinct_type":"Bottom","rt":null,"stimulus":"Stimuli_Rocks480/M_Gneiss_05.png","response":null,"trial_type":"image-keyboard-response","trial_index":65,"plugin_version":"2.1.0","time_elapsed":158287,"subject_id":"92506","group":"Group1","condition":"1_Rep","full_date":"2026-02-23T22:03:28.360Z","date":"2026-02-23","time":"22:03:28"},{"rt":null,"stimulus":"<p style=\"font-size: 50px; margin: 0; text-align: center;\">+</p>","response":null,"trial_type":"html-keyboard-response","trial_index":66,"plugin_version":"2.1.0","time_elapsed":159303,"subject_id":"92506","group":"Group1","condition":"1_Rep","full_date":"2026-02-23T22:03:28.360Z","date":"2026-02-23","time":"22:03:28"},{"task":"memory_phase","broad_category":"M","image_png":"M_Phyllite_10.png","image_id":266,"category_name":"Phyllite","category":17,"distinct_rating":2.6,"distinct_type":"Bottom","rt":null,"stimulus":"Stimuli_Rocks480/M_Phyllite_10.png","response":null,"trial_type":"image-keyboard-response","trial_index":67,"plugin_version":"2.1.0","time_elapsed":161814,"subject_id":"92506","group":"Group1","condition":"1_Rep","full_date":"2026-02-23T22:03:28.360Z","date":"2026-02-23","time":"22:03:28"},{"rt":null,"stimulus":"<p style=\"font-size: 50px; margin: 0; text-align: center;\">+</p>","response":null,"trial_type":"html-keyboard-response","trial_index":68,"plugin_version":"2.1.0","time_elapsed":162817,"subject_id":"92506","group":"Group1","condition":"1_Rep","full_date":"2026-02-23T22:03:28.360Z","date":"2026-02-23","time":"22:03:28"},{"task":"memory_phase","broad_category":"S","image_png":"S_Sandstone_15.png","image_id":463,"category_name":"Sandstone","category":29,"distinct_rating":2,"distinct_type":"Bottom","rt":null,"stimulus":"Stimuli_Rocks480/S_Sandstone_15.png","response":null,"trial_type":"image-keyboard-response","trial_index":69,"plugin_version":"2.1.0","time_elapsed":165331,"subject_id":"92506","group":"Group1","condition":"1_Rep","full_date":"2026-02-23T22:03:28.360Z","date":"2026-02-23","time":"22:03:28"},{"rt":null,"stimulus":"<p style=\"font-size: 50px; margin: 0; text-align: center;\">+</p>","response":null,"trial_type":"html-keyboard-response","trial_index":70,"plugin_version":"2.1.0","time_elapsed":166334,"subject_id":"92506","group":"Group1","condition":"1_Rep","full_date":"2026-02-23T22:03:28.360Z","date":"2026-02-23","time":"22:03:28"},{"task":"memory_phase","broad_category":"I","image_png":"I_Pegmatite_16.png","image_id":112,"category_name":"Pegmatite","category":7,"distinct_rating":7.03,"distinct_type":"Top","rt":null,"stimulus":"Stimuli_Rocks480/I_Pegmatite_16.png","response":null,"trial_type":"image-keyboard-response","trial_index":71,"plugin_version":"2.1.0","time_elapsed":168849,"subject_id":"92506","group":"Group1","condition":"1_Rep","full_date":"2026-02-23T22:03:28.360Z","date":"2026-02-23","time":"22:03:28"},{"rt":null,"stimulus":"<p style=\"font-size: 50px; margin: 0; text-align: center;\">+</p>","response":null,"trial_type":"html-keyboard-response","trial_index":72,"plugin_version":"2.1.0","time_elapsed":169862,"subject_id":"92506","group":"Group1","condition":"1_Rep","full_date":"2026-02-23T22:03:28.360Z","date":"2026-02-23","time":"22:03:28"},{"task":"memory_phase","broad_category":"S","image_png":"S_Rock Salt_01.png","image_id":433,"category_name":"Rock Salt","category":28,"distinct_rating":7.18,"distinct_type":"Top","rt":null,"stimulus":"Stimuli_Rocks480/S_Rock Salt_01.png","response":null,"trial_type":"image-keyboard-response","trial_index":73,"plugin_version":"2.1.0","time_elapsed":172368,"subject_id":"92506","group":"Group1","condition":"1_Rep","full_date":"2026-02-23T22:03:28.360Z","date":"2026-02-23","time":"22:03:28"},{"rt":null,"stimulus":"<p style=\"font-size: 50px; margin: 0; text-align: center;\">+</p>","response":null,"trial_type":"html-keyboard-response","trial_index":74,"plugin_version":"2.1.0","time_elapsed":173375,"subject_id":"92506","group":"Group1","condition":"1_Rep","full_date":"2026-02-23T22:03:28.360Z","date":"2026-02-23","time":"22:03:28"},{"task":"memory_phase","broad_category":"I","image_png":"I_Basalt_01.png","image_id":17,"category_name":"Basalt","category":2,"distinct_rating":1.92,"distinct_type":"Bottom","rt":null,"stimulus":"Stimuli_Rocks480/I_Basalt_01.png","response":null,"trial_type":"image-keyboard-response","trial_index":75,"plugin_version":"2.1.0","time_elapsed":175886,"subject_id":"92506","group":"Group1","condition":"1_Rep","full_date":"2026-02-23T22:03:28.360Z","date":"2026-02-23","time":"22:03:28"},{"rt":null,"stimulus":"<p style=\"font-size: 50px; margin: 0; text-align: center;\">+</p>","response":null,"trial_type":"html-keyboard-response","trial_index":76,"plugin_version":"2.1.0","time_elapsed":176895,"subject_id":"92506","group":"Group1","condition":"1_Rep","full_date":"2026-02-23T22:03:28.360Z","date":"2026-02-23","time":"22:03:28"},{"task":"memory_phase","broad_category":"S","image_png":"S_Shale_08.png","image_id":472,"category_name":"Shale","category":30,"distinct_rating":2.55,"distinct_type":"Bottom","rt":null,"stimulus":"Stimuli_Rocks480/S_Shale_08.png","response":null,"trial_type":"image-keyboard-response","trial_index":77,"plugin_version":"2.1.0","time_elapsed":179403,"subject_id":"92506","group":"Group1","condition":"1_Rep","full_date":"2026-02-23T22:03:28.360Z","date":"2026-02-23","time":"22:03:28"},{"rt":null,"stimulus":"<p style=\"font-size: 50px; margin: 0; text-align: center;\">+</p>","response":null,"trial_type":"html-keyboard-response","trial_index":78,"plugin_version":"2.1.0","time_elapsed":180411,"subject_id":"92506","group":"Group1","condition":"1_Rep","full_date":"2026-02-23T22:03:28.360Z","date":"2026-02-23","time":"22:03:28"},{"task":"memory_phase","broad_category":"M","image_png":"M_Slate_15.png","image_id":319,"category_name":"Slate","category":20,"distinct_rating":2.13,"distinct_type":"Bottom","rt":null,"stimulus":"Stimuli_Rocks480/M_Slate_15.png","response":null,"trial_type":"image-keyboard-response","trial_index":79,"plugin_version":"2.1.0","time_elapsed":182926,"subject_id":"92506","group":"Group1","condition":"1_Rep","full_date":"2026-02-23T22:03:28.360Z","date":"2026-02-23","time":"22:03:28"},{"rt":null,"stimulus":"<p style=\"font-size: 50px; margin: 0; text-align: center;\">+</p>","response":null,"trial_type":"html-keyboard-response","trial_index":80,"plugin_version":"2.1.0","time_elapsed":183941,"subject_id":"92506","group":"Group1","condition":"1_Rep","full_date":"2026-02-23T22:03:28.360Z","date":"2026-02-23","time":"22:03:28"},{"task":"memory_phase","broad_category":"I","image_png":"I_Basalt_09.png","image_id":25,"category_name":"Basalt","category":2,"distinct_rating":1.89,"distinct_type":"Bottom","rt":null,"stimulus":"Stimuli_Rocks480/I_Basalt_09.png","response":null,"trial_type":"image-keyboard-response","trial_index":81,"plugin_version":"2.1.0","time_elapsed":186458,"subject_id":"92506","group":"Group1","condition":"1_Rep","full_date":"2026-02-23T22:03:28.360Z","date":"2026-02-23","time":"22:03:28"},{"rt":null,"stimulus":"<p style=\"font-size: 50px; margin: 0; text-align: center;\">+</p>","response":null,"trial_type":"html-keyboard-response","trial_index":82,"plugin_version":"2.1.0","time_elapsed":187464,"subject_id":"92506","group":"Group1","condition":"1_Rep","full_date":"2026-02-23T22:03:28.360Z","date":"2026-02-23","time":"22:03:28"},{"task":"memory_phase","broad_category":"M","image_png":"M_Quartzite_08.png","image_id":280,"category_name":"Quartzite","category":18,"distinct_rating":2.15,"distinct_type":"Bottom","rt":null,"stimulus":"Stimuli_Rocks480/M_Quartzite_08.png","response":null,"trial_type":"image-keyboard-response","trial_index":83,"plugin_version":"2.1.0","time_elapsed":189970,"subject_id":"92506","group":"Group1","condition":"1_Rep","full_date":"2026-02-23T22:03:28.360Z","date":"2026-02-23","time":"22:03:28"},{"rt":null,"stimulus":"<p style=\"font-size: 50px; margin: 0; text-align: center;\">+</p>","response":null,"trial_type":"html-keyboard-response","trial_index":84,"plugin_version":"2.1.0","time_elapsed":190975,"subject_id":"92506","group":"Group1","condition":"1_Rep","full_date":"2026-02-23T22:03:28.360Z","date":"2026-02-23","time":"22:03:28"},{"task":"memory_phase","broad_category":"S","image_png":"S_Chert_10.png","image_id":362,"category_name":"Chert","category":23,"distinct_rating":7.17,"distinct_type":"Top","rt":null,"stimulus":"Stimuli_Rocks480/S_Chert_10.png","response":null,"trial_type":"image-keyboard-response","trial_index":85,"plugin_version":"2.1.0","time_elapsed":193492,"subject_id":"92506","group":"Group1","condition":"1_Rep","full_date":"2026-02-23T22:03:28.360Z","date":"2026-02-23","time":"22:03:28"},{"rt":null,"stimulus":"<p style=\"font-size: 50px; margin: 0; text-align: center;\">+</p>","response":null,"trial_type":"html-keyboard-response","trial_index":86,"plugin_version":"2.1.0","time_elapsed":194498,"subject_id":"92506","group":"Group1","condition":"1_Rep","full_date":"2026-02-23T22:03:28.360Z","date":"2026-02-23","time":"22:03:28"},{"task":"memory_phase","broad_category":"S","image_png":"S_Dolomite_12.png","image_id":396,"category_name":"Dolomite","category":25,"distinct_rating":1.85,"distinct_type":"Bottom","rt":null,"stimulus":"Stimuli_Rocks480/S_Dolomite_12.png","response":null,"trial_type":"image-keyboard-response","trial_index":87,"plugin_version":"2.1.0","time_elapsed":197011,"subject_id":"92506","group":"Group1","condition":"1_Rep","full_date":"2026-02-23T22:03:28.360Z","date":"2026-02-23","time":"22:03:28"},{"rt":null,"stimulus":"<p style=\"font-size: 50px; margin: 0; text-align: center;\">+</p>","response":null,"trial_type":"html-keyboard-response","trial_index":88,"plugin_version":"2.1.0","time_elapsed":198028,"subject_id":"92506","group":"Group1","condition":"1_Rep","full_date":"2026-02-23T22:03:28.360Z","date":"2026-02-23","time":"22:03:28"},{"task":"memory_phase","broad_category":"M","image_png":"M_Quartzite_05.png","image_id":277,"category_name":"Quartzite","category":18,"distinct_rating":2.23,"distinct_type":"Bottom","rt":null,"stimulus":"Stimuli_Rocks480/M_Quartzite_05.png","response":null,"trial_type":"image-keyboard-response","trial_index":89,"plugin_version":"2.1.0","time_elapsed":200548,"subject_id":"92506","group":"Group1","condition":"1_Rep","full_date":"2026-02-23T22:03:28.360Z","date":"2026-02-23","time":"22:03:28"},{"rt":null,"stimulus":"<p style=\"font-size: 50px; margin: 0; text-align: center;\">+</p>","response":null,"trial_type":"html-keyboard-response","trial_index":90,"plugin_version":"2.1.0","time_elapsed":201551,"subject_id":"92506","group":"Group1","condition":"1_Rep","full_date":"2026-02-23T22:03:28.360Z","date":"2026-02-23","time":"22:03:28"},{"task":"memory_phase","broad_category":"S","image_png":"S_Sandstone_03.png","image_id":451,"category_name":"Sandstone","category":29,"distinct_rating":1.86,"distinct_type":"Bottom","rt":null,"stimulus":"Stimuli_Rocks480/S_Sandstone_03.png","response":null,"trial_type":"image-keyboard-response","trial_index":91,"plugin_version":"2.1.0","time_elapsed":204066,"subject_id":"92506","group":"Group1","condition":"1_Rep","full_date":"2026-02-23T22:03:28.360Z","date":"2026-02-23","time":"22:03:28"},{"rt":null,"stimulus":"<p style=\"font-size: 50px; margin: 0; text-align: center;\">+</p>","response":null,"trial_type":"html-keyboard-response","trial_index":92,"plugin_version":"2.1.0","time_elapsed":205084,"subject_id":"92506","group":"Group1","condition":"1_Rep","full_date":"2026-02-23T22:03:28.360Z","date":"2026-02-23","time":"22:03:28"},{"task":"memory_phase","broad_category":"I","image_png":"I_Pumice_08.png","image_id":136,"category_name":"Pumice","category":9,"distinct_rating":3.1,"distinct_type":"Bottom","rt":null,"stimulus":"Stimuli_Rocks480/I_Pumice_08.png","response":null,"trial_type":"image-keyboard-response","trial_index":93,"plugin_version":"2.1.0","time_elapsed":207593,"subject_id":"92506","group":"Group1","condition":"1_Rep","full_date":"2026-02-23T22:03:28.360Z","date":"2026-02-23","time":"22:03:28"},{"rt":null,"stimulus":"<p style=\"font-size: 50px; margin: 0; text-align: center;\">+</p>","response":null,"trial_type":"html-keyboard-response","trial_index":94,"plugin_version":"2.1.0","time_elapsed":208608,"subject_id":"92506","group":"Group1","condition":"1_Rep","full_date":"2026-02-23T22:03:28.360Z","date":"2026-02-23","time":"22:03:28"},{"task":"memory_phase","broad_category":"S","image_png":"S_Shale_01.png","image_id":465,"category_name":"Shale","category":30,"distinct_rating":2.7,"distinct_type":"Bottom","rt":null,"stimulus":"Stimuli_Rocks480/S_Shale_01.png","response":null,"trial_type":"image-keyboard-response","trial_index":95,"plugin_version":"2.1.0","time_elapsed":211121,"subject_id":"92506","group":"Group1","condition":"1_Rep","full_date":"2026-02-23T22:03:28.360Z","date":"2026-02-23","time":"22:03:28"},{"rt":null,"stimulus":"<p style=\"font-size: 50px; margin: 0; text-align: center;\">+</p>","response":null,"trial_type":"html-keyboard-response","trial_index":96,"plugin_version":"2.1.0","time_elapsed":212126,"subject_id":"92506","group":"Group1","condition":"1_Rep","full_date":"2026-02-23T22:03:28.360Z","date":"2026-02-23","time":"22:03:28"},{"task":"memory_phase","broad_category":"I","image_png":"I_Pumice_11.png","image_id":139,"category_name":"Pumice","category":9,"distinct_rating":1.74,"distinct_type":"Bottom","rt":null,"stimulus":"Stimuli_Rocks480/I_Pumice_11.png","response":null,"trial_type":"image-keyboard-response","trial_index":97,"plugin_version":"2.1.0","time_elapsed":214637,"subject_id":"92506","group":"Group1","condition":"1_Rep","full_date":"2026-02-23T22:03:28.360Z","date":"2026-02-23","time":"22:03:28"},{"rt":null,"stimulus":"<p style=\"font-size: 50px; margin: 0; text-align: center;\">+</p>","response":null,"trial_type":"html-keyboard-response","trial_index":98,"plugin_version":"2.1.0","time_elapsed":215651,"subject_id":"92506","group":"Group1","condition":"1_Rep","full_date":"2026-02-23T22:03:28.360Z","date":"2026-02-23","time":"22:03:28"},{"task":"memory_phase","broad_category":"S","image_png":"S_Breccia_11.png","image_id":347,"category_name":"Breccia","category":22,"distinct_rating":6.7,"distinct_type":"Top","rt":null,"stimulus":"Stimuli_Rocks480/S_Breccia_11.png","response":null,"trial_type":"image-keyboard-response","trial_index":99,"plugin_version":"2.1.0","time_elapsed":218171,"subject_id":"92506","group":"Group1","condition":"1_Rep","full_date":"2026-02-23T22:03:28.360Z","date":"2026-02-23","time":"22:03:28"},{"rt":null,"stimulus":"<p style=\"font-size: 50px; margin: 0; text-align: center;\">+</p>","response":null,"trial_type":"html-keyboard-response","trial_index":100,"plugin_version":"2.1.0","time_elapsed":219178,"subject_id":"92506","group":"Group1","condition":"1_Rep","full_date":"2026-02-23T22:03:28.360Z","date":"2026-02-23","time":"22:03:28"},{"task":"memory_phase","broad_category":"I","image_png":"I_Pegmatite_10.png","image_id":106,"category_name":"Pegmatite","category":7,"distinct_rating":7.66,"distinct_type":"Top","rt":null,"stimulus":"Stimuli_Rocks480/I_Pegmatite_10.png","response":null,"trial_type":"image-keyboard-response","trial_index":101,"plugin_version":"2.1.0","time_elapsed":221685,"subject_id":"92506","group":"Group1","condition":"1_Rep","full_date":"2026-02-23T22:03:28.360Z","date":"2026-02-23","time":"22:03:28"},{"rt":null,"stimulus":"<p style=\"font-size: 50px; margin: 0; text-align: center;\">+</p>","response":null,"trial_type":"html-keyboard-response","trial_index":102,"plugin_version":"2.1.0","time_elapsed":222693,"subject_id":"92506","group":"Group1","condition":"1_Rep","full_date":"2026-02-23T22:03:28.360Z","date":"2026-02-23","time":"22:03:28"},{"task":"memory_phase","broad_category":"I","image_png":"I_Andesite_10.png","image_id":10,"category_name":"Andesite","category":1,"distinct_rating":3.15,"distinct_type":"Bottom","rt":null,"stimulus":"Stimuli_Rocks480/I_Andesite_10.png","response":null,"trial_type":"image-keyboard-response","trial_index":103,"plugin_version":"2.1.0","time_elapsed":225197,"subject_id":"92506","group":"Group1","condition":"1_Rep","full_date":"2026-02-23T22:03:28.360Z","date":"2026-02-23","time":"22:03:28"},{"rt":null,"stimulus":"<p style=\"font-size: 50px; margin: 0; text-align: center;\">+</p>","response":null,"trial_type":"html-keyboard-response","trial_index":104,"plugin_version":"2.1.0","time_elapsed":226206,"subject_id":"92506","group":"Group1","condition":"1_Rep","full_date":"2026-02-23T22:03:28.360Z","date":"2026-02-23","time":"22:03:28"},{"task":"memory_phase","broad_category":"I","image_png":"I_Diorite_05.png","image_id":37,"category_name":"Diorite","category":3,"distinct_rating":3.08,"distinct_type":"Bottom","rt":null,"stimulus":"Stimuli_Rocks480/I_Diorite_05.png","response":null,"trial_type":"image-keyboard-response","trial_index":105,"plugin_version":"2.1.0","time_elapsed":228714,"subject_id":"92506","group":"Group1","condition":"1_Rep","full_date":"2026-02-23T22:03:28.360Z","date":"2026-02-23","time":"22:03:28"},{"rt":24748,"stimulus":"<div style=\"max-width: 760px; margin: auto; font-size: 20px; line-height: 1.5;\">\n      <h1 style=\"text-align:center; font-size: 30px;\">Instructions for the Test Phase</h1>\n      <p>\n        The study phase is now complete.\n      </p>\n      <p>\n        In the test phase, you will again see a series of rock images. \n        Some will be ones you saw before - during the study phase, while others will be new.  \n        <b>Your task</b> is to decide whether you have seen each image before by pressing the corresponding key on your keyboard:<br><br>\n          <b>A</b> - NO (you did not see this image before)<br>\n          <b>L</b> - YES (you saw this image before)<br><br>\n        The test will proceed at your own pace. You will receive feedback after each response.  \n        Please try to respond <b>as accurately as possible</b>.\n      </p>\n      <p>\n        <b>Reminder:</b> If your computer has multiple language settings (e.g., English and another language),\n        please ensure it is set to English during the test phase.\n      </p>\n      <p>\n        You can track your progress using the <b>completion bar</b> at the top of the screen.  \n        Note that it has been refreshed to reflect your progress during this final phase.\n      </p>\n      <p>\n        Press the button below when you are ready to continue.\n      </p>\n    </div>","response":0,"trial_type":"html-button-response","trial_index":106,"plugin_version":"2.1.0","time_elapsed":253466,"subject_id":"92506","group":"Group1","condition":"1_Rep","full_date":"2026-02-23T22:03:28.360Z","date":"2026-02-23","time":"22:03:28"},{"correct_response":"a","task":"test_phase","broad_category":"I","image_png":"I_Rhyolite_05.png","image_id":149,"category_name":"Rhyolite","category":10,"distinct_rating":3.02,"distinct_type":"Bottom","item_type":"Foil","rt":2229,"stimulus":"Stimuli_Rocks480/I_Rhyolite_05.png","response":"a","trial_type":"image-keyboard-response","trial_index":107,"plugin_version":"2.1.0","time_elapsed":255699,"subject_id":"92506","group":"Group1","condition":"1_Rep","full_date":"2026-02-23T22:03:28.360Z","date":"2026-02-23","time":"22:03:28","cor_ans":true},{"trial_type":"html-keyboard-response","rt":null,"stimulus":"<p style=\"color: green; font-size: 50px; font-weight: bold;\">Correct</p>","response":null,"trial_index":108,"plugin_version":"2.1.0","time_elapsed":256217,"subject_id":"92506","group":"Group1","condition":"1_Rep","full_date":"2026-02-23T22:03:28.360Z","date":"2026-02-23","time":"22:03:28"},{"correct_response":"a","task":"test_phase","broad_category":"S","image_png":"S_Sandstone_04.png","image_id":452,"category_name":"Sandstone","category":29,"distinct_rating":1.8,"distinct_type":"Bottom","item_type":"Foil","rt":1017,"stimulus":"Stimuli_Rocks480/S_Sandstone_04.png","response":"l","trial_type":"image-keyboard-response","trial_index":109,"plugin_version":"2.1.0","time_elapsed":257237,"subject_id":"92506","group":"Group1","condition":"1_Rep","full_date":"2026-02-23T22:03:28.360Z","date":"2026-02-23","time":"22:03:28","cor_ans":false},{"trial_type":"html-keyboard-response","rt":null,"stimulus":"<p style=\"color: red; font-size: 50px; font-weight: bold;\">Incorrect</p>","response":null,"trial_index":110,"plugin_version":"2.1.0","time_elapsed":257755,"subject_id":"92506","group":"Group1","condition":"1_Rep","full_date":"2026-02-23T22:03:28.360Z","date":"2026-02-23","time":"22:03:28"},{"correct_response":"l","task":"test_phase","broad_category":"I","image_png":"I_Gabbro_11.png","image_id":59,"category_name":"Gabbro","category":4,"distinct_rating":1.99,"distinct_type":"Bottom","item_type":"Target","rt":1635,"stimulus":"Stimuli_Rocks480/I_Gabbro_11.png","response":"a","trial_type":"image-keyboard-response","trial_index":111,"plugin_version":"2.1.0","time_elapsed":259393,"subject_id":"92506","group":"Group1","condition":"1_Rep","full_date":"2026-02-23T22:03:28.360Z","date":"2026-02-23","time":"22:03:28","cor_ans":false},{"trial_type":"html-keyboard-response","rt":null,"stimulus":"<p style=\"color: red; font-size: 50px; font-weight: bold;\">Incorrect</p>","response":null,"trial_index":112,"plugin_version":"2.1.0","time_elapsed":259907,"subject_id":"92506","group":"Group1","condition":"1_Rep","full_date":"2026-02-23T22:03:28.360Z","date":"2026-02-23","time":"22:03:28"},{"correct_response":"l","task":"test_phase","broad_category":"S","image_png":"S_Sandstone_15.png","image_id":463,"category_name":"Sandstone","category":29,"distinct_rating":2,"distinct_type":"Bottom","item_type":"Target","rt":1900,"stimulus":"Stimuli_Rocks480/S_Sandstone_15.png","response":"l","trial_type":"image-keyboard-response","trial_index":113,"plugin_version":"2.1.0","time_elapsed":261810,"subject_id":"92506","group":"Group1","condition":"1_Rep","full_date":"2026-02-23T22:03:28.360Z","date":"2026-02-23","time":"22:03:28","cor_ans":true},{"trial_type":"html-keyboard-response","rt":null,"stimulus":"<p style=\"color: green; font-size: 50px; font-weight: bold;\">Correct</p>","response":null,"trial_index":114,"plugin_version":"2.1.0","time_elapsed":262317,"subject_id":"92506","group":"Group1","condition":"1_Rep","full_date":"2026-02-23T22:03:28.360Z","date":"2026-02-23","time":"22:03:28"},{"correct_response":"l","task":"test_phase","broad_category":"S","image_png":"S_Shale_12.png","image_id":476,"category_name":"Shale","category":30,"distinct_rating":2.48,"distinct_type":"Bottom","item_type":"Target","rt":1290,"stimulus":"Stimuli_Rocks480/S_Shale_12.png","response":"l","trial_type":"image-keyboard-response","trial_index":115,"plugin_version":"2.1.0","time_elapsed":263610,"subject_id":"92506","group":"Group1","condition":"1_Rep","full_date":"2026-02-23T22:03:28.360Z","date":"2026-02-23","time":"22:03:28","cor_ans":true},{"trial_type":"html-keyboard-response","rt":null,"stimulus":"<p style=\"color: green; font-size: 50px; font-weight: bold;\">Correct</p>","response":null,"trial_index":116,"plugin_version":"2.1.0","time_elapsed":264128,"subject_id":"92506","group":"Group1","condition":"1_Rep","full_date":"2026-02-23T22:03:28.360Z","date":"2026-02-23","time":"22:03:28"},{"correct_response":"l","task":"test_phase","broad_category":"M","image_png":"M_Marble_16.png","image_id":240,"category_name":"Marble","category":15,"distinct_rating":2.57,"distinct_type":"Bottom","item_type":"Target","rt":817,"stimulus":"Stimuli_Rocks480/M_Marble_16.png","response":"l","trial_type":"image-keyboard-response","trial_index":117,"plugin_version":"2.1.0","time_elapsed":264949,"subject_id":"92506","group":"Group1","condition":"1_Rep","full_date":"2026-02-23T22:03:28.360Z","date":"2026-02-23","time":"22:03:28","cor_ans":true},{"trial_type":"html-keyboard-response","rt":null,"stimulus":"<p style=\"color: green; font-size: 50px; font-weight: bold;\">Correct</p>","response":null,"trial_index":118,"plugin_version":"2.1.0","time_elapsed":265454,"subject_id":"92506","group":"Group1","condition":"1_Rep","full_date":"2026-02-23T22:03:28.360Z","date":"2026-02-23","time":"22:03:28"},{"correct_response":"a","task":"test_phase","broad_category":"I","image_png":"I_Diorite_10.png","image_id":42,"category_name":"Diorite","category":3,"distinct_rating":2.84,"distinct_type":"Bottom","item_type":"Foil","rt":1284,"stimulus":"Stimuli_Rocks480/I_Diorite_10.png","response":"l","trial_type":"image-keyboard-response","trial_index":119,"plugin_version":"2.1.0","time_elapsed":266741,"subject_id":"92506","group":"Group1","condition":"1_Rep","full_date":"2026-02-23T22:03:28.360Z","date":"2026-02-23","time":"22:03:28","cor_ans":false},{"trial_type":"html-keyboard-response","rt":null,"stimulus":"<p style=\"color: red; font-size: 50px; font-weight: bold;\">Incorrect</p>","response":null,"trial_index":120,"plugin_version":"2.1.0","time_elapsed":267249,"subject_id":"92506","group":"Group1","condition":"1_Rep","full_date":"2026-02-23T22:03:28.360Z","date":"2026-02-23","time":"22:03:28"},{"correct_response":"a","task":"test_phase","broad_category":"I","image_png":"I_Diorite_15.png","image_id":47,"category_name":"Diorite","category":3,"distinct_rating":3.05,"distinct_type":"Bottom","item_type":"Foil","rt":1543,"stimulus":"Stimuli_Rocks480/I_Diorite_15.png","response":"a","trial_type":"image-keyboard-response","trial_index":121,"plugin_version":"2.1.0","time_elapsed":268796,"subject_id":"92506","group":"Group1","condition":"1_Rep","full_date":"2026-02-23T22:03:28.360Z","date":"2026-02-23","time":"22:03:28","cor_ans":true},{"trial_type":"html-keyboard-response","rt":null,"stimulus":"<p style=\"color: green; font-size: 50px; font-weight: bold;\">Correct</p>","response":null,"trial_index":122,"plugin_version":"2.1.0","time_elapsed":269313,"subject_id":"92506","group":"Group1","condition":"1_Rep","full_date":"2026-02-23T22:03:28.360Z","date":"2026-02-23","time":"22:03:28"},{"correct_response":"l","task":"test_phase","broad_category":"I","image_png":"I_Gabbro_08.png","image_id":56,"category_name":"Gabbro","category":4,"distinct_rating":3.02,"distinct_type":"Bottom","item_type":"Target","rt":1198,"stimulus":"Stimuli_Rocks480/I_Gabbro_08.png","response":"a","trial_type":"image-keyboard-response","trial_index":123,"plugin_version":"2.1.0","time_elapsed":270515,"subject_id":"92506","group":"Group1","condition":"1_Rep","full_date":"2026-02-23T22:03:28.360Z","date":"2026-02-23","time":"22:03:28","cor_ans":false},{"trial_type":"html-keyboard-response","rt":null,"stimulus":"<p style=\"color: red; font-size: 50px; font-weight: bold;\">Incorrect</p>","response":null,"trial_index":124,"plugin_version":"2.1.0","time_elapsed":271018,"subject_id":"92506","group":"Group1","condition":"1_Rep","full_date":"2026-02-23T22:03:28.360Z","date":"2026-02-23","time":"22:03:28"},{"correct_response":"l","task":"test_phase","broad_category":"S","image_png":"S_Breccia_11.png","image_id":347,"category_name":"Breccia","category":22,"distinct_rating":6.7,"distinct_type":"Top","item_type":"Target","rt":849,"stimulus":"Stimuli_Rocks480/S_Breccia_11.png","response":"l","trial_type":"image-keyboard-response","trial_index":125,"plugin_version":"2.1.0","time_elapsed":271870,"subject_id":"92506","group":"Group1","condition":"1_Rep","full_date":"2026-02-23T22:03:28.360Z","date":"2026-02-23","time":"22:03:28","cor_ans":true},{"trial_type":"html-keyboard-response","rt":null,"stimulus":"<p style=\"color: green; font-size: 50px; font-weight: bold;\">Correct</p>","response":null,"trial_index":126,"plugin_version":"2.1.0","time_elapsed":272380,"subject_id":"92506","group":"Group1","condition":"1_Rep","full_date":"2026-02-23T22:03:28.360Z","date":"2026-02-23","time":"22:03:28"},{"correct_response":"a","task":"test_phase","broad_category":"I","image_png":"I_Rhyolite_10.png","image_id":154,"category_name":"Rhyolite","category":10,"distinct_rating":2.88,"distinct_type":"Bottom","item_type":"Foil","rt":836,"stimulus":"Stimuli_Rocks480/I_Rhyolite_10.png","response":"l","trial_type":"image-keyboard-response","trial_index":127,"plugin_version":"2.1.0","time_elapsed":273219,"subject_id":"92506","group":"Group1","condition":"1_Rep","full_date":"2026-02-23T22:03:28.360Z","date":"2026-02-23","time":"22:03:28","cor_ans":false},{"trial_type":"html-keyboard-response","rt":null,"stimulus":"<p style=\"color: red; font-size: 50px; font-weight: bold;\">Incorrect</p>","response":null,"trial_index":128,"plugin_version":"2.1.0","time_elapsed":273722,"subject_id":"92506","group":"Group1","condition":"1_Rep","full_date":"2026-02-23T22:03:28.360Z","date":"2026-02-23","time":"22:03:28"},{"correct_response":"a","task":"test_phase","broad_category":"S","image_png":"S_Shale_02.png","image_id":466,"category_name":"Shale","category":30,"distinct_rating":2.9,"distinct_type":"Bottom","item_type":"Foil","rt":705,"stimulus":"Stimuli_Rocks480/S_Shale_02.png","response":"l","trial_type":"image-keyboard-response","trial_index":129,"plugin_version":"2.1.0","time_elapsed":274430,"subject_id":"92506","group":"Group1","condition":"1_Rep","full_date":"2026-02-23T22:03:28.360Z","date":"2026-02-23","time":"22:03:28","cor_ans":false},{"trial_type":"html-keyboard-response","rt":null,"stimulus":"<p style=\"color: red; font-size: 50px; font-weight: bold;\">Incorrect</p>","response":null,"trial_index":130,"plugin_version":"2.1.0","time_elapsed":274947,"subject_id":"92506","group":"Group1","condition":"1_Rep","full_date":"2026-02-23T22:03:28.360Z","date":"2026-02-23","time":"22:03:28"},{"correct_response":"a","task":"test_phase","broad_category":"I","image_png":"I_Gabbro_02.png","image_id":50,"category_name":"Gabbro","category":4,"distinct_rating":2.73,"distinct_type":"Bottom","item_type":"Foil","rt":950,"stimulus":"Stimuli_Rocks480/I_Gabbro_02.png","response":"l","trial_type":"image-keyboard-response","trial_index":131,"plugin_version":"2.1.0","time_elapsed":275900,"subject_id":"92506","group":"Group1","condition":"1_Rep","full_date":"2026-02-23T22:03:28.360Z","date":"2026-02-23","time":"22:03:28","cor_ans":false},{"trial_type":"html-keyboard-response","rt":null,"stimulus":"<p style=\"color: red; font-size: 50px; font-weight: bold;\">Incorrect</p>","response":null,"trial_index":132,"plugin_version":"2.1.0","time_elapsed":276405,"subject_id":"92506","group":"Group1","condition":"1_Rep","full_date":"2026-02-23T22:03:28.360Z","date":"2026-02-23","time":"22:03:28"},{"correct_response":"a","task":"test_phase","broad_category":"M","image_png":"M_Gneiss_15.png","image_id":207,"category_name":"Gneiss","category":13,"distinct_rating":3.11,"distinct_type":"Bottom","item_type":"Foil","rt":762,"stimulus":"Stimuli_Rocks480/M_Gneiss_15.png","response":"a","trial_type":"image-keyboard-response","trial_index":133,"plugin_version":"2.1.0","time_elapsed":277170,"subject_id":"92506","group":"Group1","condition":"1_Rep","full_date":"2026-02-23T22:03:28.360Z","date":"2026-02-23","time":"22:03:28","cor_ans":true},{"trial_type":"html-keyboard-response","rt":null,"stimulus":"<p style=\"color: green; font-size: 50px; font-weight: bold;\">Correct</p>","response":null,"trial_index":134,"plugin_version":"2.1.0","time_elapsed":277683,"subject_id":"92506","group":"Group1","condition":"1_Rep","full_date":"2026-02-23T22:03:28.360Z","date":"2026-02-23","time":"22:03:28"},{"correct_response":"a","task":"test_phase","broad_category":"M","image_png":"M_Phyllite_05.png","image_id":261,"category_name":"Phyllite","category":17,"distinct_rating":2.14,"distinct_type":"Bottom","item_type":"Foil","rt":1577,"stimulus":"Stimuli_Rocks480/M_Phyllite_05.png","response":"l","trial_type":"image-keyboard-response","trial_index":135,"plugin_version":"2.1.0","time_elapsed":279263,"subject_id":"92506","group":"Group1","condition":"1_Rep","full_date":"2026-02-23T22:03:28.360Z","date":"2026-02-23","time":"22:03:28","cor_ans":false},{"trial_type":"html-keyboard-response","rt":null,"stimulus":"<p style=\"color: red; font-size: 50px; font-weight: bold;\">Incorrect</p>","response":null,"trial_index":136,"plugin_version":"2.1.0","time_elapsed":279768,"subject_id":"92506","group":"Group1","condition":"1_Rep","full_date":"2026-02-23T22:03:28.360Z","date":"2026-02-23","time":"22:03:28"},{"correct_response":"a","task":"test_phase","broad_category":"S","image_png":"S_Conglomerate_14.png","image_id":382,"category_name":"Conglomerate","category":24,"distinct_rating":6.86,"distinct_type":"Top","item_type":"Foil","rt":1783,"stimulus":"Stimuli_Rocks480/S_Conglomerate_14.png","response":"l","trial_type":"image-keyboard-response","trial_index":137,"plugin_version":"2.1.0","time_elapsed":281555,"subject_id":"92506","group":"Group1","condition":"1_Rep","full_date":"2026-02-23T22:03:28.360Z","date":"2026-02-23","time":"22:03:28","cor_ans":false},{"trial_type":"html-keyboard-response","rt":null,"stimulus":"<p style=\"color: red; font-size: 50px; font-weight: bold;\">Incorrect</p>","response":null,"trial_index":138,"plugin_version":"2.1.0","time_elapsed":282059,"subject_id":"92506","group":"Group1","condition":"1_Rep","full_date":"2026-02-23T22:03:28.360Z","date":"2026-02-23","time":"22:03:28"},{"correct_response":"l","task":"test_phase","broad_category":"I","image_png":"I_Diorite_05.png","image_id":37,"category_name":"Diorite","category":3,"distinct_rating":3.08,"distinct_type":"Bottom","item_type":"Target","rt":1724,"stimulus":"Stimuli_Rocks480/I_Diorite_05.png","response":"l","trial_type":"image-keyboard-response","trial_index":139,"plugin_version":"2.1.0","time_elapsed":283787,"subject_id":"92506","group":"Group1","condition":"1_Rep","full_date":"2026-02-23T22:03:28.360Z","date":"2026-02-23","time":"22:03:28","cor_ans":true},{"trial_type":"html-keyboard-response","rt":null,"stimulus":"<p style=\"color: green; font-size: 50px; font-weight: bold;\">Correct</p>","response":null,"trial_index":140,"plugin_version":"2.1.0","time_elapsed":284300,"subject_id":"92506","group":"Group1","condition":"1_Rep","full_date":"2026-02-23T22:03:28.360Z","date":"2026-02-23","time":"22:03:28"},{"correct_response":"l","task":"test_phase","broad_category":"I","image_png":"I_Basalt_09.png","image_id":25,"category_name":"Basalt","category":2,"distinct_rating":1.89,"distinct_type":"Bottom","item_type":"Target","rt":1317,"stimulus":"Stimuli_Rocks480/I_Basalt_09.png","response":"l","trial_type":"image-keyboard-response","trial_index":141,"plugin_version":"2.1.0","time_elapsed":285621,"subject_id":"92506","group":"Group1","condition":"1_Rep","full_date":"2026-02-23T22:03:28.360Z","date":"2026-02-23","time":"22:03:28","cor_ans":true},{"trial_type":"html-keyboard-response","rt":null,"stimulus":"<p style=\"color: green; font-size: 50px; font-weight: bold;\">Correct</p>","response":null,"trial_index":142,"plugin_version":"2.1.0","time_elapsed":286136,"subject_id":"92506","group":"Group1","condition":"1_Rep","full_date":"2026-02-23T22:03:28.360Z","date":"2026-02-23","time":"22:03:28"},{"correct_response":"a","task":"test_phase","broad_category":"S","image_png":"S_Sandstone_08.png","image_id":456,"category_name":"Sandstone","category":29,"distinct_rating":1.5,"distinct_type":"Bottom","item_type":"Foil","rt":1177,"stimulus":"Stimuli_Rocks480/S_Sandstone_08.png","response":"l","trial_type":"image-keyboard-response","trial_index":143,"plugin_version":"2.1.0","time_elapsed":287316,"subject_id":"92506","group":"Group1","condition":"1_Rep","full_date":"2026-02-23T22:03:28.360Z","date":"2026-02-23","time":"22:03:28","cor_ans":false},{"trial_type":"html-keyboard-response","rt":null,"stimulus":"<p style=\"color: red; font-size: 50px; font-weight: bold;\">Incorrect</p>","response":null,"trial_index":144,"plugin_version":"2.1.0","time_elapsed":287830,"subject_id":"92506","group":"Group1","condition":"1_Rep","full_date":"2026-02-23T22:03:28.360Z","date":"2026-02-23","time":"22:03:28"},{"correct_response":"l","task":"test_phase","broad_category":"S","image_png":"S_Chert_10.png","image_id":362,"category_name":"Chert","category":23,"distinct_rating":7.17,"distinct_type":"Top","item_type":"Target","rt":1107,"stimulus":"Stimuli_Rocks480/S_Chert_10.png","response":"a","trial_type":"image-keyboard-response","trial_index":145,"plugin_version":"2.1.0","time_elapsed":288941,"subject_id":"92506","group":"Group1","condition":"1_Rep","full_date":"2026-02-23T22:03:28.360Z","date":"2026-02-23","time":"22:03:28","cor_ans":false},{"trial_type":"html-keyboard-response","rt":null,"stimulus":"<p style=\"color: red; font-size: 50px; font-weight: bold;\">Incorrect</p>","response":null,"trial_index":146,"plugin_version":"2.1.0","time_elapsed":289449,"subject_id":"92506","group":"Group1","condition":"1_Rep","full_date":"2026-02-23T22:03:28.360Z","date":"2026-02-23","time":"22:03:28"},{"correct_response":"a","task":"test_phase","broad_category":"S","image_png":"S_Rock Salt_13.png","image_id":445,"category_name":"Rock Salt","category":28,"distinct_rating":7.58,"distinct_type":"Top","item_type":"Foil","rt":1380,"stimulus":"Stimuli_Rocks480/S_Rock Salt_13.png","response":"a","trial_type":"image-keyboard-response","trial_index":147,"plugin_version":"2.1.0","time_elapsed":290832,"subject_id":"92506","group":"Group1","condition":"1_Rep","full_date":"2026-02-23T22:03:28.360Z","date":"2026-02-23","time":"22:03:28","cor_ans":true},{"trial_type":"html-keyboard-response","rt":null,"stimulus":"<p style=\"color: green; font-size: 50px; font-weight: bold;\">Correct</p>","response":null,"trial_index":148,"plugin_version":"2.1.0","time_elapsed":291345,"subject_id":"92506","group":"Group1","condition":"1_Rep","full_date":"2026-02-23T22:03:28.360Z","date":"2026-02-23","time":"22:03:28"},{"correct_response":"a","task":"test_phase","broad_category":"I","image_png":"I_Basalt_10.png","image_id":26,"category_name":"Basalt","category":2,"distinct_rating":2.76,"distinct_type":"Bottom","item_type":"Foil","rt":748,"stimulus":"Stimuli_Rocks480/I_Basalt_10.png","response":"l","trial_type":"image-keyboard-response","trial_index":149,"plugin_version":"2.1.0","time_elapsed":292096,"subject_id":"92506","group":"Group1","condition":"1_Rep","full_date":"2026-02-23T22:03:28.360Z","date":"2026-02-23","time":"22:03:28","cor_ans":false},{"trial_type":"html-keyboard-response","rt":null,"stimulus":"<p style=\"color: red; font-size: 50px; font-weight: bold;\">Incorrect</p>","response":null,"trial_index":150,"plugin_version":"2.1.0","time_elapsed":292604,"subject_id":"92506","group":"Group1","condition":"1_Rep","full_date":"2026-02-23T22:03:28.360Z","date":"2026-02-23","time":"22:03:28"},{"correct_response":"l","task":"test_phase","broad_category":"I","image_png":"I_Rhyolite_11.png","image_id":155,"category_name":"Rhyolite","category":10,"distinct_rating":1.73,"distinct_type":"Bottom","item_type":"Target","rt":1206,"stimulus":"Stimuli_Rocks480/I_Rhyolite_11.png","response":"l","trial_type":"image-keyboard-response","trial_index":151,"plugin_version":"2.1.0","time_elapsed":293812,"subject_id":"92506","group":"Group1","condition":"1_Rep","full_date":"2026-02-23T22:03:28.360Z","date":"2026-02-23","time":"22:03:28","cor_ans":true},{"trial_type":"html-keyboard-response","rt":null,"stimulus":"<p style=\"color: green; font-size: 50px; font-weight: bold;\">Correct</p>","response":null,"trial_index":152,"plugin_version":"2.1.0","time_elapsed":294324,"subject_id":"92506","group":"Group1","condition":"1_Rep","full_date":"2026-02-23T22:03:28.360Z","date":"2026-02-23","time":"22:03:28"},{"correct_response":"l","task":"test_phase","broad_category":"I","image_png":"I_Pumice_12.png","image_id":140,"category_name":"Pumice","category":9,"distinct_rating":2.97,"distinct_type":"Bottom","item_type":"Target","rt":1633,"stimulus":"Stimuli_Rocks480/I_Pumice_12.png","response":"a","trial_type":"image-keyboard-response","trial_index":153,"plugin_version":"2.1.0","time_elapsed":295961,"subject_id":"92506","group":"Group1","condition":"1_Rep","full_date":"2026-02-23T22:03:28.360Z","date":"2026-02-23","time":"22:03:28","cor_ans":false},{"trial_type":"html-keyboard-response","rt":null,"stimulus":"<p style=\"color: red; font-size: 50px; font-weight: bold;\">Incorrect</p>","response":null,"trial_index":154,"plugin_version":"2.1.0","time_elapsed":296464,"subject_id":"92506","group":"Group1","condition":"1_Rep","full_date":"2026-02-23T22:03:28.360Z","date":"2026-02-23","time":"22:03:28"},{"correct_response":"l","task":"test_phase","broad_category":"S","image_png":"S_Dolomite_13.png","image_id":397,"category_name":"Dolomite","category":25,"distinct_rating":1.77,"distinct_type":"Bottom","item_type":"Target","rt":1356,"stimulus":"Stimuli_Rocks480/S_Dolomite_13.png","response":"l","trial_type":"image-keyboard-response","trial_index":155,"plugin_version":"2.1.0","time_elapsed":297824,"subject_id":"92506","group":"Group1","condition":"1_Rep","full_date":"2026-02-23T22:03:28.360Z","date":"2026-02-23","time":"22:03:28","cor_ans":true},{"trial_type":"html-keyboard-response","rt":null,"stimulus":"<p style=\"color: green; font-size: 50px; font-weight: bold;\">Correct</p>","response":null,"trial_index":156,"plugin_version":"2.1.0","time_elapsed":298327,"subject_id":"92506","group":"Group1","condition":"1_Rep","full_date":"2026-02-23T22:03:28.360Z","date":"2026-02-23","time":"22:03:28"},{"correct_response":"l","task":"test_phase","broad_category":"I","image_png":"I_Pumice_08.png","image_id":136,"category_name":"Pumice","category":9,"distinct_rating":3.1,"distinct_type":"Bottom","item_type":"Target","rt":1354,"stimulus":"Stimuli_Rocks480/I_Pumice_08.png","response":"a","trial_type":"image-keyboard-response","trial_index":157,"plugin_version":"2.1.0","time_elapsed":299684,"subject_id":"92506","group":"Group1","condition":"1_Rep","full_date":"2026-02-23T22:03:28.360Z","date":"2026-02-23","time":"22:03:28","cor_ans":false},{"trial_type":"html-keyboard-response","rt":null,"stimulus":"<p style=\"color: red; font-size: 50px; font-weight: bold;\">Incorrect</p>","response":null,"trial_index":158,"plugin_version":"2.1.0","time_elapsed":300196,"subject_id":"92506","group":"Group1","condition":"1_Rep","full_date":"2026-02-23T22:03:28.360Z","date":"2026-02-23","time":"22:03:28"},{"correct_response":"a","task":"test_phase","broad_category":"S","image_png":"S_Dolomite_16.png","image_id":400,"category_name":"Dolomite","category":25,"distinct_rating":1.71,"distinct_type":"Bottom","item_type":"Foil","rt":1099,"stimulus":"Stimuli_Rocks480/S_Dolomite_16.png","response":"a","trial_type":"image-keyboard-response","trial_index":159,"plugin_version":"2.1.0","time_elapsed":301299,"subject_id":"92506","group":"Group1","condition":"1_Rep","full_date":"2026-02-23T22:03:28.360Z","date":"2026-02-23","time":"22:03:28","cor_ans":true},{"trial_type":"html-keyboard-response","rt":null,"stimulus":"<p style=\"color: green; font-size: 50px; font-weight: bold;\">Correct</p>","response":null,"trial_index":160,"plugin_version":"2.1.0","time_elapsed":301802,"subject_id":"92506","group":"Group1","condition":"1_Rep","full_date":"2026-02-23T22:03:28.360Z","date":"2026-02-23","time":"22:03:28"},{"correct_response":"l","task":"test_phase","broad_category":"I","image_png":"I_Rhyolite_16.png","image_id":160,"category_name":"Rhyolite","category":10,"distinct_rating":2.19,"distinct_type":"Bottom","item_type":"Target","rt":823,"stimulus":"Stimuli_Rocks480/I_Rhyolite_16.png","response":"l","trial_type":"image-keyboard-response","trial_index":161,"plugin_version":"2.1.0","time_elapsed":302629,"subject_id":"92506","group":"Group1","condition":"1_Rep","full_date":"2026-02-23T22:03:28.360Z","date":"2026-02-23","time":"22:03:28","cor_ans":true},{"trial_type":"html-keyboard-response","rt":null,"stimulus":"<p style=\"color: green; font-size: 50px; font-weight: bold;\">Correct</p>","response":null,"trial_index":162,"plugin_version":"2.1.0","time_elapsed":303137,"subject_id":"92506","group":"Group1","condition":"1_Rep","full_date":"2026-02-23T22:03:28.360Z","date":"2026-02-23","time":"22:03:28"},{"correct_response":"a","task":"test_phase","broad_category":"I","image_png":"I_Gabbro_12.png","image_id":60,"category_name":"Gabbro","category":4,"distinct_rating":2.6,"distinct_type":"Bottom","item_type":"Foil","rt":828,"stimulus":"Stimuli_Rocks480/I_Gabbro_12.png","response":"l","trial_type":"image-keyboard-response","trial_index":163,"plugin_version":"2.1.0","time_elapsed":303968,"subject_id":"92506","group":"Group1","condition":"1_Rep","full_date":"2026-02-23T22:03:28.360Z","date":"2026-02-23","time":"22:03:28","cor_ans":false},{"trial_type":"html-keyboard-response","rt":null,"stimulus":"<p style=\"color: red; font-size: 50px; font-weight: bold;\">Incorrect</p>","response":null,"trial_index":164,"plugin_version":"2.1.0","time_elapsed":304486,"subject_id":"92506","group":"Group1","condition":"1_Rep","full_date":"2026-02-23T22:03:28.360Z","date":"2026-02-23","time":"22:03:28"},{"correct_response":"l","task":"test_phase","broad_category":"I","image_png":"I_Gabbro_16.png","image_id":64,"category_name":"Gabbro","category":4,"distinct_rating":2.52,"distinct_type":"Bottom","item_type":"Target","rt":1096,"stimulus":"Stimuli_Rocks480/I_Gabbro_16.png","response":"a","trial_type":"image-keyboard-response","trial_index":165,"plugin_version":"2.1.0","time_elapsed":305584,"subject_id":"92506","group":"Group1","condition":"1_Rep","full_date":"2026-02-23T22:03:28.360Z","date":"2026-02-23","time":"22:03:28","cor_ans":false},{"trial_type":"html-keyboard-response","rt":null,"stimulus":"<p style=\"color: red; font-size: 50px; font-weight: bold;\">Incorrect</p>","response":null,"trial_index":166,"plugin_version":"2.1.0","time_elapsed":306100,"subject_id":"92506","group":"Group1","condition":"1_Rep","full_date":"2026-02-23T22:03:28.360Z","date":"2026-02-23","time":"22:03:28"},{"correct_response":"l","task":"test_phase","broad_category":"S","image_png":"S_Shale_01.png","image_id":465,"category_name":"Shale","category":30,"distinct_rating":2.7,"distinct_type":"Bottom","item_type":"Target","rt":947,"stimulus":"Stimuli_Rocks480/S_Shale_01.png","response":"l","trial_type":"image-keyboard-response","trial_index":167,"plugin_version":"2.1.0","time_elapsed":307051,"subject_id":"92506","group":"Group1","condition":"1_Rep","full_date":"2026-02-23T22:03:28.360Z","date":"2026-02-23","time":"22:03:28","cor_ans":true},{"trial_type":"html-keyboard-response","rt":null,"stimulus":"<p style=\"color: green; font-size: 50px; font-weight: bold;\">Correct</p>","response":null,"trial_index":168,"plugin_version":"2.1.0","time_elapsed":307558,"subject_id":"92506","group":"Group1","condition":"1_Rep","full_date":"2026-02-23T22:03:28.360Z","date":"2026-02-23","time":"22:03:28"},{"correct_response":"l","task":"test_phase","broad_category":"S","image_png":"S_Shale_08.png","image_id":472,"category_name":"Shale","category":30,"distinct_rating":2.55,"distinct_type":"Bottom","item_type":"Target","rt":686,"stimulus":"Stimuli_Rocks480/S_Shale_08.png","response":"l","trial_type":"image-keyboard-response","trial_index":169,"plugin_version":"2.1.0","time_elapsed":308247,"subject_id":"92506","group":"Group1","condition":"1_Rep","full_date":"2026-02-23T22:03:28.360Z","date":"2026-02-23","time":"22:03:28","cor_ans":true},{"trial_type":"html-keyboard-response","rt":null,"stimulus":"<p style=\"color: green; font-size: 50px; font-weight: bold;\">Correct</p>","response":null,"trial_index":170,"plugin_version":"2.1.0","time_elapsed":308755,"subject_id":"92506","group":"Group1","condition":"1_Rep","full_date":"2026-02-23T22:03:28.360Z","date":"2026-02-23","time":"22:03:28"},{"correct_response":"a","task":"test_phase","broad_category":"I","image_png":"I_Peridotite_13.png","image_id":125,"category_name":"Peridotite","category":8,"distinct_rating":7.28,"distinct_type":"Top","item_type":"Foil","rt":1230,"stimulus":"Stimuli_Rocks480/I_Peridotite_13.png","response":"a","trial_type":"image-keyboard-response","trial_index":171,"plugin_version":"2.1.0","time_elapsed":309988,"subject_id":"92506","group":"Group1","condition":"1_Rep","full_date":"2026-02-23T22:03:28.360Z","date":"2026-02-23","time":"22:03:28","cor_ans":true},{"trial_type":"html-keyboard-response","rt":null,"stimulus":"<p style=\"color: green; font-size: 50px; font-weight: bold;\">Correct</p>","response":null,"trial_index":172,"plugin_version":"2.1.0","time_elapsed":310500,"subject_id":"92506","group":"Group1","condition":"1_Rep","full_date":"2026-02-23T22:03:28.360Z","date":"2026-02-23","time":"22:03:28"},{"correct_response":"l","task":"test_phase","broad_category":"M","image_png":"M_Marble_04.png","image_id":228,"category_name":"Marble","category":15,"distinct_rating":3.15,"distinct_type":"Bottom","item_type":"Target","rt":680,"stimulus":"Stimuli_Rocks480/M_Marble_04.png","response":"l","trial_type":"image-keyboard-response","trial_index":173,"plugin_version":"2.1.0","time_elapsed":311184,"subject_id":"92506","group":"Group1","condition":"1_Rep","full_date":"2026-02-23T22:03:28.360Z","date":"2026-02-23","time":"22:03:28","cor_ans":true},{"trial_type":"html-keyboard-response","rt":null,"stimulus":"<p style=\"color: green; font-size: 50px; font-weight: bold;\">Correct</p>","response":null,"trial_index":174,"plugin_version":"2.1.0","time_elapsed":311701,"subject_id":"92506","group":"Group1","condition":"1_Rep","full_date":"2026-02-23T22:03:28.360Z","date":"2026-02-23","time":"22:03:28"},{"correct_response":"a","task":"test_phase","broad_category":"M","image_png":"M_Slate_04.png","image_id":308,"category_name":"Slate","category":20,"distinct_rating":2.2,"distinct_type":"Bottom","item_type":"Foil","rt":780,"stimulus":"Stimuli_Rocks480/M_Slate_04.png","response":"l","trial_type":"image-keyboard-response","trial_index":175,"plugin_version":"2.1.0","time_elapsed":312485,"subject_id":"92506","group":"Group1","condition":"1_Rep","full_date":"2026-02-23T22:03:28.360Z","date":"2026-02-23","time":"22:03:28","cor_ans":false},{"trial_type":"html-keyboard-response","rt":null,"stimulus":"<p style=\"color: red; font-size: 50px; font-weight: bold;\">Incorrect</p>","response":null,"trial_index":176,"plugin_version":"2.1.0","time_elapsed":312988,"subject_id":"92506","group":"Group1","condition":"1_Rep","full_date":"2026-02-23T22:03:28.360Z","date":"2026-02-23","time":"22:03:28"},{"correct_response":"l","task":"test_phase","broad_category":"M","image_png":"M_Quartzite_05.png","image_id":277,"category_name":"Quartzite","category":18,"distinct_rating":2.23,"distinct_type":"Bottom","item_type":"Target","rt":909,"stimulus":"Stimuli_Rocks480/M_Quartzite_05.png","response":"l","trial_type":"image-keyboard-response","trial_index":177,"plugin_version":"2.1.0","time_elapsed":313901,"subject_id":"92506","group":"Group1","condition":"1_Rep","full_date":"2026-02-23T22:03:28.360Z","date":"2026-02-23","time":"22:03:28","cor_ans":true},{"trial_type":"html-keyboard-response","rt":null,"stimulus":"<p style=\"color: green; font-size: 50px; font-weight: bold;\">Correct</p>","response":null,"trial_index":178,"plugin_version":"2.1.0","time_elapsed":314403,"subject_id":"92506","group":"Group1","condition":"1_Rep","full_date":"2026-02-23T22:03:28.360Z","date":"2026-02-23","time":"22:03:28"},{"correct_response":"a","task":"test_phase","broad_category":"I","image_png":"I_Rhyolite_08.png","image_id":152,"category_name":"Rhyolite","category":10,"distinct_rating":1.38,"distinct_type":"Bottom","item_type":"Foil","rt":2144,"stimulus":"Stimuli_Rocks480/I_Rhyolite_08.png","response":"a","trial_type":"image-keyboard-response","trial_index":179,"plugin_version":"2.1.0","time_elapsed":316550,"subject_id":"92506","group":"Group1","condition":"1_Rep","full_date":"2026-02-23T22:03:28.360Z","date":"2026-02-23","time":"22:03:28","cor_ans":true},{"trial_type":"html-keyboard-response","rt":null,"stimulus":"<p style=\"color: green; font-size: 50px; font-weight: bold;\">Correct</p>","response":null,"trial_index":180,"plugin_version":"2.1.0","time_elapsed":317068,"subject_id":"92506","group":"Group1","condition":"1_Rep","full_date":"2026-02-23T22:03:28.360Z","date":"2026-02-23","time":"22:03:28"},{"correct_response":"a","task":"test_phase","broad_category":"I","image_png":"I_Andesite_04.png","image_id":4,"category_name":"Andesite","category":1,"distinct_rating":3.18,"distinct_type":"Bottom","item_type":"Foil","rt":980,"stimulus":"Stimuli_Rocks480/I_Andesite_04.png","response":"l","trial_type":"image-keyboard-response","trial_index":181,"plugin_version":"2.1.0","time_elapsed":318051,"subject_id":"92506","group":"Group1","condition":"1_Rep","full_date":"2026-02-23T22:03:28.360Z","date":"2026-02-23","time":"22:03:28","cor_ans":false},{"trial_type":"html-keyboard-response","rt":null,"stimulus":"<p style=\"color: red; font-size: 50px; font-weight: bold;\">Incorrect</p>","response":null,"trial_index":182,"plugin_version":"2.1.0","time_elapsed":318557,"subject_id":"92506","group":"Group1","condition":"1_Rep","full_date":"2026-02-23T22:03:28.360Z","date":"2026-02-23","time":"22:03:28"},{"correct_response":"a","task":"test_phase","broad_category":"I","image_png":"I_Andesite_03.png","image_id":3,"category_name":"Andesite","category":1,"distinct_rating":3.17,"distinct_type":"Bottom","item_type":"Foil","rt":959,"stimulus":"Stimuli_Rocks480/I_Andesite_03.png","response":"a","trial_type":"image-keyboard-response","trial_index":183,"plugin_version":"2.1.0","time_elapsed":319520,"subject_id":"92506","group":"Group1","condition":"1_Rep","full_date":"2026-02-23T22:03:28.360Z","date":"2026-02-23","time":"22:03:28","cor_ans":true},{"trial_type":"html-keyboard-response","rt":null,"stimulus":"<p style=\"color: green; font-size: 50px; font-weight: bold;\">Correct</p>","response":null,"trial_index":184,"plugin_version":"2.1.0","time_elapsed":320026,"subject_id":"92506","group":"Group1","condition":"1_Rep","full_date":"2026-02-23T22:03:28.360Z","date":"2026-02-23","time":"22:03:28"},{"correct_response":"a","task":"test_phase","broad_category":"I","image_png":"I_Diorite_01.png","image_id":33,"category_name":"Diorite","category":3,"distinct_rating":2.97,"distinct_type":"Bottom","item_type":"Foil","rt":654,"stimulus":"Stimuli_Rocks480/I_Diorite_01.png","response":"l","trial_type":"image-keyboard-response","trial_index":185,"plugin_version":"2.1.0","time_elapsed":320684,"subject_id":"92506","group":"Group1","condition":"1_Rep","full_date":"2026-02-23T22:03:28.360Z","date":"2026-02-23","time":"22:03:28","cor_ans":false},{"trial_type":"html-keyboard-response","rt":null,"stimulus":"<p style=\"color: red; font-size: 50px; font-weight: bold;\">Incorrect</p>","response":null,"trial_index":186,"plugin_version":"2.1.0","time_elapsed":321188,"subject_id":"92506","group":"Group1","condition":"1_Rep","full_date":"2026-02-23T22:03:28.360Z","date":"2026-02-23","time":"22:03:28"},{"correct_response":"l","task":"test_phase","broad_category":"S","image_png":"S_Rock Salt_01.png","image_id":433,"category_name":"Rock Salt","category":28,"distinct_rating":7.18,"distinct_type":"Top","item_type":"Target","rt":1022,"stimulus":"Stimuli_Rocks480/S_Rock Salt_01.png","response":"a","trial_type":"image-keyboard-response","trial_index":187,"plugin_version":"2.1.0","time_elapsed":322214,"subject_id":"92506","group":"Group1","condition":"1_Rep","full_date":"2026-02-23T22:03:28.360Z","date":"2026-02-23","time":"22:03:28","cor_ans":false},{"trial_type":"html-keyboard-response","rt":null,"stimulus":"<p style=\"color: red; font-size: 50px; font-weight: bold;\">Incorrect</p>","response":null,"trial_index":188,"plugin_version":"2.1.0","time_elapsed":322724,"subject_id":"92506","group":"Group1","condition":"1_Rep","full_date":"2026-02-23T22:03:28.360Z","date":"2026-02-23","time":"22:03:28"},{"correct_response":"l","task":"test_phase","broad_category":"I","image_png":"I_Pegmatite_10.png","image_id":106,"category_name":"Pegmatite","category":7,"distinct_rating":7.66,"distinct_type":"Top","item_type":"Target","rt":3093,"stimulus":"Stimuli_Rocks480/I_Pegmatite_10.png","response":"l","trial_type":"image-keyboard-response","trial_index":189,"plugin_version":"2.1.0","time_elapsed":325819,"subject_id":"92506","group":"Group1","condition":"1_Rep","full_date":"2026-02-23T22:03:28.360Z","date":"2026-02-23","time":"22:03:28","cor_ans":true},{"trial_type":"html-keyboard-response","rt":null,"stimulus":"<p style=\"color: green; font-size: 50px; font-weight: bold;\">Correct</p>","response":null,"trial_index":190,"plugin_version":"2.1.0","time_elapsed":326328,"subject_id":"92506","group":"Group1","condition":"1_Rep","full_date":"2026-02-23T22:03:28.360Z","date":"2026-02-23","time":"22:03:28"},{"correct_response":"l","task":"test_phase","broad_category":"M","image_png":"M_Slate_15.png","image_id":319,"category_name":"Slate","category":20,"distinct_rating":2.13,"distinct_type":"Bottom","item_type":"Target","rt":1348,"stimulus":"Stimuli_Rocks480/M_Slate_15.png","response":"l","trial_type":"image-keyboard-response","trial_index":191,"plugin_version":"2.1.0","time_elapsed":327679,"subject_id":"92506","group":"Group1","condition":"1_Rep","full_date":"2026-02-23T22:03:28.360Z","date":"2026-02-23","time":"22:03:28","cor_ans":true},{"trial_type":"html-keyboard-response","rt":null,"stimulus":"<p style=\"color: green; font-size: 50px; font-weight: bold;\">Correct</p>","response":null,"trial_index":192,"plugin_version":"2.1.0","time_elapsed":328195,"subject_id":"92506","group":"Group1","condition":"1_Rep","full_date":"2026-02-23T22:03:28.360Z","date":"2026-02-23","time":"22:03:28"},{"correct_response":"l","task":"test_phase","broad_category":"M","image_png":"M_Gneiss_13.png","image_id":205,"category_name":"Gneiss","category":13,"distinct_rating":3.26,"distinct_type":"Bottom","item_type":"Target","rt":778,"stimulus":"Stimuli_Rocks480/M_Gneiss_13.png","response":"l","trial_type":"image-keyboard-response","trial_index":193,"plugin_version":"2.1.0","time_elapsed":328976,"subject_id":"92506","group":"Group1","condition":"1_Rep","full_date":"2026-02-23T22:03:28.360Z","date":"2026-02-23","time":"22:03:28","cor_ans":true},{"trial_type":"html-keyboard-response","rt":null,"stimulus":"<p style=\"color: green; font-size: 50px; font-weight: bold;\">Correct</p>","response":null,"trial_index":194,"plugin_version":"2.1.0","time_elapsed":329481,"subject_id":"92506","group":"Group1","condition":"1_Rep","full_date":"2026-02-23T22:03:28.360Z","date":"2026-02-23","time":"22:03:28"},{"correct_response":"a","task":"test_phase","broad_category":"S","image_png":"S_Chert_13.png","image_id":365,"category_name":"Chert","category":23,"distinct_rating":6.57,"distinct_type":"Top","item_type":"Foil","rt":914,"stimulus":"Stimuli_Rocks480/S_Chert_13.png","response":"a","trial_type":"image-keyboard-response","trial_index":195,"plugin_version":"2.1.0","time_elapsed":330398,"subject_id":"92506","group":"Group1","condition":"1_Rep","full_date":"2026-02-23T22:03:28.360Z","date":"2026-02-23","time":"22:03:28","cor_ans":true},{"trial_type":"html-keyboard-response","rt":null,"stimulus":"<p style=\"color: green; font-size: 50px; font-weight: bold;\">Correct</p>","response":null,"trial_index":196,"plugin_version":"2.1.0","time_elapsed":330905,"subject_id":"92506","group":"Group1","condition":"1_Rep","full_date":"2026-02-23T22:03:28.360Z","date":"2026-02-23","time":"22:03:28"},{"correct_response":"a","task":"test_phase","broad_category":"I","image_png":"I_Obsidian_06.png","image_id":86,"category_name":"Obsidian","category":6,"distinct_rating":8.01,"distinct_type":"Top","item_type":"Foil","rt":1836,"stimulus":"Stimuli_Rocks480/I_Obsidian_06.png","response":"l","trial_type":"image-keyboard-response","trial_index":197,"plugin_version":"2.1.0","time_elapsed":332745,"subject_id":"92506","group":"Group1","condition":"1_Rep","full_date":"2026-02-23T22:03:28.360Z","date":"2026-02-23","time":"22:03:28","cor_ans":false},{"trial_type":"html-keyboard-response","rt":null,"stimulus":"<p style=\"color: red; font-size: 50px; font-weight: bold;\">Incorrect</p>","response":null,"trial_index":198,"plugin_version":"2.1.0","time_elapsed":333248,"subject_id":"92506","group":"Group1","condition":"1_Rep","full_date":"2026-02-23T22:03:28.360Z","date":"2026-02-23","time":"22:03:28"},{"correct_response":"a","task":"test_phase","broad_category":"M","image_png":"M_Marble_02.png","image_id":226,"category_name":"Marble","category":15,"distinct_rating":3.2,"distinct_type":"Bottom","item_type":"Foil","rt":854,"stimulus":"Stimuli_Rocks480/M_Marble_02.png","response":"l","trial_type":"image-keyboard-response","trial_index":199,"plugin_version":"2.1.0","time_elapsed":334105,"subject_id":"92506","group":"Group1","condition":"1_Rep","full_date":"2026-02-23T22:03:28.360Z","date":"2026-02-23","time":"22:03:28","cor_ans":false},{"trial_type":"html-keyboard-response","rt":null,"stimulus":"<p style=\"color: red; font-size: 50px; font-weight: bold;\">Incorrect</p>","response":null,"trial_index":200,"plugin_version":"2.1.0","time_elapsed":334608,"subject_id":"92506","group":"Group1","condition":"1_Rep","full_date":"2026-02-23T22:03:28.360Z","date":"2026-02-23","time":"22:03:28"},{"correct_response":"l","task":"test_phase","broad_category":"I","image_png":"I_Andesite_10.png","image_id":10,"category_name":"Andesite","category":1,"distinct_rating":3.15,"distinct_type":"Bottom","item_type":"Target","rt":906,"stimulus":"Stimuli_Rocks480/I_Andesite_10.png","response":"a","trial_type":"image-keyboard-response","trial_index":201,"plugin_version":"2.1.0","time_elapsed":335518,"subject_id":"92506","group":"Group1","condition":"1_Rep","full_date":"2026-02-23T22:03:28.360Z","date":"2026-02-23","time":"22:03:28","cor_ans":false},{"trial_type":"html-keyboard-response","rt":null,"stimulus":"<p style=\"color: red; font-size: 50px; font-weight: bold;\">Incorrect</p>","response":null,"trial_index":202,"plugin_version":"2.1.0","time_elapsed":336035,"subject_id":"92506","group":"Group1","condition":"1_Rep","full_date":"2026-02-23T22:03:28.360Z","date":"2026-02-23","time":"22:03:28"},{"correct_response":"a","task":"test_phase","broad_category":"S","image_png":"S_Dolomite_07.png","image_id":391,"category_name":"Dolomite","category":25,"distinct_rating":1.73,"distinct_type":"Bottom","item_type":"Foil","rt":725,"stimulus":"Stimuli_Rocks480/S_Dolomite_07.png","response":"l","trial_type":"image-keyboard-response","trial_index":203,"plugin_version":"2.1.0","time_elapsed":336764,"subject_id":"92506","group":"Group1","condition":"1_Rep","full_date":"2026-02-23T22:03:28.360Z","date":"2026-02-23","time":"22:03:28","cor_ans":false},{"trial_type":"html-keyboard-response","rt":null,"stimulus":"<p style=\"color: red; font-size: 50px; font-weight: bold;\">Incorrect</p>","response":null,"trial_index":204,"plugin_version":"2.1.0","time_elapsed":337283,"subject_id":"92506","group":"Group1","condition":"1_Rep","full_date":"2026-02-23T22:03:28.360Z","date":"2026-02-23","time":"22:03:28"},{"correct_response":"l","task":"test_phase","broad_category":"I","image_png":"I_Obsidian_05.png","image_id":85,"category_name":"Obsidian","category":6,"distinct_rating":7.32,"distinct_type":"Top","item_type":"Target","rt":1162,"stimulus":"Stimuli_Rocks480/I_Obsidian_05.png","response":"l","trial_type":"image-keyboard-response","trial_index":205,"plugin_version":"2.1.0","time_elapsed":338450,"subject_id":"92506","group":"Group1","condition":"1_Rep","full_date":"2026-02-23T22:03:28.360Z","date":"2026-02-23","time":"22:03:28","cor_ans":true},{"trial_type":"html-keyboard-response","rt":null,"stimulus":"<p style=\"color: green; font-size: 50px; font-weight: bold;\">Correct</p>","response":null,"trial_index":206,"plugin_version":"2.1.0","time_elapsed":338964,"subject_id":"92506","group":"Group1","condition":"1_Rep","full_date":"2026-02-23T22:03:28.360Z","date":"2026-02-23","time":"22:03:28"},{"correct_response":"a","task":"test_phase","broad_category":"M","image_png":"M_Gneiss_10.png","image_id":202,"category_name":"Gneiss","category":13,"distinct_rating":3.09,"distinct_type":"Bottom","item_type":"Foil","rt":627,"stimulus":"Stimuli_Rocks480/M_Gneiss_10.png","response":"l","trial_type":"image-keyboard-response","trial_index":207,"plugin_version":"2.1.0","time_elapsed":339594,"subject_id":"92506","group":"Group1","condition":"1_Rep","full_date":"2026-02-23T22:03:28.360Z","date":"2026-02-23","time":"22:03:28","cor_ans":false},{"trial_type":"html-keyboard-response","rt":null,"stimulus":"<p style=\"color: red; font-size: 50px; font-weight: bold;\">Incorrect</p>","response":null,"trial_index":208,"plugin_version":"2.1.0","time_elapsed":340108,"subject_id":"92506","group":"Group1","condition":"1_Rep","full_date":"2026-02-23T22:03:28.360Z","date":"2026-02-23","time":"22:03:28"},{"correct_response":"a","task":"test_phase","broad_category":"S","image_png":"S_Shale_07.png","image_id":471,"category_name":"Shale","category":30,"distinct_rating":2.73,"distinct_type":"Bottom","item_type":"Foil","rt":860,"stimulus":"Stimuli_Rocks480/S_Shale_07.png","response":"a","trial_type":"image-keyboard-response","trial_index":209,"plugin_version":"2.1.0","time_elapsed":340972,"subject_id":"92506","group":"Group1","condition":"1_Rep","full_date":"2026-02-23T22:03:28.360Z","date":"2026-02-23","time":"22:03:28","cor_ans":true},{"trial_type":"html-keyboard-response","rt":null,"stimulus":"<p style=\"color: green; font-size: 50px; font-weight: bold;\">Correct</p>","response":null,"trial_index":210,"plugin_version":"2.1.0","time_elapsed":341490,"subject_id":"92506","group":"Group1","condition":"1_Rep","full_date":"2026-02-23T22:03:28.360Z","date":"2026-02-23","time":"22:03:28"},{"correct_response":"a","task":"test_phase","broad_category":"I","image_png":"I_Basalt_08.png","image_id":24,"category_name":"Basalt","category":2,"distinct_rating":2.31,"distinct_type":"Bottom","item_type":"Foil","rt":1239,"stimulus":"Stimuli_Rocks480/I_Basalt_08.png","response":"l","trial_type":"image-keyboard-response","trial_index":211,"plugin_version":"2.1.0","time_elapsed":342733,"subject_id":"92506","group":"Group1","condition":"1_Rep","full_date":"2026-02-23T22:03:28.360Z","date":"2026-02-23","time":"22:03:28","cor_ans":false},{"trial_type":"html-keyboard-response","rt":null,"stimulus":"<p style=\"color: red; font-size: 50px; font-weight: bold;\">Incorrect</p>","response":null,"trial_index":212,"plugin_version":"2.1.0","time_elapsed":343250,"subject_id":"92506","group":"Group1","condition":"1_Rep","full_date":"2026-02-23T22:03:28.360Z","date":"2026-02-23","time":"22:03:28"},{"correct_response":"a","task":"test_phase","broad_category":"M","image_png":"M_Phyllite_13.png","image_id":269,"category_name":"Phyllite","category":17,"distinct_rating":2.8,"distinct_type":"Bottom","item_type":"Foil","rt":1301,"stimulus":"Stimuli_Rocks480/M_Phyllite_13.png","response":"a","trial_type":"image-keyboard-response","trial_index":213,"plugin_version":"2.1.0","time_elapsed":344555,"subject_id":"92506","group":"Group1","condition":"1_Rep","full_date":"2026-02-23T22:03:28.360Z","date":"2026-02-23","time":"22:03:28","cor_ans":true},{"trial_type":"html-keyboard-response","rt":null,"stimulus":"<p style=\"color: green; font-size: 50px; font-weight: bold;\">Correct</p>","response":null,"trial_index":214,"plugin_version":"2.1.0","time_elapsed":345073,"subject_id":"92506","group":"Group1","condition":"1_Rep","full_date":"2026-02-23T22:03:28.360Z","date":"2026-02-23","time":"22:03:28"},{"correct_response":"l","task":"test_phase","broad_category":"M","image_png":"M_Slate_11.png","image_id":315,"category_name":"Slate","category":20,"distinct_rating":2.75,"distinct_type":"Bottom","item_type":"Target","rt":1319,"stimulus":"Stimuli_Rocks480/M_Slate_11.png","response":"a","trial_type":"image-keyboard-response","trial_index":215,"plugin_version":"2.1.0","time_elapsed":346397,"subject_id":"92506","group":"Group1","condition":"1_Rep","full_date":"2026-02-23T22:03:28.360Z","date":"2026-02-23","time":"22:03:28","cor_ans":false},{"trial_type":"html-keyboard-response","rt":null,"stimulus":"<p style=\"color: red; font-size: 50px; font-weight: bold;\">Incorrect</p>","response":null,"trial_index":216,"plugin_version":"2.1.0","time_elapsed":346912,"subject_id":"92506","group":"Group1","condition":"1_Rep","full_date":"2026-02-23T22:03:28.360Z","date":"2026-02-23","time":"22:03:28"},{"correct_response":"a","task":"test_phase","broad_category":"I","image_png":"I_Pegmatite_03.png","image_id":99,"category_name":"Pegmatite","category":7,"distinct_rating":7.24,"distinct_type":"Top","item_type":"Foil","rt":1280,"stimulus":"Stimuli_Rocks480/I_Pegmatite_03.png","response":"l","trial_type":"image-keyboard-response","trial_index":217,"plugin_version":"2.1.0","time_elapsed":348196,"subject_id":"92506","group":"Group1","condition":"1_Rep","full_date":"2026-02-23T22:03:28.360Z","date":"2026-02-23","time":"22:03:28","cor_ans":false},{"trial_type":"html-keyboard-response","rt":null,"stimulus":"<p style=\"color: red; font-size: 50px; font-weight: bold;\">Incorrect</p>","response":null,"trial_index":218,"plugin_version":"2.1.0","time_elapsed":348715,"subject_id":"92506","group":"Group1","condition":"1_Rep","full_date":"2026-02-23T22:03:28.360Z","date":"2026-02-23","time":"22:03:28"},{"correct_response":"l","task":"test_phase","broad_category":"I","image_png":"I_Andesite_08.png","image_id":8,"category_name":"Andesite","category":1,"distinct_rating":1.95,"distinct_type":"Bottom","item_type":"Target","rt":809,"stimulus":"Stimuli_Rocks480/I_Andesite_08.png","response":"l","trial_type":"image-keyboard-response","trial_index":219,"plugin_version":"2.1.0","time_elapsed":349528,"subject_id":"92506","group":"Group1","condition":"1_Rep","full_date":"2026-02-23T22:03:28.360Z","date":"2026-02-23","time":"22:03:28","cor_ans":true},{"trial_type":"html-keyboard-response","rt":null,"stimulus":"<p style=\"color: green; font-size: 50px; font-weight: bold;\">Correct</p>","response":null,"trial_index":220,"plugin_version":"2.1.0","time_elapsed":350041,"subject_id":"92506","group":"Group1","condition":"1_Rep","full_date":"2026-02-23T22:03:28.360Z","date":"2026-02-23","time":"22:03:28"},{"correct_response":"l","task":"test_phase","broad_category":"M","image_png":"M_Quartzite_08.png","image_id":280,"category_name":"Quartzite","category":18,"distinct_rating":2.15,"distinct_type":"Bottom","item_type":"Target","rt":842,"stimulus":"Stimuli_Rocks480/M_Quartzite_08.png","response":"l","trial_type":"image-keyboard-response","trial_index":221,"plugin_version":"2.1.0","time_elapsed":350886,"subject_id":"92506","group":"Group1","condition":"1_Rep","full_date":"2026-02-23T22:03:28.360Z","date":"2026-02-23","time":"22:03:28","cor_ans":true},{"trial_type":"html-keyboard-response","rt":null,"stimulus":"<p style=\"color: green; font-size: 50px; font-weight: bold;\">Correct</p>","response":null,"trial_index":222,"plugin_version":"2.1.0","time_elapsed":351400,"subject_id":"92506","group":"Group1","condition":"1_Rep","full_date":"2026-02-23T22:03:28.360Z","date":"2026-02-23","time":"22:03:28"},{"correct_response":"a","task":"test_phase","broad_category":"M","image_png":"M_Quartzite_15.png","image_id":287,"category_name":"Quartzite","category":18,"distinct_rating":2.19,"distinct_type":"Bottom","item_type":"Foil","rt":873,"stimulus":"Stimuli_Rocks480/M_Quartzite_15.png","response":"l","trial_type":"image-keyboard-response","trial_index":223,"plugin_version":"2.1.0","time_elapsed":352275,"subject_id":"92506","group":"Group1","condition":"1_Rep","full_date":"2026-02-23T22:03:28.360Z","date":"2026-02-23","time":"22:03:28","cor_ans":false},{"trial_type":"html-keyboard-response","rt":null,"stimulus":"<p style=\"color: red; font-size: 50px; font-weight: bold;\">Incorrect</p>","response":null,"trial_index":224,"plugin_version":"2.1.0","time_elapsed":352780,"subject_id":"92506","group":"Group1","condition":"1_Rep","full_date":"2026-02-23T22:03:28.360Z","date":"2026-02-23","time":"22:03:28"},{"correct_response":"a","task":"test_phase","broad_category":"I","image_png":"I_Pumice_14.png","