[{"width":1440,"height":812,"webaudio":true,"browser":"chrome","browser_version":"143.0.0","mobile":false,"os":"Mac OS","fullscreen":true,"vsync_rate":60.23,"webcam":true,"microphone":true,"trial_type":"browser-check","trial_index":0,"plugin_version":"2.1.0","time_elapsed":1003,"subject_id":"93006","group":"Group2","condition":"1_Rep","full_date":"2026-01-28T18:05:37.953Z","date":"2026-01-28","time":"18:05:37"},{"success":true,"timeout":false,"failed_images":[],"failed_audio":[],"failed_video":[],"trial_type":"preload","trial_index":1,"plugin_version":"2.1.0","time_elapsed":8885,"subject_id":"93006","group":"Group2","condition":"1_Rep","full_date":"2026-01-28T18:05:37.953Z","date":"2026-01-28","time":"18:05:37"},{"rt":6910,"url":"SONA_consent_memorability.html","trial_type":"external-html","trial_index":2,"plugin_version":"2.1.0","time_elapsed":15867,"subject_id":"93006","group":"Group2","condition":"1_Rep","full_date":"2026-01-28T18:05:37.953Z","date":"2026-01-28","time":"18:05:37"},{"success":true,"rt":1647,"trial_type":"fullscreen","trial_index":3,"plugin_version":"2.1.0","time_elapsed":18518,"subject_id":"93006","group":"Group2","condition":"1_Rep","full_date":"2026-01-28T18:05:37.953Z","date":"2026-01-28","time":"18:05:37"},{"rt":11796,"stimulus":"<div style=\"max-width: 760px; margin: auto; font-size: 20px; line-height: 1.5;\">\n      <h1 style=\"text-align:center; font-size: 30px;\">Instructions</h1>\n      <p>\n        Welcome to the study on <b>visual memory</b>. This experiment consists of <b>two phases</b>: \n        a <b>study phase</b> and a <b>test phase</b>.\n      </p>\n      <p>\n        In the study phase, you will see a series of rock images along with their category labels.\n        The images will appear one at a time.\n        <b>Your task</b> is to learn the categories to which the rock images belong \n        and to remember each image as accurately as possible.\n      </p> \n      <p>\n        Note that you will see each image only <b>once</b> during the study phase. \n          So, please pay close attention and try to remember each image carefully.\n      </p>\n      <p>\n        After the study phase, <b>your memory will be tested</b>. \n        Additional instructions for the test phase will be provided at that time.\n      </p>\n      <p>\n        If your computer has multiple <b>language settings</b> (e.g., English and another language),\n        please make sure it is set to English before starting.\n      </p>\n      <p>\n        You can track your progress using the <b>completion bar</b> at the top of the screen. \n        Please note that the bar will refresh when the test phase begins \n        to give you an accurate sense of your progress in both phases.\n      </p> \n      <p>\n        Press the button below when you are ready to begin.\n      </p>\n    </div>","response":0,"trial_type":"html-button-response","trial_index":4,"plugin_version":"2.1.0","time_elapsed":30317,"subject_id":"93006","group":"Group2","condition":"1_Rep","full_date":"2026-01-28T18:05:37.953Z","date":"2026-01-28","time":"18:05:37"},{"rt":null,"stimulus":"<p style=\"font-size: 50px; margin: 0; text-align: center;\">+</p>","response":null,"trial_type":"html-keyboard-response","trial_index":5,"plugin_version":"2.1.0","time_elapsed":31322,"subject_id":"93006","group":"Group2","condition":"1_Rep","full_date":"2026-01-28T18:05:37.953Z","date":"2026-01-28","time":"18:05:37"},{"task":"memory_phase","broad_category":"M","image_png":"M_Slate_04.png","image_id":308,"category_name":"Slate","category":20,"distinct_rating":2.2,"distinct_type":"Bottom","rt":null,"stimulus":"Stimuli_Rocks480/M_Slate_04.png","response":null,"trial_type":"image-keyboard-response","trial_index":6,"plugin_version":"2.1.0","time_elapsed":33827,"subject_id":"93006","group":"Group2","condition":"1_Rep","full_date":"2026-01-28T18:05:37.953Z","date":"2026-01-28","time":"18:05:37"},{"rt":null,"stimulus":"<p style=\"font-size: 50px; margin: 0; text-align: center;\">+</p>","response":null,"trial_type":"html-keyboard-response","trial_index":7,"plugin_version":"2.1.0","time_elapsed":34830,"subject_id":"93006","group":"Group2","condition":"1_Rep","full_date":"2026-01-28T18:05:37.953Z","date":"2026-01-28","time":"18:05:37"},{"task":"memory_phase","broad_category":"M","image_png":"M_Gneiss_15.png","image_id":207,"category_name":"Gneiss","category":13,"distinct_rating":3.11,"distinct_type":"Bottom","rt":null,"stimulus":"Stimuli_Rocks480/M_Gneiss_15.png","response":null,"trial_type":"image-keyboard-response","trial_index":8,"plugin_version":"2.1.0","time_elapsed":37334,"subject_id":"93006","group":"Group2","condition":"1_Rep","full_date":"2026-01-28T18:05:37.953Z","date":"2026-01-28","time":"18:05:37"},{"rt":null,"stimulus":"<p style=\"font-size: 50px; margin: 0; text-align: center;\">+</p>","response":null,"trial_type":"html-keyboard-response","trial_index":9,"plugin_version":"2.1.0","time_elapsed":38336,"subject_id":"93006","group":"Group2","condition":"1_Rep","full_date":"2026-01-28T18:05:37.953Z","date":"2026-01-28","time":"18:05:37"},{"task":"memory_phase","broad_category":"I","image_png":"I_Rhyolite_08.png","image_id":152,"category_name":"Rhyolite","category":10,"distinct_rating":1.38,"distinct_type":"Bottom","rt":null,"stimulus":"Stimuli_Rocks480/I_Rhyolite_08.png","response":null,"trial_type":"image-keyboard-response","trial_index":10,"plugin_version":"2.1.0","time_elapsed":40840,"subject_id":"93006","group":"Group2","condition":"1_Rep","full_date":"2026-01-28T18:05:37.953Z","date":"2026-01-28","time":"18:05:37"},{"rt":null,"stimulus":"<p style=\"font-size: 50px; margin: 0; text-align: center;\">+</p>","response":null,"trial_type":"html-keyboard-response","trial_index":11,"plugin_version":"2.1.0","time_elapsed":41843,"subject_id":"93006","group":"Group2","condition":"1_Rep","full_date":"2026-01-28T18:05:37.953Z","date":"2026-01-28","time":"18:05:37"},{"task":"memory_phase","broad_category":"S","image_png":"S_Shale_03.png","image_id":467,"category_name":"Shale","category":30,"distinct_rating":1.95,"distinct_type":"Bottom","rt":null,"stimulus":"Stimuli_Rocks480/S_Shale_03.png","response":null,"trial_type":"image-keyboard-response","trial_index":12,"plugin_version":"2.1.0","time_elapsed":44347,"subject_id":"93006","group":"Group2","condition":"1_Rep","full_date":"2026-01-28T18:05:37.953Z","date":"2026-01-28","time":"18:05:37"},{"rt":null,"stimulus":"<p style=\"font-size: 50px; margin: 0; text-align: center;\">+</p>","response":null,"trial_type":"html-keyboard-response","trial_index":13,"plugin_version":"2.1.0","time_elapsed":45350,"subject_id":"93006","group":"Group2","condition":"1_Rep","full_date":"2026-01-28T18:05:37.953Z","date":"2026-01-28","time":"18:05:37"},{"task":"memory_phase","broad_category":"M","image_png":"M_Phyllite_05.png","image_id":261,"category_name":"Phyllite","category":17,"distinct_rating":2.14,"distinct_type":"Bottom","rt":null,"stimulus":"Stimuli_Rocks480/M_Phyllite_05.png","response":null,"trial_type":"image-keyboard-response","trial_index":14,"plugin_version":"2.1.0","time_elapsed":47855,"subject_id":"93006","group":"Group2","condition":"1_Rep","full_date":"2026-01-28T18:05:37.953Z","date":"2026-01-28","time":"18:05:37"},{"rt":null,"stimulus":"<p style=\"font-size: 50px; margin: 0; text-align: center;\">+</p>","response":null,"trial_type":"html-keyboard-response","trial_index":15,"plugin_version":"2.1.0","time_elapsed":48858,"subject_id":"93006","group":"Group2","condition":"1_Rep","full_date":"2026-01-28T18:05:37.953Z","date":"2026-01-28","time":"18:05:37"},{"task":"memory_phase","broad_category":"M","image_png":"M_Quartzite_15.png","image_id":287,"category_name":"Quartzite","category":18,"distinct_rating":2.19,"distinct_type":"Bottom","rt":null,"stimulus":"Stimuli_Rocks480/M_Quartzite_15.png","response":null,"trial_type":"image-keyboard-response","trial_index":16,"plugin_version":"2.1.0","time_elapsed":51362,"subject_id":"93006","group":"Group2","condition":"1_Rep","full_date":"2026-01-28T18:05:37.953Z","date":"2026-01-28","time":"18:05:37"},{"rt":null,"stimulus":"<p style=\"font-size: 50px; margin: 0; text-align: center;\">+</p>","response":null,"trial_type":"html-keyboard-response","trial_index":17,"plugin_version":"2.1.0","time_elapsed":52365,"subject_id":"93006","group":"Group2","condition":"1_Rep","full_date":"2026-01-28T18:05:37.953Z","date":"2026-01-28","time":"18:05:37"},{"task":"memory_phase","broad_category":"M","image_png":"M_Marble_14.png","image_id":238,"category_name":"Marble","category":15,"distinct_rating":3.31,"distinct_type":"Bottom","rt":null,"stimulus":"Stimuli_Rocks480/M_Marble_14.png","response":null,"trial_type":"image-keyboard-response","trial_index":18,"plugin_version":"2.1.0","time_elapsed":54868,"subject_id":"93006","group":"Group2","condition":"1_Rep","full_date":"2026-01-28T18:05:37.953Z","date":"2026-01-28","time":"18:05:37"},{"rt":null,"stimulus":"<p style=\"font-size: 50px; margin: 0; text-align: center;\">+</p>","response":null,"trial_type":"html-keyboard-response","trial_index":19,"plugin_version":"2.1.0","time_elapsed":55871,"subject_id":"93006","group":"Group2","condition":"1_Rep","full_date":"2026-01-28T18:05:37.953Z","date":"2026-01-28","time":"18:05:37"},{"task":"memory_phase","broad_category":"I","image_png":"I_Diorite_01.png","image_id":33,"category_name":"Diorite","category":3,"distinct_rating":2.97,"distinct_type":"Bottom","rt":null,"stimulus":"Stimuli_Rocks480/I_Diorite_01.png","response":null,"trial_type":"image-keyboard-response","trial_index":20,"plugin_version":"2.1.0","time_elapsed":58374,"subject_id":"93006","group":"Group2","condition":"1_Rep","full_date":"2026-01-28T18:05:37.953Z","date":"2026-01-28","time":"18:05:37"},{"rt":null,"stimulus":"<p style=\"font-size: 50px; margin: 0; text-align: center;\">+</p>","response":null,"trial_type":"html-keyboard-response","trial_index":21,"plugin_version":"2.1.0","time_elapsed":59376,"subject_id":"93006","group":"Group2","condition":"1_Rep","full_date":"2026-01-28T18:05:37.953Z","date":"2026-01-28","time":"18:05:37"},{"task":"memory_phase","broad_category":"I","image_png":"I_Andesite_09.png","image_id":9,"category_name":"Andesite","category":1,"distinct_rating":2.49,"distinct_type":"Bottom","rt":null,"stimulus":"Stimuli_Rocks480/I_Andesite_09.png","response":null,"trial_type":"image-keyboard-response","trial_index":22,"plugin_version":"2.1.0","time_elapsed":61880,"subject_id":"93006","group":"Group2","condition":"1_Rep","full_date":"2026-01-28T18:05:37.953Z","date":"2026-01-28","time":"18:05:37"},{"rt":null,"stimulus":"<p style=\"font-size: 50px; margin: 0; text-align: center;\">+</p>","response":null,"trial_type":"html-keyboard-response","trial_index":23,"plugin_version":"2.1.0","time_elapsed":62883,"subject_id":"93006","group":"Group2","condition":"1_Rep","full_date":"2026-01-28T18:05:37.953Z","date":"2026-01-28","time":"18:05:37"},{"task":"memory_phase","broad_category":"I","image_png":"I_Basalt_10.png","image_id":26,"category_name":"Basalt","category":2,"distinct_rating":2.76,"distinct_type":"Bottom","rt":null,"stimulus":"Stimuli_Rocks480/I_Basalt_10.png","response":null,"trial_type":"image-keyboard-response","trial_index":24,"plugin_version":"2.1.0","time_elapsed":65387,"subject_id":"93006","group":"Group2","condition":"1_Rep","full_date":"2026-01-28T18:05:37.953Z","date":"2026-01-28","time":"18:05:37"},{"rt":null,"stimulus":"<p style=\"font-size: 50px; margin: 0; text-align: center;\">+</p>","response":null,"trial_type":"html-keyboard-response","trial_index":25,"plugin_version":"2.1.0","time_elapsed":66389,"subject_id":"93006","group":"Group2","condition":"1_Rep","full_date":"2026-01-28T18:05:37.953Z","date":"2026-01-28","time":"18:05:37"},{"task":"memory_phase","broad_category":"I","image_png":"I_Gabbro_14.png","image_id":62,"category_name":"Gabbro","category":4,"distinct_rating":2.95,"distinct_type":"Bottom","rt":null,"stimulus":"Stimuli_Rocks480/I_Gabbro_14.png","response":null,"trial_type":"image-keyboard-response","trial_index":26,"plugin_version":"2.1.0","time_elapsed":68893,"subject_id":"93006","group":"Group2","condition":"1_Rep","full_date":"2026-01-28T18:05:37.953Z","date":"2026-01-28","time":"18:05:37"},{"rt":null,"stimulus":"<p style=\"font-size: 50px; margin: 0; text-align: center;\">+</p>","response":null,"trial_type":"html-keyboard-response","trial_index":27,"plugin_version":"2.1.0","time_elapsed":69895,"subject_id":"93006","group":"Group2","condition":"1_Rep","full_date":"2026-01-28T18:05:37.953Z","date":"2026-01-28","time":"18:05:37"},{"task":"memory_phase","broad_category":"I","image_png":"I_Rhyolite_05.png","image_id":149,"category_name":"Rhyolite","category":10,"distinct_rating":3.02,"distinct_type":"Bottom","rt":null,"stimulus":"Stimuli_Rocks480/I_Rhyolite_05.png","response":null,"trial_type":"image-keyboard-response","trial_index":28,"plugin_version":"2.1.0","time_elapsed":72399,"subject_id":"93006","group":"Group2","condition":"1_Rep","full_date":"2026-01-28T18:05:37.953Z","date":"2026-01-28","time":"18:05:37"},{"rt":null,"stimulus":"<p style=\"font-size: 50px; margin: 0; text-align: center;\">+</p>","response":null,"trial_type":"html-keyboard-response","trial_index":29,"plugin_version":"2.1.0","time_elapsed":73401,"subject_id":"93006","group":"Group2","condition":"1_Rep","full_date":"2026-01-28T18:05:37.953Z","date":"2026-01-28","time":"18:05:37"},{"task":"memory_phase","broad_category":"I","image_png":"I_Pegmatite_03.png","image_id":99,"category_name":"Pegmatite","category":7,"distinct_rating":7.24,"distinct_type":"Top","rt":null,"stimulus":"Stimuli_Rocks480/I_Pegmatite_03.png","response":null,"trial_type":"image-keyboard-response","trial_index":30,"plugin_version":"2.1.0","time_elapsed":75905,"subject_id":"93006","group":"Group2","condition":"1_Rep","full_date":"2026-01-28T18:05:37.953Z","date":"2026-01-28","time":"18:05:37"},{"rt":null,"stimulus":"<p style=\"font-size: 50px; margin: 0; text-align: center;\">+</p>","response":null,"trial_type":"html-keyboard-response","trial_index":31,"plugin_version":"2.1.0","time_elapsed":76907,"subject_id":"93006","group":"Group2","condition":"1_Rep","full_date":"2026-01-28T18:05:37.953Z","date":"2026-01-28","time":"18:05:37"},{"task":"memory_phase","broad_category":"S","image_png":"S_Dolomite_07.png","image_id":391,"category_name":"Dolomite","category":25,"distinct_rating":1.73,"distinct_type":"Bottom","rt":null,"stimulus":"Stimuli_Rocks480/S_Dolomite_07.png","response":null,"trial_type":"image-keyboard-response","trial_index":32,"plugin_version":"2.1.0","time_elapsed":79410,"subject_id":"93006","group":"Group2","condition":"1_Rep","full_date":"2026-01-28T18:05:37.953Z","date":"2026-01-28","time":"18:05:37"},{"rt":null,"stimulus":"<p style=\"font-size: 50px; margin: 0; text-align: center;\">+</p>","response":null,"trial_type":"html-keyboard-response","trial_index":33,"plugin_version":"2.1.0","time_elapsed":80413,"subject_id":"93006","group":"Group2","condition":"1_Rep","full_date":"2026-01-28T18:05:37.953Z","date":"2026-01-28","time":"18:05:37"},{"task":"memory_phase","broad_category":"M","image_png":"M_Marble_03.png","image_id":227,"category_name":"Marble","category":15,"distinct_rating":2.67,"distinct_type":"Bottom","rt":null,"stimulus":"Stimuli_Rocks480/M_Marble_03.png","response":null,"trial_type":"image-keyboard-response","trial_index":34,"plugin_version":"2.1.0","time_elapsed":82916,"subject_id":"93006","group":"Group2","condition":"1_Rep","full_date":"2026-01-28T18:05:37.953Z","date":"2026-01-28","time":"18:05:37"},{"rt":null,"stimulus":"<p style=\"font-size: 50px; margin: 0; text-align: center;\">+</p>","response":null,"trial_type":"html-keyboard-response","trial_index":35,"plugin_version":"2.1.0","time_elapsed":83919,"subject_id":"93006","group":"Group2","condition":"1_Rep","full_date":"2026-01-28T18:05:37.953Z","date":"2026-01-28","time":"18:05:37"},{"task":"memory_phase","broad_category":"I","image_png":"I_Pumice_13.png","image_id":141,"category_name":"Pumice","category":9,"distinct_rating":3.12,"distinct_type":"Bottom","rt":null,"stimulus":"Stimuli_Rocks480/I_Pumice_13.png","response":null,"trial_type":"image-keyboard-response","trial_index":36,"plugin_version":"2.1.0","time_elapsed":86421,"subject_id":"93006","group":"Group2","condition":"1_Rep","full_date":"2026-01-28T18:05:37.953Z","date":"2026-01-28","time":"18:05:37"},{"rt":null,"stimulus":"<p style=\"font-size: 50px; margin: 0; text-align: center;\">+</p>","response":null,"trial_type":"html-keyboard-response","trial_index":37,"plugin_version":"2.1.0","time_elapsed":87424,"subject_id":"93006","group":"Group2","condition":"1_Rep","full_date":"2026-01-28T18:05:37.953Z","date":"2026-01-28","time":"18:05:37"},{"task":"memory_phase","broad_category":"I","image_png":"I_Basalt_13.png","image_id":29,"category_name":"Basalt","category":2,"distinct_rating":2.68,"distinct_type":"Bottom","rt":null,"stimulus":"Stimuli_Rocks480/I_Basalt_13.png","response":null,"trial_type":"image-keyboard-response","trial_index":38,"plugin_version":"2.1.0","time_elapsed":89927,"subject_id":"93006","group":"Group2","condition":"1_Rep","full_date":"2026-01-28T18:05:37.953Z","date":"2026-01-28","time":"18:05:37"},{"rt":null,"stimulus":"<p style=\"font-size: 50px; margin: 0; text-align: center;\">+</p>","response":null,"trial_type":"html-keyboard-response","trial_index":39,"plugin_version":"2.1.0","time_elapsed":90929,"subject_id":"93006","group":"Group2","condition":"1_Rep","full_date":"2026-01-28T18:05:37.953Z","date":"2026-01-28","time":"18:05:37"},{"task":"memory_phase","broad_category":"I","image_png":"I_Andesite_03.png","image_id":3,"category_name":"Andesite","category":1,"distinct_rating":3.17,"distinct_type":"Bottom","rt":null,"stimulus":"Stimuli_Rocks480/I_Andesite_03.png","response":null,"trial_type":"image-keyboard-response","trial_index":40,"plugin_version":"2.1.0","time_elapsed":93433,"subject_id":"93006","group":"Group2","condition":"1_Rep","full_date":"2026-01-28T18:05:37.953Z","date":"2026-01-28","time":"18:05:37"},{"rt":null,"stimulus":"<p style=\"font-size: 50px; margin: 0; text-align: center;\">+</p>","response":null,"trial_type":"html-keyboard-response","trial_index":41,"plugin_version":"2.1.0","time_elapsed":94435,"subject_id":"93006","group":"Group2","condition":"1_Rep","full_date":"2026-01-28T18:05:37.953Z","date":"2026-01-28","time":"18:05:37"},{"task":"memory_phase","broad_category":"I","image_png":"I_Pegmatite_11.png","image_id":107,"category_name":"Pegmatite","category":7,"distinct_rating":7.11,"distinct_type":"Top","rt":null,"stimulus":"Stimuli_Rocks480/I_Pegmatite_11.png","response":null,"trial_type":"image-keyboard-response","trial_index":42,"plugin_version":"2.1.0","time_elapsed":96938,"subject_id":"93006","group":"Group2","condition":"1_Rep","full_date":"2026-01-28T18:05:37.953Z","date":"2026-01-28","time":"18:05:37"},{"rt":null,"stimulus":"<p style=\"font-size: 50px; margin: 0; text-align: center;\">+</p>","response":null,"trial_type":"html-keyboard-response","trial_index":43,"plugin_version":"2.1.0","time_elapsed":97940,"subject_id":"93006","group":"Group2","condition":"1_Rep","full_date":"2026-01-28T18:05:37.953Z","date":"2026-01-28","time":"18:05:37"},{"task":"memory_phase","broad_category":"I","image_png":"I_Diorite_10.png","image_id":42,"category_name":"Diorite","category":3,"distinct_rating":2.84,"distinct_type":"Bottom","rt":null,"stimulus":"Stimuli_Rocks480/I_Diorite_10.png","response":null,"trial_type":"image-keyboard-response","trial_index":44,"plugin_version":"2.1.0","time_elapsed":100443,"subject_id":"93006","group":"Group2","condition":"1_Rep","full_date":"2026-01-28T18:05:37.953Z","date":"2026-01-28","time":"18:05:37"},{"rt":null,"stimulus":"<p style=\"font-size: 50px; margin: 0; text-align: center;\">+</p>","response":null,"trial_type":"html-keyboard-response","trial_index":45,"plugin_version":"2.1.0","time_elapsed":101446,"subject_id":"93006","group":"Group2","condition":"1_Rep","full_date":"2026-01-28T18:05:37.953Z","date":"2026-01-28","time":"18:05:37"},{"task":"memory_phase","broad_category":"I","image_png":"I_Andesite_04.png","image_id":4,"category_name":"Andesite","category":1,"distinct_rating":3.18,"distinct_type":"Bottom","rt":null,"stimulus":"Stimuli_Rocks480/I_Andesite_04.png","response":null,"trial_type":"image-keyboard-response","trial_index":46,"plugin_version":"2.1.0","time_elapsed":103950,"subject_id":"93006","group":"Group2","condition":"1_Rep","full_date":"2026-01-28T18:05:37.953Z","date":"2026-01-28","time":"18:05:37"},{"rt":null,"stimulus":"<p style=\"font-size: 50px; margin: 0; text-align: center;\">+</p>","response":null,"trial_type":"html-keyboard-response","trial_index":47,"plugin_version":"2.1.0","time_elapsed":104952,"subject_id":"93006","group":"Group2","condition":"1_Rep","full_date":"2026-01-28T18:05:37.953Z","date":"2026-01-28","time":"18:05:37"},{"task":"memory_phase","broad_category":"I","image_png":"I_Obsidian_06.png","image_id":86,"category_name":"Obsidian","category":6,"distinct_rating":8.01,"distinct_type":"Top","rt":null,"stimulus":"Stimuli_Rocks480/I_Obsidian_06.png","response":null,"trial_type":"image-keyboard-response","trial_index":48,"plugin_version":"2.1.0","time_elapsed":107455,"subject_id":"93006","group":"Group2","condition":"1_Rep","full_date":"2026-01-28T18:05:37.953Z","date":"2026-01-28","time":"18:05:37"},{"rt":null,"stimulus":"<p style=\"font-size: 50px; margin: 0; text-align: center;\">+</p>","response":null,"trial_type":"html-keyboard-response","trial_index":49,"plugin_version":"2.1.0","time_elapsed":108458,"subject_id":"93006","group":"Group2","condition":"1_Rep","full_date":"2026-01-28T18:05:37.953Z","date":"2026-01-28","time":"18:05:37"},{"task":"memory_phase","broad_category":"M","image_png":"M_Phyllite_02.png","image_id":258,"category_name":"Phyllite","category":17,"distinct_rating":2.89,"distinct_type":"Bottom","rt":null,"stimulus":"Stimuli_Rocks480/M_Phyllite_02.png","response":null,"trial_type":"image-keyboard-response","trial_index":50,"plugin_version":"2.1.0","time_elapsed":110961,"subject_id":"93006","group":"Group2","condition":"1_Rep","full_date":"2026-01-28T18:05:37.953Z","date":"2026-01-28","time":"18:05:37"},{"rt":null,"stimulus":"<p style=\"font-size: 50px; margin: 0; text-align: center;\">+</p>","response":null,"trial_type":"html-keyboard-response","trial_index":51,"plugin_version":"2.1.0","time_elapsed":111964,"subject_id":"93006","group":"Group2","condition":"1_Rep","full_date":"2026-01-28T18:05:37.953Z","date":"2026-01-28","time":"18:05:37"},{"task":"memory_phase","broad_category":"S","image_png":"S_Dolomite_16.png","image_id":400,"category_name":"Dolomite","category":25,"distinct_rating":1.71,"distinct_type":"Bottom","rt":null,"stimulus":"Stimuli_Rocks480/S_Dolomite_16.png","response":null,"trial_type":"image-keyboard-response","trial_index":52,"plugin_version":"2.1.0","time_elapsed":114465,"subject_id":"93006","group":"Group2","condition":"1_Rep","full_date":"2026-01-28T18:05:37.953Z","date":"2026-01-28","time":"18:05:37"},{"rt":null,"stimulus":"<p style=\"font-size: 50px; margin: 0; text-align: center;\">+</p>","response":null,"trial_type":"html-keyboard-response","trial_index":53,"plugin_version":"2.1.0","time_elapsed":115468,"subject_id":"93006","group":"Group2","condition":"1_Rep","full_date":"2026-01-28T18:05:37.953Z","date":"2026-01-28","time":"18:05:37"},{"task":"memory_phase","broad_category":"S","image_png":"S_Dolomite_01.png","image_id":385,"category_name":"Dolomite","category":25,"distinct_rating":1.43,"distinct_type":"Bottom","rt":null,"stimulus":"Stimuli_Rocks480/S_Dolomite_01.png","response":null,"trial_type":"image-keyboard-response","trial_index":54,"plugin_version":"2.1.0","time_elapsed":117971,"subject_id":"93006","group":"Group2","condition":"1_Rep","full_date":"2026-01-28T18:05:37.953Z","date":"2026-01-28","time":"18:05:37"},{"rt":3160,"stimulus":"<p style=\"max-width: 760px; margin: auto; font-size: 35px; line-height: 1.5;\">\n                Press SPACE to continue study phase\n              </p>","response":" ","trial_type":"html-keyboard-response","trial_index":55,"plugin_version":"2.1.0","time_elapsed":121133,"subject_id":"93006","group":"Group2","condition":"1_Rep","full_date":"2026-01-28T18:05:37.953Z","date":"2026-01-28","time":"18:05:37"},{"rt":null,"stimulus":"<p style=\"font-size: 50px; margin: 0; text-align: center;\">+</p>","response":null,"trial_type":"html-keyboard-response","trial_index":56,"plugin_version":"2.1.0","time_elapsed":122136,"subject_id":"93006","group":"Group2","condition":"1_Rep","full_date":"2026-01-28T18:05:37.953Z","date":"2026-01-28","time":"18:05:37"},{"task":"memory_phase","broad_category":"S","image_png":"S_Rock Salt_15.png","image_id":447,"category_name":"Rock Salt","category":28,"distinct_rating":7.79,"distinct_type":"Top","rt":null,"stimulus":"Stimuli_Rocks480/S_Rock Salt_15.png","response":null,"trial_type":"image-keyboard-response","trial_index":57,"plugin_version":"2.1.0","time_elapsed":124639,"subject_id":"93006","group":"Group2","condition":"1_Rep","full_date":"2026-01-28T18:05:37.953Z","date":"2026-01-28","time":"18:05:37"},{"rt":null,"stimulus":"<p style=\"font-size: 50px; margin: 0; text-align: center;\">+</p>","response":null,"trial_type":"html-keyboard-response","trial_index":58,"plugin_version":"2.1.0","time_elapsed":125641,"subject_id":"93006","group":"Group2","condition":"1_Rep","full_date":"2026-01-28T18:05:37.953Z","date":"2026-01-28","time":"18:05:37"},{"task":"memory_phase","broad_category":"M","image_png":"M_Marble_02.png","image_id":226,"category_name":"Marble","category":15,"distinct_rating":3.2,"distinct_type":"Bottom","rt":null,"stimulus":"Stimuli_Rocks480/M_Marble_02.png","response":null,"trial_type":"image-keyboard-response","trial_index":59,"plugin_version":"2.1.0","time_elapsed":128145,"subject_id":"93006","group":"Group2","condition":"1_Rep","full_date":"2026-01-28T18:05:37.953Z","date":"2026-01-28","time":"18:05:37"},{"rt":null,"stimulus":"<p style=\"font-size: 50px; margin: 0; text-align: center;\">+</p>","response":null,"trial_type":"html-keyboard-response","trial_index":60,"plugin_version":"2.1.0","time_elapsed":129146,"subject_id":"93006","group":"Group2","condition":"1_Rep","full_date":"2026-01-28T18:05:37.953Z","date":"2026-01-28","time":"18:05:37"},{"task":"memory_phase","broad_category":"M","image_png":"M_Phyllite_13.png","image_id":269,"category_name":"Phyllite","category":17,"distinct_rating":2.8,"distinct_type":"Bottom","rt":null,"stimulus":"Stimuli_Rocks480/M_Phyllite_13.png","response":null,"trial_type":"image-keyboard-response","trial_index":61,"plugin_version":"2.1.0","time_elapsed":131650,"subject_id":"93006","group":"Group2","condition":"1_Rep","full_date":"2026-01-28T18:05:37.953Z","date":"2026-01-28","time":"18:05:37"},{"rt":null,"stimulus":"<p style=\"font-size: 50px; margin: 0; text-align: center;\">+</p>","response":null,"trial_type":"html-keyboard-response","trial_index":62,"plugin_version":"2.1.0","time_elapsed":132653,"subject_id":"93006","group":"Group2","condition":"1_Rep","full_date":"2026-01-28T18:05:37.953Z","date":"2026-01-28","time":"18:05:37"},{"task":"memory_phase","broad_category":"M","image_png":"M_Quartzite_07.png","image_id":279,"category_name":"Quartzite","category":18,"distinct_rating":1.97,"distinct_type":"Bottom","rt":null,"stimulus":"Stimuli_Rocks480/M_Quartzite_07.png","response":null,"trial_type":"image-keyboard-response","trial_index":63,"plugin_version":"2.1.0","time_elapsed":135157,"subject_id":"93006","group":"Group2","condition":"1_Rep","full_date":"2026-01-28T18:05:37.953Z","date":"2026-01-28","time":"18:05:37"},{"rt":null,"stimulus":"<p style=\"font-size: 50px; margin: 0; text-align: center;\">+</p>","response":null,"trial_type":"html-keyboard-response","trial_index":64,"plugin_version":"2.1.0","time_elapsed":136159,"subject_id":"93006","group":"Group2","condition":"1_Rep","full_date":"2026-01-28T18:05:37.953Z","date":"2026-01-28","time":"18:05:37"},{"task":"memory_phase","broad_category":"I","image_png":"I_Gabbro_02.png","image_id":50,"category_name":"Gabbro","category":4,"distinct_rating":2.73,"distinct_type":"Bottom","rt":null,"stimulus":"Stimuli_Rocks480/I_Gabbro_02.png","response":null,"trial_type":"image-keyboard-response","trial_index":65,"plugin_version":"2.1.0","time_elapsed":138663,"subject_id":"93006","group":"Group2","condition":"1_Rep","full_date":"2026-01-28T18:05:37.953Z","date":"2026-01-28","time":"18:05:37"},{"rt":null,"stimulus":"<p style=\"font-size: 50px; margin: 0; text-align: center;\">+</p>","response":null,"trial_type":"html-keyboard-response","trial_index":66,"plugin_version":"2.1.0","time_elapsed":139665,"subject_id":"93006","group":"Group2","condition":"1_Rep","full_date":"2026-01-28T18:05:37.953Z","date":"2026-01-28","time":"18:05:37"},{"task":"memory_phase","broad_category":"S","image_png":"S_Sandstone_11.png","image_id":459,"category_name":"Sandstone","category":29,"distinct_rating":1.82,"distinct_type":"Bottom","rt":null,"stimulus":"Stimuli_Rocks480/S_Sandstone_11.png","response":null,"trial_type":"image-keyboard-response","trial_index":67,"plugin_version":"2.1.0","time_elapsed":142168,"subject_id":"93006","group":"Group2","condition":"1_Rep","full_date":"2026-01-28T18:05:37.953Z","date":"2026-01-28","time":"18:05:37"},{"rt":null,"stimulus":"<p style=\"font-size: 50px; margin: 0; text-align: center;\">+</p>","response":null,"trial_type":"html-keyboard-response","trial_index":68,"plugin_version":"2.1.0","time_elapsed":143171,"subject_id":"93006","group":"Group2","condition":"1_Rep","full_date":"2026-01-28T18:05:37.953Z","date":"2026-01-28","time":"18:05:37"},{"task":"memory_phase","broad_category":"I","image_png":"I_Gabbro_12.png","image_id":60,"category_name":"Gabbro","category":4,"distinct_rating":2.6,"distinct_type":"Bottom","rt":null,"stimulus":"Stimuli_Rocks480/I_Gabbro_12.png","response":null,"trial_type":"image-keyboard-response","trial_index":69,"plugin_version":"2.1.0","time_elapsed":145674,"subject_id":"93006","group":"Group2","condition":"1_Rep","full_date":"2026-01-28T18:05:37.953Z","date":"2026-01-28","time":"18:05:37"},{"rt":null,"stimulus":"<p style=\"font-size: 50px; margin: 0; text-align: center;\">+</p>","response":null,"trial_type":"html-keyboard-response","trial_index":70,"plugin_version":"2.1.0","time_elapsed":146677,"subject_id":"93006","group":"Group2","condition":"1_Rep","full_date":"2026-01-28T18:05:37.953Z","date":"2026-01-28","time":"18:05:37"},{"task":"memory_phase","broad_category":"I","image_png":"I_Rhyolite_10.png","image_id":154,"category_name":"Rhyolite","category":10,"distinct_rating":2.88,"distinct_type":"Bottom","rt":null,"stimulus":"Stimuli_Rocks480/I_Rhyolite_10.png","response":null,"trial_type":"image-keyboard-response","trial_index":71,"plugin_version":"2.1.0","time_elapsed":149180,"subject_id":"93006","group":"Group2","condition":"1_Rep","full_date":"2026-01-28T18:05:37.953Z","date":"2026-01-28","time":"18:05:37"},{"rt":null,"stimulus":"<p style=\"font-size: 50px; margin: 0; text-align: center;\">+</p>","response":null,"trial_type":"html-keyboard-response","trial_index":72,"plugin_version":"2.1.0","time_elapsed":150183,"subject_id":"93006","group":"Group2","condition":"1_Rep","full_date":"2026-01-28T18:05:37.953Z","date":"2026-01-28","time":"18:05:37"},{"task":"memory_phase","broad_category":"S","image_png":"S_Sandstone_04.png","image_id":452,"category_name":"Sandstone","category":29,"distinct_rating":1.8,"distinct_type":"Bottom","rt":null,"stimulus":"Stimuli_Rocks480/S_Sandstone_04.png","response":null,"trial_type":"image-keyboard-response","trial_index":73,"plugin_version":"2.1.0","time_elapsed":152687,"subject_id":"93006","group":"Group2","condition":"1_Rep","full_date":"2026-01-28T18:05:37.953Z","date":"2026-01-28","time":"18:05:37"},{"rt":null,"stimulus":"<p style=\"font-size: 50px; margin: 0; text-align: center;\">+</p>","response":null,"trial_type":"html-keyboard-response","trial_index":74,"plugin_version":"2.1.0","time_elapsed":153689,"subject_id":"93006","group":"Group2","condition":"1_Rep","full_date":"2026-01-28T18:05:37.953Z","date":"2026-01-28","time":"18:05:37"},{"task":"memory_phase","broad_category":"S","image_png":"S_Chert_13.png","image_id":365,"category_name":"Chert","category":23,"distinct_rating":6.57,"distinct_type":"Top","rt":null,"stimulus":"Stimuli_Rocks480/S_Chert_13.png","response":null,"trial_type":"image-keyboard-response","trial_index":75,"plugin_version":"2.1.0","time_elapsed":156192,"subject_id":"93006","group":"Group2","condition":"1_Rep","full_date":"2026-01-28T18:05:37.953Z","date":"2026-01-28","time":"18:05:37"},{"rt":null,"stimulus":"<p style=\"font-size: 50px; margin: 0; text-align: center;\">+</p>","response":null,"trial_type":"html-keyboard-response","trial_index":76,"plugin_version":"2.1.0","time_elapsed":157195,"subject_id":"93006","group":"Group2","condition":"1_Rep","full_date":"2026-01-28T18:05:37.953Z","date":"2026-01-28","time":"18:05:37"},{"task":"memory_phase","broad_category":"M","image_png":"M_Gneiss_10.png","image_id":202,"category_name":"Gneiss","category":13,"distinct_rating":3.09,"distinct_type":"Bottom","rt":null,"stimulus":"Stimuli_Rocks480/M_Gneiss_10.png","response":null,"trial_type":"image-keyboard-response","trial_index":77,"plugin_version":"2.1.0","time_elapsed":159699,"subject_id":"93006","group":"Group2","condition":"1_Rep","full_date":"2026-01-28T18:05:37.953Z","date":"2026-01-28","time":"18:05:37"},{"rt":null,"stimulus":"<p style=\"font-size: 50px; margin: 0; text-align: center;\">+</p>","response":null,"trial_type":"html-keyboard-response","trial_index":78,"plugin_version":"2.1.0","time_elapsed":160702,"subject_id":"93006","group":"Group2","condition":"1_Rep","full_date":"2026-01-28T18:05:37.953Z","date":"2026-01-28","time":"18:05:37"},{"task":"memory_phase","broad_category":"S","image_png":"S_Sandstone_08.png","image_id":456,"category_name":"Sandstone","category":29,"distinct_rating":1.5,"distinct_type":"Bottom","rt":null,"stimulus":"Stimuli_Rocks480/S_Sandstone_08.png","response":null,"trial_type":"image-keyboard-response","trial_index":79,"plugin_version":"2.1.0","time_elapsed":163205,"subject_id":"93006","group":"Group2","condition":"1_Rep","full_date":"2026-01-28T18:05:37.953Z","date":"2026-01-28","time":"18:05:37"},{"rt":null,"stimulus":"<p style=\"font-size: 50px; margin: 0; text-align: center;\">+</p>","response":null,"trial_type":"html-keyboard-response","trial_index":80,"plugin_version":"2.1.0","time_elapsed":164208,"subject_id":"93006","group":"Group2","condition":"1_Rep","full_date":"2026-01-28T18:05:37.953Z","date":"2026-01-28","time":"18:05:37"},{"task":"memory_phase","broad_category":"I","image_png":"I_Peridotite_13.png","image_id":125,"category_name":"Peridotite","category":8,"distinct_rating":7.28,"distinct_type":"Top","rt":null,"stimulus":"Stimuli_Rocks480/I_Peridotite_13.png","response":null,"trial_type":"image-keyboard-response","trial_index":81,"plugin_version":"2.1.0","time_elapsed":166711,"subject_id":"93006","group":"Group2","condition":"1_Rep","full_date":"2026-01-28T18:05:37.953Z","date":"2026-01-28","time":"18:05:37"},{"rt":null,"stimulus":"<p style=\"font-size: 50px; margin: 0; text-align: center;\">+</p>","response":null,"trial_type":"html-keyboard-response","trial_index":82,"plugin_version":"2.1.0","time_elapsed":167713,"subject_id":"93006","group":"Group2","condition":"1_Rep","full_date":"2026-01-28T18:05:37.953Z","date":"2026-01-28","time":"18:05:37"},{"task":"memory_phase","broad_category":"S","image_png":"S_Shale_02.png","image_id":466,"category_name":"Shale","category":30,"distinct_rating":2.9,"distinct_type":"Bottom","rt":null,"stimulus":"Stimuli_Rocks480/S_Shale_02.png","response":null,"trial_type":"image-keyboard-response","trial_index":83,"plugin_version":"2.1.0","time_elapsed":170216,"subject_id":"93006","group":"Group2","condition":"1_Rep","full_date":"2026-01-28T18:05:37.953Z","date":"2026-01-28","time":"18:05:37"},{"rt":null,"stimulus":"<p style=\"font-size: 50px; margin: 0; text-align: center;\">+</p>","response":null,"trial_type":"html-keyboard-response","trial_index":84,"plugin_version":"2.1.0","time_elapsed":171219,"subject_id":"93006","group":"Group2","condition":"1_Rep","full_date":"2026-01-28T18:05:37.953Z","date":"2026-01-28","time":"18:05:37"},{"task":"memory_phase","broad_category":"I","image_png":"I_Diorite_15.png","image_id":47,"category_name":"Diorite","category":3,"distinct_rating":3.05,"distinct_type":"Bottom","rt":null,"stimulus":"Stimuli_Rocks480/I_Diorite_15.png","response":null,"trial_type":"image-keyboard-response","trial_index":85,"plugin_version":"2.1.0","time_elapsed":173722,"subject_id":"93006","group":"Group2","condition":"1_Rep","full_date":"2026-01-28T18:05:37.953Z","date":"2026-01-28","time":"18:05:37"},{"rt":null,"stimulus":"<p style=\"font-size: 50px; margin: 0; text-align: center;\">+</p>","response":null,"trial_type":"html-keyboard-response","trial_index":86,"plugin_version":"2.1.0","time_elapsed":174725,"subject_id":"93006","group":"Group2","condition":"1_Rep","full_date":"2026-01-28T18:05:37.953Z","date":"2026-01-28","time":"18:05:37"},{"task":"memory_phase","broad_category":"I","image_png":"I_Pumice_01.png","image_id":129,"category_name":"Pumice","category":9,"distinct_rating":3.25,"distinct_type":"Bottom","rt":null,"stimulus":"Stimuli_Rocks480/I_Pumice_01.png","response":null,"trial_type":"image-keyboard-response","trial_index":87,"plugin_version":"2.1.0","time_elapsed":177229,"subject_id":"93006","group":"Group2","condition":"1_Rep","full_date":"2026-01-28T18:05:37.953Z","date":"2026-01-28","time":"18:05:37"},{"rt":null,"stimulus":"<p style=\"font-size: 50px; margin: 0; text-align: center;\">+</p>","response":null,"trial_type":"html-keyboard-response","trial_index":88,"plugin_version":"2.1.0","time_elapsed":178232,"subject_id":"93006","group":"Group2","condition":"1_Rep","full_date":"2026-01-28T18:05:37.953Z","date":"2026-01-28","time":"18:05:37"},{"task":"memory_phase","broad_category":"S","image_png":"S_Conglomerate_14.png","image_id":382,"category_name":"Conglomerate","category":24,"distinct_rating":6.86,"distinct_type":"Top","rt":null,"stimulus":"Stimuli_Rocks480/S_Conglomerate_14.png","response":null,"trial_type":"image-keyboard-response","trial_index":89,"plugin_version":"2.1.0","time_elapsed":180735,"subject_id":"93006","group":"Group2","condition":"1_Rep","full_date":"2026-01-28T18:05:37.953Z","date":"2026-01-28","time":"18:05:37"},{"rt":null,"stimulus":"<p style=\"font-size: 50px; margin: 0; text-align: center;\">+</p>","response":null,"trial_type":"html-keyboard-response","trial_index":90,"plugin_version":"2.1.0","time_elapsed":181737,"subject_id":"93006","group":"Group2","condition":"1_Rep","full_date":"2026-01-28T18:05:37.953Z","date":"2026-01-28","time":"18:05:37"},{"task":"memory_phase","broad_category":"M","image_png":"M_Gneiss_14.png","image_id":206,"category_name":"Gneiss","category":13,"distinct_rating":3.41,"distinct_type":"Bottom","rt":null,"stimulus":"Stimuli_Rocks480/M_Gneiss_14.png","response":null,"trial_type":"image-keyboard-response","trial_index":91,"plugin_version":"2.1.0","time_elapsed":184240,"subject_id":"93006","group":"Group2","condition":"1_Rep","full_date":"2026-01-28T18:05:37.953Z","date":"2026-01-28","time":"18:05:37"},{"rt":null,"stimulus":"<p style=\"font-size: 50px; margin: 0; text-align: center;\">+</p>","response":null,"trial_type":"html-keyboard-response","trial_index":92,"plugin_version":"2.1.0","time_elapsed":185243,"subject_id":"93006","group":"Group2","condition":"1_Rep","full_date":"2026-01-28T18:05:37.953Z","date":"2026-01-28","time":"18:05:37"},{"task":"memory_phase","broad_category":"M","image_png":"M_Quartzite_12.png","image_id":284,"category_name":"Quartzite","category":18,"distinct_rating":1.92,"distinct_type":"Bottom","rt":null,"stimulus":"Stimuli_Rocks480/M_Quartzite_12.png","response":null,"trial_type":"image-keyboard-response","trial_index":93,"plugin_version":"2.1.0","time_elapsed":187746,"subject_id":"93006","group":"Group2","condition":"1_Rep","full_date":"2026-01-28T18:05:37.953Z","date":"2026-01-28","time":"18:05:37"},{"rt":null,"stimulus":"<p style=\"font-size: 50px; margin: 0; text-align: center;\">+</p>","response":null,"trial_type":"html-keyboard-response","trial_index":94,"plugin_version":"2.1.0","time_elapsed":188748,"subject_id":"93006","group":"Group2","condition":"1_Rep","full_date":"2026-01-28T18:05:37.953Z","date":"2026-01-28","time":"18:05:37"},{"task":"memory_phase","broad_category":"M","image_png":"M_Slate_14.png","image_id":318,"category_name":"Slate","category":20,"distinct_rating":2.58,"distinct_type":"Bottom","rt":null,"stimulus":"Stimuli_Rocks480/M_Slate_14.png","response":null,"trial_type":"image-keyboard-response","trial_index":95,"plugin_version":"2.1.0","time_elapsed":191251,"subject_id":"93006","group":"Group2","condition":"1_Rep","full_date":"2026-01-28T18:05:37.953Z","date":"2026-01-28","time":"18:05:37"},{"rt":null,"stimulus":"<p style=\"font-size: 50px; margin: 0; text-align: center;\">+</p>","response":null,"trial_type":"html-keyboard-response","trial_index":96,"plugin_version":"2.1.0","time_elapsed":192254,"subject_id":"93006","group":"Group2","condition":"1_Rep","full_date":"2026-01-28T18:05:37.953Z","date":"2026-01-28","time":"18:05:37"},{"task":"memory_phase","broad_category":"S","image_png":"S_Shale_07.png","image_id":471,"category_name":"Shale","category":30,"distinct_rating":2.73,"distinct_type":"Bottom","rt":null,"stimulus":"Stimuli_Rocks480/S_Shale_07.png","response":null,"trial_type":"image-keyboard-response","trial_index":97,"plugin_version":"2.1.0","time_elapsed":194757,"subject_id":"93006","group":"Group2","condition":"1_Rep","full_date":"2026-01-28T18:05:37.953Z","date":"2026-01-28","time":"18:05:37"},{"rt":null,"stimulus":"<p style=\"font-size: 50px; margin: 0; text-align: center;\">+</p>","response":null,"trial_type":"html-keyboard-response","trial_index":98,"plugin_version":"2.1.0","time_elapsed":195761,"subject_id":"93006","group":"Group2","condition":"1_Rep","full_date":"2026-01-28T18:05:37.953Z","date":"2026-01-28","time":"18:05:37"},{"task":"memory_phase","broad_category":"M","image_png":"M_Slate_10.png","image_id":314,"category_name":"Slate","category":20,"distinct_rating":1.94,"distinct_type":"Bottom","rt":null,"stimulus":"Stimuli_Rocks480/M_Slate_10.png","response":null,"trial_type":"image-keyboard-response","trial_index":99,"plugin_version":"2.1.0","time_elapsed":198264,"subject_id":"93006","group":"Group2","condition":"1_Rep","full_date":"2026-01-28T18:05:37.953Z","date":"2026-01-28","time":"18:05:37"},{"rt":null,"stimulus":"<p style=\"font-size: 50px; margin: 0; text-align: center;\">+</p>","response":null,"trial_type":"html-keyboard-response","trial_index":100,"plugin_version":"2.1.0","time_elapsed":199267,"subject_id":"93006","group":"Group2","condition":"1_Rep","full_date":"2026-01-28T18:05:37.953Z","date":"2026-01-28","time":"18:05:37"},{"task":"memory_phase","broad_category":"S","image_png":"S_Rock Salt_13.png","image_id":445,"category_name":"Rock Salt","category":28,"distinct_rating":7.58,"distinct_type":"Top","rt":null,"stimulus":"Stimuli_Rocks480/S_Rock Salt_13.png","response":null,"trial_type":"image-keyboard-response","trial_index":101,"plugin_version":"2.1.0","time_elapsed":201770,"subject_id":"93006","group":"Group2","condition":"1_Rep","full_date":"2026-01-28T18:05:37.953Z","date":"2026-01-28","time":"18:05:37"},{"rt":null,"stimulus":"<p style=\"font-size: 50px; margin: 0; text-align: center;\">+</p>","response":null,"trial_type":"html-keyboard-response","trial_index":102,"plugin_version":"2.1.0","time_elapsed":202773,"subject_id":"93006","group":"Group2","condition":"1_Rep","full_date":"2026-01-28T18:05:37.953Z","date":"2026-01-28","time":"18:05:37"},{"task":"memory_phase","broad_category":"I","image_png":"I_Basalt_08.png","image_id":24,"category_name":"Basalt","category":2,"distinct_rating":2.31,"distinct_type":"Bottom","rt":null,"stimulus":"Stimuli_Rocks480/I_Basalt_08.png","response":null,"trial_type":"image-keyboard-response","trial_index":103,"plugin_version":"2.1.0","time_elapsed":205276,"subject_id":"93006","group":"Group2","condition":"1_Rep","full_date":"2026-01-28T18:05:37.953Z","date":"2026-01-28","time":"18:05:37"},{"rt":null,"stimulus":"<p style=\"font-size: 50px; margin: 0; text-align: center;\">+</p>","response":null,"trial_type":"html-keyboard-response","trial_index":104,"plugin_version":"2.1.0","time_elapsed":206279,"subject_id":"93006","group":"Group2","condition":"1_Rep","full_date":"2026-01-28T18:05:37.953Z","date":"2026-01-28","time":"18:05:37"},{"task":"memory_phase","broad_category":"I","image_png":"I_Pumice_14.png","image_id":142,"category_name":"Pumice","category":9,"distinct_rating":3.22,"distinct_type":"Bottom","rt":null,"stimulus":"Stimuli_Rocks480/I_Pumice_14.png","response":null,"trial_type":"image-keyboard-response","trial_index":105,"plugin_version":"2.1.0","time_elapsed":208781,"subject_id":"93006","group":"Group2","condition":"1_Rep","full_date":"2026-01-28T18:05:37.953Z","date":"2026-01-28","time":"18:05:37"},{"rt":25719,"stimulus":"<div style=\"max-width: 760px; margin: auto; font-size: 20px; line-height: 1.5;\">\n      <h1 style=\"text-align:center; font-size: 30px;\">Instructions for the Test Phase</h1>\n      <p>\n        The study phase is now complete.\n      </p>\n      <p>\n        In the test phase, you will again see a series of rock images. \n        Some will be ones you saw before - during the study phase, while others will be new.  \n        <b>Your task</b> is to decide whether you have seen each image before by pressing the corresponding key on your keyboard:<br><br>\n          <b>A</b> - NO (you did not see this image before)<br>\n          <b>L</b> - YES (you saw this image before)<br><br>\n        The test will proceed at your own pace. You will receive feedback after each response.  \n        Please try to respond <b>as accurately as possible</b>.\n      </p>\n      <p>\n        <b>Reminder:</b> If your computer has multiple language settings (e.g., English and another language),\n        please ensure it is set to English during the test phase.\n      </p>\n      <p>\n        You can track your progress using the <b>completion bar</b> at the top of the screen.  \n        Note that it has been refreshed to reflect your progress during this final phase.\n      </p>\n      <p>\n        Press the button below when you are ready to continue.\n      </p>\n    </div>","response":0,"trial_type":"html-button-response","trial_index":106,"plugin_version":"2.1.0","time_elapsed":234504,"subject_id":"93006","group":"Group2","condition":"1_Rep","full_date":"2026-01-28T18:05:37.953Z","date":"2026-01-28","time":"18:05:37"},{"correct_response":"a","task":"test_phase","broad_category":"I","image_png":"I_Andesite_06.png","image_id":6,"category_name":"Andesite","category":1,"distinct_rating":3.17,"distinct_type":"Bottom","item_type":"Foil","rt":3084,"stimulus":"Stimuli_Rocks480/I_Andesite_06.png","response":"l","trial_type":"image-keyboard-response","trial_index":107,"plugin_version":"2.1.0","time_elapsed":237591,"subject_id":"93006","group":"Group2","condition":"1_Rep","full_date":"2026-01-28T18:05:37.953Z","date":"2026-01-28","time":"18:05:37","cor_ans":false},{"trial_type":"html-keyboard-response","rt":null,"stimulus":"<p style=\"color: red; font-size: 50px; font-weight: bold;\">Incorrect</p>","response":null,"trial_index":108,"plugin_version":"2.1.0","time_elapsed":238093,"subject_id":"93006","group":"Group2","condition":"1_Rep","full_date":"2026-01-28T18:05:37.953Z","date":"2026-01-28","time":"18:05:37"},{"correct_response":"l","task":"test_phase","broad_category":"M","image_png":"M_Phyllite_13.png","image_id":269,"category_name":"Phyllite","category":17,"distinct_rating":2.8,"distinct_type":"Bottom","item_type":"Target","rt":3953,"stimulus":"Stimuli_Rocks480/M_Phyllite_13.png","response":"l","trial_type":"image-keyboard-response","trial_index":109,"plugin_version":"2.1.0","time_elapsed":242049,"subject_id":"93006","group":"Group2","condition":"1_Rep","full_date":"2026-01-28T18:05:37.953Z","date":"2026-01-28","time":"18:05:37","cor_ans":true},{"trial_type":"html-keyboard-response","rt":null,"stimulus":"<p style=\"color: green; font-size: 50px; font-weight: bold;\">Correct</p>","response":null,"trial_index":110,"plugin_version":"2.1.0","time_elapsed":242551,"subject_id":"93006","group":"Group2","condition":"1_Rep","full_date":"2026-01-28T18:05:37.953Z","date":"2026-01-28","time":"18:05:37"},{"correct_response":"l","task":"test_phase","broad_category":"I","image_png":"I_Rhyolite_08.png","image_id":152,"category_name":"Rhyolite","category":10,"distinct_rating":1.38,"distinct_type":"Bottom","item_type":"Target","rt":2042,"stimulus":"Stimuli_Rocks480/I_Rhyolite_08.png","response":"l","trial_type":"image-keyboard-response","trial_index":111,"plugin_version":"2.1.0","time_elapsed":244595,"subject_id":"93006","group":"Group2","condition":"1_Rep","full_date":"2026-01-28T18:05:37.953Z","date":"2026-01-28","time":"18:05:37","cor_ans":true},{"trial_type":"html-keyboard-response","rt":null,"stimulus":"<p style=\"color: green; font-size: 50px; font-weight: bold;\">Correct</p>","response":null,"trial_index":112,"plugin_version":"2.1.0","time_elapsed":245096,"subject_id":"93006","group":"Group2","condition":"1_Rep","full_date":"2026-01-28T18:05:37.953Z","date":"2026-01-28","time":"18:05:37"},{"correct_response":"a","task":"test_phase","broad_category":"S","image_png":"S_Sandstone_15.png","image_id":463,"category_name":"Sandstone","category":29,"distinct_rating":2,"distinct_type":"Bottom","item_type":"Foil","rt":1286,"stimulus":"Stimuli_Rocks480/S_Sandstone_15.png","response":"a","trial_type":"image-keyboard-response","trial_index":113,"plugin_version":"2.1.0","time_elapsed":246384,"subject_id":"93006","group":"Group2","condition":"1_Rep","full_date":"2026-01-28T18:05:37.953Z","date":"2026-01-28","time":"18:05:37","cor_ans":true},{"trial_type":"html-keyboard-response","rt":null,"stimulus":"<p style=\"color: green; font-size: 50px; font-weight: bold;\">Correct</p>","response":null,"trial_index":114,"plugin_version":"2.1.0","time_elapsed":246886,"subject_id":"93006","group":"Group2","condition":"1_Rep","full_date":"2026-01-28T18:05:37.953Z","date":"2026-01-28","time":"18:05:37"},{"correct_response":"l","task":"test_phase","broad_category":"I","image_png":"I_Diorite_15.png","image_id":47,"category_name":"Diorite","category":3,"distinct_rating":3.05,"distinct_type":"Bottom","item_type":"Target","rt":1204,"stimulus":"Stimuli_Rocks480/I_Diorite_15.png","response":"l","trial_type":"image-keyboard-response","trial_index":115,"plugin_version":"2.1.0","time_elapsed":248092,"subject_id":"93006","group":"Group2","condition":"1_Rep","full_date":"2026-01-28T18:05:37.953Z","date":"2026-01-28","time":"18:05:37","cor_ans":true},{"trial_type":"html-keyboard-response","rt":null,"stimulus":"<p style=\"color: green; font-size: 50px; font-weight: bold;\">Correct</p>","response":null,"trial_index":116,"plugin_version":"2.1.0","time_elapsed":248593,"subject_id":"93006","group":"Group2","condition":"1_Rep","full_date":"2026-01-28T18:05:37.953Z","date":"2026-01-28","time":"18:05:37"},{"correct_response":"l","task":"test_phase","broad_category":"I","image_png":"I_Gabbro_14.png","image_id":62,"category_name":"Gabbro","category":4,"distinct_rating":2.95,"distinct_type":"Bottom","item_type":"Target","rt":1010,"stimulus":"Stimuli_Rocks480/I_Gabbro_14.png","response":"a","trial_type":"image-keyboard-response","trial_index":117,"plugin_version":"2.1.0","time_elapsed":249605,"subject_id":"93006","group":"Group2","condition":"1_Rep","full_date":"2026-01-28T18:05:37.953Z","date":"2026-01-28","time":"18:05:37","cor_ans":false},{"trial_type":"html-keyboard-response","rt":null,"stimulus":"<p style=\"color: red; font-size: 50px; font-weight: bold;\">Incorrect</p>","response":null,"trial_index":118,"plugin_version":"2.1.0","time_elapsed":250107,"subject_id":"93006","group":"Group2","condition":"1_Rep","full_date":"2026-01-28T18:05:37.953Z","date":"2026-01-28","time":"18:05:37"},{"correct_response":"l","task":"test_phase","broad_category":"I","image_png":"I_Andesite_03.png","image_id":3,"category_name":"Andesite","category":1,"distinct_rating":3.17,"distinct_type":"Bottom","item_type":"Target","rt":1986,"stimulus":"Stimuli_Rocks480/I_Andesite_03.png","response":"l","trial_type":"image-keyboard-response","trial_index":119,"plugin_version":"2.1.0","time_elapsed":252094,"subject_id":"93006","group":"Group2","condition":"1_Rep","full_date":"2026-01-28T18:05:37.953Z","date":"2026-01-28","time":"18:05:37","cor_ans":true},{"trial_type":"html-keyboard-response","rt":null,"stimulus":"<p style=\"color: green; font-size: 50px; font-weight: bold;\">Correct</p>","response":null,"trial_index":120,"plugin_version":"2.1.0","time_elapsed":252597,"subject_id":"93006","group":"Group2","condition":"1_Rep","full_date":"2026-01-28T18:05:37.953Z","date":"2026-01-28","time":"18:05:37"},{"correct_response":"l","task":"test_phase","broad_category":"S","image_png":"S_Rock Salt_15.png","image_id":447,"category_name":"Rock Salt","category":28,"distinct_rating":7.79,"distinct_type":"Top","item_type":"Target","rt":1038,"stimulus":"Stimuli_Rocks480/S_Rock Salt_15.png","response":"l","trial_type":"image-keyboard-response","trial_index":121,"plugin_version":"2.1.0","time_elapsed":253636,"subject_id":"93006","group":"Group2","condition":"1_Rep","full_date":"2026-01-28T18:05:37.953Z","date":"2026-01-28","time":"18:05:37","cor_ans":true},{"trial_type":"html-keyboard-response","rt":null,"stimulus":"<p style=\"color: green; font-size: 50px; font-weight: bold;\">Correct</p>","response":null,"trial_index":122,"plugin_version":"2.1.0","time_elapsed":254137,"subject_id":"93006","group":"Group2","condition":"1_Rep","full_date":"2026-01-28T18:05:37.953Z","date":"2026-01-28","time":"18:05:37"},{"correct_response":"a","task":"test_phase","broad_category":"M","image_png":"M_Phyllite_10.png","image_id":266,"category_name":"Phyllite","category":17,"distinct_rating":2.6,"distinct_type":"Bottom","item_type":"Foil","rt":1119,"stimulus":"Stimuli_Rocks480/M_Phyllite_10.png","response":"a","trial_type":"image-keyboard-response","trial_index":123,"plugin_version":"2.1.0","time_elapsed":255257,"subject_id":"93006","group":"Group2","condition":"1_Rep","full_date":"2026-01-28T18:05:37.953Z","date":"2026-01-28","time":"18:05:37","cor_ans":true},{"trial_type":"html-keyboard-response","rt":null,"stimulus":"<p style=\"color: green; font-size: 50px; font-weight: bold;\">Correct</p>","response":null,"trial_index":124,"plugin_version":"2.1.0","time_elapsed":255760,"subject_id":"93006","group":"Group2","condition":"1_Rep","full_date":"2026-01-28T18:05:37.953Z","date":"2026-01-28","time":"18:05:37"},{"correct_response":"a","task":"test_phase","broad_category":"S","image_png":"S_Conglomerate_05.png","image_id":373,"category_name":"Conglomerate","category":24,"distinct_rating":7.32,"distinct_type":"Top","item_type":"Foil","rt":1346,"stimulus":"Stimuli_Rocks480/S_Conglomerate_05.png","response":"l","trial_type":"image-keyboard-response","trial_index":125,"plugin_version":"2.1.0","time_elapsed":257107,"subject_id":"93006","group":"Group2","condition":"1_Rep","full_date":"2026-01-28T18:05:37.953Z","date":"2026-01-28","time":"18:05:37","cor_ans":false},{"trial_type":"html-keyboard-response","rt":null,"stimulus":"<p style=\"color: red; font-size: 50px; font-weight: bold;\">Incorrect</p>","response":null,"trial_index":126,"plugin_version":"2.1.0","time_elapsed":257609,"subject_id":"93006","group":"Group2","condition":"1_Rep","full_date":"2026-01-28T18:05:37.953Z","date":"2026-01-28","time":"18:05:37"},{"correct_response":"l","task":"test_phase","broad_category":"I","image_png":"I_Pegmatite_03.png","image_id":99,"category_name":"Pegmatite","category":7,"distinct_rating":7.24,"distinct_type":"Top","item_type":"Target","rt":867,"stimulus":"Stimuli_Rocks480/I_Pegmatite_03.png","response":"l","trial_type":"image-keyboard-response","trial_index":127,"plugin_version":"2.1.0","time_elapsed":258478,"subject_id":"93006","group":"Group2","condition":"1_Rep","full_date":"2026-01-28T18:05:37.953Z","date":"2026-01-28","time":"18:05:37","cor_ans":true},{"trial_type":"html-keyboard-response","rt":null,"stimulus":"<p style=\"color: green; font-size: 50px; font-weight: bold;\">Correct</p>","response":null,"trial_index":128,"plugin_version":"2.1.0","time_elapsed":258979,"subject_id":"93006","group":"Group2","condition":"1_Rep","full_date":"2026-01-28T18:05:37.953Z","date":"2026-01-28","time":"18:05:37"},{"correct_response":"a","task":"test_phase","broad_category":"M","image_png":"M_Gneiss_06.png","image_id":198,"category_name":"Gneiss","category":13,"distinct_rating":2.65,"distinct_type":"Bottom","item_type":"Foil","rt":1147,"stimulus":"Stimuli_Rocks480/M_Gneiss_06.png","response":"a","trial_type":"image-keyboard-response","trial_index":129,"plugin_version":"2.1.0","time_elapsed":260128,"subject_id":"93006","group":"Group2","condition":"1_Rep","full_date":"2026-01-28T18:05:37.953Z","date":"2026-01-28","time":"18:05:37","cor_ans":true},{"trial_type":"html-keyboard-response","rt":null,"stimulus":"<p style=\"color: green; font-size: 50px; font-weight: bold;\">Correct</p>","response":null,"trial_index":130,"plugin_version":"2.1.0","time_elapsed":260630,"subject_id":"93006","group":"Group2","condition":"1_Rep","full_date":"2026-01-28T18:05:37.953Z","date":"2026-01-28","time":"18:05:37"},{"correct_response":"a","task":"test_phase","broad_category":"S","image_png":"S_Chert_10.png","image_id":362,"category_name":"Chert","category":23,"distinct_rating":7.17,"distinct_type":"Top","item_type":"Foil","rt":1638,"stimulus":"Stimuli_Rocks480/S_Chert_10.png","response":"a","trial_type":"image-keyboard-response","trial_index":131,"plugin_version":"2.1.0","time_elapsed":262269,"subject_id":"93006","group":"Group2","condition":"1_Rep","full_date":"2026-01-28T18:05:37.953Z","date":"2026-01-28","time":"18:05:37","cor_ans":true},{"trial_type":"html-keyboard-response","rt":null,"stimulus":"<p style=\"color: green; font-size: 50px; font-weight: bold;\">Correct</p>","response":null,"trial_index":132,"plugin_version":"2.1.0","time_elapsed":262771,"subject_id":"93006","group":"Group2","condition":"1_Rep","full_date":"2026-01-28T18:05:37.953Z","date":"2026-01-28","time":"18:05:37"},{"correct_response":"a","task":"test_phase","broad_category":"M","image_png":"M_Slate_03.png","image_id":307,"category_name":"Slate","category":20,"distinct_rating":1.87,"distinct_type":"Bottom","item_type":"Foil","rt":1031,"stimulus":"Stimuli_Rocks480/M_Slate_03.png","response":"l","trial_type":"image-keyboard-response","trial_index":133,"plugin_version":"2.1.0","time_elapsed":263803,"subject_id":"93006","group":"Group2","condition":"1_Rep","full_date":"2026-01-28T18:05:37.953Z","date":"2026-01-28","time":"18:05:37","cor_ans":false},{"trial_type":"html-keyboard-response","rt":null,"stimulus":"<p style=\"color: red; font-size: 50px; font-weight: bold;\">Incorrect</p>","response":null,"trial_index":134,"plugin_version":"2.1.0","time_elapsed":264305,"subject_id":"93006","group":"Group2","condition":"1_Rep","full_date":"2026-01-28T18:05:37.953Z","date":"2026-01-28","time":"18:05:37"},{"correct_response":"a","task":"test_phase","broad_category":"M","image_png":"M_Slate_15.png","image_id":319,"category_name":"Slate","category":20,"distinct_rating":2.13,"distinct_type":"Bottom","item_type":"Foil","rt":977,"stimulus":"Stimuli_Rocks480/M_Slate_15.png","response":"l","trial_type":"image-keyboard-response","trial_index":135,"plugin_version":"2.1.0","time_elapsed":265283,"subject_id":"93006","group":"Group2","condition":"1_Rep","full_date":"2026-01-28T18:05:37.953Z","date":"2026-01-28","time":"18:05:37","cor_ans":false},{"trial_type":"html-keyboard-response","rt":null,"stimulus":"<p style=\"color: red; font-size: 50px; font-weight: bold;\">Incorrect</p>","response":null,"trial_index":136,"plugin_version":"2.1.0","time_elapsed":265785,"subject_id":"93006","group":"Group2","condition":"1_Rep","full_date":"2026-01-28T18:05:37.953Z","date":"2026-01-28","time":"18:05:37"},{"correct_response":"l","task":"test_phase","broad_category":"S","image_png":"S_Sandstone_04.png","image_id":452,"category_name":"Sandstone","category":29,"distinct_rating":1.8,"distinct_type":"Bottom","item_type":"Target","rt":1241,"stimulus":"Stimuli_Rocks480/S_Sandstone_04.png","response":"l","trial_type":"image-keyboard-response","trial_index":137,"plugin_version":"2.1.0","time_elapsed":267027,"subject_id":"93006","group":"Group2","condition":"1_Rep","full_date":"2026-01-28T18:05:37.953Z","date":"2026-01-28","time":"18:05:37","cor_ans":true},{"trial_type":"html-keyboard-response","rt":null,"stimulus":"<p style=\"color: green; font-size: 50px; font-weight: bold;\">Correct</p>","response":null,"trial_index":138,"plugin_version":"2.1.0","time_elapsed":267529,"subject_id":"93006","group":"Group2","condition":"1_Rep","full_date":"2026-01-28T18:05:37.953Z","date":"2026-01-28","time":"18:05:37"},{"correct_response":"l","task":"test_phase","broad_category":"I","image_png":"I_Basalt_10.png","image_id":26,"category_name":"Basalt","category":2,"distinct_rating":2.76,"distinct_type":"Bottom","item_type":"Target","rt":1064,"stimulus":"Stimuli_Rocks480/I_Basalt_10.png","response":"a","trial_type":"image-keyboard-response","trial_index":139,"plugin_version":"2.1.0","time_elapsed":268595,"subject_id":"93006","group":"Group2","condition":"1_Rep","full_date":"2026-01-28T18:05:37.953Z","date":"2026-01-28","time":"18:05:37","cor_ans":false},{"trial_type":"html-keyboard-response","rt":null,"stimulus":"<p style=\"color: red; font-size: 50px; font-weight: bold;\">Incorrect</p>","response":null,"trial_index":140,"plugin_version":"2.1.0","time_elapsed":269097,"subject_id":"93006","group":"Group2","condition":"1_Rep","full_date":"2026-01-28T18:05:37.953Z","date":"2026-01-28","time":"18:05:37"},{"correct_response":"a","task":"test_phase","broad_category":"M","image_png":"M_Slate_11.png","image_id":315,"category_name":"Slate","category":20,"distinct_rating":2.75,"distinct_type":"Bottom","item_type":"Foil","rt":1554,"stimulus":"Stimuli_Rocks480/M_Slate_11.png","response":"l","trial_type":"image-keyboard-response","trial_index":141,"plugin_version":"2.1.0","time_elapsed":270652,"subject_id":"93006","group":"Group2","condition":"1_Rep","full_date":"2026-01-28T18:05:37.953Z","date":"2026-01-28","time":"18:05:37","cor_ans":false},{"trial_type":"html-keyboard-response","rt":null,"stimulus":"<p style=\"color: red; font-size: 50px; font-weight: bold;\">Incorrect</p>","response":null,"trial_index":142,"plugin_version":"2.1.0","time_elapsed":271155,"subject_id":"93006","group":"Group2","condition":"1_Rep","full_date":"2026-01-28T18:05:37.953Z","date":"2026-01-28","time":"18:05:37"},{"correct_response":"l","task":"test_phase","broad_category":"M","image_png":"M_Gneiss_14.png","image_id":206,"category_name":"Gneiss","category":13,"distinct_rating":3.41,"distinct_type":"Bottom","item_type":"Target","rt":1098,"stimulus":"Stimuli_Rocks480/M_Gneiss_14.png","response":"l","trial_type":"image-keyboard-response","trial_index":143,"plugin_version":"2.1.0","time_elapsed":272254,"subject_id":"93006","group":"Group2","condition":"1_Rep","full_date":"2026-01-28T18:05:37.953Z","date":"2026-01-28","time":"18:05:37","cor_ans":true},{"trial_type":"html-keyboard-response","rt":null,"stimulus":"<p style=\"color: green; font-size: 50px; font-weight: bold;\">Correct</p>","response":null,"trial_index":144,"plugin_version":"2.1.0","time_elapsed":272756,"subject_id":"93006","group":"Group2","condition":"1_Rep","full_date":"2026-01-28T18:05:37.953Z","date":"2026-01-28","time":"18:05:37"},{"correct_response":"a","task":"test_phase","broad_category":"I","image_png":"I_Obsidian_05.png","image_id":85,"category_name":"Obsidian","category":6,"distinct_rating":7.32,"distinct_type":"Top","item_type":"Foil","rt":1126,"stimulus":"Stimuli_Rocks480/I_Obsidian_05.png","response":"a","trial_type":"image-keyboard-response","trial_index":145,"plugin_version":"2.1.0","time_elapsed":273883,"subject_id":"93006","group":"Group2","condition":"1_Rep","full_date":"2026-01-28T18:05:37.953Z","date":"2026-01-28","time":"18:05:37","cor_ans":true},{"trial_type":"html-keyboard-response","rt":null,"stimulus":"<p style=\"color: green; font-size: 50px; font-weight: bold;\">Correct</p>","response":null,"trial_index":146,"plugin_version":"2.1.0","time_elapsed":274385,"subject_id":"93006","group":"Group2","condition":"1_Rep","full_date":"2026-01-28T18:05:37.953Z","date":"2026-01-28","time":"18:05:37"},{"correct_response":"a","task":"test_phase","broad_category":"I","image_png":"I_Rhyolite_11.png","image_id":155,"category_name":"Rhyolite","category":10,"distinct_rating":1.73,"distinct_type":"Bottom","item_type":"Foil","rt":819,"stimulus":"Stimuli_Rocks480/I_Rhyolite_11.png","response":"a","trial_type":"image-keyboard-response","trial_index":147,"plugin_version":"2.1.0","time_elapsed":275205,"subject_id":"93006","group":"Group2","condition":"1_Rep","full_date":"2026-01-28T18:05:37.953Z","date":"2026-01-28","time":"18:05:37","cor_ans":true},{"trial_type":"html-keyboard-response","rt":null,"stimulus":"<p style=\"color: green; font-size: 50px; font-weight: bold;\">Correct</p>","response":null,"trial_index":148,"plugin_version":"2.1.0","time_elapsed":275707,"subject_id":"93006","group":"Group2","condition":"1_Rep","full_date":"2026-01-28T18:05:37.953Z","date":"2026-01-28","time":"18:05:37"},{"correct_response":"a","task":"test_phase","broad_category":"I","image_png":"I_Diorite_05.png","image_id":37,"category_name":"Diorite","category":3,"distinct_rating":3.08,"distinct_type":"Bottom","item_type":"Foil","rt":807,"stimulus":"Stimuli_Rocks480/I_Diorite_05.png","response":"l","trial_type":"image-keyboard-response","trial_index":149,"plugin_version":"2.1.0","time_elapsed":276515,"subject_id":"93006","group":"Group2","condition":"1_Rep","full_date":"2026-01-28T18:05:37.953Z","date":"2026-01-28","time":"18:05:37","cor_ans":false},{"trial_type":"html-keyboard-response","rt":null,"stimulus":"<p style=\"color: red; font-size: 50px; font-weight: bold;\">Incorrect</p>","response":null,"trial_index":150,"plugin_version":"2.1.0","time_elapsed":277017,"subject_id":"93006","group":"Group2","condition":"1_Rep","full_date":"2026-01-28T18:05:37.953Z","date":"2026-01-28","time":"18:05:37"},{"correct_response":"l","task":"test_phase","broad_category":"I","image_png":"I_Pegmatite_11.png","image_id":107,"category_name":"Pegmatite","category":7,"distinct_rating":7.11,"distinct_type":"Top","item_type":"Target","rt":1091,"stimulus":"Stimuli_Rocks480/I_Pegmatite_11.png","response":"a","trial_type":"image-keyboard-response","trial_index":151,"plugin_version":"2.1.0","time_elapsed":278109,"subject_id":"93006","group":"Group2","condition":"1_Rep","full_date":"2026-01-28T18:05:37.953Z","date":"2026-01-28","time":"18:05:37","cor_ans":false},{"trial_type":"html-keyboard-response","rt":null,"stimulus":"<p style=\"color: red; font-size: 50px; font-weight: bold;\">Incorrect</p>","response":null,"trial_index":152,"plugin_version":"2.1.0","time_elapsed":278611,"subject_id":"93006","group":"Group2","condition":"1_Rep","full_date":"2026-01-28T18:05:37.953Z","date":"2026-01-28","time":"18:05:37"},{"correct_response":"l","task":"test_phase","broad_category":"I","image_png":"I_Peridotite_13.png","image_id":125,"category_name":"Peridotite","category":8,"distinct_rating":7.28,"distinct_type":"Top","item_type":"Target","rt":1259,"stimulus":"Stimuli_Rocks480/I_Peridotite_13.png","response":"a","trial_type":"image-keyboard-response","trial_index":153,"plugin_version":"2.1.0","time_elapsed":279871,"subject_id":"93006","group":"Group2","condition":"1_Rep","full_date":"2026-01-28T18:05:37.953Z","date":"2026-01-28","time":"18:05:37","cor_ans":false},{"trial_type":"html-keyboard-response","rt":null,"stimulus":"<p style=\"color: red; font-size: 50px; font-weight: bold;\">Incorrect</p>","response":null,"trial_index":154,"plugin_version":"2.1.0","time_elapsed":280373,"subject_id":"93006","group":"Group2","condition":"1_Rep","full_date":"2026-01-28T18:05:37.953Z","date":"2026-01-28","time":"18:05:37"},{"correct_response":"a","task":"test_phase","broad_category":"S","image_png":"S_Dolomite_12.png","image_id":396,"category_name":"Dolomite","category":25,"distinct_rating":1.85,"distinct_type":"Bottom","item_type":"Foil","rt":463,"stimulus":"Stimuli_Rocks480/S_Dolomite_12.png","response":"a","trial_type":"image-keyboard-response","trial_index":155,"plugin_version":"2.1.0","time_elapsed":280837,"subject_id":"93006","group":"Group2","condition":"1_Rep","full_date":"2026-01-28T18:05:37.953Z","date":"2026-01-28","time":"18:05:37","cor_ans":true},{"trial_type":"html-keyboard-response","rt":null,"stimulus":"<p style=\"color: green; font-size: 50px; font-weight: bold;\">Correct</p>","response":null,"trial_index":156,"plugin_version":"2.1.0","time_elapsed":281339,"subject_id":"93006","group":"Group2","condition":"1_Rep","full_date":"2026-01-28T18:05:37.953Z","date":"2026-01-28","time":"18:05:37"},{"correct_response":"a","task":"test_phase","broad_category":"M","image_png":"M_Quartzite_05.png","image_id":277,"category_name":"Quartzite","category":18,"distinct_rating":2.23,"distinct_type":"Bottom","item_type":"Foil","rt":1580,"stimulus":"Stimuli_Rocks480/M_Quartzite_05.png","response":"l","trial_type":"image-keyboard-response","trial_index":157,"plugin_version":"2.1.0","time_elapsed":282920,"subject_id":"93006","group":"Group2","condition":"1_Rep","full_date":"2026-01-28T18:05:37.953Z","date":"2026-01-28","time":"18:05:37","cor_ans":false},{"trial_type":"html-keyboard-response","rt":null,"stimulus":"<p style=\"color: red; font-size: 50px; font-weight: bold;\">Incorrect</p>","response":null,"trial_index":158,"plugin_version":"2.1.0","time_elapsed":283423,"subject_id":"93006","group":"Group2","condition":"1_Rep","full_date":"2026-01-28T18:05:37.953Z","date":"2026-01-28","time":"18:05:37"},{"correct_response":"l","task":"test_phase","broad_category":"M","image_png":"M_Gneiss_15.png","image_id":207,"category_name":"Gneiss","category":13,"distinct_rating":3.11,"distinct_type":"Bottom","item_type":"Target","rt":977,"stimulus":"Stimuli_Rocks480/M_Gneiss_15.png","response":"l","trial_type":"image-keyboard-response","trial_index":159,"plugin_version":"2.1.0","time_elapsed":284401,"subject_id":"93006","group":"Group2","condition":"1_Rep","full_date":"2026-01-28T18:05:37.953Z","date":"2026-01-28","time":"18:05:37","cor_ans":true},{"trial_type":"html-keyboard-response","rt":null,"stimulus":"<p style=\"color: green; font-size: 50px; font-weight: bold;\">Correct</p>","response":null,"trial_index":160,"plugin_version":"2.1.0","time_elapsed":284902,"subject_id":"93006","group":"Group2","condition":"1_Rep","full_date":"2026-01-28T18:05:37.953Z","date":"2026-01-28","time":"18:05:37"},{"correct_response":"l","task":"test_phase","broad_category":"I","image_png":"I_Gabbro_12.png","image_id":60,"category_name":"Gabbro","category":4,"distinct_rating":2.6,"distinct_type":"Bottom","item_type":"Target","rt":1170,"stimulus":"Stimuli_Rocks480/I_Gabbro_12.png","response":"l","trial_type":"image-keyboard-response","trial_index":161,"plugin_version":"2.1.0","time_elapsed":286073,"subject_id":"93006","group":"Group2","condition":"1_Rep","full_date":"2026-01-28T18:05:37.953Z","date":"2026-01-28","time":"18:05:37","cor_ans":true},{"trial_type":"html-keyboard-response","rt":null,"stimulus":"<p style=\"color: green; font-size: 50px; font-weight: bold;\">Correct</p>","response":null,"trial_index":162,"plugin_version":"2.1.0","time_elapsed":286575,"subject_id":"93006","group":"Group2","condition":"1_Rep","full_date":"2026-01-28T18:05:37.953Z","date":"2026-01-28","time":"18:05:37"},{"correct_response":"l","task":"test_phase","broad_category":"M","image_png":"M_Marble_14.png","image_id":238,"category_name":"Marble","category":15,"distinct_rating":3.31,"distinct_type":"Bottom","item_type":"Target","rt":1003,"stimulus":"Stimuli_Rocks480/M_Marble_14.png","response":"a","trial_type":"image-keyboard-response","trial_index":163,"plugin_version":"2.1.0","time_elapsed":287580,"subject_id":"93006","group":"Group2","condition":"1_Rep","full_date":"2026-01-28T18:05:37.953Z","date":"2026-01-28","time":"18:05:37","cor_ans":false},{"trial_type":"html-keyboard-response","rt":null,"stimulus":"<p style=\"color: red; font-size: 50px; font-weight: bold;\">Incorrect</p>","response":null,"trial_index":164,"plugin_version":"2.1.0","time_elapsed":288082,"subject_id":"93006","group":"Group2","condition":"1_Rep","full_date":"2026-01-28T18:05:37.953Z","date":"2026-01-28","time":"18:05:37"},{"correct_response":"a","task":"test_phase","broad_category":"S","image_png":"S_Sandstone_16.png","image_id":464,"category_name":"Sandstone","category":29,"distinct_rating":1.93,"distinct_type":"Bottom","item_type":"Foil","rt":911,"stimulus":"Stimuli_Rocks480/S_Sandstone_16.png","response":"l","trial_type":"image-keyboard-response","trial_index":165,"plugin_version":"2.1.0","time_elapsed":288995,"subject_id":"93006","group":"Group2","condition":"1_Rep","full_date":"2026-01-28T18:05:37.953Z","date":"2026-01-28","time":"18:05:37","cor_ans":false},{"trial_type":"html-keyboard-response","rt":null,"stimulus":"<p style=\"color: red; font-size: 50px; font-weight: bold;\">Incorrect</p>","response":null,"trial_index":166,"plugin_version":"2.1.0","time_elapsed":289496,"subject_id":"93006","group":"Group2","condition":"1_Rep","full_date":"2026-01-28T18:05:37.953Z","date":"2026-01-28","time":"18:05:37"},{"correct_response":"l","task":"test_phase","broad_category":"M","image_png":"M_Slate_14.png","image_id":318,"category_name":"Slate","category":20,"distinct_rating":2.58,"distinct_type":"Bottom","item_type":"Target","rt":883,"stimulus":"Stimuli_Rocks480/M_Slate_14.png","response":"l","trial_type":"image-keyboard-response","trial_index":167,"plugin_version":"2.1.0","time_elapsed":290381,"subject_id":"93006","group":"Group2","condition":"1_Rep","full_date":"2026-01-28T18:05:37.953Z","date":"2026-01-28","time":"18:05:37","cor_ans":true},{"trial_type":"html-keyboard-response","rt":null,"stimulus":"<p style=\"color: green; font-size: 50px; font-weight: bold;\">Correct</p>","response":null,"trial_index":168,"plugin_version":"2.1.0","time_elapsed":290882,"subject_id":"93006","group":"Group2","condition":"1_Rep","full_date":"2026-01-28T18:05:37.953Z","date":"2026-01-28","time":"18:05:37"},{"correct_response":"l","task":"test_phase","broad_category":"I","image_png":"I_Pumice_01.png","image_id":129,"category_name":"Pumice","category":9,"distinct_rating":3.25,"distinct_type":"Bottom","item_type":"Target","rt":818,"stimulus":"Stimuli_Rocks480/I_Pumice_01.png","response":"l","trial_type":"image-keyboard-response","trial_index":169,"plugin_version":"2.1.0","time_elapsed":291701,"subject_id":"93006","group":"Group2","condition":"1_Rep","full_date":"2026-01-28T18:05:37.953Z","date":"2026-01-28","time":"18:05:37","cor_ans":true},{"trial_type":"html-keyboard-response","rt":null,"stimulus":"<p style=\"color: green; font-size: 50px; font-weight: bold;\">Correct</p>","response":null,"trial_index":170,"plugin_version":"2.1.0","time_elapsed":292203,"subject_id":"93006","group":"Group2","condition":"1_Rep","full_date":"2026-01-28T18:05:37.953Z","date":"2026-01-28","time":"18:05:37"},{"correct_response":"l","task":"test_phase","broad_category":"I","image_png":"I_Basalt_13.png","image_id":29,"category_name":"Basalt","category":2,"distinct_rating":2.68,"distinct_type":"Bottom","item_type":"Target","rt":953,"stimulus":"Stimuli_Rocks480/I_Basalt_13.png","response":"a","trial_type":"image-keyboard-response","trial_index":171,"plugin_version":"2.1.0","time_elapsed":293158,"subject_id":"93006","group":"Group2","condition":"1_Rep","full_date":"2026-01-28T18:05:37.953Z","date":"2026-01-28","time":"18:05:37","cor_ans":false},{"trial_type":"html-keyboard-response","rt":null,"stimulus":"<p style=\"color: red; font-size: 50px; font-weight: bold;\">Incorrect</p>","response":null,"trial_index":172,"plugin_version":"2.1.0","time_elapsed":293660,"subject_id":"93006","group":"Group2","condition":"1_Rep","full_date":"2026-01-28T18:05:37.953Z","date":"2026-01-28","time":"18:05:37"},{"correct_response":"l","task":"test_phase","broad_category":"I","image_png":"I_Rhyolite_05.png","image_id":149,"category_name":"Rhyolite","category":10,"distinct_rating":3.02,"distinct_type":"Bottom","item_type":"Target","rt":778,"stimulus":"Stimuli_Rocks480/I_Rhyolite_05.png","response":"l","trial_type":"image-keyboard-response","trial_index":173,"plugin_version":"2.1.0","time_elapsed":294439,"subject_id":"93006","group":"Group2","condition":"1_Rep","full_date":"2026-01-28T18:05:37.953Z","date":"2026-01-28","time":"18:05:37","cor_ans":true},{"trial_type":"html-keyboard-response","rt":null,"stimulus":"<p style=\"color: green; font-size: 50px; font-weight: bold;\">Correct</p>","response":null,"trial_index":174,"plugin_version":"2.1.0","time_elapsed":294942,"subject_id":"93006","group":"Group2","condition":"1_Rep","full_date":"2026-01-28T18:05:37.953Z","date":"2026-01-28","time":"18:05:37"},{"correct_response":"l","task":"test_phase","broad_category":"S","image_png":"S_Sandstone_08.png","image_id":456,"category_name":"Sandstone","category":29,"distinct_rating":1.5,"distinct_type":"Bottom","item_type":"Target","rt":1343,"stimulus":"Stimuli_Rocks480/S_Sandstone_08.png","response":"a","trial_type":"image-keyboard-response","trial_index":175,"plugin_version":"2.1.0","time_elapsed":296287,"subject_id":"93006","group":"Group2","condition":"1_Rep","full_date":"2026-01-28T18:05:37.953Z","date":"2026-01-28","time":"18:05:37","cor_ans":false},{"trial_type":"html-keyboard-response","rt":null,"stimulus":"<p style=\"color: red; font-size: 50px; font-weight: bold;\">Incorrect</p>","response":null,"trial_index":176,"plugin_version":"2.1.0","time_elapsed":296789,"subject_id":"93006","group":"Group2","condition":"1_Rep","full_date":"2026-01-28T18:05:37.953Z","date":"2026-01-28","time":"18:05:37"},{"correct_response":"l","task":"test_phase","broad_category":"I","image_png":"I_Pumice_13.png","image_id":141,"category_name":"Pumice","category":9,"distinct_rating":3.12,"distinct_type":"Bottom","item_type":"Target","rt":707,"stimulus":"Stimuli_Rocks480/I_Pumice_13.png","response":"l","trial_type":"image-keyboard-response","trial_index":177,"plugin_version":"2.1.0","time_elapsed":297498,"subject_id":"93006","group":"Group2","condition":"1_Rep","full_date":"2026-01-28T18:05:37.953Z","date":"2026-01-28","time":"18:05:37","cor_ans":true},{"trial_type":"html-keyboard-response","rt":null,"stimulus":"<p style=\"color: green; font-size: 50px; font-weight: bold;\">Correct</p>","response":null,"trial_index":178,"plugin_version":"2.1.0","time_elapsed":298000,"subject_id":"93006","group":"Group2","condition":"1_Rep","full_date":"2026-01-28T18:05:37.953Z","date":"2026-01-28","time":"18:05:37"},{"correct_response":"a","task":"test_phase","broad_category":"I","image_png":"I_Basalt_01.png","image_id":17,"category_name":"Basalt","category":2,"distinct_rating":1.92,"distinct_type":"Bottom","item_type":"Foil","rt":1425,"stimulus":"Stimuli_Rocks480/I_Basalt_01.png","response":"a","trial_type":"image-keyboard-response","trial_index":179,"plugin_version":"2.1.0","time_elapsed":299426,"subject_id":"93006","group":"Group2","condition":"1_Rep","full_date":"2026-01-28T18:05:37.953Z","date":"2026-01-28","time":"18:05:37","cor_ans":true},{"trial_type":"html-keyboard-response","rt":null,"stimulus":"<p style=\"color: green; font-size: 50px; font-weight: bold;\">Correct</p>","response":null,"trial_index":180,"plugin_version":"2.1.0","time_elapsed":299928,"subject_id":"93006","group":"Group2","condition":"1_Rep","full_date":"2026-01-28T18:05:37.953Z","date":"2026-01-28","time":"18:05:37"},{"correct_response":"l","task":"test_phase","broad_category":"S","image_png":"S_Sandstone_11.png","image_id":459,"category_name":"Sandstone","category":29,"distinct_rating":1.82,"distinct_type":"Bottom","item_type":"Target","rt":1014,"stimulus":"Stimuli_Rocks480/S_Sandstone_11.png","response":"a","trial_type":"image-keyboard-response","trial_index":181,"plugin_version":"2.1.0","time_elapsed":300943,"subject_id":"93006","group":"Group2","condition":"1_Rep","full_date":"2026-01-28T18:05:37.953Z","date":"2026-01-28","time":"18:05:37","cor_ans":false},{"trial_type":"html-keyboard-response","rt":null,"stimulus":"<p style=\"color: red; font-size: 50px; font-weight: bold;\">Incorrect</p>","response":null,"trial_index":182,"plugin_version":"2.1.0","time_elapsed":301445,"subject_id":"93006","group":"Group2","condition":"1_Rep","full_date":"2026-01-28T18:05:37.953Z","date":"2026-01-28","time":"18:05:37"},{"correct_response":"l","task":"test_phase","broad_category":"I","image_png":"I_Rhyolite_10.png","image_id":154,"category_name":"Rhyolite","category":10,"distinct_rating":2.88,"distinct_type":"Bottom","item_type":"Target","rt":1382,"stimulus":"Stimuli_Rocks480/I_Rhyolite_10.png","response":"l","trial_type":"image-keyboard-response","trial_index":183,"plugin_version":"2.1.0","time_elapsed":302828,"subject_id":"93006","group":"Group2","condition":"1_Rep","full_date":"2026-01-28T18:05:37.953Z","date":"2026-01-28","time":"18:05:37","cor_ans":true},{"trial_type":"html-keyboard-response","rt":null,"stimulus":"<p style=\"color: green; font-size: 50px; font-weight: bold;\">Correct</p>","response":null,"trial_index":184,"plugin_version":"2.1.0","time_elapsed":303330,"subject_id":"93006","group":"Group2","condition":"1_Rep","full_date":"2026-01-28T18:05:37.953Z","date":"2026-01-28","time":"18:05:37"},{"correct_response":"a","task":"test_phase","broad_category":"I","image_png":"I_Basalt_09.png","image_id":25,"category_name":"Basalt","category":2,"distinct_rating":1.89,"distinct_type":"Bottom","item_type":"Foil","rt":1237,"stimulus":"Stimuli_Rocks480/I_Basalt_09.png","response":"a","trial_type":"image-keyboard-response","trial_index":185,"plugin_version":"2.1.0","time_elapsed":304568,"subject_id":"93006","group":"Group2","condition":"1_Rep","full_date":"2026-01-28T18:05:37.953Z","date":"2026-01-28","time":"18:05:37","cor_ans":true},{"trial_type":"html-keyboard-response","rt":null,"stimulus":"<p style=\"color: green; font-size: 50px; font-weight: bold;\">Correct</p>","response":null,"trial_index":186,"plugin_version":"2.1.0","time_elapsed":305070,"subject_id":"93006","group":"Group2","condition":"1_Rep","full_date":"2026-01-28T18:05:37.953Z","date":"2026-01-28","time":"18:05:37"},{"correct_response":"l","task":"test_phase","broad_category":"S","image_png":"S_Chert_13.png","image_id":365,"category_name":"Chert","category":23,"distinct_rating":6.57,"distinct_type":"Top","item_type":"Target","rt":1096,"stimulus":"Stimuli_Rocks480/S_Chert_13.png","response":"l","trial_type":"image-keyboard-response","trial_index":187,"plugin_version":"2.1.0","time_elapsed":306167,"subject_id":"93006","group":"Group2","condition":"1_Rep","full_date":"2026-01-28T18:05:37.953Z","date":"2026-01-28","time":"18:05:37","cor_ans":true},{"trial_type":"html-keyboard-response","rt":null,"stimulus":"<p style=\"color: green; font-size: 50px; font-weight: bold;\">Correct</p>","response":null,"trial_index":188,"plugin_version":"2.1.0","time_elapsed":306668,"subject_id":"93006","group":"Group2","condition":"1_Rep","full_date":"2026-01-28T18:05:37.953Z","date":"2026-01-28","time":"18:05:37"},{"correct_response":"a","task":"test_phase","broad_category":"I","image_png":"I_Rhyolite_14.png","image_id":158,"category_name":"Rhyolite","category":10,"distinct_rating":2.59,"distinct_type":"Bottom","item_type":"Foil","rt":1938,"stimulus":"Stimuli_Rocks480/I_Rhyolite_14.png","response":"a","trial_type":"image-keyboard-response","trial_index":189,"plugin_version":"2.1.0","time_elapsed":308608,"subject_id":"93006","group":"Group2","condition":"1_Rep","full_date":"2026-01-28T18:05:37.953Z","date":"2026-01-28","time":"18:05:37","cor_ans":true},{"trial_type":"html-keyboard-response","rt":null,"stimulus":"<p style=\"color: green; font-size: 50px; font-weight: bold;\">Correct</p>","response":null,"trial_index":190,"plugin_version":"2.1.0","time_elapsed":309110,"subject_id":"93006","group":"Group2","condition":"1_Rep","full_date":"2026-01-28T18:05:37.953Z","date":"2026-01-28","time":"18:05:37"},{"correct_response":"a","task":"test_phase","broad_category":"M","image_png":"M_Marble_16.png","image_id":240,"category_name":"Marble","category":15,"distinct_rating":2.57,"distinct_type":"Bottom","item_type":"Foil","rt":1401,"stimulus":"Stimuli_Rocks480/M_Marble_16.png","response":"l","trial_type":"image-keyboard-response","trial_index":191,"plugin_version":"2.1.0","time_elapsed":310513,"subject_id":"93006","group":"Group2","condition":"1_Rep","full_date":"2026-01-28T18:05:37.953Z","date":"2026-01-28","time":"18:05:37","cor_ans":false},{"trial_type":"html-keyboard-response","rt":null,"stimulus":"<p style=\"color: red; font-size: 50px; font-weight: bold;\">Incorrect</p>","response":null,"trial_index":192,"plugin_version":"2.1.0","time_elapsed":311014,"subject_id":"93006","group":"Group2","condition":"1_Rep","full_date":"2026-01-28T18:05:37.953Z","date":"2026-01-28","time":"18:05:37"},{"correct_response":"l","task":"test_phase","broad_category":"M","image_png":"M_Gneiss_10.png","image_id":202,"category_name":"Gneiss","category":13,"distinct_rating":3.09,"distinct_type":"Bottom","item_type":"Target","rt":1794,"stimulus":"Stimuli_Rocks480/M_Gneiss_10.png","response":"l","trial_type":"image-keyboard-response","trial_index":193,"plugin_version":"2.1.0","time_elapsed":312810,"subject_id":"93006","group":"Group2","condition":"1_Rep","full_date":"2026-01-28T18:05:37.953Z","date":"2026-01-28","time":"18:05:37","cor_ans":true},{"trial_type":"html-keyboard-response","rt":null,"stimulus":"<p style=\"color: green; font-size: 50px; font-weight: bold;\">Correct</p>","response":null,"trial_index":194,"plugin_version":"2.1.0","time_elapsed":313311,"subject_id":"93006","group":"Group2","condition":"1_Rep","full_date":"2026-01-28T18:05:37.953Z","date":"2026-01-28","time":"18:05:37"},{"correct_response":"a","task":"test_phase","broad_category":"I","image_png":"I_Pumice_12.png","image_id":140,"category_name":"Pumice","category":9,"distinct_rating":2.97,"distinct_type":"Bottom","item_type":"Foil","rt":1297,"stimulus":"Stimuli_Rocks480/I_Pumice_12.png","response":"a","trial_type":"image-keyboard-response","trial_index":195,"plugin_version":"2.1.0","time_elapsed":314610,"subject_id":"93006","group":"Group2","condition":"1_Rep","full_date":"2026-01-28T18:05:37.953Z","date":"2026-01-28","time":"18:05:37","cor_ans":true},{"trial_type":"html-keyboard-response","rt":null,"stimulus":"<p style=\"color: green; font-size: 50px; font-weight: bold;\">Correct</p>","response":null,"trial_index":196,"plugin_version":"2.1.0","time_elapsed":315112,"subject_id":"93006","group":"Group2","condition":"1_Rep","full_date":"2026-01-28T18:05:37.953Z","date":"2026-01-28","time":"18:05:37"},{"correct_response":"a","task":"test_phase","broad_category":"S","image_png":"S_Rock Gypsum_04.png","image_id":420,"category_name":"Rock Gypsum","category":27,"distinct_rating":7.61,"distinct_type":"Top","item_type":"Foil","rt":1057,"stimulus":"Stimuli_Rocks480/S_Rock Gypsum_04.png","response":"a","trial_type":"image-keyboard-response","trial_index":197,"plugin_version":"2.1.0","time_elapsed":316170,"subject_id":"93006","group":"Group2","condition":"1_Rep","full_date":"2026-01-28T18:05:37.953Z","date":"2026-01-28","time":"18:05:37","cor_ans":true},{"trial_type":"html-keyboard-response","rt":null,"stimulus":"<p style=\"color: green; font-size: 50px; font-weight: bold;\">Correct</p>","response":null,"trial_index":198,"plugin_version":"2.1.0","time_elapsed":316672,"subject_id":"93006","group":"Group2","condition":"1_Rep","full_date":"2026-01-28T18:05:37.953Z","date":"2026-01-28","time":"18:05:37"},{"correct_response":"l","task":"test_phase","broad_category":"S","image_png":"S_Shale_03.png","image_id":467,"category_name":"Shale","category":30,"distinct_rating":1.95,"distinct_type":"Bottom","item_type":"Target","rt":1408,"stimulus":"Stimuli_Rocks480/S_Shale_03.png","response":"a","trial_type":"image-keyboard-response","trial_index":199,"plugin_version":"2.1.0","time_elapsed":318082,"subject_id":"93006","group":"Group2","condition":"1_Rep","full_date":"2026-01-28T18:05:37.953Z","date":"2026-01-28","time":"18:05:37","cor_ans":false},{"trial_type":"html-keyboard-response","rt":null,"stimulus":"<p style=\"color: red; font-size: 50px; font-weight: bold;\">Incorrect</p>","response":null,"trial_index":200,"plugin_version":"2.1.0","time_elapsed":318584,"subject_id":"93006","group":"Group2","condition":"1_Rep","full_date":"2026-01-28T18:05:37.953Z","date":"2026-01-28","time":"18:05:37"},{"correct_response":"a","task":"test_phase","broad_category":"M","image_png":"M_Marble_06.png","image_id":230,"category_name":"Marble","category":15,"distinct_rating":3.4,"distinct_type":"Bottom","item_type":"Foil","rt":1405,"stimulus":"Stimuli_Rocks480/M_Marble_06.png","response":"l","trial_type":"image-keyboard-response","trial_index":201,"plugin_version":"2.1.0","time_elapsed":319991,"subject_id":"93006","group":"Group2","condition":"1_Rep","full_date":"2026-01-28T18:05:37.953Z","date":"2026-01-28","time":"18:05:37","cor_ans":false},{"trial_type":"html-keyboard-response","rt":null,"stimulus":"<p style=\"color: red; font-size: 50px; font-weight: bold;\">Incorrect</p>","response":null,"trial_index":202,"plugin_version":"2.1.0","time_elapsed":320492,"subject_id":"93006","group":"Group2","condition":"1_Rep","full_date":"2026-01-28T18:05:37.953Z","date":"2026-01-28","time":"18:05:37"},{"correct_response":"l","task":"test_phase","broad_category":"I","image_png":"I_Andesite_04.png","image_id":4,"category_name":"Andesite","category":1,"distinct_rating":3.18,"distinct_type":"Bottom","item_type":"Target","rt":1771,"stimulus":"Stimuli_Rocks480/I_Andesite_04.png","response":"a","trial_type":"image-keyboard-response","trial_index":203,"plugin_version":"2.1.0","time_elapsed":322265,"subject_id":"93006","group":"Group2","condition":"1_Rep","full_date":"2026-01-28T18:05:37.953Z","date":"2026-01-28","time":"18:05:37","cor_ans":false},{"trial_type":"html-keyboard-response","rt":null,"stimulus":"<p style=\"color: red; font-size: 50px; font-weight: bold;\">Incorrect</p>","response":null,"trial_index":204,"plugin_version":"2.1.0","time_elapsed":322767,"subject_id":"93006","group":"Group2","condition":"1_Rep","full_date":"2026-01-28T18:05:37.953Z","date":"2026-01-28","time":"18:05:37"},{"correct_response":"l","task":"test_phase","broad_category":"I","image_png":"I_Andesite_09.png","image_id":9,"category_name":"Andesite","category":1,"distinct_rating":2.49,"distinct_type":"Bottom","item_type":"Target","rt":816,"stimulus":"Stimuli_Rocks480/I_Andesite_09.png","response":"l","trial_type":"image-keyboard-response","trial_index":205,"plugin_version":"2.1.0","time_elapsed":323585,"subject_id":"93006","group":"Group2","condition":"1_Rep","full_date":"2026-01-28T18:05:37.953Z","date":"2026-01-28","time":"18:05:37","cor_ans":true},{"trial_type":"html-keyboard-response","rt":null,"stimulus":"<p style=\"color: green; font-size: 50px; font-weight: bold;\">Correct</p>","response":null,"trial_index":206,"plugin_version":"2.1.0","time_elapsed":324086,"subject_id":"93006","group":"Group2","condition":"1_Rep","full_date":"2026-01-28T18:05:37.953Z","date":"2026-01-28","time":"18:05:37"},{"correct_response":"l","task":"test_phase","broad_category":"I","image_png":"I_Diorite_10.png","image_id":42,"category_name":"Diorite","category":3,"distinct_rating":2.84,"distinct_type":"Bottom","item_type":"Target","rt":782,"stimulus":"Stimuli_Rocks480/I_Diorite_10.png","response":"l","trial_type":"image-keyboard-response","trial_index":207,"plugin_version":"2.1.0","time_elapsed":324870,"subject_id":"93006","group":"Group2","condition":"1_Rep","full_date":"2026-01-28T18:05:37.953Z","date":"2026-01-28","time":"18:05:37","cor_ans":true},{"trial_type":"html-keyboard-response","rt":null,"stimulus":"<p style=\"color: green; font-size: 50px; font-weight: bold;\">Correct</p>","response":null,"trial_index":208,"plugin_version":"2.1.0","time_elapsed":325371,"subject_id":"93006","group":"Group2","condition":"1_Rep","full_date":"2026-01-28T18:05:37.953Z","date":"2026-01-28","time":"18:05:37"},{"correct_response":"a","task":"test_phase","broad_category":"S","image_png":"S_Shale_01.png","image_id":465,"category_name":"Shale","category":30,"distinct_rating":2.7,"distinct_type":"Bottom","item_type":"Foil","rt":1122,"stimulus":"Stimuli_Rocks480/S_Shale_01.png","response":"a","trial_type":"image-keyboard-response","trial_index":209,"plugin_version":"2.1.0","time_elapsed":326494,"subject_id":"93006","group":"Group2","condition":"1_Rep","full_date":"2026-01-28T18:05:37.953Z","date":"2026-01-28","time":"18:05:37","cor_ans":true},{"trial_type":"html-keyboard-response","rt":null,"stimulus":"<p style=\"color: green; font-size: 50px; font-weight: bold;\">Correct</p>","response":null,"trial_index":210,"plugin_version":"2.1.0","time_elapsed":326995,"subject_id":"93006","group":"Group2","condition":"1_Rep","full_date":"2026-01-28T18:05:37.953Z","date":"2026-01-28","time":"18:05:37"},{"correct_response":"l","task":"test_phase","broad_category":"M","image_png":"M_Marble_03.png","image_id":227,"category_name":"Marble","category":15,"distinct_rating":2.67,"distinct_type":"Bottom","item_type":"Target","rt":1200,"stimulus":"Stimuli_Rocks480/M_Marble_03.png","response":"a","trial_type":"image-keyboard-response","trial_index":211,"plugin_version":"2.1.0","time_elapsed":328196,"subject_id":"93006","group":"Group2","condition":"1_Rep","full_date":"2026-01-28T18:05:37.953Z","date":"2026-01-28","time":"18:05:37","cor_ans":false},{"trial_type":"html-keyboard-response","rt":null,"stimulus":"<p style=\"color: red; font-size: 50px; font-weight: bold;\">Incorrect</p>","response":null,"trial_index":212,"plugin_version":"2.1.0","time_elapsed":328698,"subject_id":"93006","group":"Group2","condition":"1_Rep","full_date":"2026-01-28T18:05:37.953Z","date":"2026-01-28","time":"18:05:37"},{"correct_response":"a","task":"test_phase","broad_category":"M","image_png":"M_Marble_04.png","image_id":228,"category_name":"Marble","category":15,"distinct_rating":3.15,"distinct_type":"Bottom","item_type":"Foil","rt":656,"stimulus":"Stimuli_Rocks480/M_Marble_04.png","response":"l","trial_type":"image-keyboard-response","trial_index":213,"plugin_version":"2.1.0","time_elapsed":329355,"subject_id":"93006","group":"Group2","condition":"1_Rep","full_date":"2026-01-28T18:05:37.953Z","date":"2026-01-28","time":"18:05:37","cor_ans":false},{"trial_type":"html-keyboard-response","rt":null,"stimulus":"<p style=\"color: red; font-size: 50px; font-weight: bold;\">Incorrect</p>","response":null,"trial_index":214,"plugin_version":"2.1.0","time_elapsed":329857,"subject_id":"93006","group":"Group2","condition":"1_Rep","full_date":"2026-01-28T18:05:37.953Z","date":"2026-01-28","time":"18:05:37"},{"correct_response":"l","task":"test_phase","broad_category":"S","image_png":"S_Shale_02.png","image_id":466,"category_name":"Shale","category":30,"distinct_rating":2.9,"distinct_type":"Bottom","item_type":"Target","rt":631,"stimulus":"Stimuli_Rocks480/S_Shale_02.png","response":"l","trial_type":"image-keyboard-response","trial_index":215,"plugin_version":"2.1.0","time_elapsed":330491,"subject_id":"93006","group":"Group2","condition":"1_Rep","full_date":"2026-01-28T18:05:37.953Z","date":"2026-01-28","time":"18:05:37","cor_ans":true},{"trial_type":"html-keyboard-response","rt":null,"stimulus":"<p style=\"color: green; font-size: 50px; font-weight: bold;\">Correct</p>","response":null,"trial_index":216,"plugin_version":"2.1.0","time_elapsed":330992,"subject_id":"93006","group":"Group2","condition":"1_Rep","full_date":"2026-01-28T18:05:37.953Z","date":"2026-01-28","time":"18:05:37"},{"correct_response":"l","task":"test_phase","broad_category":"M","image_png":"M_Slate_10.png","image_id":314,"category_name":"Slate","category":20,"distinct_rating":1.94,"distinct_type":"Bottom","item_type":"Target","rt":1028,"stimulus":"Stimuli_Rocks480/M_Slate_10.png","response":"l","trial_type":"image-keyboard-response","trial_index":217,"plugin_version":"2.1.0","time_elapsed":332022,"subject_id":"93006","group":"Group2","condition":"1_Rep","full_date":"2026-01-28T18:05:37.953Z","date":"2026-01-28","time":"18:05:37","cor_ans":true},{"trial_type":"html-keyboard-response","rt":null,"stimulus":"<p style=\"color: green; font-size: 50px; font-weight: bold;\">Correct</p>","response":null,"trial_index":218,"plugin_version":"2.1.0","time_elapsed":332524,"subject_id":"93006","group":"Group2","condition":"1_Rep","full_date":"2026-01-28T18:05:37.953Z","date":"2026-01-28","time":"18:05:37"},{"correct_response":"l","task":"test_phase","broad_category":"S","image_png":"S_Conglomerate_14.png","image_id":382,"category_name":"Conglomerate","category":24,"distinct_rating":6.86,"distinct_type":"Top","item_type":"Target","rt":1303,"stimulus":"Stimuli_Rocks480/S_Conglomerate_14.png","response":"a","trial_type":"image-keyboard-response","trial_index":219,"plugin_version":"2.1.0","time_elapsed":333829,"subject_id":"93006","group":"Group2","condition":"1_Rep","full_date":"2026-01-28T18:05:37.953Z","date":"2026-01-28","time":"18:05:37","cor_ans":false},{"trial_type":"html-keyboard-response","rt":null,"stimulus":"<p style=\"color: red; font-size: 50px; font-weight: bold;\">Incorrect</p>","response":null,"trial_index":220,"plugin_version":"2.1.0","time_elapsed":334330,"subject_id":"93006","group":"Group2","condition":"1_Rep","full_date":"2026-01-28T18:05:37.953Z","date":"2026-01-28","time":"18:05:37"},{"correct_response":"l","task":"test_phase","broad_category":"S","image_png":"S_Dolomite_07.png","image_id":391,"category_name":"Dolomite","category":25,"distinct_rating":1.73,"distinct_type":"Bottom","item_type":"Target","rt":1042,"stimulus":"Stimuli_Rocks480/S_Dolomite_07.png","response":"a","trial_type":"image-keyboard-response","trial_index":221,"plugin_version":"2.1.0","time_elapsed":335374,"subject_id":"93006","group":"Group2","condition":"1_Rep","full_date":"2026-01-28T18:05:37.953Z","date":"2026-01-28","time":"18:05:37","cor_ans":false},{"trial_type":"html-keyboard-response","rt":null,"stimulus":"<p style=\"color: red; font-size: 50px; font-weight: bold;\">Incorrect</p>","response":null,"trial_index":222,"plugin_version":"2.1.0","time_elapsed":335876,"subject_id":"93006","group":"Group2","condition":"1_Rep","full_date":"2026-01-28T18:05:37.953Z","date":"2026-01-28","time":"18:05:37"},{"correct_response":"a","task":"test_phase","broad_category":"I","image_png":"I_Rhyolite_16.png","image_id":160,"category_name":"Rhyolite","category":10,"distinct_rating":2.19,"distinct_type":"Bottom","item_type":"Foil","rt":703,"stimulus":"Stimuli_Rocks480/I_Rhyolite_16.png","response":"l","trial_type":"image-keyboard-response","trial_index":223,"plugin_version":"2.1.0","time_elapsed":336581,"subject_id":"93006","group":"Group2","condition":"1_Rep","full_date":"2026-01-28T18:05:37.953Z","date":"2026-01-28","time":"18:05:37","cor_ans":false},{"trial_type":"html-keyboard-response","rt":null,"stimulus":"<p style=\"color: red; font-size: 50px; font-weight: bold;\">Incorrect</p>","response":null,"trial_index":224,"plugin_version":"2.1.0","time_elapsed":337083,"subject_id":"93006","group":"Group2","condition":"1_Rep","full_date":"2026-01-28T18:05:37.953Z","date":"2026-01-28","time":"18:05:37"},{"correct_response":"a","task":"test_phase","broad_category":"M","i