[{"width":1470,"height":801,"webaudio":true,"browser":"chrome","browser_version":"145.0.0","mobile":false,"os":"Mac OS","fullscreen":true,"vsync_rate":60.01,"webcam":true,"microphone":true,"trial_type":"browser-check","trial_index":0,"plugin_version":"2.1.0","time_elapsed":1015,"subject_id":"91570","group":"Group2","condition":"1_Rep","full_date":"2026-02-27T19:28:06.320Z","date":"2026-02-27","time":"19:28:06"},{"success":true,"timeout":false,"failed_images":[],"failed_audio":[],"failed_video":[],"trial_type":"preload","trial_index":1,"plugin_version":"2.1.0","time_elapsed":3392,"subject_id":"91570","group":"Group2","condition":"1_Rep","full_date":"2026-02-27T19:28:06.320Z","date":"2026-02-27","time":"19:28:06"},{"rt":3342,"url":"SONA_consent_memorability.html","trial_type":"external-html","trial_index":2,"plugin_version":"2.1.0","time_elapsed":6790,"subject_id":"91570","group":"Group2","condition":"1_Rep","full_date":"2026-02-27T19:28:06.320Z","date":"2026-02-27","time":"19:28:06"},{"success":true,"rt":2147,"trial_type":"fullscreen","trial_index":3,"plugin_version":"2.1.0","time_elapsed":9942,"subject_id":"91570","group":"Group2","condition":"1_Rep","full_date":"2026-02-27T19:28:06.320Z","date":"2026-02-27","time":"19:28:06"},{"rt":1396,"stimulus":"<div style=\"max-width: 760px; margin: auto; font-size: 20px; line-height: 1.5;\">\n      <h1 style=\"text-align:center; font-size: 30px;\">Instructions</h1>\n      <p>\n        Welcome to the study on <b>visual memory</b>. This experiment consists of <b>two phases</b>: \n        a <b>study phase</b> and a <b>test phase</b>.\n      </p>\n      <p>\n        In the study phase, you will see a series of rock images along with their category labels.\n        The images will appear one at a time.\n        <b>Your task</b> is to learn the categories to which the rock images belong \n        and to remember each image as accurately as possible.\n      </p> \n      <p>\n        Note that you will see each image only <b>once</b> during the study phase. \n          So, please pay close attention and try to remember each image carefully.\n      </p>\n      <p>\n        After the study phase, <b>your memory will be tested</b>. \n        Additional instructions for the test phase will be provided at that time.\n      </p>\n      <p>\n        If your computer has multiple <b>language settings</b> (e.g., English and another language),\n        please make sure it is set to English before starting.\n      </p>\n      <p>\n        You can track your progress using the <b>completion bar</b> at the top of the screen. \n        Please note that the bar will refresh when the test phase begins \n        to give you an accurate sense of your progress in both phases.\n      </p> \n      <p>\n        Press the button below when you are ready to begin.\n      </p>\n    </div>","response":0,"trial_type":"html-button-response","trial_index":4,"plugin_version":"2.1.0","time_elapsed":11340,"subject_id":"91570","group":"Group2","condition":"1_Rep","full_date":"2026-02-27T19:28:06.320Z","date":"2026-02-27","time":"19:28:06"},{"rt":null,"stimulus":"<p style=\"font-size: 50px; margin: 0; text-align: center;\">+</p>","response":null,"trial_type":"html-keyboard-response","trial_index":5,"plugin_version":"2.1.0","time_elapsed":12343,"subject_id":"91570","group":"Group2","condition":"1_Rep","full_date":"2026-02-27T19:28:06.320Z","date":"2026-02-27","time":"19:28:06"},{"task":"memory_phase","broad_category":"M","image_png":"M_Marble_02.png","image_id":226,"category_name":"Marble","category":15,"distinct_rating":3.2,"distinct_type":"Bottom","rt":null,"stimulus":"Stimuli_Rocks480/M_Marble_02.png","response":null,"trial_type":"image-keyboard-response","trial_index":6,"plugin_version":"2.1.0","time_elapsed":14846,"subject_id":"91570","group":"Group2","condition":"1_Rep","full_date":"2026-02-27T19:28:06.320Z","date":"2026-02-27","time":"19:28:06"},{"rt":null,"stimulus":"<p style=\"font-size: 50px; margin: 0; text-align: center;\">+</p>","response":null,"trial_type":"html-keyboard-response","trial_index":7,"plugin_version":"2.1.0","time_elapsed":15849,"subject_id":"91570","group":"Group2","condition":"1_Rep","full_date":"2026-02-27T19:28:06.320Z","date":"2026-02-27","time":"19:28:06"},{"task":"memory_phase","broad_category":"M","image_png":"M_Quartzite_15.png","image_id":287,"category_name":"Quartzite","category":18,"distinct_rating":2.19,"distinct_type":"Bottom","rt":null,"stimulus":"Stimuli_Rocks480/M_Quartzite_15.png","response":null,"trial_type":"image-keyboard-response","trial_index":8,"plugin_version":"2.1.0","time_elapsed":18353,"subject_id":"91570","group":"Group2","condition":"1_Rep","full_date":"2026-02-27T19:28:06.320Z","date":"2026-02-27","time":"19:28:06"},{"rt":null,"stimulus":"<p style=\"font-size: 50px; margin: 0; text-align: center;\">+</p>","response":null,"trial_type":"html-keyboard-response","trial_index":9,"plugin_version":"2.1.0","time_elapsed":19356,"subject_id":"91570","group":"Group2","condition":"1_Rep","full_date":"2026-02-27T19:28:06.320Z","date":"2026-02-27","time":"19:28:06"},{"task":"memory_phase","broad_category":"M","image_png":"M_Gneiss_15.png","image_id":207,"category_name":"Gneiss","category":13,"distinct_rating":3.11,"distinct_type":"Bottom","rt":null,"stimulus":"Stimuli_Rocks480/M_Gneiss_15.png","response":null,"trial_type":"image-keyboard-response","trial_index":10,"plugin_version":"2.1.0","time_elapsed":21860,"subject_id":"91570","group":"Group2","condition":"1_Rep","full_date":"2026-02-27T19:28:06.320Z","date":"2026-02-27","time":"19:28:06"},{"rt":null,"stimulus":"<p style=\"font-size: 50px; margin: 0; text-align: center;\">+</p>","response":null,"trial_type":"html-keyboard-response","trial_index":11,"plugin_version":"2.1.0","time_elapsed":22863,"subject_id":"91570","group":"Group2","condition":"1_Rep","full_date":"2026-02-27T19:28:06.320Z","date":"2026-02-27","time":"19:28:06"},{"task":"memory_phase","broad_category":"I","image_png":"I_Pegmatite_03.png","image_id":99,"category_name":"Pegmatite","category":7,"distinct_rating":7.24,"distinct_type":"Top","rt":null,"stimulus":"Stimuli_Rocks480/I_Pegmatite_03.png","response":null,"trial_type":"image-keyboard-response","trial_index":12,"plugin_version":"2.1.0","time_elapsed":25366,"subject_id":"91570","group":"Group2","condition":"1_Rep","full_date":"2026-02-27T19:28:06.320Z","date":"2026-02-27","time":"19:28:06"},{"rt":null,"stimulus":"<p style=\"font-size: 50px; margin: 0; text-align: center;\">+</p>","response":null,"trial_type":"html-keyboard-response","trial_index":13,"plugin_version":"2.1.0","time_elapsed":26368,"subject_id":"91570","group":"Group2","condition":"1_Rep","full_date":"2026-02-27T19:28:06.320Z","date":"2026-02-27","time":"19:28:06"},{"task":"memory_phase","broad_category":"S","image_png":"S_Rock Salt_13.png","image_id":445,"category_name":"Rock Salt","category":28,"distinct_rating":7.58,"distinct_type":"Top","rt":null,"stimulus":"Stimuli_Rocks480/S_Rock Salt_13.png","response":null,"trial_type":"image-keyboard-response","trial_index":14,"plugin_version":"2.1.0","time_elapsed":28872,"subject_id":"91570","group":"Group2","condition":"1_Rep","full_date":"2026-02-27T19:28:06.320Z","date":"2026-02-27","time":"19:28:06"},{"rt":null,"stimulus":"<p style=\"font-size: 50px; margin: 0; text-align: center;\">+</p>","response":null,"trial_type":"html-keyboard-response","trial_index":15,"plugin_version":"2.1.0","time_elapsed":29874,"subject_id":"91570","group":"Group2","condition":"1_Rep","full_date":"2026-02-27T19:28:06.320Z","date":"2026-02-27","time":"19:28:06"},{"task":"memory_phase","broad_category":"M","image_png":"M_Quartzite_12.png","image_id":284,"category_name":"Quartzite","category":18,"distinct_rating":1.92,"distinct_type":"Bottom","rt":null,"stimulus":"Stimuli_Rocks480/M_Quartzite_12.png","response":null,"trial_type":"image-keyboard-response","trial_index":16,"plugin_version":"2.1.0","time_elapsed":32378,"subject_id":"91570","group":"Group2","condition":"1_Rep","full_date":"2026-02-27T19:28:06.320Z","date":"2026-02-27","time":"19:28:06"},{"rt":null,"stimulus":"<p style=\"font-size: 50px; margin: 0; text-align: center;\">+</p>","response":null,"trial_type":"html-keyboard-response","trial_index":17,"plugin_version":"2.1.0","time_elapsed":33380,"subject_id":"91570","group":"Group2","condition":"1_Rep","full_date":"2026-02-27T19:28:06.320Z","date":"2026-02-27","time":"19:28:06"},{"task":"memory_phase","broad_category":"M","image_png":"M_Gneiss_10.png","image_id":202,"category_name":"Gneiss","category":13,"distinct_rating":3.09,"distinct_type":"Bottom","rt":null,"stimulus":"Stimuli_Rocks480/M_Gneiss_10.png","response":null,"trial_type":"image-keyboard-response","trial_index":18,"plugin_version":"2.1.0","time_elapsed":35883,"subject_id":"91570","group":"Group2","condition":"1_Rep","full_date":"2026-02-27T19:28:06.320Z","date":"2026-02-27","time":"19:28:06"},{"rt":null,"stimulus":"<p style=\"font-size: 50px; margin: 0; text-align: center;\">+</p>","response":null,"trial_type":"html-keyboard-response","trial_index":19,"plugin_version":"2.1.0","time_elapsed":36886,"subject_id":"91570","group":"Group2","condition":"1_Rep","full_date":"2026-02-27T19:28:06.320Z","date":"2026-02-27","time":"19:28:06"},{"task":"memory_phase","broad_category":"I","image_png":"I_Diorite_15.png","image_id":47,"category_name":"Diorite","category":3,"distinct_rating":3.05,"distinct_type":"Bottom","rt":null,"stimulus":"Stimuli_Rocks480/I_Diorite_15.png","response":null,"trial_type":"image-keyboard-response","trial_index":20,"plugin_version":"2.1.0","time_elapsed":39389,"subject_id":"91570","group":"Group2","condition":"1_Rep","full_date":"2026-02-27T19:28:06.320Z","date":"2026-02-27","time":"19:28:06"},{"rt":null,"stimulus":"<p style=\"font-size: 50px; margin: 0; text-align: center;\">+</p>","response":null,"trial_type":"html-keyboard-response","trial_index":21,"plugin_version":"2.1.0","time_elapsed":40392,"subject_id":"91570","group":"Group2","condition":"1_Rep","full_date":"2026-02-27T19:28:06.320Z","date":"2026-02-27","time":"19:28:06"},{"task":"memory_phase","broad_category":"M","image_png":"M_Marble_14.png","image_id":238,"category_name":"Marble","category":15,"distinct_rating":3.31,"distinct_type":"Bottom","rt":null,"stimulus":"Stimuli_Rocks480/M_Marble_14.png","response":null,"trial_type":"image-keyboard-response","trial_index":22,"plugin_version":"2.1.0","time_elapsed":42895,"subject_id":"91570","group":"Group2","condition":"1_Rep","full_date":"2026-02-27T19:28:06.320Z","date":"2026-02-27","time":"19:28:06"},{"rt":null,"stimulus":"<p style=\"font-size: 50px; margin: 0; text-align: center;\">+</p>","response":null,"trial_type":"html-keyboard-response","trial_index":23,"plugin_version":"2.1.0","time_elapsed":43898,"subject_id":"91570","group":"Group2","condition":"1_Rep","full_date":"2026-02-27T19:28:06.320Z","date":"2026-02-27","time":"19:28:06"},{"task":"memory_phase","broad_category":"S","image_png":"S_Conglomerate_14.png","image_id":382,"category_name":"Conglomerate","category":24,"distinct_rating":6.86,"distinct_type":"Top","rt":null,"stimulus":"Stimuli_Rocks480/S_Conglomerate_14.png","response":null,"trial_type":"image-keyboard-response","trial_index":24,"plugin_version":"2.1.0","time_elapsed":46400,"subject_id":"91570","group":"Group2","condition":"1_Rep","full_date":"2026-02-27T19:28:06.320Z","date":"2026-02-27","time":"19:28:06"},{"rt":null,"stimulus":"<p style=\"font-size: 50px; margin: 0; text-align: center;\">+</p>","response":null,"trial_type":"html-keyboard-response","trial_index":25,"plugin_version":"2.1.0","time_elapsed":47403,"subject_id":"91570","group":"Group2","condition":"1_Rep","full_date":"2026-02-27T19:28:06.320Z","date":"2026-02-27","time":"19:28:06"},{"task":"memory_phase","broad_category":"I","image_png":"I_Peridotite_13.png","image_id":125,"category_name":"Peridotite","category":8,"distinct_rating":7.28,"distinct_type":"Top","rt":null,"stimulus":"Stimuli_Rocks480/I_Peridotite_13.png","response":null,"trial_type":"image-keyboard-response","trial_index":26,"plugin_version":"2.1.0","time_elapsed":49906,"subject_id":"91570","group":"Group2","condition":"1_Rep","full_date":"2026-02-27T19:28:06.320Z","date":"2026-02-27","time":"19:28:06"},{"rt":null,"stimulus":"<p style=\"font-size: 50px; margin: 0; text-align: center;\">+</p>","response":null,"trial_type":"html-keyboard-response","trial_index":27,"plugin_version":"2.1.0","time_elapsed":50908,"subject_id":"91570","group":"Group2","condition":"1_Rep","full_date":"2026-02-27T19:28:06.320Z","date":"2026-02-27","time":"19:28:06"},{"task":"memory_phase","broad_category":"I","image_png":"I_Gabbro_12.png","image_id":60,"category_name":"Gabbro","category":4,"distinct_rating":2.6,"distinct_type":"Bottom","rt":null,"stimulus":"Stimuli_Rocks480/I_Gabbro_12.png","response":null,"trial_type":"image-keyboard-response","trial_index":28,"plugin_version":"2.1.0","time_elapsed":53412,"subject_id":"91570","group":"Group2","condition":"1_Rep","full_date":"2026-02-27T19:28:06.320Z","date":"2026-02-27","time":"19:28:06"},{"rt":null,"stimulus":"<p style=\"font-size: 50px; margin: 0; text-align: center;\">+</p>","response":null,"trial_type":"html-keyboard-response","trial_index":29,"plugin_version":"2.1.0","time_elapsed":54414,"subject_id":"91570","group":"Group2","condition":"1_Rep","full_date":"2026-02-27T19:28:06.320Z","date":"2026-02-27","time":"19:28:06"},{"task":"memory_phase","broad_category":"S","image_png":"S_Sandstone_11.png","image_id":459,"category_name":"Sandstone","category":29,"distinct_rating":1.82,"distinct_type":"Bottom","rt":null,"stimulus":"Stimuli_Rocks480/S_Sandstone_11.png","response":null,"trial_type":"image-keyboard-response","trial_index":30,"plugin_version":"2.1.0","time_elapsed":56918,"subject_id":"91570","group":"Group2","condition":"1_Rep","full_date":"2026-02-27T19:28:06.320Z","date":"2026-02-27","time":"19:28:06"},{"rt":null,"stimulus":"<p style=\"font-size: 50px; margin: 0; text-align: center;\">+</p>","response":null,"trial_type":"html-keyboard-response","trial_index":31,"plugin_version":"2.1.0","time_elapsed":57920,"subject_id":"91570","group":"Group2","condition":"1_Rep","full_date":"2026-02-27T19:28:06.320Z","date":"2026-02-27","time":"19:28:06"},{"task":"memory_phase","broad_category":"M","image_png":"M_Slate_10.png","image_id":314,"category_name":"Slate","category":20,"distinct_rating":1.94,"distinct_type":"Bottom","rt":null,"stimulus":"Stimuli_Rocks480/M_Slate_10.png","response":null,"trial_type":"image-keyboard-response","trial_index":32,"plugin_version":"2.1.0","time_elapsed":60423,"subject_id":"91570","group":"Group2","condition":"1_Rep","full_date":"2026-02-27T19:28:06.320Z","date":"2026-02-27","time":"19:28:06"},{"rt":null,"stimulus":"<p style=\"font-size: 50px; margin: 0; text-align: center;\">+</p>","response":null,"trial_type":"html-keyboard-response","trial_index":33,"plugin_version":"2.1.0","time_elapsed":61425,"subject_id":"91570","group":"Group2","condition":"1_Rep","full_date":"2026-02-27T19:28:06.320Z","date":"2026-02-27","time":"19:28:06"},{"task":"memory_phase","broad_category":"M","image_png":"M_Slate_14.png","image_id":318,"category_name":"Slate","category":20,"distinct_rating":2.58,"distinct_type":"Bottom","rt":null,"stimulus":"Stimuli_Rocks480/M_Slate_14.png","response":null,"trial_type":"image-keyboard-response","trial_index":34,"plugin_version":"2.1.0","time_elapsed":63929,"subject_id":"91570","group":"Group2","condition":"1_Rep","full_date":"2026-02-27T19:28:06.320Z","date":"2026-02-27","time":"19:28:06"},{"rt":null,"stimulus":"<p style=\"font-size: 50px; margin: 0; text-align: center;\">+</p>","response":null,"trial_type":"html-keyboard-response","trial_index":35,"plugin_version":"2.1.0","time_elapsed":64931,"subject_id":"91570","group":"Group2","condition":"1_Rep","full_date":"2026-02-27T19:28:06.320Z","date":"2026-02-27","time":"19:28:06"},{"task":"memory_phase","broad_category":"M","image_png":"M_Phyllite_05.png","image_id":261,"category_name":"Phyllite","category":17,"distinct_rating":2.14,"distinct_type":"Bottom","rt":null,"stimulus":"Stimuli_Rocks480/M_Phyllite_05.png","response":null,"trial_type":"image-keyboard-response","trial_index":36,"plugin_version":"2.1.0","time_elapsed":67433,"subject_id":"91570","group":"Group2","condition":"1_Rep","full_date":"2026-02-27T19:28:06.320Z","date":"2026-02-27","time":"19:28:06"},{"rt":null,"stimulus":"<p style=\"font-size: 50px; margin: 0; text-align: center;\">+</p>","response":null,"trial_type":"html-keyboard-response","trial_index":37,"plugin_version":"2.1.0","time_elapsed":68435,"subject_id":"91570","group":"Group2","condition":"1_Rep","full_date":"2026-02-27T19:28:06.320Z","date":"2026-02-27","time":"19:28:06"},{"task":"memory_phase","broad_category":"S","image_png":"S_Sandstone_04.png","image_id":452,"category_name":"Sandstone","category":29,"distinct_rating":1.8,"distinct_type":"Bottom","rt":null,"stimulus":"Stimuli_Rocks480/S_Sandstone_04.png","response":null,"trial_type":"image-keyboard-response","trial_index":38,"plugin_version":"2.1.0","time_elapsed":70938,"subject_id":"91570","group":"Group2","condition":"1_Rep","full_date":"2026-02-27T19:28:06.320Z","date":"2026-02-27","time":"19:28:06"},{"rt":null,"stimulus":"<p style=\"font-size: 50px; margin: 0; text-align: center;\">+</p>","response":null,"trial_type":"html-keyboard-response","trial_index":39,"plugin_version":"2.1.0","time_elapsed":71940,"subject_id":"91570","group":"Group2","condition":"1_Rep","full_date":"2026-02-27T19:28:06.320Z","date":"2026-02-27","time":"19:28:06"},{"task":"memory_phase","broad_category":"S","image_png":"S_Sandstone_08.png","image_id":456,"category_name":"Sandstone","category":29,"distinct_rating":1.5,"distinct_type":"Bottom","rt":null,"stimulus":"Stimuli_Rocks480/S_Sandstone_08.png","response":null,"trial_type":"image-keyboard-response","trial_index":40,"plugin_version":"2.1.0","time_elapsed":74443,"subject_id":"91570","group":"Group2","condition":"1_Rep","full_date":"2026-02-27T19:28:06.320Z","date":"2026-02-27","time":"19:28:06"},{"rt":null,"stimulus":"<p style=\"font-size: 50px; margin: 0; text-align: center;\">+</p>","response":null,"trial_type":"html-keyboard-response","trial_index":41,"plugin_version":"2.1.0","time_elapsed":75446,"subject_id":"91570","group":"Group2","condition":"1_Rep","full_date":"2026-02-27T19:28:06.320Z","date":"2026-02-27","time":"19:28:06"},{"task":"memory_phase","broad_category":"S","image_png":"S_Dolomite_16.png","image_id":400,"category_name":"Dolomite","category":25,"distinct_rating":1.71,"distinct_type":"Bottom","rt":null,"stimulus":"Stimuli_Rocks480/S_Dolomite_16.png","response":null,"trial_type":"image-keyboard-response","trial_index":42,"plugin_version":"2.1.0","time_elapsed":77949,"subject_id":"91570","group":"Group2","condition":"1_Rep","full_date":"2026-02-27T19:28:06.320Z","date":"2026-02-27","time":"19:28:06"},{"rt":null,"stimulus":"<p style=\"font-size: 50px; margin: 0; text-align: center;\">+</p>","response":null,"trial_type":"html-keyboard-response","trial_index":43,"plugin_version":"2.1.0","time_elapsed":78952,"subject_id":"91570","group":"Group2","condition":"1_Rep","full_date":"2026-02-27T19:28:06.320Z","date":"2026-02-27","time":"19:28:06"},{"task":"memory_phase","broad_category":"I","image_png":"I_Pumice_14.png","image_id":142,"category_name":"Pumice","category":9,"distinct_rating":3.22,"distinct_type":"Bottom","rt":null,"stimulus":"Stimuli_Rocks480/I_Pumice_14.png","response":null,"trial_type":"image-keyboard-response","trial_index":44,"plugin_version":"2.1.0","time_elapsed":81456,"subject_id":"91570","group":"Group2","condition":"1_Rep","full_date":"2026-02-27T19:28:06.320Z","date":"2026-02-27","time":"19:28:06"},{"rt":null,"stimulus":"<p style=\"font-size: 50px; margin: 0; text-align: center;\">+</p>","response":null,"trial_type":"html-keyboard-response","trial_index":45,"plugin_version":"2.1.0","time_elapsed":82458,"subject_id":"91570","group":"Group2","condition":"1_Rep","full_date":"2026-02-27T19:28:06.320Z","date":"2026-02-27","time":"19:28:06"},{"task":"memory_phase","broad_category":"S","image_png":"S_Dolomite_01.png","image_id":385,"category_name":"Dolomite","category":25,"distinct_rating":1.43,"distinct_type":"Bottom","rt":null,"stimulus":"Stimuli_Rocks480/S_Dolomite_01.png","response":null,"trial_type":"image-keyboard-response","trial_index":46,"plugin_version":"2.1.0","time_elapsed":84962,"subject_id":"91570","group":"Group2","condition":"1_Rep","full_date":"2026-02-27T19:28:06.320Z","date":"2026-02-27","time":"19:28:06"},{"rt":null,"stimulus":"<p style=\"font-size: 50px; margin: 0; text-align: center;\">+</p>","response":null,"trial_type":"html-keyboard-response","trial_index":47,"plugin_version":"2.1.0","time_elapsed":85964,"subject_id":"91570","group":"Group2","condition":"1_Rep","full_date":"2026-02-27T19:28:06.320Z","date":"2026-02-27","time":"19:28:06"},{"task":"memory_phase","broad_category":"I","image_png":"I_Basalt_10.png","image_id":26,"category_name":"Basalt","category":2,"distinct_rating":2.76,"distinct_type":"Bottom","rt":null,"stimulus":"Stimuli_Rocks480/I_Basalt_10.png","response":null,"trial_type":"image-keyboard-response","trial_index":48,"plugin_version":"2.1.0","time_elapsed":88467,"subject_id":"91570","group":"Group2","condition":"1_Rep","full_date":"2026-02-27T19:28:06.320Z","date":"2026-02-27","time":"19:28:06"},{"rt":null,"stimulus":"<p style=\"font-size: 50px; margin: 0; text-align: center;\">+</p>","response":null,"trial_type":"html-keyboard-response","trial_index":49,"plugin_version":"2.1.0","time_elapsed":89469,"subject_id":"91570","group":"Group2","condition":"1_Rep","full_date":"2026-02-27T19:28:06.320Z","date":"2026-02-27","time":"19:28:06"},{"task":"memory_phase","broad_category":"I","image_png":"I_Diorite_10.png","image_id":42,"category_name":"Diorite","category":3,"distinct_rating":2.84,"distinct_type":"Bottom","rt":null,"stimulus":"Stimuli_Rocks480/I_Diorite_10.png","response":null,"trial_type":"image-keyboard-response","trial_index":50,"plugin_version":"2.1.0","time_elapsed":91972,"subject_id":"91570","group":"Group2","condition":"1_Rep","full_date":"2026-02-27T19:28:06.320Z","date":"2026-02-27","time":"19:28:06"},{"rt":null,"stimulus":"<p style=\"font-size: 50px; margin: 0; text-align: center;\">+</p>","response":null,"trial_type":"html-keyboard-response","trial_index":51,"plugin_version":"2.1.0","time_elapsed":92974,"subject_id":"91570","group":"Group2","condition":"1_Rep","full_date":"2026-02-27T19:28:06.320Z","date":"2026-02-27","time":"19:28:06"},{"task":"memory_phase","broad_category":"I","image_png":"I_Andesite_04.png","image_id":4,"category_name":"Andesite","category":1,"distinct_rating":3.18,"distinct_type":"Bottom","rt":null,"stimulus":"Stimuli_Rocks480/I_Andesite_04.png","response":null,"trial_type":"image-keyboard-response","trial_index":52,"plugin_version":"2.1.0","time_elapsed":95478,"subject_id":"91570","group":"Group2","condition":"1_Rep","full_date":"2026-02-27T19:28:06.320Z","date":"2026-02-27","time":"19:28:06"},{"rt":null,"stimulus":"<p style=\"font-size: 50px; margin: 0; text-align: center;\">+</p>","response":null,"trial_type":"html-keyboard-response","trial_index":53,"plugin_version":"2.1.0","time_elapsed":96481,"subject_id":"91570","group":"Group2","condition":"1_Rep","full_date":"2026-02-27T19:28:06.320Z","date":"2026-02-27","time":"19:28:06"},{"task":"memory_phase","broad_category":"I","image_png":"I_Basalt_08.png","image_id":24,"category_name":"Basalt","category":2,"distinct_rating":2.31,"distinct_type":"Bottom","rt":null,"stimulus":"Stimuli_Rocks480/I_Basalt_08.png","response":null,"trial_type":"image-keyboard-response","trial_index":54,"plugin_version":"2.1.0","time_elapsed":98984,"subject_id":"91570","group":"Group2","condition":"1_Rep","full_date":"2026-02-27T19:28:06.320Z","date":"2026-02-27","time":"19:28:06"},{"rt":20114,"stimulus":"<p style=\"max-width: 760px; margin: auto; font-size: 35px; line-height: 1.5;\">\n                Press SPACE to continue study phase\n              </p>","response":" ","trial_type":"html-keyboard-response","trial_index":55,"plugin_version":"2.1.0","time_elapsed":119100,"subject_id":"91570","group":"Group2","condition":"1_Rep","full_date":"2026-02-27T19:28:06.320Z","date":"2026-02-27","time":"19:28:06"},{"rt":null,"stimulus":"<p style=\"font-size: 50px; margin: 0; text-align: center;\">+</p>","response":null,"trial_type":"html-keyboard-response","trial_index":56,"plugin_version":"2.1.0","time_elapsed":120102,"subject_id":"91570","group":"Group2","condition":"1_Rep","full_date":"2026-02-27T19:28:06.320Z","date":"2026-02-27","time":"19:28:06"},{"task":"memory_phase","broad_category":"M","image_png":"M_Quartzite_07.png","image_id":279,"category_name":"Quartzite","category":18,"distinct_rating":1.97,"distinct_type":"Bottom","rt":null,"stimulus":"Stimuli_Rocks480/M_Quartzite_07.png","response":null,"trial_type":"image-keyboard-response","trial_index":57,"plugin_version":"2.1.0","time_elapsed":122606,"subject_id":"91570","group":"Group2","condition":"1_Rep","full_date":"2026-02-27T19:28:06.320Z","date":"2026-02-27","time":"19:28:06"},{"rt":null,"stimulus":"<p style=\"font-size: 50px; margin: 0; text-align: center;\">+</p>","response":null,"trial_type":"html-keyboard-response","trial_index":58,"plugin_version":"2.1.0","time_elapsed":123608,"subject_id":"91570","group":"Group2","condition":"1_Rep","full_date":"2026-02-27T19:28:06.320Z","date":"2026-02-27","time":"19:28:06"},{"task":"memory_phase","broad_category":"M","image_png":"M_Slate_04.png","image_id":308,"category_name":"Slate","category":20,"distinct_rating":2.2,"distinct_type":"Bottom","rt":null,"stimulus":"Stimuli_Rocks480/M_Slate_04.png","response":null,"trial_type":"image-keyboard-response","trial_index":59,"plugin_version":"2.1.0","time_elapsed":126111,"subject_id":"91570","group":"Group2","condition":"1_Rep","full_date":"2026-02-27T19:28:06.320Z","date":"2026-02-27","time":"19:28:06"},{"rt":null,"stimulus":"<p style=\"font-size: 50px; margin: 0; text-align: center;\">+</p>","response":null,"trial_type":"html-keyboard-response","trial_index":60,"plugin_version":"2.1.0","time_elapsed":127112,"subject_id":"91570","group":"Group2","condition":"1_Rep","full_date":"2026-02-27T19:28:06.320Z","date":"2026-02-27","time":"19:28:06"},{"task":"memory_phase","broad_category":"M","image_png":"M_Phyllite_02.png","image_id":258,"category_name":"Phyllite","category":17,"distinct_rating":2.89,"distinct_type":"Bottom","rt":null,"stimulus":"Stimuli_Rocks480/M_Phyllite_02.png","response":null,"trial_type":"image-keyboard-response","trial_index":61,"plugin_version":"2.1.0","time_elapsed":129616,"subject_id":"91570","group":"Group2","condition":"1_Rep","full_date":"2026-02-27T19:28:06.320Z","date":"2026-02-27","time":"19:28:06"},{"rt":null,"stimulus":"<p style=\"font-size: 50px; margin: 0; text-align: center;\">+</p>","response":null,"trial_type":"html-keyboard-response","trial_index":62,"plugin_version":"2.1.0","time_elapsed":130619,"subject_id":"91570","group":"Group2","condition":"1_Rep","full_date":"2026-02-27T19:28:06.320Z","date":"2026-02-27","time":"19:28:06"},{"task":"memory_phase","broad_category":"I","image_png":"I_Gabbro_14.png","image_id":62,"category_name":"Gabbro","category":4,"distinct_rating":2.95,"distinct_type":"Bottom","rt":null,"stimulus":"Stimuli_Rocks480/I_Gabbro_14.png","response":null,"trial_type":"image-keyboard-response","trial_index":63,"plugin_version":"2.1.0","time_elapsed":133126,"subject_id":"91570","group":"Group2","condition":"1_Rep","full_date":"2026-02-27T19:28:06.320Z","date":"2026-02-27","time":"19:28:06"},{"rt":null,"stimulus":"<p style=\"font-size: 50px; margin: 0; text-align: center;\">+</p>","response":null,"trial_type":"html-keyboard-response","trial_index":64,"plugin_version":"2.1.0","time_elapsed":134129,"subject_id":"91570","group":"Group2","condition":"1_Rep","full_date":"2026-02-27T19:28:06.320Z","date":"2026-02-27","time":"19:28:06"},{"task":"memory_phase","broad_category":"S","image_png":"S_Shale_02.png","image_id":466,"category_name":"Shale","category":30,"distinct_rating":2.9,"distinct_type":"Bottom","rt":null,"stimulus":"Stimuli_Rocks480/S_Shale_02.png","response":null,"trial_type":"image-keyboard-response","trial_index":65,"plugin_version":"2.1.0","time_elapsed":136632,"subject_id":"91570","group":"Group2","condition":"1_Rep","full_date":"2026-02-27T19:28:06.320Z","date":"2026-02-27","time":"19:28:06"},{"rt":null,"stimulus":"<p style=\"font-size: 50px; margin: 0; text-align: center;\">+</p>","response":null,"trial_type":"html-keyboard-response","trial_index":66,"plugin_version":"2.1.0","time_elapsed":137634,"subject_id":"91570","group":"Group2","condition":"1_Rep","full_date":"2026-02-27T19:28:06.320Z","date":"2026-02-27","time":"19:28:06"},{"task":"memory_phase","broad_category":"S","image_png":"S_Rock Salt_15.png","image_id":447,"category_name":"Rock Salt","category":28,"distinct_rating":7.79,"distinct_type":"Top","rt":null,"stimulus":"Stimuli_Rocks480/S_Rock Salt_15.png","response":null,"trial_type":"image-keyboard-response","trial_index":67,"plugin_version":"2.1.0","time_elapsed":140138,"subject_id":"91570","group":"Group2","condition":"1_Rep","full_date":"2026-02-27T19:28:06.320Z","date":"2026-02-27","time":"19:28:06"},{"rt":null,"stimulus":"<p style=\"font-size: 50px; margin: 0; text-align: center;\">+</p>","response":null,"trial_type":"html-keyboard-response","trial_index":68,"plugin_version":"2.1.0","time_elapsed":141140,"subject_id":"91570","group":"Group2","condition":"1_Rep","full_date":"2026-02-27T19:28:06.320Z","date":"2026-02-27","time":"19:28:06"},{"task":"memory_phase","broad_category":"M","image_png":"M_Phyllite_13.png","image_id":269,"category_name":"Phyllite","category":17,"distinct_rating":2.8,"distinct_type":"Bottom","rt":null,"stimulus":"Stimuli_Rocks480/M_Phyllite_13.png","response":null,"trial_type":"image-keyboard-response","trial_index":69,"plugin_version":"2.1.0","time_elapsed":143644,"subject_id":"91570","group":"Group2","condition":"1_Rep","full_date":"2026-02-27T19:28:06.320Z","date":"2026-02-27","time":"19:28:06"},{"rt":null,"stimulus":"<p style=\"font-size: 50px; margin: 0; text-align: center;\">+</p>","response":null,"trial_type":"html-keyboard-response","trial_index":70,"plugin_version":"2.1.0","time_elapsed":144646,"subject_id":"91570","group":"Group2","condition":"1_Rep","full_date":"2026-02-27T19:28:06.320Z","date":"2026-02-27","time":"19:28:06"},{"task":"memory_phase","broad_category":"I","image_png":"I_Diorite_01.png","image_id":33,"category_name":"Diorite","category":3,"distinct_rating":2.97,"distinct_type":"Bottom","rt":null,"stimulus":"Stimuli_Rocks480/I_Diorite_01.png","response":null,"trial_type":"image-keyboard-response","trial_index":71,"plugin_version":"2.1.0","time_elapsed":147149,"subject_id":"91570","group":"Group2","condition":"1_Rep","full_date":"2026-02-27T19:28:06.320Z","date":"2026-02-27","time":"19:28:06"},{"rt":null,"stimulus":"<p style=\"font-size: 50px; margin: 0; text-align: center;\">+</p>","response":null,"trial_type":"html-keyboard-response","trial_index":72,"plugin_version":"2.1.0","time_elapsed":148152,"subject_id":"91570","group":"Group2","condition":"1_Rep","full_date":"2026-02-27T19:28:06.320Z","date":"2026-02-27","time":"19:28:06"},{"task":"memory_phase","broad_category":"I","image_png":"I_Andesite_03.png","image_id":3,"category_name":"Andesite","category":1,"distinct_rating":3.17,"distinct_type":"Bottom","rt":null,"stimulus":"Stimuli_Rocks480/I_Andesite_03.png","response":null,"trial_type":"image-keyboard-response","trial_index":73,"plugin_version":"2.1.0","time_elapsed":150655,"subject_id":"91570","group":"Group2","condition":"1_Rep","full_date":"2026-02-27T19:28:06.320Z","date":"2026-02-27","time":"19:28:06"},{"rt":null,"stimulus":"<p style=\"font-size: 50px; margin: 0; text-align: center;\">+</p>","response":null,"trial_type":"html-keyboard-response","trial_index":74,"plugin_version":"2.1.0","time_elapsed":151658,"subject_id":"91570","group":"Group2","condition":"1_Rep","full_date":"2026-02-27T19:28:06.320Z","date":"2026-02-27","time":"19:28:06"},{"task":"memory_phase","broad_category":"S","image_png":"S_Dolomite_07.png","image_id":391,"category_name":"Dolomite","category":25,"distinct_rating":1.73,"distinct_type":"Bottom","rt":null,"stimulus":"Stimuli_Rocks480/S_Dolomite_07.png","response":null,"trial_type":"image-keyboard-response","trial_index":75,"plugin_version":"2.1.0","time_elapsed":154161,"subject_id":"91570","group":"Group2","condition":"1_Rep","full_date":"2026-02-27T19:28:06.320Z","date":"2026-02-27","time":"19:28:06"},{"rt":null,"stimulus":"<p style=\"font-size: 50px; margin: 0; text-align: center;\">+</p>","response":null,"trial_type":"html-keyboard-response","trial_index":76,"plugin_version":"2.1.0","time_elapsed":155163,"subject_id":"91570","group":"Group2","condition":"1_Rep","full_date":"2026-02-27T19:28:06.320Z","date":"2026-02-27","time":"19:28:06"},{"task":"memory_phase","broad_category":"I","image_png":"I_Basalt_13.png","image_id":29,"category_name":"Basalt","category":2,"distinct_rating":2.68,"distinct_type":"Bottom","rt":null,"stimulus":"Stimuli_Rocks480/I_Basalt_13.png","response":null,"trial_type":"image-keyboard-response","trial_index":77,"plugin_version":"2.1.0","time_elapsed":157667,"subject_id":"91570","group":"Group2","condition":"1_Rep","full_date":"2026-02-27T19:28:06.320Z","date":"2026-02-27","time":"19:28:06"},{"rt":null,"stimulus":"<p style=\"font-size: 50px; margin: 0; text-align: center;\">+</p>","response":null,"trial_type":"html-keyboard-response","trial_index":78,"plugin_version":"2.1.0","time_elapsed":158669,"subject_id":"91570","group":"Group2","condition":"1_Rep","full_date":"2026-02-27T19:28:06.320Z","date":"2026-02-27","time":"19:28:06"},{"task":"memory_phase","broad_category":"I","image_png":"I_Obsidian_06.png","image_id":86,"category_name":"Obsidian","category":6,"distinct_rating":8.01,"distinct_type":"Top","rt":null,"stimulus":"Stimuli_Rocks480/I_Obsidian_06.png","response":null,"trial_type":"image-keyboard-response","trial_index":79,"plugin_version":"2.1.0","time_elapsed":161172,"subject_id":"91570","group":"Group2","condition":"1_Rep","full_date":"2026-02-27T19:28:06.320Z","date":"2026-02-27","time":"19:28:06"},{"rt":null,"stimulus":"<p style=\"font-size: 50px; margin: 0; text-align: center;\">+</p>","response":null,"trial_type":"html-keyboard-response","trial_index":80,"plugin_version":"2.1.0","time_elapsed":162175,"subject_id":"91570","group":"Group2","condition":"1_Rep","full_date":"2026-02-27T19:28:06.320Z","date":"2026-02-27","time":"19:28:06"},{"task":"memory_phase","broad_category":"I","image_png":"I_Pumice_13.png","image_id":141,"category_name":"Pumice","category":9,"distinct_rating":3.12,"distinct_type":"Bottom","rt":null,"stimulus":"Stimuli_Rocks480/I_Pumice_13.png","response":null,"trial_type":"image-keyboard-response","trial_index":81,"plugin_version":"2.1.0","time_elapsed":164678,"subject_id":"91570","group":"Group2","condition":"1_Rep","full_date":"2026-02-27T19:28:06.320Z","date":"2026-02-27","time":"19:28:06"},{"rt":null,"stimulus":"<p style=\"font-size: 50px; margin: 0; text-align: center;\">+</p>","response":null,"trial_type":"html-keyboard-response","trial_index":82,"plugin_version":"2.1.0","time_elapsed":165681,"subject_id":"91570","group":"Group2","condition":"1_Rep","full_date":"2026-02-27T19:28:06.320Z","date":"2026-02-27","time":"19:28:06"},{"task":"memory_phase","broad_category":"S","image_png":"S_Shale_07.png","image_id":471,"category_name":"Shale","category":30,"distinct_rating":2.73,"distinct_type":"Bottom","rt":null,"stimulus":"Stimuli_Rocks480/S_Shale_07.png","response":null,"trial_type":"image-keyboard-response","trial_index":83,"plugin_version":"2.1.0","time_elapsed":168185,"subject_id":"91570","group":"Group2","condition":"1_Rep","full_date":"2026-02-27T19:28:06.320Z","date":"2026-02-27","time":"19:28:06"},{"rt":null,"stimulus":"<p style=\"font-size: 50px; margin: 0; text-align: center;\">+</p>","response":null,"trial_type":"html-keyboard-response","trial_index":84,"plugin_version":"2.1.0","time_elapsed":169187,"subject_id":"91570","group":"Group2","condition":"1_Rep","full_date":"2026-02-27T19:28:06.320Z","date":"2026-02-27","time":"19:28:06"},{"task":"memory_phase","broad_category":"I","image_png":"I_Pegmatite_11.png","image_id":107,"category_name":"Pegmatite","category":7,"distinct_rating":7.11,"distinct_type":"Top","rt":null,"stimulus":"Stimuli_Rocks480/I_Pegmatite_11.png","response":null,"trial_type":"image-keyboard-response","trial_index":85,"plugin_version":"2.1.0","time_elapsed":171690,"subject_id":"91570","group":"Group2","condition":"1_Rep","full_date":"2026-02-27T19:28:06.320Z","date":"2026-02-27","time":"19:28:06"},{"rt":null,"stimulus":"<p style=\"font-size: 50px; margin: 0; text-align: center;\">+</p>","response":null,"trial_type":"html-keyboard-response","trial_index":86,"plugin_version":"2.1.0","time_elapsed":172692,"subject_id":"91570","group":"Group2","condition":"1_Rep","full_date":"2026-02-27T19:28:06.320Z","date":"2026-02-27","time":"19:28:06"},{"task":"memory_phase","broad_category":"I","image_png":"I_Andesite_09.png","image_id":9,"category_name":"Andesite","category":1,"distinct_rating":2.49,"distinct_type":"Bottom","rt":null,"stimulus":"Stimuli_Rocks480/I_Andesite_09.png","response":null,"trial_type":"image-keyboard-response","trial_index":87,"plugin_version":"2.1.0","time_elapsed":175196,"subject_id":"91570","group":"Group2","condition":"1_Rep","full_date":"2026-02-27T19:28:06.320Z","date":"2026-02-27","time":"19:28:06"},{"rt":null,"stimulus":"<p style=\"font-size: 50px; margin: 0; text-align: center;\">+</p>","response":null,"trial_type":"html-keyboard-response","trial_index":88,"plugin_version":"2.1.0","time_elapsed":176198,"subject_id":"91570","group":"Group2","condition":"1_Rep","full_date":"2026-02-27T19:28:06.320Z","date":"2026-02-27","time":"19:28:06"},{"task":"memory_phase","broad_category":"I","image_png":"I_Gabbro_02.png","image_id":50,"category_name":"Gabbro","category":4,"distinct_rating":2.73,"distinct_type":"Bottom","rt":null,"stimulus":"Stimuli_Rocks480/I_Gabbro_02.png","response":null,"trial_type":"image-keyboard-response","trial_index":89,"plugin_version":"2.1.0","time_elapsed":178701,"subject_id":"91570","group":"Group2","condition":"1_Rep","full_date":"2026-02-27T19:28:06.320Z","date":"2026-02-27","time":"19:28:06"},{"rt":null,"stimulus":"<p style=\"font-size: 50px; margin: 0; text-align: center;\">+</p>","response":null,"trial_type":"html-keyboard-response","trial_index":90,"plugin_version":"2.1.0","time_elapsed":179704,"subject_id":"91570","group":"Group2","condition":"1_Rep","full_date":"2026-02-27T19:28:06.320Z","date":"2026-02-27","time":"19:28:06"},{"task":"memory_phase","broad_category":"I","image_png":"I_Pumice_01.png","image_id":129,"category_name":"Pumice","category":9,"distinct_rating":3.25,"distinct_type":"Bottom","rt":null,"stimulus":"Stimuli_Rocks480/I_Pumice_01.png","response":null,"trial_type":"image-keyboard-response","trial_index":91,"plugin_version":"2.1.0","time_elapsed":182207,"subject_id":"91570","group":"Group2","condition":"1_Rep","full_date":"2026-02-27T19:28:06.320Z","date":"2026-02-27","time":"19:28:06"},{"rt":null,"stimulus":"<p style=\"font-size: 50px; margin: 0; text-align: center;\">+</p>","response":null,"trial_type":"html-keyboard-response","trial_index":92,"plugin_version":"2.1.0","time_elapsed":183209,"subject_id":"91570","group":"Group2","condition":"1_Rep","full_date":"2026-02-27T19:28:06.320Z","date":"2026-02-27","time":"19:28:06"},{"task":"memory_phase","broad_category":"I","image_png":"I_Rhyolite_10.png","image_id":154,"category_name":"Rhyolite","category":10,"distinct_rating":2.88,"distinct_type":"Bottom","rt":null,"stimulus":"Stimuli_Rocks480/I_Rhyolite_10.png","response":null,"trial_type":"image-keyboard-response","trial_index":93,"plugin_version":"2.1.0","time_elapsed":185712,"subject_id":"91570","group":"Group2","condition":"1_Rep","full_date":"2026-02-27T19:28:06.320Z","date":"2026-02-27","time":"19:28:06"},{"rt":null,"stimulus":"<p style=\"font-size: 50px; margin: 0; text-align: center;\">+</p>","response":null,"trial_type":"html-keyboard-response","trial_index":94,"plugin_version":"2.1.0","time_elapsed":186715,"subject_id":"91570","group":"Group2","condition":"1_Rep","full_date":"2026-02-27T19:28:06.320Z","date":"2026-02-27","time":"19:28:06"},{"task":"memory_phase","broad_category":"I","image_png":"I_Rhyolite_05.png","image_id":149,"category_name":"Rhyolite","category":10,"distinct_rating":3.02,"distinct_type":"Bottom","rt":null,"stimulus":"Stimuli_Rocks480/I_Rhyolite_05.png","response":null,"trial_type":"image-keyboard-response","trial_index":95,"plugin_version":"2.1.0","time_elapsed":189219,"subject_id":"91570","group":"Group2","condition":"1_Rep","full_date":"2026-02-27T19:28:06.320Z","date":"2026-02-27","time":"19:28:06"},{"rt":null,"stimulus":"<p style=\"font-size: 50px; margin: 0; text-align: center;\">+</p>","response":null,"trial_type":"html-keyboard-response","trial_index":96,"plugin_version":"2.1.0","time_elapsed":190221,"subject_id":"91570","group":"Group2","condition":"1_Rep","full_date":"2026-02-27T19:28:06.320Z","date":"2026-02-27","time":"19:28:06"},{"task":"memory_phase","broad_category":"M","image_png":"M_Gneiss_14.png","image_id":206,"category_name":"Gneiss","category":13,"distinct_rating":3.41,"distinct_type":"Bottom","rt":null,"stimulus":"Stimuli_Rocks480/M_Gneiss_14.png","response":null,"trial_type":"image-keyboard-response","trial_index":97,"plugin_version":"2.1.0","time_elapsed":192725,"subject_id":"91570","group":"Group2","condition":"1_Rep","full_date":"2026-02-27T19:28:06.320Z","date":"2026-02-27","time":"19:28:06"},{"rt":null,"stimulus":"<p style=\"font-size: 50px; margin: 0; text-align: center;\">+</p>","response":null,"trial_type":"html-keyboard-response","trial_index":98,"plugin_version":"2.1.0","time_elapsed":193727,"subject_id":"91570","group":"Group2","condition":"1_Rep","full_date":"2026-02-27T19:28:06.320Z","date":"2026-02-27","time":"19:28:06"},{"task":"memory_phase","broad_category":"S","image_png":"S_Shale_03.png","image_id":467,"category_name":"Shale","category":30,"distinct_rating":1.95,"distinct_type":"Bottom","rt":null,"stimulus":"Stimuli_Rocks480/S_Shale_03.png","response":null,"trial_type":"image-keyboard-response","trial_index":99,"plugin_version":"2.1.0","time_elapsed":196230,"subject_id":"91570","group":"Group2","condition":"1_Rep","full_date":"2026-02-27T19:28:06.320Z","date":"2026-02-27","time":"19:28:06"},{"rt":null,"stimulus":"<p style=\"font-size: 50px; margin: 0; text-align: center;\">+</p>","response":null,"trial_type":"html-keyboard-response","trial_index":100,"plugin_version":"2.1.0","time_elapsed":197232,"subject_id":"91570","group":"Group2","condition":"1_Rep","full_date":"2026-02-27T19:28:06.320Z","date":"2026-02-27","time":"19:28:06"},{"task":"memory_phase","broad_category":"M","image_png":"M_Marble_03.png","image_id":227,"category_name":"Marble","category":15,"distinct_rating":2.67,"distinct_type":"Bottom","rt":null,"stimulus":"Stimuli_Rocks480/M_Marble_03.png","response":null,"trial_type":"image-keyboard-response","trial_index":101,"plugin_version":"2.1.0","time_elapsed":199735,"subject_id":"91570","group":"Group2","condition":"1_Rep","full_date":"2026-02-27T19:28:06.320Z","date":"2026-02-27","time":"19:28:06"},{"rt":null,"stimulus":"<p style=\"font-size: 50px; margin: 0; text-align: center;\">+</p>","response":null,"trial_type":"html-keyboard-response","trial_index":102,"plugin_version":"2.1.0","time_elapsed":200738,"subject_id":"91570","group":"Group2","condition":"1_Rep","full_date":"2026-02-27T19:28:06.320Z","date":"2026-02-27","time":"19:28:06"},{"task":"memory_phase","broad_category":"I","image_png":"I_Rhyolite_08.png","image_id":152,"category_name":"Rhyolite","category":10,"distinct_rating":1.38,"distinct_type":"Bottom","rt":null,"stimulus":"Stimuli_Rocks480/I_Rhyolite_08.png","response":null,"trial_type":"image-keyboard-response","trial_index":103,"plugin_version":"2.1.0","time_elapsed":203241,"subject_id":"91570","group":"Group2","condition":"1_Rep","full_date":"2026-02-27T19:28:06.320Z","date":"2026-02-27","time":"19:28:06"},{"rt":null,"stimulus":"<p style=\"font-size: 50px; margin: 0; text-align: center;\">+</p>","response":null,"trial_type":"html-keyboard-response","trial_index":104,"plugin_version":"2.1.0","time_elapsed":204243,"subject_id":"91570","group":"Group2","condition":"1_Rep","full_date":"2026-02-27T19:28:06.320Z","date":"2026-02-27","time":"19:28:06"},{"task":"memory_phase","broad_category":"S","image_png":"S_Chert_13.png","image_id":365,"category_name":"Chert","category":23,"distinct_rating":6.57,"distinct_type":"Top","rt":null,"stimulus":"Stimuli_Rocks480/S_Chert_13.png","response":null,"trial_type":"image-keyboard-response","trial_index":105,"plugin_version":"2.1.0","time_elapsed":206746,"subject_id":"91570","group":"Group2","condition":"1_Rep","full_date":"2026-02-27T19:28:06.320Z","date":"2026-02-27","time":"19:28:06"},{"rt":97371,"stimulus":"<div style=\"max-width: 760px; margin: auto; font-size: 20px; line-height: 1.5;\">\n      <h1 style=\"text-align:center; font-size: 30px;\">Instructions for the Test Phase</h1>\n      <p>\n        The study phase is now complete.\n      </p>\n      <p>\n        In the test phase, you will again see a series of rock images. \n        Some will be ones you saw before - during the study phase, while others will be new.  \n        <b>Your task</b> is to decide whether you have seen each image before by pressing the corresponding key on your keyboard:<br><br>\n          <b>A</b> - NO (you did not see this image before)<br>\n          <b>L</b> - YES (you saw this image before)<br><br>\n        The test will proceed at your own pace. You will receive feedback after each response.  \n        Please try to respond <b>as accurately as possible</b>.\n      </p>\n      <p>\n        <b>Reminder:</b> If your computer has multiple language settings (e.g., English and another language),\n        please ensure it is set to English during the test phase.\n      </p>\n      <p>\n        You can track your progress using the <b>completion bar</b> at the top of the screen.  \n        Note that it has been refreshed to reflect your progress during this final phase.\n      </p>\n      <p>\n        Press the button below when you are ready to continue.\n      </p>\n    </div>","response":0,"trial_type":"html-button-response","trial_index":106,"plugin_version":"2.1.0","time_elapsed":407851,"subject_id":"91570","group":"Group2","condition":"1_Rep","full_date":"2026-02-27T19:28:06.320Z","date":"2026-02-27","time":"19:28:06"},{"correct_response":"a","task":"test_phase","broad_category":"M","image_png":"M_Gneiss_05.png","image_id":197,"category_name":"Gneiss","category":13,"distinct_rating":2.97,"distinct_type":"Bottom","item_type":"Foil","rt":2535,"stimulus":"Stimuli_Rocks480/M_Gneiss_05.png","response":"l","trial_type":"image-keyboard-response","trial_index":107,"plugin_version":"2.1.0","time_elapsed":410389,"subject_id":"91570","group":"Group2","condition":"1_Rep","full_date":"2026-02-27T19:28:06.320Z","date":"2026-02-27","time":"19:28:06","cor_ans":false},{"trial_type":"html-keyboard-response","rt":null,"stimulus":"<p style=\"color: red; font-size: 50px; font-weight: bold;\">Incorrect</p>","response":null,"trial_index":108,"plugin_version":"2.1.0","time_elapsed":410891,"subject_id":"91570","group":"Group2","condition":"1_Rep","full_date":"2026-02-27T19:28:06.320Z","date":"2026-02-27","time":"19:28:06"},{"correct_response":"a","task":"test_phase","broad_category":"I","image_png":"I_Diorite_04.png","image_id":36,"category_name":"Diorite","category":3,"distinct_rating":2.98,"distinct_type":"Bottom","item_type":"Foil","rt":2039,"stimulus":"Stimuli_Rocks480/I_Diorite_04.png","response":"l","trial_type":"image-keyboard-response","trial_index":109,"plugin_version":"2.1.0","time_elapsed":412932,"subject_id":"91570","group":"Group2","condition":"1_Rep","full_date":"2026-02-27T19:28:06.320Z","date":"2026-02-27","time":"19:28:06","cor_ans":false},{"trial_type":"html-keyboard-response","rt":null,"stimulus":"<p style=\"color: red; font-size: 50px; font-weight: bold;\">Incorrect</p>","response":null,"trial_index":110,"plugin_version":"2.1.0","time_elapsed":413433,"subject_id":"91570","group":"Group2","condition":"1_Rep","full_date":"2026-02-27T19:28:06.320Z","date":"2026-02-27","time":"19:28:06"},{"correct_response":"l","task":"test_phase","broad_category":"M","image_png":"M_Phyllite_05.png","image_id":261,"category_name":"Phyllite","category":17,"distinct_rating":2.14,"distinct_type":"Bottom","item_type":"Target","rt":1583,"stimulus":"Stimuli_Rocks480/M_Phyllite_05.png","response":"l","trial_type":"image-keyboard-response","trial_index":111,"plugin_version":"2.1.0","time_elapsed":415018,"subject_id":"91570","group":"Group2","condition":"1_Rep","full_date":"2026-02-27T19:28:06.320Z","date":"2026-02-27","time":"19:28:06","cor_ans":true},{"trial_type":"html-keyboard-response","rt":null,"stimulus":"<p style=\"color: green; font-size: 50px; font-weight: bold;\">Correct</p>","response":null,"trial_index":112,"plugin_version":"2.1.0","time_elapsed":415520,"subject_id":"91570","group":"Group2","condition":"1_Rep","full_date":"2026-02-27T19:28:06.320Z","date":"2026-02-27","time":"19:28:06"},{"correct_response":"a","task":"test_phase","broad_category":"M","image_png":"M_Quartzite_05.png","image_id":277,"category_name":"Quartzite","category":18,"distinct_rating":2.23,"distinct_type":"Bottom","item_type":"Foil","rt":1701,"stimulus":"Stimuli_Rocks480/M_Quartzite_05.png","response":"a","trial_type":"image-keyboard-response","trial_index":113,"plugin_version":"2.1.0","time_elapsed":417222,"subject_id":"91570","group":"Group2","condition":"1_Rep","full_date":"2026-02-27T19:28:06.320Z","date":"2026-02-27","time":"19:28:06","cor_ans":true},{"trial_type":"html-keyboard-response","rt":null,"stimulus":"<p style=\"color: green; font-size: 50px; font-weight: bold;\">Correct</p>","response":null,"trial_index":114,"plugin_version":"2.1.0","time_elapsed":417723,"subject_id":"91570","group":"Group2","condition":"1_Rep","full_date":"2026-02-27T19:28:06.320Z","date":"2026-02-27","time":"19:28:06"},{"correct_response":"a","task":"test_phase","broad_category":"S","image_png":"S_Dolomite_12.png","image_id":396,"category_name":"Dolomite","category":25,"distinct_rating":1.85,"distinct_type":"Bottom","item_type":"Foil","rt":1159,"stimulus":"Stimuli_Rocks480/S_Dolomite_12.png","response":"l","trial_type":"image-keyboard-response","trial_index":115,"plugin_version":"2.1.0","time_elapsed":418883,"subject_id":"91570","group":"Group2","condition":"1_Rep","full_date":"2026-02-27T19:28:06.320Z","date":"2026-02-27","time":"19:28:06","cor_ans":false},{"trial_type":"html-keyboard-response","rt":null,"stimulus":"<p style=\"color: red; font-size: 50px; font-weight: bold;\">Incorrect</p>","response":null,"trial_index":116,"plugin_version":"2.1.0","time_elapsed":419384,"subject_id":"91570","group":"Group2","condition":"1_Rep","full_date":"2026-02-27T19:28:06.320Z","date":"2026-02-27","time":"19:28:06"},{"correct_response":"a","task":"test_phase","broad_category":"I","image_png":"I_Pegmatite_10.png","image_id":106,"category_name":"Pegmatite","category":7,"distinct_rating":7.66,"distinct_type":"Top","item_type":"Foil","rt":2876,"stimulus":"Stimuli_Rocks480/I_Pegmatite_10.png","response":"l","trial_type":"image-keyboard-response","trial_index":117,"plugin_version":"2.1.0","time_elapsed":422261,"subject_id":"91570","group":"Group2","condition":"1_Rep","full_date":"2026-02-27T19:28:06.320Z","date":"2026-02-27","time":"19:28:06","cor_ans":false},{"trial_type":"html-keyboard-response","rt":null,"stimulus":"<p style=\"color: red; font-size: 50px; font-weight: bold;\">Incorrect</p>","response":null,"trial_index":118,"plugin_version":"2.1.0","time_elapsed":422763,"subject_id":"91570","group":"Group2","condition":"1_Rep","full_date":"2026-02-27T19:28:06.320Z","date":"2026-02-27","time":"19:28:06"},{"correct_response":"l","task":"test_phase","broad_category":"M","image_png":"M_Slate_14.png","image_id":318,"category_name":"Slate","category":20,"distinct_rating":2.58,"distinct_type":"Bottom","item_type":"Target","rt":1099,"stimulus":"Stimuli_Rocks480/M_Slate_14.png","response":"l","trial_type":"image-keyboard-response","trial_index":119,"plugin_version":"2.1.0","time_elapsed":423864,"subject_id":"91570","group":"Group2","condition":"1_Rep","full_date":"2026-02-27T19:28:06.320Z","date":"2026-02-27","time":"19:28:06","cor_ans":true},{"trial_type":"html-keyboard-response","rt":null,"stimulus":"<p style=\"color: green; font-size: 50px; font-weight: bold;\">Correct</p>","response":null,"trial_index":120,"plugin_version":"2.1.0","time_elapsed":424365,"subject_id":"91570","group":"Group2","condition":"1_Rep","full_date":"2026-02-27T19:28:06.320Z","date":"2026-02-27","time":"19:28:06"},{"correct_response":"a","task":"test_phase","broad_category":"S","image_png":"S_Rock Salt_01.png","image_id":433,"category_name":"Rock Salt","category":28,"distinct_rating":7.18,"distinct_type":"Top","item_type":"Foil","rt":943,"stimulus":"Stimuli_Rocks480/S_Rock Salt_01.png","response":"a","trial_type":"image-keyboard-response","trial_index":121,"plugin_version":"2.1.0","time_elapsed":425310,"subject_id":"91570","group":"Group2","condition":"1_Rep","full_date":"2026-02-27T19:28:06.320Z","date":"2026-02-27","time":"19:28:06","cor_ans":true},{"trial_type":"html-keyboard-response","rt":null,"stimulus":"<p style=\"color: green; font-size: 50px; font-weight: bold;\">Correct</p>","response":null,"trial_index":122,"plugin_version":"2.1.0","time_elapsed":425812,"subject_id":"91570","group":"Group2","condition":"1_Rep","full_date":"2026-02-27T19:28:06.320Z","date":"2026-02-27","time":"19:28:06"},{"correct_response":"a","task":"test_phase","broad_category":"I","image_png":"I_Gabbro_11.png","image_id":59,"category_name":"Gabbro","category":4,"distinct_rating":1.99,"distinct_type":"Bottom","item_type":"Foil","rt":1254,"stimulus":"Stimuli_Rocks480/I_Gabbro_11.png","response":"a","trial_type":"image-keyboard-response","trial_index":123,"plugin_version":"2.1.0","time_elapsed":427068,"subject_id":"91570","group":"Group2","condition":"1_Rep","full_date":"2026-02-27T19:28:06.320Z","date":"2026-02-27","time":"19:28:06","cor_ans":true},{"trial_type":"html-keyboard-response","rt":null,"stimulus":"<p style=\"color: green; font-size: 50px; font-weight: bold;\">Correct</p>","response":null,"trial_index":124,"plugin_version":"2.1.0","time_elapsed":427569,"subject_id":"91570","group":"Group2","condition":"1_Rep","full_date":"2026-02-27T19:28:06.320Z","date":"2026-02-27","time":"19:28:06"},{"correct_response":"l","task":"test_phase","broad_category":"I","image_png":"I_Pumice_01.png","image_id":129,"category_name":"Pumice","category":9,"distinct_rating":3.25,"distinct_type":"Bottom","item_type":"Target","rt":727,"stimulus":"Stimuli_Rocks480/I_Pumice_01.png","response":"a","trial_type":"image-keyboard-response","trial_index":125,"plugin_version":"2.1.0","time_elapsed":428298,"subject_id":"91570","group":"Group2","condition":"1_Rep","full_date":"2026-02-27T19:28:06.320Z","date":"2026-02-27","time":"19:28:06","cor_ans":false},{"trial_type":"html-keyboard-response","rt":null,"stimulus":"<p style=\"color: red; font-size: 50px; font-weight: bold;\">Incorrect</p>","response":null,"trial_index":126,"plugin_version":"2.1.0","time_elapsed":428799,"subject_id":"91570","group":"Group2","condition":"1_Rep","full_date":"2026-02-27T19:28:06.320Z","date":"2026-02-27","time":"19:28:06"},{"correct_response":"l","task":"test_phase","broad_category":"S","image_png":"S_Rock Salt_15.png","image_id":447,"category_name":"Rock Salt","category":28,"distinct_rating":7.79,"distinct_type":"Top","item_type":"Target","rt":665,"stimulus":"Stimuli_Rocks480/S_Rock Salt_15.png","response":"a","trial_type":"image-keyboard-response","trial_index":127,"plugin_version":"2.1.0","time_elapsed":429466,"subject_id":"91570","group":"Group2","condition":"1_Rep","full_date":"2026-02-27T19:28:06.320Z","date":"2026-02-27","time":"19:28:06","cor_ans":false},{"trial_type":"html-keyboard-response","rt":null,"stimulus":"<p style=\"color: red; font-size: 50px; font-weight: bold;\">Incorrect</p>","response":null,"trial_index":128,"plugin_version":"2.1.0","time_elapsed":429967,"subject_id":"91570","group":"Group2","condition":"1_Rep","full_date":"2026-02-27T19:28:06.320Z","date":"2026-02-27","time":"19:28:06"},{"correct_response":"l","task":"test_phase","broad_category":"M","image_png":"M_Quartzite_12.png","image_id":284,"category_name":"Quartzite","category":18,"distinct_rating":1.92,"distinct_type":"Bottom","item_type":"Target","rt":837,"stimulus":"Stimuli_Rocks480/M_Quartzite_12.png","response":"a","trial_type":"image-keyboard-response","trial_index":129,"plugin_version":"2.1.0","time_elapsed":430806,"subject_id":"91570","group":"Group2","condition":"1_Rep","full_date":"2026-02-27T19:28:06.320Z","date":"2026-02-27","time":"19:28:06","cor_ans":false},{"trial_type":"html-keyboard-response","rt":null,"stimulus":"<p style=\"color: red; font-size: 50px; font-weight: bold;\">Incorrect</p>","response":null,"trial_index":130,"plugin_version":"2.1.0","time_elapsed":431308,"subject_id":"91570","group":"Group2","condition":"1_Rep","full_date":"2026-02-27T19:28:06.320Z","date":"2026-02-27","time":"19:28:06"},{"correct_response":"a","task":"test_phase","broad_category":"I","image_png":"I_Gabbro_16.png","image_id":64,"category_name":"Gabbro","category":4,"distinct_rating":2.52,"distinct_type":"Bottom","item_type":"Foil","rt":675,"stimulus":"Stimuli_Rocks480/I_Gabbro_16.png","response":"a","trial_type":"image-keyboard-response","trial_index":131,"plugin_version":"2.1.0","time_elapsed":431985,"subject_id":"91570","group":"Group2","condition":"1_Rep","full_date":"2026-02-27T19:28:06.320Z","date":"2026-02-27","time":"19:28:06","cor_ans":true},{"trial_type":"html-keyboard-response","rt":null,"stimulus":"<p style=\"color: green; font-size: 50px; font-weight: bold;\">Correct</p>","response":null,"trial_index":132,"plugin_version":"2.1.0","time_elapsed":432486,"subject_id":"91570","group":"Group2","condition":"1_Rep","full_date":"2026-02-27T19:28:06.320Z","date":"2026-02-27","time":"19:28:06"},{"correct_response":"l","task":"test_phase","broad_category":"I","image_png":"I_Diorite_10.png","image_id":42,"category_name":"Diorite","category":3,"distinct_rating":2.84,"distinct_type":"Bottom","item_type":"Target","rt":910,"stimulus":"Stimuli_Rocks480/I_Diorite_10.png","response":"l","trial_type":"image-keyboard-response","trial_index":133,"plugin_version":"2.1.0","time_elapsed":433398,"subject_id":"91570","group":"Group2","condition":"1_Rep","full_date":"2026-02-27T19:28:06.320Z","date":"2026-02-27","time":"19:28:06","cor_ans":true},{"trial_type":"html-keyboard-response","rt":null,"stimulus":"<p style=\"color: green; font-size: 50px; font-weight: bold;\">Correct</p>","response":null,"trial_index":134,"plugin_version":"2.1.0","time_elapsed":433900,"subject_id":"91570","group":"Group2","condition":"1_Rep","full_date":"2026-02-27T19:28:06.320Z","date":"2026-02-27","time":"19:28:06"},{"correct_response":"a","task":"test_phase","broad_category":"M","image_png":"M_Slate_03.png","image_id":307,"category_name":"Slate","category":20,"distinct_rating":1.87,"distinct_type":"Bottom","item_type":"Foil","rt":685,"stimulus":"Stimuli_Rocks480/M_Slate_03.png","response":"l","trial_type":"image-keyboard-response","trial_index":135,"plugin_version":"2.1.0","time_elapsed":434586,"subject_id":"91570","group":"Group2","condition":"1_Rep","full_date":"2026-02-27T19:28:06.320Z","date":"2026-02-27","time":"19:28:06","cor_ans":false},{"trial_type":"html-keyboard-response","rt":null,"stimulus":"<p style=\"color: red; font-size: 50px; font-weight: bold;\">Incorrect</p>","response":null,"trial_index":136,"plugin_version":"2.1.0","time_elapsed":435088,"subject_id":"91570","group":"Group2","condition":"1_Rep","full_date":"2026-02-27T19:28:06.320Z","date":"2026-02-27","time":"19:28:06"},{"correct_response":"l","task":"test_phase","broad_category":"M","image_png":"M_Quartzite_15.png","image_id":287,"category_name":"Quartzite","category":18,"distinct_rating":2.19,"distinct_type":"Bottom","item_type":"Target","rt":786,"stimulus":"Stimuli_Rocks480/M_Quartzite_15.png","response":"l","trial_type":"image-keyboard-response","trial_index":137,"plugin_version":"2.1.0","time_elapsed":435875,"subject_id":"91570","group":"Group2","condition":"1_Rep","full_date":"2026-02-27T19:28:06.320Z","date":"2026-02-27","time":"19:28:06","cor_ans":true},{"trial_type":"html-keyboard-response","rt":null,"stimulus":"<p style=\"color: green; font-size: 50px; font-weight: bold;\">Correct</p>","response":null,"trial_index":138,"plugin_version":"2.1.0","time_elapsed":436376,"subject_id":"91570","group":"Group2","condition":"1_Rep","full_date":"2026-02-27T19:28:06.320Z","date":"2026-02-27","time":"19:28:06"},{"correct_response":"a","task":"test_phase","broad_category":"S","image_png":"S_Shale_08.png","image_id":472,"category_name":"Shale","category":30,"distinct_rating":2.55,"distinct_type":"Bottom","item_type":"Foil","rt":1188,"stimulus":"Stimuli_Rocks480/S_Shale_08.png","response":"a","trial_type":"image-keyboard-response","trial_index":139,"plugin_version":"2.1.0","time_elapsed":437565,"subject_id":"91570","group":"Group2","condition":"1_Rep","full_date":"2026-02-27T19:28:06.320Z","date":"2026-02-27","time":"19:28:06","cor_ans":true},{"trial_type":"html-keyboard-response","rt":null,"stimulus":"<p style=\"color: green; font-size: 50px; font-weight: bold;\">Correct</p>","response":null,"trial_index":140,"plugin_version":"2.1.0","time_elapsed":438067,"subject_id":"91570","group":"Group2","condition":"1_Rep","full_date":"2026-02-27T19:28:06.320Z","date":"2026-02-27","time":"19:28:06"},{"correct_response":"l","task":"test_phase","broad_category":"S","image_png":"S_Chert_13.png","image_id":365,"category_name":"Chert","category":23,"distinct_rating":6.57,"distinct_type":"Top","item_type":"Target","rt":1454,"stimulus":"Stimuli_Rocks480/S_Chert_13.png","response":"a","trial_type":"image-keyboard-response","trial_index":141,"plugin_version":"2.1.0","time_elapsed":439523,"subject_id":"91570","group":"Group2","condition":"1_Rep","full_date":"2026-02-27T19:28:06.320Z","date":"2026-02-27","time":"19:28:06","cor_ans":false},{"trial_type":"html-keyboard-response","rt":null,"stimulus":"<p style=\"color: red; font-size: 50px; font-weight: bold;\">Incorrect</p>","response":null,"trial_index":142,"plugin_version":"2.1.0","time_elapsed":440024,"subject_id":"91570","group":"Group2","condition":"1_Rep","full_date":"2026-02-27T19:28:06.320Z","date":"2026-02-27","time":"19:28:06"},{"correct_response":"a","task":"test_phase","broad_category":"S","image_png":"S_Dolomite_13.png","image_id":397,"category_name":"Dolomite","category":25,"distinct_rating":1.77,"distinct_type":"Bottom","item_type":"Foil","rt":1014,"stimulus":"Stimuli_Rocks480/S_Dolomite_13.png","response":"l","trial_type":"image-keyboard-response","trial_index":143,"plugin_version":"2.1.0","time_elapsed":441040,"subject_id":"91570","group":"Group2","condition":"1_Rep","full_date":"2026-02-27T19:28:06.320Z","date":"2026-02-27","time":"19:28:06","cor_ans":false},{"trial_type":"html-keyboard-response","rt":null,"stimulus":"<p style=\"color: red; font-size: 50px; font-weight: bold;\">Incorrect</p>","response":null,"trial_index":144,"plugin_version":"2.1.0","time_elapsed":441541,"subject_id":"91570","group":"Group2","condition":"1_Rep","full_date":"2026-02-27T19:28:06.320Z","date":"2026-02-27","time":"19:28:06"},{"correct_response":"l","task":"test_phase","broad_category":"I","image_png":"I_Obsidian_06.png","image_id":86,"category_name":"Obsidian","category":6,"distinct_rating":8.01,"distinct_type":"Top","item_type":"Target","rt":315,"stimulus":"Stimuli_Rocks480/I_Obsidian_06.png","response":"l","trial_type":"image-keyboard-response","trial_index":145,"plugin_version":"2.1.0","time_elapsed":441858,"subject_id":"91570","group":"Group2","condition":"1_Rep","full_date":"2026-02-27T19:28:06.320Z","date":"2026-02-27","time":"19:28:06","cor_ans":true},{"trial_type":"html-keyboard-response","rt":null,"stimulus":"<p style=\"color: green; font-size: 50px; font-weight: bold;\">Correct</p>","response":null,"trial_index":146,"plugin_version":"2.1.0","time_elapsed":442359,"subject_id":"91570","group":"Group2","condition":"1_Rep","full_date":"2026-02-27T19:28:06.320Z","date":"2026-02-27","time":"19:28:06"},{"correct_response":"a","task":"test_phase","broad_category":"M","image_png":"M_Phyllite_07.png","image_id":263,"category_name":"Phyllite","category":17,"distinct_rating":2.59,"distinct_type":"Bottom","item_type":"Foil","rt":704,"stimulus":"Stimuli_Rocks480/M_Phyllite_07.png","response":"a","trial_type":"image-keyboard-response","trial_index":147,"plugin_version":"2.1.0","time_elapsed":443065,"subject_id":"91570","group":"Group2","condition":"1_Rep","full_date":"2026-02-27T19:28:06.320Z","date":"2026-02-27","time":"19:28:06","cor_ans":true},{"trial_type":"html-keyboard-response","rt":null,"stimulus":"<p style=\"color: green; font-size: 50px; font-weight: bold;\">Correct</p>","response":null,"trial_index":148,"plugin_version":"2.1.0","time_elapsed":443567,"subject_id":"91570","group":"Group2","condition":"1_Rep","full_date":"2026-02-27T19:28:06.320Z","date":"2026-02-27","time":"19:28:06"},{"correct_response":"l","task":"test_phase","broad_category":"S","image_png":"S_Conglomerate_14.png","image_id":382,"category_name":"Conglomerate","category":24,"distinct_rating":6.86,"distinct_type":"Top","item_type":"Target","rt":804,"stimulus":"Stimuli_Rocks480/S_Conglomerate_14.png","response":"l","trial_type":"image-keyboard-response","trial_index":149,"plugin_version":"2.1.0","time_elapsed":444372,"subject_id":"91570","group":"Group2","condition":"1_Rep","full_date":"2026-02-27T19:28:06.320Z","date":"2026-02-27","time":"19:28:06","cor_ans":true},{"trial_type":"html-keyboard-response","rt":null,"stimulus":"<p style=\"color: green; font-size: 50px; font-weight: bold;\">Correct</p>","response":null,"trial_index":150,"plugin_version":"2.1.0","time_elapsed":444873,"subject_id":"91570","group":"Group2","condition":"1_Rep","full_date":"2026-02-27T19:28:06.320Z","date":"2026-02-27","time":"19:28:06"},{"correct_response":"l","task":"test_phase","broad_category":"I","image_png":"I_Andesite_09.png","image_id":9,"category_name":"Andesite","category":1,"distinct_rating":2.49,"distinct_type":"Bottom","item_type":"Target","rt":703,"stimulus":"Stimuli_Rocks480/I_Andesite_09.png","response":"l","trial_type":"image-keyboard-response","trial_index":151,"plugin_version":"2.1.0","time_elapsed":445578,"subject_id":"91570","group":"Group2","condition":"1_Rep","full_date":"2026-02-27T19:28:06.320Z","date":"2026-02-27","time":"19:28:06","cor_ans":true},{"trial_type":"html-keyboard-response","rt":null,"stimulus":"<p style=\"color: green; font-size: 50px; font-weight: bold;\">Correct</p>","response":null,"trial_index":152,"plugin_version":"2.1.0","time_elapsed":446079,"subject_id":"91570","group":"Group2","condition":"1_Rep","full_date":"2026-02-27T19:28:06.320Z","date":"2026-02-27","time":"19:28:06"},{"correct_response":"a","task":"test_phase","broad_category":"I","image_png":"I_Andesite_08.png","image_id":8,"category_name":"Andesite","category":1,"distinct_rating":1.95,"distinct_type":"Bottom","item_type":"Foil","rt":1271,"stimulus":"Stimuli_Rocks480/I_Andesite_08.png","response":"a","trial_type":"image-keyboard-response","trial_index":153,"plugin_version":"2.1.0","time_elapsed":447352,"subject_id":"91570","group":"Group2","condition":"1_Rep","full_date":"2026-02-27T19:28:06.320Z","date":"2026-02-27","time":"19:28:06","cor_ans":true},{"trial_type":"html-keyboard-response","rt":null,"stimulus":"<p style=\"color: green; font-size: 50px; font-weight: bold;\">Correct</p>","response":null,"trial_index":154,"plugin_version":"2.1.0","time_elapsed":447853,"subject_id":"91570","group":"Group2","condition":"1_Rep","full_date":"2026-02-27T19:28:06.320Z","date":"2026-02-27","time":"19:28:06"},{"correct_response":"l","task":"test_phase","broad_category":"S","image_png":"S_Shale_03.png","image_id":467,"category_name":"Shale","category":30,"distinct_rating":1.95,"distinct_type":"Bottom","item_type":"Target","rt":1165,"stimulus":"Stimuli_Rocks480/S_Shale_03.png","response":"l","trial_type":"image-keyboard-response","trial_index":155,"plugin_version":"2.1.0","time_elapsed":449020,"subject_id":"91570","group":"Group2","condition":"1_Rep","full_date":"2026-02-27T19:28:06.320Z","date":"2026-02-27","time":"19:28:06","cor_ans":true},{"trial_type":"html-keyboard-response","rt":null,"stimulus":"<p style=\"color: green; font-size: 50px; font-weight: bold;\">Correct</p>","response":null,"trial_index":156,"plugin_version":"2.1.0","time_elapsed":449522,"subject_id":"91570","group":"Group2","condition":"1_Rep","full_date":"2026-02-27T19:28:06.320Z","date":"2026-02-27","time":"19:28:06"},{"correct_response":"l","task":"test_phase","broad_category":"I","image_png":"I_Pumice_14.png","image_id":142,"category_name":"Pumice","category":9,"distinct_rating":3.22,"distinct_type":"Bottom","item_type":"Target","rt":1228,"stimulus":"Stimuli_Rocks480/I_Pumice_14.png","response":"l","trial_type":"image-keyboard-response","trial_index":157,"plugin_version":"2.1.0","time_elapsed":450751,"subject_id":"91570","group":"Group2","condition":"1_Rep","full_date":"2026-02-27T19:28:06.320Z","date":"2026-02-27","time":"19:28:06","cor_ans":true},{"trial_type":"html-keyboard-response","rt":null,"stimulus":"<p style=\"color: green; font-size: 50px; font-weight: bold;\">Correct</p>","response":null,"trial_index":158,"plugin_version":"2.1.0","time_elapsed":451252,"subject_id":"91570","group":"Group2","condition":"1_Rep","full_date":"2026-02-27T19:28:06.320Z","date":"2026-02-27","time":"19:28:06"},{"correct_response":"l","task":"test_phase","broad_category":"S","image_png":"S_Shale_02.png","image_id":466,"category_name":"Shale","category":30,"distinct_rating":2.9,"distinct_type":"Bottom","item_type":"Target","rt":805,"stimulus":"Stimuli_Rocks480/S_Shale_02.png","response":"a","trial_type":"image-keyboard-response","trial_index":159,"plugin_version":"2.1.0","time_elapsed":452059,"subject_id":"91570","group":"Group2","condition":"1_Rep","full_date":"2026-02-27T19:28:06.320Z","date":"2026-02-27","time":"19:28:06","cor_ans":false},{"trial_type":"html-keyboard-response","rt":null,"stimulus":"<p style=\"color: red; font-size: 50px; font-weight: bold;\">Incorrect</p>","response":null,"trial_index":160,"plugin_version":"2.1.0","time_elapsed":452561,"subject_id":"91570","group":"Group2","condition":"1_Rep","full_date":"2026-02-27T19:28:06.320Z","date":"2026-02-27","time":"19:28:06"},{"correct_response":"a","task":"test_phase","broad_category":"I","image_png":"I_Basalt_01.png","image_id":17,"category_name":"Basalt","category":2,"distinct_rating":1.92,"distinct_type":"Bottom","item_type":"Foil","rt":896,"stimulus":"Stimuli_Rocks480/I_Basalt_01.png","response":"l","trial_type":"image-keyboard-response","trial_index":161,"plugin_version":"2.1.0","time_elapsed":453458,"subject_id":"91570","group":"Group2","condition":"1_Rep","full_date":"2026-02-27T19:28:06.320Z","date":"2026-02-27","time":"19:28:06","cor_ans":false},{"trial_type":"html-keyboard-response","rt":null,"stimulus":"<p style=\"color: red; font-size: 50px; font-weight: bold;\">Incorrect</p>","response":null,"trial_index":162,"plugin_version":"2.1.0","time_elapsed":453959,"subject_id":"91570","group":"Group2","condition":"1_Rep","full_date":"2026-02-27T19:28:06.320Z","date":"2026-02-27","time":"19:28:06"},{"correct_response":"a","task":"test_phase","broad_category":"S","image_png":"S_Conglomerate_05.png","image_id":373,"category_name":"Conglomerate","category":24,"distinct_rating":7.32,"distinct_type":"Top","item_type":"Foil","rt":647,"stimulus":"Stimuli_Rocks480/S_Conglomerate_05.png","response":"l","trial_type":"image-keyboard-response","trial_index":163,"plugin_version":"2.1.0","time_elapsed":454608,"subject_id":"91570","group":"Group2","condition":"1_Rep","full_date":"2026-02-27T19:28:06.320Z","date":"2026-02-27","time":"19:28:06","cor_ans":false},{"trial_type":"html-keyboard-response","rt":null,"stimulus":"<p style=\"color: red; font-size: 50px; font-weight: bold;\">Incorrect</p>","response":null,"trial_index":164,"plugin_version":"2.1.0","time_elapsed":455109,"subject_id":"91570","group":"Group2","condition":"1_Rep","full_date":"2026-02-27T19:28:06.320Z","date":"2026-02-27","time":"19:28:06"},{"correct_response":"l","task":"test_phase","broad_category":"I","image_png":"I_Rhyolite_10.png","image_id":154,"category_name":"Rhyolite","category":10,"distinct_rating":2.88,"distinct_type":"Bottom","item_type":"Target","rt":514,"stimulus":"Stimuli_Rocks480/I_Rhyolite_10.png","response":"l","trial_type":"image-keyboard-response","trial_index":165,"plugin_version":"2.1.0","time_elapsed":455625,"subject_id":"91570","group":"Group2","condition":"1_Rep","full_date":"2026-02-27T19:28:06.320Z","date":"2026-02-27","time":"19:28:06","cor_ans":true},{"trial_type":"html-keyboard-response","rt":null,"stimulus":"<p style=\"color: green; font-size: 50px; font-weight: bold;\">Correct</p>","response":null,"trial_index":166,"plugin_version":"2.1.0","time_elapsed":456126,"subject_id":"91570","group":"Group2","condition":"1_Rep","full_date":"2026-02-27T19:28:06.320Z","date":"2026-02-27","time":"19:28:06"},{"correct_response":"a","task":"test_phase","broad_category":"I","image_png":"I_Rhyolite_14.png","image_id":158,"category_name":"Rhyolite","category":10,"distinct_rating":2.59,"distinct_type":"Bottom","item_type":"Foil","rt":1221,"stimulus":"Stimuli_Rocks480/I_Rhyolite_14.png","response":"l","trial_type":"image-keyboard-response","trial_index":167,"plugin_version":"2.1.0","time_elapsed":457348,"subject_id":"91570","group":"Group2","condition":"1_Rep","full_date":"2026-02-27T19:28:06.320Z","date":"2026-02-27","time":"19:28:06","cor_ans":false},{"trial_type":"html-keyboard-response","rt":null,"stimulus":"<p style=\"color: red; font-size: 50px; font-weight: bold;\">Incorrect</p>","response":null,"trial_index":168,"plugin_version":"2.1.0","time_elapsed":457850,"subject_id":"91570","group":"Group2","condition":"1_Rep","full_date":"2026-02-27T19:28:06.320Z","date":"2026-02-27","time":"19:28:06"},{"correct_response":"l","task":"test_phase","broad_category":"M","image_png":"M_Gneiss_14.png","image_id":206,"category_name":"Gneiss","category":13,"distinct_rating":3.41,"distinct_type":"Bottom","item_type":"Target","rt":669,"stimulus":"Stimuli_Rocks480/M_Gneiss_14.png","response":"l","trial_type":"image-keyboard-response","trial_index":169,"plugin_version":"2.1.0","time_elapsed":458520,"subject_id":"91570","group":"Group2","condition":"1_Rep","full_date":"2026-02-27T19:28:06.320Z","date":"2026-02-27","time":"19:28:06","cor_ans":true},{"trial_type":"html-keyboard-response","rt":null,"stimulus":"<p style=\"color: green; font-size: 50px; font-weight: bold;\">Correct</p>","response":null,"trial_index":170,"plugin_version":"2.1.0","time_elapsed":459021,"subject_id":"91570","group":"Group2","condition":"1_Rep","full_date":"2026-02-27T19:28:06.320Z","date":"2026-02-27","time":"19:28:06"},{"correct_response":"a","task":"test_phase","broad_category":"S","image_png":"S_Dolomite_14.png","image_id":398,"category_name":"Dolomite","category":25,"distinct_rating":1.43,"distinct_type":"Bottom","item_type":"Foil","rt":961,"stimulus":"Stimuli_Rocks480/S_Dolomite_14.png","response":"a","trial_type":"image-keyboard-response","trial_index":171,"plugin_version":"2.1.0","time_elapsed":459984,"subject_id":"91570","group":"Group2","condition":"1_Rep","full_date":"2026-02-27T19:28:06.320Z","date":"2026-02-27","time":"19:28:06","cor_ans":true},{"trial_type":"html-keyboard-response","rt":null,"stimulus":"<p style=\"color: green; font-size: 50px; font-weight: bold;\">Correct</p>","response":null,"trial_index":172,"plugin_version":"2.1.0","time_elapsed":460485,"subject_id":"91570","group":"Group2","condition":"1_Rep","full_date":"2026-02-27T19:28:06.320Z","date":"2026-02-27","time":"19:28:06"},{"correct_response":"l","task":"test_phase","broad_category":"I","image_png":"I_Diorite_01.png","image_id":33,"category_name":"Diorite","category":3,"distinct_rating":2.97,"distinct_type":"Bottom","item_type":"Target","rt":748,"stimulus":"Stimuli_Rocks480/I_Diorite_01.png","response":"l","trial_type":"image-keyboard-response","trial_index":173,"plugin_version":"2.1.0","time_elapsed":461235,"subject_id":"91570","group":"Group2","condition":"1_Rep","full_date":"2026-02-27T19:28:06.320Z","date":"2026-02-27","time":"19:28:06","cor_ans":true},{"trial_type":"html-keyboard-response","rt":null,"stimulus":"<p style=\"color: green; font-size: 50px; font-weight: bold;\">Correct</p>","response":null,"trial_index":174,"plugin_version":"2.1.0","time_elapsed":461736,"subject_id":"91570","group":"Group2","condition":"1_Rep","full_date":"2026-02-27T19:28:06.320Z","date":"2026-02-27","time":"19:28:06"},{"correct_response":"a","task":"test_phase","broad_category":"I","image_png":"I_Gabbro_08.png","image_id":56,"category_name":"Gabbro","category":4,"distinct_rating":3.02,"distinct_type":"Bottom","item_type":"Foil","rt":747,"stimulus":"Stimuli_Rocks480/I_Gabbro_08.png","response":"l","trial_type":"image-keyboard-response","trial_index":175,"plugin_version":"2.1.0","time_elapsed":462485,"subject_id":"91570","group":"Group2","condition":"1_Rep","full_date":"2026-02-27T19:28:06.320Z","date":"2026-02-27","time":"19:28:06","cor_ans":false},{"trial_type":"html-keyboard-response","rt":null,"stimulus":"<p style=\"color: red; font-size: 50px; font-weight: bold;\">Incorrect</p>","response":null,"trial_index":176,"plugin_version":"2.1.0","time_elapsed":462986,"subject_id":"91570","group":"Group2","condition":"1_Rep","full_date":"2026-02-27T19:28:06.320Z","date":"2026-02-27","time":"19:28:06"},{"correct_response":"a","task":"test_phase","broad_category":"I","image_png":"I_Basalt_02.png","image_id":18,"category_name":"Basalt","category":2,"distinct_rating":1.84,"distinct_type":"Bottom","item_type":"Foil","rt":681,"stimulus":"Stimuli_Rocks480/I_Basalt_02.png","response":"l","trial_type":"image-keyboard-response","trial_index":177,"plugin_version":"2.1.0","time_elapsed":463669,"subject_id":"91570","group":"Group2","condition":"1_Rep","full_date":"2026-02-27T19:28:06.320Z","date":"2026-02-27","time":"19:28:06","cor_ans":false},{"trial_type":"html-keyboard-response","rt":null,"stimulus":"<p style=\"color: red; font-size: 50px; font-weight: bold;\">Incorrect</p>","response":null,"trial_index":178,"plugin_version":"2.1.0","time_elapsed":464170,"subject_id":"91570","group":"Group2","condition":"1_Rep","full_date":"2026-02-27T19:28:06.320Z","date":"2026-02-27","time":"19:28:06"},{"correct_response":"a","task":"test_phase","broad_category":"M","image_png":"M_Slate_15.png","image_id":319,"category_name":"Slate","category":20,"distinct_rating":2.13,"distinct_type":"Bottom","item_type":"Foil","rt":263,"stimulus":"Stimuli_Rocks480/M_Slate_15.png","response":"a","trial_type":"image-keyboard-response","trial_index":179,"plugin_version":"2.1.0","time_elapsed":464434,"subject_id":"91570","group":"Group2","condition":"1_Rep","full_date":"2026-02-27T19:28:06.320Z","date":"2026-02-27","time":"19:28:06","cor_ans":true},{"trial_type":"html-keyboard-response","rt":null,"stimulus":"<p style=\"color: green; font-size: 50px; font-weight: bold;\">Correct</p>","response":null,"trial_index":180,"plugin_version":"2.1.0","time_elapsed":464935,"subject_id":"91570","group":"Group2","condition":"1_Rep","full_date":"2026-02-27T19:28:06.320Z","date":"2026-02-27","time":"19:28:06"},{"correct_response":"l","task":"test_phase","broad_category":"M","image_png":"M_Phyllite_13.png","image_id":269,"category_name":"Phyllite","category":17,"distinct_rating":2.8,"distinct_type":"Bottom","item_type":"Target","rt":3186,"stimulus":"Stimuli_Rocks480/M_Phyllite_13.png","response":"l","trial_type":"image-keyboard-response","trial_index":181,"plugin_version":"2.1.0","time_elapsed":468122,"subject_id":"91570","group":"Group2","condition":"1_Rep","full_date":"2026-02-27T19:28:06.320Z","date":"2026-02-27","time":"19:28:06","cor_ans":true},{"trial_type":"html-keyboard-response","rt":null,"stimulus":"<p style=\"color: green; font-size: 50px; font-weight: bold;\">Correct</p>","response":null,"trial_index":182,"plugin_version":"2.1.0","time_elapsed":468625,"subject_id":"91570","group":"Group2","condition":"1_Rep","full_date":"2026-02-27T19:28:06.320Z","date":"2026-02-27","time":"19:28:06"},{"correct_response":"l","task":"test_phase","broad_category":"I","image_png":"I_Pumice_13.png","image_id":141,"category_name":"Pumice","category":9,"distinct_rating":3.12,"distinct_type":"Bottom","item_type":"Target","rt":722,"stimulus":"Stimuli_Rocks480/I_Pumice_13.png","response":"a","trial_type":"image-keyboard-response","trial_index":183,"plugin_version":"2.1.0","time_elapsed":469349,"subject_id":"91570","group":"Group2","condition":"1_Rep","full_date":"2026-02-27T19:28:06.320Z","date":"2026-02-27","time":"19:28:06","cor_ans":false},{"trial_type":"html-keyboard-response","rt":null,"stimulus":"<p style=\"color: red; font-size: 50px; font-weight: bold;\">Incorrect</p>","response":null,"trial_index":184,"plugin_version":"2.1.0","time_elapsed":469850,"subject_id":"91570","group":"Group2","condition":"1_Rep","full_date":"2026-02-27T19:28:06.320Z","date":"2026-02-27","time":"19:28:06"},{"correct_response":"a","task":"test_phase","broad_category":"I","image_png":"I_Diorite_05.png","image_id":37,"category_name":"Diorite","category":3,"distinct_rating":3.08,"distinct_type":"Bottom","item_type":"Foil","rt":1200,"stimulus":"Stimuli_Rocks480/I_Diorite_05.png","response":"a","trial_type":"image-keyboard-response","trial_index":185,"plugin_version":"2.1.0","time_elapsed":471052,"subject_id":"91570","group":"Group2","condition":"1_Rep","full_date":"2026-02-27T19:28:06.320Z","date":"2026-02-27","time":"19:28:06","cor_ans":true},{"trial_type":"html-keyboard-response","rt":null,"stimulus":"<p style=\"color: green; font-size: 50px; font-weight: bold;\">Correct</p>","response":null,"trial_index":186,"plugin_version":"2.1.0","time_elapsed":471554,"subject_id":"91570","group":"Group2","condition":"1_Rep","full_date":"2026-02-27T19:28:06.320Z","date":"2026-02-27","time":"19:28:06"},{"correct_response":"a","task":"test_phase","broad_category":"I","image_png":"I_Pumice_12.png","image_id":140,"category_name":"Pumice","category":9,"distinct_rating":2.97,"distinct_type":"Bottom","item_type":"Foil","rt":1496,"stimulus":"Stimuli_Rocks480/I_Pumice_12.png","response":"l","trial_type":"image-keyboard-response","trial_index":187,"plugin_version":"2.1.0","time_elapsed":473051,"subject_id":"91570","group":"Group2","condition":"1_Rep","full_date":"2026-02-27T19:28:06.320Z","date":"2026-02-27","time":"19:28:06","cor_ans":false},{"trial_type":"html-keyboard-response","rt":null,"stimulus":"<p style=\"color: red; font-size: 50px; font-weight: bold;\">Incorrect</p>","response":null,"trial_index":188,"plugin_version":"2.1.0","time_elapsed":473553,"subject_id":"91570","group":"Group2","condition":"1_Rep","full_date":"2026-02-27T19:28:06.320Z","date":"2026-02-27","time":"19:28:06"},{"correct_response":"l","task":"test_phase","broad_category":"M","image_png":"M_Marble_14.png","image_id":238,"category_name":"Marble","category":15,"distinct_rating":3.31,"distinct_type":"Bottom","item_type":"Target","rt":432,"stimulus":"Stimuli_Rocks480/M_Marble_14.png","response":"l","trial_type":"image-keyboard-response","trial_index":189,"plugin_version":"2.1.0","time_elapsed":473986,"subject_id":"91570","group":"Group2","condition":"1_Rep","full_date":"2026-02-27T19:28:06.320Z","date":"2026-02-27","time":"19:28:06","cor_ans":true},{"trial_type":"html-keyboard-response","rt":null,"stimulus":"<p style=\"color: green; font-size: 50px; font-weight: bold;\">Correct</p>","response":null,"trial_index":190,"plugin_version":"2.1.0","time_elapsed":474488,"subject_id":"91570","group":"Group2","condition":"1_Rep","full_date":"2026-02-27T19:28:06.320Z","date":"2026-02-27","time":"19:28:06"},{"correct_response":"a","task":"test_phase","broad_category":"I","image_png":"I_Diorite_03.png","image_id":35,"category_name":"Diorite","category":3,"distinct_rating":3.14,"distinct_type":"Bottom","item_type":"Foil","rt":748,"stimulus":"Stimuli_Rocks480/I_Diorite_03.png","response":"l","trial_type":"image-keyboard-response","trial_index":191,"plugin_version":"2.1.0","time_elapsed":475237,"subject_id":"91570","group":"Group2","condition":"1_Rep","full_date":"2026-02-27T19:28:06.320Z","date":"2026-02-27","time":"19:28:06","cor_ans":false},{"trial_type":"html-keyboard-response","rt":null,"stimulus":"<p style=\"color: red; font-size: 50px; font-weight: bold;\">Incorrect</p>","response":null,"trial_index":192,"plugin_version":"2.1.0","time_elapsed":475738,"subject_id":"91570","group":"Group2","condition":"1_Rep","full_date":"2026-02-27T19:28:06.320Z","date":"2026-02-27","time":"19:28:06"},{"correct_response":"a","task":"test_phase","broad_category":"M","image_png":"M_Marble_06.png","image_id":230,"category_name":"Marble","category":15,"distinct_rating":3.4,"distinct_type":"Bottom","item_type":"Foil","rt":418,"stimulus":"Stimuli_Rocks480/M_Marble_06.png","response":"l","trial_type":"image-keyboard-response","trial_index":193,"plugin_version":"2.1.0","time_elapsed":476158,"subject_id":"91570","group":"Group2","condition":"1_Rep","full_date":"2026-02-27T19:28:06.320Z","date":"2026-02-27","time":"19:28:06","cor_ans":false},{"trial_type":"html-keyboard-response","rt":null,"stimulus":"<p style=\"color: red; font-size: 50px; font-weight: bold;\">Incorrect</p>","response":null,"trial_index":194,"plugin_version":"2.1.0","time_elapsed":476660,"subject_id":"91570","group":"Group2","condition":"1_Rep","full_date":"2026-02-27T19:28:06.320Z","date":"2026-02-27","time":"19:28:06"},{"correct_response":"a","task":"test_phase","broad_category":"S","image_png":"S_Sandstone_16.png","image_id":464,"category_name":"Sandstone","category":29,"distinct_rating":1.93,"distinct_type":"Bottom","item_type":"Foil","rt":473,"stimulus":"Stimuli_Rocks480/S_Sandstone_16.png","response":"l","trial_type":"image-keyboard-response","trial_index":195,"plugin_version":"2.1.0","time_elapsed":477134,"subject_id":"91570","group":"Group2","condition":"1_Rep","full_date":"2026-02-27T19:28:06.320Z","date":"2026-02-27","time":"19:28:06","cor_ans":false},{"trial_type":"html-keyboard-response","rt":null,"stimulus":"<p style=\"color: red; font-size: 50px; font-weight: bold;\">Incorrect</p>","response":null,"trial_index":196,"plugin_version":"2.1.0","time_elapsed":477635,"subject_id":"91570","group":"Group2","condition":"1_Rep","full_date":"2026-02-27T19:28:06.320Z","date":"2026-02-27","time":"19:28:06"},{"correct_response":"l","task":"test_phase","broad_category":"M","image_png":"M_Gneiss_15.png","image_id":207,"category_name":"Gneiss","category":13,"distinct_rating":3.11,"distinct_type":"Bottom","item_type":"Target","rt":434,"stimulus":"Stimuli_Rocks480/M_Gneiss_15.png","response":"l","trial_type":"image-keyboard-response","trial_index":197,"plugin_version":"2.1.0","time_elapsed":478071,"subject_id":"91570","group":"Group2","condition":"1_Rep","full_date":"2026-02-27T19:28:06.320Z","date":"2026-02-27","time":"19:28:06","cor_ans":true},{"trial_type":"html-keyboard-response","rt":null,"stimulus":"<p style=\"color: green; font-size: 50px; font-weight: bold;\">Correct</p>","response":null,"trial_index":198,"plugin_version":"2.1.0","time_elapsed":478573,"subject_id":"91570","group":"Group2","condition":"1_Rep","full_date":"2026-02-27T19:28:06.320Z","date":"2026-02-27","time":"19:28:06"},{"correct_response":"l","task":"test_phase","broad_category":"M","image_png":"M_Phyllite_02.png","image_id":258,"category_name":"Phyllite","category":17,"distinct_rating":2.89,"distinct_type":"Bottom","item_type":"Target","rt":440,"stimulus":"Stimuli_Rocks480/M_Phyllite_02.png","response":"a","trial_type":"image-keyboard-response","trial_index":199,"plugin_version":"2.1.0","time_elapsed":479014,"subject_id":"91570","group":"Group2","condition":"1_Rep","full_date":"2026-02-27T19:28:06.320Z","date":"2026-02-27","time":"19:28:06","cor_ans":false},{"trial_type":"html-keyboard-response","rt":null,"stimulus":"<p style=\"color: red; font-size: 50px; font-weight: bold;\">Incorrect</p>","response":null,"trial_index":200,"plugin_version":"2.1.0","time_elapsed":479516,"subject_id":"91570","group":"Group2","condition":"1_Rep","full_date":"2026-02-27T19:28:06.320Z","date":"2026-02-27","time":"19:28:06"},{"correct_response":"a","task":"test_phase","broad_category":"M","image_png":"M_Quartzite_08.png","image_id":280,"category_name":"Quartzite","category":18,"distinct_rating":2.15,"distinct_type":"Bottom","item_type":"Foil","rt":631,"stimulus":"Stimuli_Rocks480/M_Quartzite_08.png","response":"a","trial_type":"image-keyboard-response","trial_index":201,"plugin_version":"2.1.0","time_elapsed":480148,"subject_id":"91570","group":"Group2","condition":"1_Rep","full_date":"2026-02-27T19:28:06.320Z","date":"2026-02-27","time":"19:28:06","cor_ans":true},{"trial_type":"html-keyboard-response","rt":null,"stimulus":"<p style=\"color: green; font-size: 50px; font-weight: bold;\">Correct</p>","response":null,"trial_index":202,"plugin_version":"2.1.0","time_elapsed":480650,"subject_id":"91570","group":"Group2","condition":"1_Rep","full_date":"2026-02-27T19:28:06.320Z","date":"2026-02-27","time":"19:28:06"},{"correct_response":"a","task":"test_phase","broad_category":"S","image_png":"S_Shale_01.png","image_id":465,"category_name":"Shale","category":30,"distinct_rating":2.7,"distinct_type":"Bottom","item_type":"Foil","rt":5200,"stimulus":"Stimuli_Rocks480/S_Shale_01.png","response":"l","trial_type":"image-keyboard-response","trial_index":203,"plugin_version":"2.1.0","time_elapsed":485852,"subject_id":"91570","group":"Group2","condition":"1_Rep","full_date":"2026-02-27T19:28:06.320Z","date":"2026-02-27","time":"19:28:06","cor_ans":false},{"trial_type":"html-keyboard-response","rt":null,"stimulus":"<p style=\"color: red; font-size: 50px; font-weight: bold;\">Incorrect</p>","response":null,"trial_index":204,"plugin_version":"2.1.0","time_elapsed":486354,"subject_id":"91570","group":"Group2","condition":"1_Rep","full_date":"2026-02-27T19:28:06.320Z","date":"2026-02-27","time":"19:28:06"},{"correct_response":"l","task":"test_phase","broad_category":"I","image_png":"I_Peridotite_13.png","image_id":125,"category_name":"Peridotite","category":8,"distinct_rating":7.28,"distinct_type":"Top","item_type":"Target","rt":759,"stimulus":"Stimuli_Rocks480/I_Peridotite_13.png","response":"l","trial_type":"image-keyboard-response","trial_index":205,"plugin_version":"2.1.0","time_elapsed":487114,"subject_id":"91570","group":"Group2","condition":"1_Rep","full_date":"2026-02-27T19:28:06.320Z","date":"2026-02-27","time":"19:28:06","cor_ans":true},{"trial_type":"html-keyboard-response","rt":null,"stimulus":"<p style=\"color: green; font-size: 50px; font-weight: bold;\">Correct</p>","response":null,"trial_index":206,"plugin_version":"2.1.0","time_elapsed":487616,"subject_id":"91570","group":"Group2","condition":"1_Rep","full_date":"2026-02-27T19:28:06.320Z","date":"2026-02-27","time":"19:28:06"},{"correct_response":"a","task":"test_phase","broad_category":"S","image_png":"S_Sandstone_03.png","image_id":451,"category_name":"Sandstone","category":29,"distinct_rating":1.86,"distinct_type":"Bottom","item_type":"Foil","rt":600,"stimulus":"Stimuli_Rocks480/S_Sandstone_03.png","response":"l","trial_type":"image-keyboard-response","trial_index":207,"plugin_version":"2.1.0","time_elapsed":488218,"subject_id":"91570","group":"Group2","condition":"1_Rep","full_date":"2026-02-27T19:28:06.320Z","date":"2026-02-27","time":"19:28:06","cor_ans":false},{"trial_type":"html-keyboard-response","rt":null,"stimulus":"<p style=\"color: red; font-size: 50px; font-weight: bold;\">Incorrect</p>","response":null,"trial_index":208,"plugin_version":"2.1.0","time_elapsed":488719,"subject_id":"91570","group":"Group2","condition":"1_Rep","full_date":"2026-02-27T19:28:06.320Z","date":"2026-02-27","time":"19:28:06"},{"correct_response":"l","task":"test_phase","broad_category":"M","image_png":"M_Slate_10.png","image_id":314,"category_name":"Slate","category":20,"distinct_rating":1.94,"distinct_type":"Bottom","item_type":"Target","rt":480,"stimulus":"Stimuli_Rocks480/M_Slate_10.png","response":"l","trial_type":"image-keyboard-response","trial_index":209,"plugin_version":"2.1.0","time_elapsed":489201,"subject_id":"91570","group":"Group2","condition":"1_Rep","full_date":"2026-02-27T19:28:06.320Z","date":"2026-02-27","time":"19:28:06","cor_ans":true},{"trial_type":"html-keyboard-response","rt":null,"stimulus":"<p style=\"color: green; font-size: 50px; font-weight: bold;\">Correct</p>","response":null,"trial_index":210,"plugin_version":"2.1.0","time_elapsed":489702,"subject_id":"91570","group":"Group2","condition":"1_Rep","full_date":"2026-02-27T19:28:06.320Z","date":"2026-02-27","time":"19:28:06"},{"correct_response":"l","task":"test_phase","broad_category":"M","image_png":"M_Marble_03.png","image_id":227,"category_name":"Marble","category":15,"distinct_rating":2.67,"distinct_type":"Bottom","item_type":"Target","rt":497,"stimulus":"Stimuli_Rocks480/M_Marble_03.png","response":"l","trial_type":"image-keyboard-response","trial_index":211,"plugin_version":"2.1.0","time_elapsed":490201,"subject_id":"91570","group":"Group2","condition":"1_Rep","full_date":"2026-02-27T19:28:06.320Z","date":"2026-02-27","time":"19:28:06","cor_ans":true},{"trial_type":"html-keyboard-response","rt":null,"stimulus":"<p style=\"color: green; font-size: 50px; font-weight: bold;\">Correct</p>","response":null,"trial_index":212,"plugin_version":"2.1.0","time_elapsed":490702,"subject_id":"91570","group":"Group2","condition":"1_Rep","full_date":"2026-02-27T19:28:06.320Z","date":"2026-02-27","time":"19:28:06"},{"correct_response":"a","task":"test_phase","broad_category":"S","image_png":"S_Shale_12.png","image_id":476,"category_name":"Shale","category":30,"distinct_rating":2.48,"distinct_type":"Bottom","item_type":"Foil","rt":456,"stimulus":"Stimuli_Rocks480/S_Shale_12.png","response":"l","trial_type":"image-keyboard-response","trial_index":213,"plugin_version":"2.1.0","time_elapsed":491159,"subject_id":"91570","group":"Group2","condition":"1_Rep","full_date":"2026-02-27T19:28:06.320Z","date":"2026-02-27","time":"19:28:06","cor_ans":false},{"trial_type":"html-keyboard-response","rt":null,"stimulus":"<p style=\"color: red; font-size: 50px; font-weight: bold;\">Incorrect</p>","response":null,"trial_index":214,"plugin_version":"2.1.0","time_elapsed":491661,"subject_id":"91570","group":"Group2","condition":"1_Rep","full_date":"2026-02-27T19:28:06.320Z","date":"2026-02-27","time":"19:28:06"},{"correct_response":"l","task":"test_phase","broad_category":"I","image_png":"I_Pegmatite_03.png","image_id":99,"category_name":"Pegmatite","category":7,"distinct_rating":7.24,"distinct_type":"Top","item_type":"Target","rt":217,"stimulus":"Stimuli_Rocks480/I_Pegmatite_03.png","response":"l","trial_type":"image-keyboard-response","trial_index":215,"plugin_version":"2.1.0","time_elapsed":491880,"subject_id":"91570","group":"Group2","condition":"1_Rep","full_date":"2026-02-27T19:28:06.320Z","date":"2026-02-27","time":"19:28:06","cor_ans":true},{"trial_type":"html-keyboard-response","rt":null,"stimulus":"<p style=\"color: green; font-size: 50px; font-weight: bold;\">Correct</p>","response":null,"trial_index":216,"plugin_version":"2.1.0","time_elapsed":492381,"subject_id":"91570","group":"Group2","condition":"1_Rep","full_date":"2026-02-27T19:28:06.320Z","date":"2026-02-27","time":"19:28:06"},{"correct_response":"l","task":"test_phase","broad_category":"I","image_png":"I_Pegmatite_11.png","image_id":107,"category_name":"Pegmatite","category":7,"distinct_rating":7.11,"distinct_type":"Top","item_type":"Target","rt":769,"stimulus":"Stimuli_Rocks480/I_Pegmatite_11.png","response":"a","trial_type":"image-keyboard-response","trial_index":217,"plugin_version":"2.1.0","time_elapsed":493151,"subject_id":"91570","group":"Group2","condition":"1_Rep","full_date":"2026-02-27T19:28:06.320Z","date":"2026-02-27","time":"19:28:06","cor_ans":false},{"trial_type":"html-keyboard-response","rt":null,"stimulus":"<p style=\"color: red; font-size: 50px; font-weight: bold;\">Incorrect</p>","response":null,"trial_index":218,"plugin_version":"2.1.0","time_elapsed":493652,"subject_id":"91570","group":"Group2","condition":"1_Rep","full_date":"2026-02-27T19:28:06.320Z","date":"2026-02-27","time":"19:28:06"},{"correct_response":"l","task":"test_phase","broad_category":"I","image_png":"I_Gabbro_02.png","image_id":50,"category_name":"Gabbro","category":4,"distinct_rating":2.73,"distinct_type":"Bottom","item_type":"Target","rt":388,"stimulus":"Stimuli_Rocks480/I_Gabbro_02.png","response":"a","trial_type":"image-keyboard-response","trial_index":219,"plugin_version":"2.1.0","time_elapsed":494042,"subject_id":"91570","group":"Group2","condition":"1_Rep","full_date":"2026-02-27T19:28:06.320Z","date":"2026-02-27","time":"19:28:06","cor_ans":false},{"trial_type":"html-keyboard-response","rt":null,"stimulus":"<p style=\"color: red; font-size: 50px; font-weight: bold;\">Incorrect</p>","response":null,"trial_index":220,"plugin_version":"2.1.0","time_elapsed":494543,"subject_id":"91570","group":"Group2","condition":"1_Rep","full_date":"2026-02-27T19:28:06.320Z","date":"2026-02-27","time":"19:28:06"},{"correct_response":"a","task":"test_phase","broad_category":"I","image_png":"I_Obsidian_05.png","image_id":85,"category_name":"Obsidian","category":6,"distinct_rating":7.32,"distinct_type":"Top","item_type":"Foil","rt":356,"stimulus":"Stimuli_Rocks480/I_Obsidian_05.png","response":"a","trial_type":"image-keyboard-response","trial_index":221,"plugin_version":"2.1.0","time_elapsed":494901,"subject_id":"91570","group":"Group2","condition":"1_Rep","full_date":"2026-02-27T19:28:06.320Z","date":"2026-02-27","time":"19:28:06","cor_ans":true},{"trial_type":"html-keyboard-response","rt":null,"stimulus":"<p style=\"color: green; font-size: 50px; font-weight: bold;\">Correct</p>","response":null,"trial_index":222,"plugin_version":"2.1.0","time_elapsed":495402,"subject_id":"91570","group":"Group2","condition":"1_Rep","full_date":"2026-02-27T19:28:06.320Z","date":"2026-02-27","time":"19:28:06"},{"correct_response":"a","task":"test_phase","broad_category":"S","image_png":"S_Breccia_11.png","image_id":347,"category_name":"Breccia","category":22,"distinct_rating":6.7,"distinct_type":"Top","item_type":"Foil","rt":368,"stimulus":"Stimuli_Rocks480/S_Breccia_11.png","response":"a","trial_type":"image-keyboard-response","trial_index":223,"plugin_version":"2.1.0","time_elapsed":495772,"subject_id":"91570","group":"Group2","condition":"1_Rep","full_date":"2026-02-27T19:28:06.320Z","date":"2026-02-27","time":"19:28:06","cor_ans":true},{"trial_type":"html-keyboard-response","rt":null,"stimulus":"<p style=\"color: green; font-size: 50px; font-weight: bold;\">Correct</p>","response":null,"trial_index":224,"plugin_version":"2.1.0","time_elapsed":496273,"subject_id":"91570","group":"Group2","condition":"1_Rep","full_date":"2026-02-27T19:28:06.320Z","date":"2026-02-27","time":"19:28:06"},{"correct_response":"l","task":"test_phase","broad_category":"S","image_png":"S_Dolomite_01.png","image_id":385,"ca