[{"width":1327,"height":728,"webaudio":true,"browser":"chrome","browser_version":"143.0.0","mobile":false,"os":"Mac OS","fullscreen":true,"vsync_rate":60.57,"webcam":true,"microphone":true,"trial_type":"browser-check","trial_index":0,"plugin_version":"2.1.0","time_elapsed":1001,"subject_id":"91444","group":"Group1","condition":"1_Rep","full_date":"2026-01-23T20:01:13.311Z","date":"2026-01-23","time":"20:01:13"},{"success":true,"timeout":false,"failed_images":[],"failed_audio":[],"failed_video":[],"trial_type":"preload","trial_index":1,"plugin_version":"2.1.0","time_elapsed":4252,"subject_id":"91444","group":"Group1","condition":"1_Rep","full_date":"2026-01-23T20:01:13.311Z","date":"2026-01-23","time":"20:01:13"},{"rt":10635,"url":"SONA_consent_memorability.html","trial_type":"external-html","trial_index":2,"plugin_version":"2.1.0","time_elapsed":14980,"subject_id":"91444","group":"Group1","condition":"1_Rep","full_date":"2026-01-23T20:01:13.311Z","date":"2026-01-23","time":"20:01:13"},{"success":true,"rt":3115,"trial_type":"fullscreen","trial_index":3,"plugin_version":"2.1.0","time_elapsed":19099,"subject_id":"91444","group":"Group1","condition":"1_Rep","full_date":"2026-01-23T20:01:13.311Z","date":"2026-01-23","time":"20:01:13"},{"rt":2176,"stimulus":"<div style=\"max-width: 760px; margin: auto; font-size: 20px; line-height: 1.5;\">\n      <h1 style=\"text-align:center; font-size: 30px;\">Instructions</h1>\n      <p>\n        Welcome to the study on <b>visual memory</b>. This experiment consists of <b>two phases</b>: \n        a <b>study phase</b> and a <b>test phase</b>.\n      </p>\n      <p>\n        In the study phase, you will see a series of rock images along with their category labels.\n        The images will appear one at a time.\n        <b>Your task</b> is to learn the categories to which the rock images belong \n        and to remember each image as accurately as possible.\n      </p> \n      <p>\n        Note that you will see each image only <b>once</b> during the study phase. \n          So, please pay close attention and try to remember each image carefully.\n      </p>\n      <p>\n        After the study phase, <b>your memory will be tested</b>. \n        Additional instructions for the test phase will be provided at that time.\n      </p>\n      <p>\n        If your computer has multiple <b>language settings</b> (e.g., English and another language),\n        please make sure it is set to English before starting.\n      </p>\n      <p>\n        You can track your progress using the <b>completion bar</b> at the top of the screen. \n        Please note that the bar will refresh when the test phase begins \n        to give you an accurate sense of your progress in both phases.\n      </p> \n      <p>\n        Press the button below when you are ready to begin.\n      </p>\n    </div>","response":0,"trial_type":"html-button-response","trial_index":4,"plugin_version":"2.1.0","time_elapsed":21280,"subject_id":"91444","group":"Group1","condition":"1_Rep","full_date":"2026-01-23T20:01:13.311Z","date":"2026-01-23","time":"20:01:13"},{"rt":null,"stimulus":"<p style=\"font-size: 50px; margin: 0; text-align: center;\">+</p>","response":null,"trial_type":"html-keyboard-response","trial_index":5,"plugin_version":"2.1.0","time_elapsed":22284,"subject_id":"91444","group":"Group1","condition":"1_Rep","full_date":"2026-01-23T20:01:13.311Z","date":"2026-01-23","time":"20:01:13"},{"task":"memory_phase","broad_category":"M","image_png":"M_Slate_15.png","image_id":319,"category_name":"Slate","category":20,"distinct_rating":2.13,"distinct_type":"Bottom","rt":null,"stimulus":"Stimuli_Rocks480/M_Slate_15.png","response":null,"trial_type":"image-keyboard-response","trial_index":6,"plugin_version":"2.1.0","time_elapsed":24790,"subject_id":"91444","group":"Group1","condition":"1_Rep","full_date":"2026-01-23T20:01:13.311Z","date":"2026-01-23","time":"20:01:13"},{"rt":null,"stimulus":"<p style=\"font-size: 50px; margin: 0; text-align: center;\">+</p>","response":null,"trial_type":"html-keyboard-response","trial_index":7,"plugin_version":"2.1.0","time_elapsed":25793,"subject_id":"91444","group":"Group1","condition":"1_Rep","full_date":"2026-01-23T20:01:13.311Z","date":"2026-01-23","time":"20:01:13"},{"task":"memory_phase","broad_category":"M","image_png":"M_Gneiss_06.png","image_id":198,"category_name":"Gneiss","category":13,"distinct_rating":2.65,"distinct_type":"Bottom","rt":null,"stimulus":"Stimuli_Rocks480/M_Gneiss_06.png","response":null,"trial_type":"image-keyboard-response","trial_index":8,"plugin_version":"2.1.0","time_elapsed":28297,"subject_id":"91444","group":"Group1","condition":"1_Rep","full_date":"2026-01-23T20:01:13.311Z","date":"2026-01-23","time":"20:01:13"},{"rt":null,"stimulus":"<p style=\"font-size: 50px; margin: 0; text-align: center;\">+</p>","response":null,"trial_type":"html-keyboard-response","trial_index":9,"plugin_version":"2.1.0","time_elapsed":29301,"subject_id":"91444","group":"Group1","condition":"1_Rep","full_date":"2026-01-23T20:01:13.311Z","date":"2026-01-23","time":"20:01:13"},{"task":"memory_phase","broad_category":"I","image_png":"I_Andesite_08.png","image_id":8,"category_name":"Andesite","category":1,"distinct_rating":1.95,"distinct_type":"Bottom","rt":null,"stimulus":"Stimuli_Rocks480/I_Andesite_08.png","response":null,"trial_type":"image-keyboard-response","trial_index":10,"plugin_version":"2.1.0","time_elapsed":31805,"subject_id":"91444","group":"Group1","condition":"1_Rep","full_date":"2026-01-23T20:01:13.311Z","date":"2026-01-23","time":"20:01:13"},{"rt":null,"stimulus":"<p style=\"font-size: 50px; margin: 0; text-align: center;\">+</p>","response":null,"trial_type":"html-keyboard-response","trial_index":11,"plugin_version":"2.1.0","time_elapsed":32808,"subject_id":"91444","group":"Group1","condition":"1_Rep","full_date":"2026-01-23T20:01:13.311Z","date":"2026-01-23","time":"20:01:13"},{"task":"memory_phase","broad_category":"I","image_png":"I_Diorite_05.png","image_id":37,"category_name":"Diorite","category":3,"distinct_rating":3.08,"distinct_type":"Bottom","rt":null,"stimulus":"Stimuli_Rocks480/I_Diorite_05.png","response":null,"trial_type":"image-keyboard-response","trial_index":12,"plugin_version":"2.1.0","time_elapsed":35312,"subject_id":"91444","group":"Group1","condition":"1_Rep","full_date":"2026-01-23T20:01:13.311Z","date":"2026-01-23","time":"20:01:13"},{"rt":null,"stimulus":"<p style=\"font-size: 50px; margin: 0; text-align: center;\">+</p>","response":null,"trial_type":"html-keyboard-response","trial_index":13,"plugin_version":"2.1.0","time_elapsed":36315,"subject_id":"91444","group":"Group1","condition":"1_Rep","full_date":"2026-01-23T20:01:13.311Z","date":"2026-01-23","time":"20:01:13"},{"task":"memory_phase","broad_category":"I","image_png":"I_Gabbro_11.png","image_id":59,"category_name":"Gabbro","category":4,"distinct_rating":1.99,"distinct_type":"Bottom","rt":null,"stimulus":"Stimuli_Rocks480/I_Gabbro_11.png","response":null,"trial_type":"image-keyboard-response","trial_index":14,"plugin_version":"2.1.0","time_elapsed":38819,"subject_id":"91444","group":"Group1","condition":"1_Rep","full_date":"2026-01-23T20:01:13.311Z","date":"2026-01-23","time":"20:01:13"},{"rt":null,"stimulus":"<p style=\"font-size: 50px; margin: 0; text-align: center;\">+</p>","response":null,"trial_type":"html-keyboard-response","trial_index":15,"plugin_version":"2.1.0","time_elapsed":39822,"subject_id":"91444","group":"Group1","condition":"1_Rep","full_date":"2026-01-23T20:01:13.311Z","date":"2026-01-23","time":"20:01:13"},{"task":"memory_phase","broad_category":"I","image_png":"I_Andesite_10.png","image_id":10,"category_name":"Andesite","category":1,"distinct_rating":3.15,"distinct_type":"Bottom","rt":null,"stimulus":"Stimuli_Rocks480/I_Andesite_10.png","response":null,"trial_type":"image-keyboard-response","trial_index":16,"plugin_version":"2.1.0","time_elapsed":42325,"subject_id":"91444","group":"Group1","condition":"1_Rep","full_date":"2026-01-23T20:01:13.311Z","date":"2026-01-23","time":"20:01:13"},{"rt":null,"stimulus":"<p style=\"font-size: 50px; margin: 0; text-align: center;\">+</p>","response":null,"trial_type":"html-keyboard-response","trial_index":17,"plugin_version":"2.1.0","time_elapsed":43328,"subject_id":"91444","group":"Group1","condition":"1_Rep","full_date":"2026-01-23T20:01:13.311Z","date":"2026-01-23","time":"20:01:13"},{"task":"memory_phase","broad_category":"I","image_png":"I_Obsidian_05.png","image_id":85,"category_name":"Obsidian","category":6,"distinct_rating":7.32,"distinct_type":"Top","rt":null,"stimulus":"Stimuli_Rocks480/I_Obsidian_05.png","response":null,"trial_type":"image-keyboard-response","trial_index":18,"plugin_version":"2.1.0","time_elapsed":45832,"subject_id":"91444","group":"Group1","condition":"1_Rep","full_date":"2026-01-23T20:01:13.311Z","date":"2026-01-23","time":"20:01:13"},{"rt":null,"stimulus":"<p style=\"font-size: 50px; margin: 0; text-align: center;\">+</p>","response":null,"trial_type":"html-keyboard-response","trial_index":19,"plugin_version":"2.1.0","time_elapsed":46836,"subject_id":"91444","group":"Group1","condition":"1_Rep","full_date":"2026-01-23T20:01:13.311Z","date":"2026-01-23","time":"20:01:13"},{"task":"memory_phase","broad_category":"M","image_png":"M_Quartzite_05.png","image_id":277,"category_name":"Quartzite","category":18,"distinct_rating":2.23,"distinct_type":"Bottom","rt":null,"stimulus":"Stimuli_Rocks480/M_Quartzite_05.png","response":null,"trial_type":"image-keyboard-response","trial_index":20,"plugin_version":"2.1.0","time_elapsed":49339,"subject_id":"91444","group":"Group1","condition":"1_Rep","full_date":"2026-01-23T20:01:13.311Z","date":"2026-01-23","time":"20:01:13"},{"rt":null,"stimulus":"<p style=\"font-size: 50px; margin: 0; text-align: center;\">+</p>","response":null,"trial_type":"html-keyboard-response","trial_index":21,"plugin_version":"2.1.0","time_elapsed":50341,"subject_id":"91444","group":"Group1","condition":"1_Rep","full_date":"2026-01-23T20:01:13.311Z","date":"2026-01-23","time":"20:01:13"},{"task":"memory_phase","broad_category":"I","image_png":"I_Pumice_12.png","image_id":140,"category_name":"Pumice","category":9,"distinct_rating":2.97,"distinct_type":"Bottom","rt":null,"stimulus":"Stimuli_Rocks480/I_Pumice_12.png","response":null,"trial_type":"image-keyboard-response","trial_index":22,"plugin_version":"2.1.0","time_elapsed":52845,"subject_id":"91444","group":"Group1","condition":"1_Rep","full_date":"2026-01-23T20:01:13.311Z","date":"2026-01-23","time":"20:01:13"},{"rt":null,"stimulus":"<p style=\"font-size: 50px; margin: 0; text-align: center;\">+</p>","response":null,"trial_type":"html-keyboard-response","trial_index":23,"plugin_version":"2.1.0","time_elapsed":53848,"subject_id":"91444","group":"Group1","condition":"1_Rep","full_date":"2026-01-23T20:01:13.311Z","date":"2026-01-23","time":"20:01:13"},{"task":"memory_phase","broad_category":"M","image_png":"M_Gneiss_05.png","image_id":197,"category_name":"Gneiss","category":13,"distinct_rating":2.97,"distinct_type":"Bottom","rt":null,"stimulus":"Stimuli_Rocks480/M_Gneiss_05.png","response":null,"trial_type":"image-keyboard-response","trial_index":24,"plugin_version":"2.1.0","time_elapsed":56352,"subject_id":"91444","group":"Group1","condition":"1_Rep","full_date":"2026-01-23T20:01:13.311Z","date":"2026-01-23","time":"20:01:13"},{"rt":null,"stimulus":"<p style=\"font-size: 50px; margin: 0; text-align: center;\">+</p>","response":null,"trial_type":"html-keyboard-response","trial_index":25,"plugin_version":"2.1.0","time_elapsed":57355,"subject_id":"91444","group":"Group1","condition":"1_Rep","full_date":"2026-01-23T20:01:13.311Z","date":"2026-01-23","time":"20:01:13"},{"task":"memory_phase","broad_category":"S","image_png":"S_Chert_10.png","image_id":362,"category_name":"Chert","category":23,"distinct_rating":7.17,"distinct_type":"Top","rt":null,"stimulus":"Stimuli_Rocks480/S_Chert_10.png","response":null,"trial_type":"image-keyboard-response","trial_index":26,"plugin_version":"2.1.0","time_elapsed":59859,"subject_id":"91444","group":"Group1","condition":"1_Rep","full_date":"2026-01-23T20:01:13.311Z","date":"2026-01-23","time":"20:01:13"},{"rt":null,"stimulus":"<p style=\"font-size: 50px; margin: 0; text-align: center;\">+</p>","response":null,"trial_type":"html-keyboard-response","trial_index":27,"plugin_version":"2.1.0","time_elapsed":60862,"subject_id":"91444","group":"Group1","condition":"1_Rep","full_date":"2026-01-23T20:01:13.311Z","date":"2026-01-23","time":"20:01:13"},{"task":"memory_phase","broad_category":"M","image_png":"M_Quartzite_13.png","image_id":285,"category_name":"Quartzite","category":18,"distinct_rating":2.27,"distinct_type":"Bottom","rt":null,"stimulus":"Stimuli_Rocks480/M_Quartzite_13.png","response":null,"trial_type":"image-keyboard-response","trial_index":28,"plugin_version":"2.1.0","time_elapsed":63366,"subject_id":"91444","group":"Group1","condition":"1_Rep","full_date":"2026-01-23T20:01:13.311Z","date":"2026-01-23","time":"20:01:13"},{"rt":null,"stimulus":"<p style=\"font-size: 50px; margin: 0; text-align: center;\">+</p>","response":null,"trial_type":"html-keyboard-response","trial_index":29,"plugin_version":"2.1.0","time_elapsed":64369,"subject_id":"91444","group":"Group1","condition":"1_Rep","full_date":"2026-01-23T20:01:13.311Z","date":"2026-01-23","time":"20:01:13"},{"task":"memory_phase","broad_category":"S","image_png":"S_Dolomite_12.png","image_id":396,"category_name":"Dolomite","category":25,"distinct_rating":1.85,"distinct_type":"Bottom","rt":null,"stimulus":"Stimuli_Rocks480/S_Dolomite_12.png","response":null,"trial_type":"image-keyboard-response","trial_index":30,"plugin_version":"2.1.0","time_elapsed":66873,"subject_id":"91444","group":"Group1","condition":"1_Rep","full_date":"2026-01-23T20:01:13.311Z","date":"2026-01-23","time":"20:01:13"},{"rt":null,"stimulus":"<p style=\"font-size: 50px; margin: 0; text-align: center;\">+</p>","response":null,"trial_type":"html-keyboard-response","trial_index":31,"plugin_version":"2.1.0","time_elapsed":67874,"subject_id":"91444","group":"Group1","condition":"1_Rep","full_date":"2026-01-23T20:01:13.311Z","date":"2026-01-23","time":"20:01:13"},{"task":"memory_phase","broad_category":"S","image_png":"S_Dolomite_14.png","image_id":398,"category_name":"Dolomite","category":25,"distinct_rating":1.43,"distinct_type":"Bottom","rt":null,"stimulus":"Stimuli_Rocks480/S_Dolomite_14.png","response":null,"trial_type":"image-keyboard-response","trial_index":32,"plugin_version":"2.1.0","time_elapsed":70378,"subject_id":"91444","group":"Group1","condition":"1_Rep","full_date":"2026-01-23T20:01:13.311Z","date":"2026-01-23","time":"20:01:13"},{"rt":null,"stimulus":"<p style=\"font-size: 50px; margin: 0; text-align: center;\">+</p>","response":null,"trial_type":"html-keyboard-response","trial_index":33,"plugin_version":"2.1.0","time_elapsed":71381,"subject_id":"91444","group":"Group1","condition":"1_Rep","full_date":"2026-01-23T20:01:13.311Z","date":"2026-01-23","time":"20:01:13"},{"task":"memory_phase","broad_category":"S","image_png":"S_Rock Gypsum_04.png","image_id":420,"category_name":"Rock Gypsum","category":27,"distinct_rating":7.61,"distinct_type":"Top","rt":null,"stimulus":"Stimuli_Rocks480/S_Rock Gypsum_04.png","response":null,"trial_type":"image-keyboard-response","trial_index":34,"plugin_version":"2.1.0","time_elapsed":73885,"subject_id":"91444","group":"Group1","condition":"1_Rep","full_date":"2026-01-23T20:01:13.311Z","date":"2026-01-23","time":"20:01:13"},{"rt":null,"stimulus":"<p style=\"font-size: 50px; margin: 0; text-align: center;\">+</p>","response":null,"trial_type":"html-keyboard-response","trial_index":35,"plugin_version":"2.1.0","time_elapsed":74887,"subject_id":"91444","group":"Group1","condition":"1_Rep","full_date":"2026-01-23T20:01:13.311Z","date":"2026-01-23","time":"20:01:13"},{"task":"memory_phase","broad_category":"M","image_png":"M_Marble_16.png","image_id":240,"category_name":"Marble","category":15,"distinct_rating":2.57,"distinct_type":"Bottom","rt":null,"stimulus":"Stimuli_Rocks480/M_Marble_16.png","response":null,"trial_type":"image-keyboard-response","trial_index":36,"plugin_version":"2.1.0","time_elapsed":77392,"subject_id":"91444","group":"Group1","condition":"1_Rep","full_date":"2026-01-23T20:01:13.311Z","date":"2026-01-23","time":"20:01:13"},{"rt":null,"stimulus":"<p style=\"font-size: 50px; margin: 0; text-align: center;\">+</p>","response":null,"trial_type":"html-keyboard-response","trial_index":37,"plugin_version":"2.1.0","time_elapsed":78395,"subject_id":"91444","group":"Group1","condition":"1_Rep","full_date":"2026-01-23T20:01:13.311Z","date":"2026-01-23","time":"20:01:13"},{"task":"memory_phase","broad_category":"M","image_png":"M_Phyllite_03.png","image_id":259,"category_name":"Phyllite","category":17,"distinct_rating":2.5,"distinct_type":"Bottom","rt":null,"stimulus":"Stimuli_Rocks480/M_Phyllite_03.png","response":null,"trial_type":"image-keyboard-response","trial_index":38,"plugin_version":"2.1.0","time_elapsed":80898,"subject_id":"91444","group":"Group1","condition":"1_Rep","full_date":"2026-01-23T20:01:13.311Z","date":"2026-01-23","time":"20:01:13"},{"rt":null,"stimulus":"<p style=\"font-size: 50px; margin: 0; text-align: center;\">+</p>","response":null,"trial_type":"html-keyboard-response","trial_index":39,"plugin_version":"2.1.0","time_elapsed":81900,"subject_id":"91444","group":"Group1","condition":"1_Rep","full_date":"2026-01-23T20:01:13.311Z","date":"2026-01-23","time":"20:01:13"},{"task":"memory_phase","broad_category":"I","image_png":"I_Basalt_02.png","image_id":18,"category_name":"Basalt","category":2,"distinct_rating":1.84,"distinct_type":"Bottom","rt":null,"stimulus":"Stimuli_Rocks480/I_Basalt_02.png","response":null,"trial_type":"image-keyboard-response","trial_index":40,"plugin_version":"2.1.0","time_elapsed":84404,"subject_id":"91444","group":"Group1","condition":"1_Rep","full_date":"2026-01-23T20:01:13.311Z","date":"2026-01-23","time":"20:01:13"},{"rt":null,"stimulus":"<p style=\"font-size: 50px; margin: 0; text-align: center;\">+</p>","response":null,"trial_type":"html-keyboard-response","trial_index":41,"plugin_version":"2.1.0","time_elapsed":85406,"subject_id":"91444","group":"Group1","condition":"1_Rep","full_date":"2026-01-23T20:01:13.311Z","date":"2026-01-23","time":"20:01:13"},{"task":"memory_phase","broad_category":"M","image_png":"M_Slate_03.png","image_id":307,"category_name":"Slate","category":20,"distinct_rating":1.87,"distinct_type":"Bottom","rt":null,"stimulus":"Stimuli_Rocks480/M_Slate_03.png","response":null,"trial_type":"image-keyboard-response","trial_index":42,"plugin_version":"2.1.0","time_elapsed":87909,"subject_id":"91444","group":"Group1","condition":"1_Rep","full_date":"2026-01-23T20:01:13.311Z","date":"2026-01-23","time":"20:01:13"},{"rt":null,"stimulus":"<p style=\"font-size: 50px; margin: 0; text-align: center;\">+</p>","response":null,"trial_type":"html-keyboard-response","trial_index":43,"plugin_version":"2.1.0","time_elapsed":88911,"subject_id":"91444","group":"Group1","condition":"1_Rep","full_date":"2026-01-23T20:01:13.311Z","date":"2026-01-23","time":"20:01:13"},{"task":"memory_phase","broad_category":"M","image_png":"M_Phyllite_07.png","image_id":263,"category_name":"Phyllite","category":17,"distinct_rating":2.59,"distinct_type":"Bottom","rt":null,"stimulus":"Stimuli_Rocks480/M_Phyllite_07.png","response":null,"trial_type":"image-keyboard-response","trial_index":44,"plugin_version":"2.1.0","time_elapsed":91414,"subject_id":"91444","group":"Group1","condition":"1_Rep","full_date":"2026-01-23T20:01:13.311Z","date":"2026-01-23","time":"20:01:13"},{"rt":null,"stimulus":"<p style=\"font-size: 50px; margin: 0; text-align: center;\">+</p>","response":null,"trial_type":"html-keyboard-response","trial_index":45,"plugin_version":"2.1.0","time_elapsed":92415,"subject_id":"91444","group":"Group1","condition":"1_Rep","full_date":"2026-01-23T20:01:13.311Z","date":"2026-01-23","time":"20:01:13"},{"task":"memory_phase","broad_category":"S","image_png":"S_Sandstone_16.png","image_id":464,"category_name":"Sandstone","category":29,"distinct_rating":1.93,"distinct_type":"Bottom","rt":null,"stimulus":"Stimuli_Rocks480/S_Sandstone_16.png","response":null,"trial_type":"image-keyboard-response","trial_index":46,"plugin_version":"2.1.0","time_elapsed":94919,"subject_id":"91444","group":"Group1","condition":"1_Rep","full_date":"2026-01-23T20:01:13.311Z","date":"2026-01-23","time":"20:01:13"},{"rt":null,"stimulus":"<p style=\"font-size: 50px; margin: 0; text-align: center;\">+</p>","response":null,"trial_type":"html-keyboard-response","trial_index":47,"plugin_version":"2.1.0","time_elapsed":95922,"subject_id":"91444","group":"Group1","condition":"1_Rep","full_date":"2026-01-23T20:01:13.311Z","date":"2026-01-23","time":"20:01:13"},{"task":"memory_phase","broad_category":"M","image_png":"M_Marble_04.png","image_id":228,"category_name":"Marble","category":15,"distinct_rating":3.15,"distinct_type":"Bottom","rt":null,"stimulus":"Stimuli_Rocks480/M_Marble_04.png","response":null,"trial_type":"image-keyboard-response","trial_index":48,"plugin_version":"2.1.0","time_elapsed":98426,"subject_id":"91444","group":"Group1","condition":"1_Rep","full_date":"2026-01-23T20:01:13.311Z","date":"2026-01-23","time":"20:01:13"},{"rt":null,"stimulus":"<p style=\"font-size: 50px; margin: 0; text-align: center;\">+</p>","response":null,"trial_type":"html-keyboard-response","trial_index":49,"plugin_version":"2.1.0","time_elapsed":99428,"subject_id":"91444","group":"Group1","condition":"1_Rep","full_date":"2026-01-23T20:01:13.311Z","date":"2026-01-23","time":"20:01:13"},{"task":"memory_phase","broad_category":"S","image_png":"S_Sandstone_15.png","image_id":463,"category_name":"Sandstone","category":29,"distinct_rating":2,"distinct_type":"Bottom","rt":null,"stimulus":"Stimuli_Rocks480/S_Sandstone_15.png","response":null,"trial_type":"image-keyboard-response","trial_index":50,"plugin_version":"2.1.0","time_elapsed":101936,"subject_id":"91444","group":"Group1","condition":"1_Rep","full_date":"2026-01-23T20:01:13.311Z","date":"2026-01-23","time":"20:01:13"},{"rt":null,"stimulus":"<p style=\"font-size: 50px; margin: 0; text-align: center;\">+</p>","response":null,"trial_type":"html-keyboard-response","trial_index":51,"plugin_version":"2.1.0","time_elapsed":102939,"subject_id":"91444","group":"Group1","condition":"1_Rep","full_date":"2026-01-23T20:01:13.311Z","date":"2026-01-23","time":"20:01:13"},{"task":"memory_phase","broad_category":"S","image_png":"S_Breccia_11.png","image_id":347,"category_name":"Breccia","category":22,"distinct_rating":6.7,"distinct_type":"Top","rt":null,"stimulus":"Stimuli_Rocks480/S_Breccia_11.png","response":null,"trial_type":"image-keyboard-response","trial_index":52,"plugin_version":"2.1.0","time_elapsed":105443,"subject_id":"91444","group":"Group1","condition":"1_Rep","full_date":"2026-01-23T20:01:13.311Z","date":"2026-01-23","time":"20:01:13"},{"rt":null,"stimulus":"<p style=\"font-size: 50px; margin: 0; text-align: center;\">+</p>","response":null,"trial_type":"html-keyboard-response","trial_index":53,"plugin_version":"2.1.0","time_elapsed":106446,"subject_id":"91444","group":"Group1","condition":"1_Rep","full_date":"2026-01-23T20:01:13.311Z","date":"2026-01-23","time":"20:01:13"},{"task":"memory_phase","broad_category":"I","image_png":"I_Gabbro_16.png","image_id":64,"category_name":"Gabbro","category":4,"distinct_rating":2.52,"distinct_type":"Bottom","rt":null,"stimulus":"Stimuli_Rocks480/I_Gabbro_16.png","response":null,"trial_type":"image-keyboard-response","trial_index":54,"plugin_version":"2.1.0","time_elapsed":108948,"subject_id":"91444","group":"Group1","condition":"1_Rep","full_date":"2026-01-23T20:01:13.311Z","date":"2026-01-23","time":"20:01:13"},{"rt":2124,"stimulus":"<p style=\"max-width: 760px; margin: auto; font-size: 35px; line-height: 1.5;\">\n                Press SPACE to continue study phase\n              </p>","response":" ","trial_type":"html-keyboard-response","trial_index":55,"plugin_version":"2.1.0","time_elapsed":111074,"subject_id":"91444","group":"Group1","condition":"1_Rep","full_date":"2026-01-23T20:01:13.311Z","date":"2026-01-23","time":"20:01:13"},{"rt":null,"stimulus":"<p style=\"font-size: 50px; margin: 0; text-align: center;\">+</p>","response":null,"trial_type":"html-keyboard-response","trial_index":56,"plugin_version":"2.1.0","time_elapsed":112077,"subject_id":"91444","group":"Group1","condition":"1_Rep","full_date":"2026-01-23T20:01:13.311Z","date":"2026-01-23","time":"20:01:13"},{"task":"memory_phase","broad_category":"M","image_png":"M_Gneiss_13.png","image_id":205,"category_name":"Gneiss","category":13,"distinct_rating":3.26,"distinct_type":"Bottom","rt":null,"stimulus":"Stimuli_Rocks480/M_Gneiss_13.png","response":null,"trial_type":"image-keyboard-response","trial_index":57,"plugin_version":"2.1.0","time_elapsed":114580,"subject_id":"91444","group":"Group1","condition":"1_Rep","full_date":"2026-01-23T20:01:13.311Z","date":"2026-01-23","time":"20:01:13"},{"rt":null,"stimulus":"<p style=\"font-size: 50px; margin: 0; text-align: center;\">+</p>","response":null,"trial_type":"html-keyboard-response","trial_index":58,"plugin_version":"2.1.0","time_elapsed":115583,"subject_id":"91444","group":"Group1","condition":"1_Rep","full_date":"2026-01-23T20:01:13.311Z","date":"2026-01-23","time":"20:01:13"},{"task":"memory_phase","broad_category":"I","image_png":"I_Diorite_04.png","image_id":36,"category_name":"Diorite","category":3,"distinct_rating":2.98,"distinct_type":"Bottom","rt":null,"stimulus":"Stimuli_Rocks480/I_Diorite_04.png","response":null,"trial_type":"image-keyboard-response","trial_index":59,"plugin_version":"2.1.0","time_elapsed":118087,"subject_id":"91444","group":"Group1","condition":"1_Rep","full_date":"2026-01-23T20:01:13.311Z","date":"2026-01-23","time":"20:01:13"},{"rt":null,"stimulus":"<p style=\"font-size: 50px; margin: 0; text-align: center;\">+</p>","response":null,"trial_type":"html-keyboard-response","trial_index":60,"plugin_version":"2.1.0","time_elapsed":119090,"subject_id":"91444","group":"Group1","condition":"1_Rep","full_date":"2026-01-23T20:01:13.311Z","date":"2026-01-23","time":"20:01:13"},{"task":"memory_phase","broad_category":"M","image_png":"M_Slate_11.png","image_id":315,"category_name":"Slate","category":20,"distinct_rating":2.75,"distinct_type":"Bottom","rt":null,"stimulus":"Stimuli_Rocks480/M_Slate_11.png","response":null,"trial_type":"image-keyboard-response","trial_index":61,"plugin_version":"2.1.0","time_elapsed":121593,"subject_id":"91444","group":"Group1","condition":"1_Rep","full_date":"2026-01-23T20:01:13.311Z","date":"2026-01-23","time":"20:01:13"},{"rt":null,"stimulus":"<p style=\"font-size: 50px; margin: 0; text-align: center;\">+</p>","response":null,"trial_type":"html-keyboard-response","trial_index":62,"plugin_version":"2.1.0","time_elapsed":122596,"subject_id":"91444","group":"Group1","condition":"1_Rep","full_date":"2026-01-23T20:01:13.311Z","date":"2026-01-23","time":"20:01:13"},{"task":"memory_phase","broad_category":"I","image_png":"I_Basalt_01.png","image_id":17,"category_name":"Basalt","category":2,"distinct_rating":1.92,"distinct_type":"Bottom","rt":null,"stimulus":"Stimuli_Rocks480/I_Basalt_01.png","response":null,"trial_type":"image-keyboard-response","trial_index":63,"plugin_version":"2.1.0","time_elapsed":125100,"subject_id":"91444","group":"Group1","condition":"1_Rep","full_date":"2026-01-23T20:01:13.311Z","date":"2026-01-23","time":"20:01:13"},{"rt":null,"stimulus":"<p style=\"font-size: 50px; margin: 0; text-align: center;\">+</p>","response":null,"trial_type":"html-keyboard-response","trial_index":64,"plugin_version":"2.1.0","time_elapsed":126103,"subject_id":"91444","group":"Group1","condition":"1_Rep","full_date":"2026-01-23T20:01:13.311Z","date":"2026-01-23","time":"20:01:13"},{"task":"memory_phase","broad_category":"S","image_png":"S_Rock Salt_01.png","image_id":433,"category_name":"Rock Salt","category":28,"distinct_rating":7.18,"distinct_type":"Top","rt":null,"stimulus":"Stimuli_Rocks480/S_Rock Salt_01.png","response":null,"trial_type":"image-keyboard-response","trial_index":65,"plugin_version":"2.1.0","time_elapsed":128606,"subject_id":"91444","group":"Group1","condition":"1_Rep","full_date":"2026-01-23T20:01:13.311Z","date":"2026-01-23","time":"20:01:13"},{"rt":null,"stimulus":"<p style=\"font-size: 50px; margin: 0; text-align: center;\">+</p>","response":null,"trial_type":"html-keyboard-response","trial_index":66,"plugin_version":"2.1.0","time_elapsed":129608,"subject_id":"91444","group":"Group1","condition":"1_Rep","full_date":"2026-01-23T20:01:13.311Z","date":"2026-01-23","time":"20:01:13"},{"task":"memory_phase","broad_category":"I","image_png":"I_Rhyolite_16.png","image_id":160,"category_name":"Rhyolite","category":10,"distinct_rating":2.19,"distinct_type":"Bottom","rt":null,"stimulus":"Stimuli_Rocks480/I_Rhyolite_16.png","response":null,"trial_type":"image-keyboard-response","trial_index":67,"plugin_version":"2.1.0","time_elapsed":132112,"subject_id":"91444","group":"Group1","condition":"1_Rep","full_date":"2026-01-23T20:01:13.311Z","date":"2026-01-23","time":"20:01:13"},{"rt":null,"stimulus":"<p style=\"font-size: 50px; margin: 0; text-align: center;\">+</p>","response":null,"trial_type":"html-keyboard-response","trial_index":68,"plugin_version":"2.1.0","time_elapsed":133115,"subject_id":"91444","group":"Group1","condition":"1_Rep","full_date":"2026-01-23T20:01:13.311Z","date":"2026-01-23","time":"20:01:13"},{"task":"memory_phase","broad_category":"S","image_png":"S_Shale_01.png","image_id":465,"category_name":"Shale","category":30,"distinct_rating":2.7,"distinct_type":"Bottom","rt":null,"stimulus":"Stimuli_Rocks480/S_Shale_01.png","response":null,"trial_type":"image-keyboard-response","trial_index":69,"plugin_version":"2.1.0","time_elapsed":135618,"subject_id":"91444","group":"Group1","condition":"1_Rep","full_date":"2026-01-23T20:01:13.311Z","date":"2026-01-23","time":"20:01:13"},{"rt":null,"stimulus":"<p style=\"font-size: 50px; margin: 0; text-align: center;\">+</p>","response":null,"trial_type":"html-keyboard-response","trial_index":70,"plugin_version":"2.1.0","time_elapsed":136621,"subject_id":"91444","group":"Group1","condition":"1_Rep","full_date":"2026-01-23T20:01:13.311Z","date":"2026-01-23","time":"20:01:13"},{"task":"memory_phase","broad_category":"S","image_png":"S_Conglomerate_05.png","image_id":373,"category_name":"Conglomerate","category":24,"distinct_rating":7.32,"distinct_type":"Top","rt":null,"stimulus":"Stimuli_Rocks480/S_Conglomerate_05.png","response":null,"trial_type":"image-keyboard-response","trial_index":71,"plugin_version":"2.1.0","time_elapsed":139124,"subject_id":"91444","group":"Group1","condition":"1_Rep","full_date":"2026-01-23T20:01:13.311Z","date":"2026-01-23","time":"20:01:13"},{"rt":null,"stimulus":"<p style=\"font-size: 50px; margin: 0; text-align: center;\">+</p>","response":null,"trial_type":"html-keyboard-response","trial_index":72,"plugin_version":"2.1.0","time_elapsed":140127,"subject_id":"91444","group":"Group1","condition":"1_Rep","full_date":"2026-01-23T20:01:13.311Z","date":"2026-01-23","time":"20:01:13"},{"task":"memory_phase","broad_category":"I","image_png":"I_Andesite_06.png","image_id":6,"category_name":"Andesite","category":1,"distinct_rating":3.17,"distinct_type":"Bottom","rt":null,"stimulus":"Stimuli_Rocks480/I_Andesite_06.png","response":null,"trial_type":"image-keyboard-response","trial_index":73,"plugin_version":"2.1.0","time_elapsed":142630,"subject_id":"91444","group":"Group1","condition":"1_Rep","full_date":"2026-01-23T20:01:13.311Z","date":"2026-01-23","time":"20:01:13"},{"rt":null,"stimulus":"<p style=\"font-size: 50px; margin: 0; text-align: center;\">+</p>","response":null,"trial_type":"html-keyboard-response","trial_index":74,"plugin_version":"2.1.0","time_elapsed":143633,"subject_id":"91444","group":"Group1","condition":"1_Rep","full_date":"2026-01-23T20:01:13.311Z","date":"2026-01-23","time":"20:01:13"},{"task":"memory_phase","broad_category":"S","image_png":"S_Sandstone_03.png","image_id":451,"category_name":"Sandstone","category":29,"distinct_rating":1.86,"distinct_type":"Bottom","rt":null,"stimulus":"Stimuli_Rocks480/S_Sandstone_03.png","response":null,"trial_type":"image-keyboard-response","trial_index":75,"plugin_version":"2.1.0","time_elapsed":146136,"subject_id":"91444","group":"Group1","condition":"1_Rep","full_date":"2026-01-23T20:01:13.311Z","date":"2026-01-23","time":"20:01:13"},{"rt":null,"stimulus":"<p style=\"font-size: 50px; margin: 0; text-align: center;\">+</p>","response":null,"trial_type":"html-keyboard-response","trial_index":76,"plugin_version":"2.1.0","time_elapsed":147138,"subject_id":"91444","group":"Group1","condition":"1_Rep","full_date":"2026-01-23T20:01:13.311Z","date":"2026-01-23","time":"20:01:13"},{"task":"memory_phase","broad_category":"M","image_png":"M_Quartzite_08.png","image_id":280,"category_name":"Quartzite","category":18,"distinct_rating":2.15,"distinct_type":"Bottom","rt":null,"stimulus":"Stimuli_Rocks480/M_Quartzite_08.png","response":null,"trial_type":"image-keyboard-response","trial_index":77,"plugin_version":"2.1.0","time_elapsed":149641,"subject_id":"91444","group":"Group1","condition":"1_Rep","full_date":"2026-01-23T20:01:13.311Z","date":"2026-01-23","time":"20:01:13"},{"rt":null,"stimulus":"<p style=\"font-size: 50px; margin: 0; text-align: center;\">+</p>","response":null,"trial_type":"html-keyboard-response","trial_index":78,"plugin_version":"2.1.0","time_elapsed":150644,"subject_id":"91444","group":"Group1","condition":"1_Rep","full_date":"2026-01-23T20:01:13.311Z","date":"2026-01-23","time":"20:01:13"},{"task":"memory_phase","broad_category":"I","image_png":"I_Diorite_03.png","image_id":35,"category_name":"Diorite","category":3,"distinct_rating":3.14,"distinct_type":"Bottom","rt":null,"stimulus":"Stimuli_Rocks480/I_Diorite_03.png","response":null,"trial_type":"image-keyboard-response","trial_index":79,"plugin_version":"2.1.0","time_elapsed":153148,"subject_id":"91444","group":"Group1","condition":"1_Rep","full_date":"2026-01-23T20:01:13.311Z","date":"2026-01-23","time":"20:01:13"},{"rt":null,"stimulus":"<p style=\"font-size: 50px; margin: 0; text-align: center;\">+</p>","response":null,"trial_type":"html-keyboard-response","trial_index":80,"plugin_version":"2.1.0","time_elapsed":154151,"subject_id":"91444","group":"Group1","condition":"1_Rep","full_date":"2026-01-23T20:01:13.311Z","date":"2026-01-23","time":"20:01:13"},{"task":"memory_phase","broad_category":"S","image_png":"S_Shale_12.png","image_id":476,"category_name":"Shale","category":30,"distinct_rating":2.48,"distinct_type":"Bottom","rt":null,"stimulus":"Stimuli_Rocks480/S_Shale_12.png","response":null,"trial_type":"image-keyboard-response","trial_index":81,"plugin_version":"2.1.0","time_elapsed":156655,"subject_id":"91444","group":"Group1","condition":"1_Rep","full_date":"2026-01-23T20:01:13.311Z","date":"2026-01-23","time":"20:01:13"},{"rt":null,"stimulus":"<p style=\"font-size: 50px; margin: 0; text-align: center;\">+</p>","response":null,"trial_type":"html-keyboard-response","trial_index":82,"plugin_version":"2.1.0","time_elapsed":157657,"subject_id":"91444","group":"Group1","condition":"1_Rep","full_date":"2026-01-23T20:01:13.311Z","date":"2026-01-23","time":"20:01:13"},{"task":"memory_phase","broad_category":"S","image_png":"S_Shale_08.png","image_id":472,"category_name":"Shale","category":30,"distinct_rating":2.55,"distinct_type":"Bottom","rt":null,"stimulus":"Stimuli_Rocks480/S_Shale_08.png","response":null,"trial_type":"image-keyboard-response","trial_index":83,"plugin_version":"2.1.0","time_elapsed":160161,"subject_id":"91444","group":"Group1","condition":"1_Rep","full_date":"2026-01-23T20:01:13.311Z","date":"2026-01-23","time":"20:01:13"},{"rt":null,"stimulus":"<p style=\"font-size: 50px; margin: 0; text-align: center;\">+</p>","response":null,"trial_type":"html-keyboard-response","trial_index":84,"plugin_version":"2.1.0","time_elapsed":161164,"subject_id":"91444","group":"Group1","condition":"1_Rep","full_date":"2026-01-23T20:01:13.311Z","date":"2026-01-23","time":"20:01:13"},{"task":"memory_phase","broad_category":"I","image_png":"I_Rhyolite_11.png","image_id":155,"category_name":"Rhyolite","category":10,"distinct_rating":1.73,"distinct_type":"Bottom","rt":null,"stimulus":"Stimuli_Rocks480/I_Rhyolite_11.png","response":null,"trial_type":"image-keyboard-response","trial_index":85,"plugin_version":"2.1.0","time_elapsed":163667,"subject_id":"91444","group":"Group1","condition":"1_Rep","full_date":"2026-01-23T20:01:13.311Z","date":"2026-01-23","time":"20:01:13"},{"rt":null,"stimulus":"<p style=\"font-size: 50px; margin: 0; text-align: center;\">+</p>","response":null,"trial_type":"html-keyboard-response","trial_index":86,"plugin_version":"2.1.0","time_elapsed":164670,"subject_id":"91444","group":"Group1","condition":"1_Rep","full_date":"2026-01-23T20:01:13.311Z","date":"2026-01-23","time":"20:01:13"},{"task":"memory_phase","broad_category":"I","image_png":"I_Gabbro_08.png","image_id":56,"category_name":"Gabbro","category":4,"distinct_rating":3.02,"distinct_type":"Bottom","rt":null,"stimulus":"Stimuli_Rocks480/I_Gabbro_08.png","response":null,"trial_type":"image-keyboard-response","trial_index":87,"plugin_version":"2.1.0","time_elapsed":167173,"subject_id":"91444","group":"Group1","condition":"1_Rep","full_date":"2026-01-23T20:01:13.311Z","date":"2026-01-23","time":"20:01:13"},{"rt":null,"stimulus":"<p style=\"font-size: 50px; margin: 0; text-align: center;\">+</p>","response":null,"trial_type":"html-keyboard-response","trial_index":88,"plugin_version":"2.1.0","time_elapsed":168176,"subject_id":"91444","group":"Group1","condition":"1_Rep","full_date":"2026-01-23T20:01:13.311Z","date":"2026-01-23","time":"20:01:13"},{"task":"memory_phase","broad_category":"S","image_png":"S_Dolomite_13.png","image_id":397,"category_name":"Dolomite","category":25,"distinct_rating":1.77,"distinct_type":"Bottom","rt":null,"stimulus":"Stimuli_Rocks480/S_Dolomite_13.png","response":null,"trial_type":"image-keyboard-response","trial_index":89,"plugin_version":"2.1.0","time_elapsed":170679,"subject_id":"91444","group":"Group1","condition":"1_Rep","full_date":"2026-01-23T20:01:13.311Z","date":"2026-01-23","time":"20:01:13"},{"rt":null,"stimulus":"<p style=\"font-size: 50px; margin: 0; text-align: center;\">+</p>","response":null,"trial_type":"html-keyboard-response","trial_index":90,"plugin_version":"2.1.0","time_elapsed":171681,"subject_id":"91444","group":"Group1","condition":"1_Rep","full_date":"2026-01-23T20:01:13.311Z","date":"2026-01-23","time":"20:01:13"},{"task":"memory_phase","broad_category":"M","image_png":"M_Marble_06.png","image_id":230,"category_name":"Marble","category":15,"distinct_rating":3.4,"distinct_type":"Bottom","rt":null,"stimulus":"Stimuli_Rocks480/M_Marble_06.png","response":null,"trial_type":"image-keyboard-response","trial_index":91,"plugin_version":"2.1.0","time_elapsed":174185,"subject_id":"91444","group":"Group1","condition":"1_Rep","full_date":"2026-01-23T20:01:13.311Z","date":"2026-01-23","time":"20:01:13"},{"rt":null,"stimulus":"<p style=\"font-size: 50px; margin: 0; text-align: center;\">+</p>","response":null,"trial_type":"html-keyboard-response","trial_index":92,"plugin_version":"2.1.0","time_elapsed":175187,"subject_id":"91444","group":"Group1","condition":"1_Rep","full_date":"2026-01-23T20:01:13.311Z","date":"2026-01-23","time":"20:01:13"},{"task":"memory_phase","broad_category":"I","image_png":"I_Pumice_08.png","image_id":136,"category_name":"Pumice","category":9,"distinct_rating":3.1,"distinct_type":"Bottom","rt":null,"stimulus":"Stimuli_Rocks480/I_Pumice_08.png","response":null,"trial_type":"image-keyboard-response","trial_index":93,"plugin_version":"2.1.0","time_elapsed":177690,"subject_id":"91444","group":"Group1","condition":"1_Rep","full_date":"2026-01-23T20:01:13.311Z","date":"2026-01-23","time":"20:01:13"},{"rt":null,"stimulus":"<p style=\"font-size: 50px; margin: 0; text-align: center;\">+</p>","response":null,"trial_type":"html-keyboard-response","trial_index":94,"plugin_version":"2.1.0","time_elapsed":178693,"subject_id":"91444","group":"Group1","condition":"1_Rep","full_date":"2026-01-23T20:01:13.311Z","date":"2026-01-23","time":"20:01:13"},{"task":"memory_phase","broad_category":"I","image_png":"I_Pegmatite_16.png","image_id":112,"category_name":"Pegmatite","category":7,"distinct_rating":7.03,"distinct_type":"Top","rt":null,"stimulus":"Stimuli_Rocks480/I_Pegmatite_16.png","response":null,"trial_type":"image-keyboard-response","trial_index":95,"plugin_version":"2.1.0","time_elapsed":181197,"subject_id":"91444","group":"Group1","condition":"1_Rep","full_date":"2026-01-23T20:01:13.311Z","date":"2026-01-23","time":"20:01:13"},{"rt":null,"stimulus":"<p style=\"font-size: 50px; margin: 0; text-align: center;\">+</p>","response":null,"trial_type":"html-keyboard-response","trial_index":96,"plugin_version":"2.1.0","time_elapsed":182199,"subject_id":"91444","group":"Group1","condition":"1_Rep","full_date":"2026-01-23T20:01:13.311Z","date":"2026-01-23","time":"20:01:13"},{"task":"memory_phase","broad_category":"I","image_png":"I_Basalt_09.png","image_id":25,"category_name":"Basalt","category":2,"distinct_rating":1.89,"distinct_type":"Bottom","rt":null,"stimulus":"Stimuli_Rocks480/I_Basalt_09.png","response":null,"trial_type":"image-keyboard-response","trial_index":97,"plugin_version":"2.1.0","time_elapsed":184703,"subject_id":"91444","group":"Group1","condition":"1_Rep","full_date":"2026-01-23T20:01:13.311Z","date":"2026-01-23","time":"20:01:13"},{"rt":null,"stimulus":"<p style=\"font-size: 50px; margin: 0; text-align: center;\">+</p>","response":null,"trial_type":"html-keyboard-response","trial_index":98,"plugin_version":"2.1.0","time_elapsed":185705,"subject_id":"91444","group":"Group1","condition":"1_Rep","full_date":"2026-01-23T20:01:13.311Z","date":"2026-01-23","time":"20:01:13"},{"task":"memory_phase","broad_category":"I","image_png":"I_Pegmatite_10.png","image_id":106,"category_name":"Pegmatite","category":7,"distinct_rating":7.66,"distinct_type":"Top","rt":null,"stimulus":"Stimuli_Rocks480/I_Pegmatite_10.png","response":null,"trial_type":"image-keyboard-response","trial_index":99,"plugin_version":"2.1.0","time_elapsed":188209,"subject_id":"91444","group":"Group1","condition":"1_Rep","full_date":"2026-01-23T20:01:13.311Z","date":"2026-01-23","time":"20:01:13"},{"rt":null,"stimulus":"<p style=\"font-size: 50px; margin: 0; text-align: center;\">+</p>","response":null,"trial_type":"html-keyboard-response","trial_index":100,"plugin_version":"2.1.0","time_elapsed":189212,"subject_id":"91444","group":"Group1","condition":"1_Rep","full_date":"2026-01-23T20:01:13.311Z","date":"2026-01-23","time":"20:01:13"},{"task":"memory_phase","broad_category":"I","image_png":"I_Rhyolite_14.png","image_id":158,"category_name":"Rhyolite","category":10,"distinct_rating":2.59,"distinct_type":"Bottom","rt":null,"stimulus":"Stimuli_Rocks480/I_Rhyolite_14.png","response":null,"trial_type":"image-keyboard-response","trial_index":101,"plugin_version":"2.1.0","time_elapsed":191715,"subject_id":"91444","group":"Group1","condition":"1_Rep","full_date":"2026-01-23T20:01:13.311Z","date":"2026-01-23","time":"20:01:13"},{"rt":null,"stimulus":"<p style=\"font-size: 50px; margin: 0; text-align: center;\">+</p>","response":null,"trial_type":"html-keyboard-response","trial_index":102,"plugin_version":"2.1.0","time_elapsed":192718,"subject_id":"91444","group":"Group1","condition":"1_Rep","full_date":"2026-01-23T20:01:13.311Z","date":"2026-01-23","time":"20:01:13"},{"task":"memory_phase","broad_category":"I","image_png":"I_Pumice_11.png","image_id":139,"category_name":"Pumice","category":9,"distinct_rating":1.74,"distinct_type":"Bottom","rt":null,"stimulus":"Stimuli_Rocks480/I_Pumice_11.png","response":null,"trial_type":"image-keyboard-response","trial_index":103,"plugin_version":"2.1.0","time_elapsed":195221,"subject_id":"91444","group":"Group1","condition":"1_Rep","full_date":"2026-01-23T20:01:13.311Z","date":"2026-01-23","time":"20:01:13"},{"rt":null,"stimulus":"<p style=\"font-size: 50px; margin: 0; text-align: center;\">+</p>","response":null,"trial_type":"html-keyboard-response","trial_index":104,"plugin_version":"2.1.0","time_elapsed":196224,"subject_id":"91444","group":"Group1","condition":"1_Rep","full_date":"2026-01-23T20:01:13.311Z","date":"2026-01-23","time":"20:01:13"},{"task":"memory_phase","broad_category":"M","image_png":"M_Phyllite_10.png","image_id":266,"category_name":"Phyllite","category":17,"distinct_rating":2.6,"distinct_type":"Bottom","rt":null,"stimulus":"Stimuli_Rocks480/M_Phyllite_10.png","response":null,"trial_type":"image-keyboard-response","trial_index":105,"plugin_version":"2.1.0","time_elapsed":198728,"subject_id":"91444","group":"Group1","condition":"1_Rep","full_date":"2026-01-23T20:01:13.311Z","date":"2026-01-23","time":"20:01:13"},{"rt":20215,"stimulus":"<div style=\"max-width: 760px; margin: auto; font-size: 20px; line-height: 1.5;\">\n      <h1 style=\"text-align:center; font-size: 30px;\">Instructions for the Test Phase</h1>\n      <p>\n        The study phase is now complete.\n      </p>\n      <p>\n        In the test phase, you will again see a series of rock images. \n        Some will be ones you saw before - during the study phase, while others will be new.  \n        <b>Your task</b> is to decide whether you have seen each image before by pressing the corresponding key on your keyboard:<br><br>\n          <b>A</b> - NO (you did not see this image before)<br>\n          <b>L</b> - YES (you saw this image before)<br><br>\n        The test will proceed at your own pace. You will receive feedback after each response.  \n        Please try to respond <b>as accurately as possible</b>.\n      </p>\n      <p>\n        <b>Reminder:</b> If your computer has multiple language settings (e.g., English and another language),\n        please ensure it is set to English during the test phase.\n      </p>\n      <p>\n        You can track your progress using the <b>completion bar</b> at the top of the screen.  \n        Note that it has been refreshed to reflect your progress during this final phase.\n      </p>\n      <p>\n        Press the button below when you are ready to continue.\n      </p>\n    </div>","response":0,"trial_type":"html-button-response","trial_index":106,"plugin_version":"2.1.0","time_elapsed":218946,"subject_id":"91444","group":"Group1","condition":"1_Rep","full_date":"2026-01-23T20:01:13.311Z","date":"2026-01-23","time":"20:01:13"},{"correct_response":"a","task":"test_phase","broad_category":"S","image_png":"S_Rock Salt_15.png","image_id":447,"category_name":"Rock Salt","category":28,"distinct_rating":7.79,"distinct_type":"Top","item_type":"Foil","rt":4603,"stimulus":"Stimuli_Rocks480/S_Rock Salt_15.png","response":"a","trial_type":"image-keyboard-response","trial_index":107,"plugin_version":"2.1.0","time_elapsed":223553,"subject_id":"91444","group":"Group1","condition":"1_Rep","full_date":"2026-01-23T20:01:13.311Z","date":"2026-01-23","time":"20:01:13","cor_ans":true},{"trial_type":"html-keyboard-response","rt":null,"stimulus":"<p style=\"color: green; font-size: 50px; font-weight: bold;\">Correct</p>","response":null,"trial_index":108,"plugin_version":"2.1.0","time_elapsed":224055,"subject_id":"91444","group":"Group1","condition":"1_Rep","full_date":"2026-01-23T20:01:13.311Z","date":"2026-01-23","time":"20:01:13"},{"correct_response":"l","task":"test_phase","broad_category":"I","image_png":"I_Diorite_05.png","image_id":37,"category_name":"Diorite","category":3,"distinct_rating":3.08,"distinct_type":"Bottom","item_type":"Target","rt":1906,"stimulus":"Stimuli_Rocks480/I_Diorite_05.png","response":"l","trial_type":"image-keyboard-response","trial_index":109,"plugin_version":"2.1.0","time_elapsed":225963,"subject_id":"91444","group":"Group1","condition":"1_Rep","full_date":"2026-01-23T20:01:13.311Z","date":"2026-01-23","time":"20:01:13","cor_ans":true},{"trial_type":"html-keyboard-response","rt":null,"stimulus":"<p style=\"color: green; font-size: 50px; font-weight: bold;\">Correct</p>","response":null,"trial_index":110,"plugin_version":"2.1.0","time_elapsed":226465,"subject_id":"91444","group":"Group1","condition":"1_Rep","full_date":"2026-01-23T20:01:13.311Z","date":"2026-01-23","time":"20:01:13"},{"correct_response":"a","task":"test_phase","broad_category":"I","image_png":"I_Diorite_15.png","image_id":47,"category_name":"Diorite","category":3,"distinct_rating":3.05,"distinct_type":"Bottom","item_type":"Foil","rt":1017,"stimulus":"Stimuli_Rocks480/I_Diorite_15.png","response":"a","trial_type":"image-keyboard-response","trial_index":111,"plugin_version":"2.1.0","time_elapsed":227483,"subject_id":"91444","group":"Group1","condition":"1_Rep","full_date":"2026-01-23T20:01:13.311Z","date":"2026-01-23","time":"20:01:13","cor_ans":true},{"trial_type":"html-keyboard-response","rt":null,"stimulus":"<p style=\"color: green; font-size: 50px; font-weight: bold;\">Correct</p>","response":null,"trial_index":112,"plugin_version":"2.1.0","time_elapsed":227985,"subject_id":"91444","group":"Group1","condition":"1_Rep","full_date":"2026-01-23T20:01:13.311Z","date":"2026-01-23","time":"20:01:13"},{"correct_response":"l","task":"test_phase","broad_category":"I","image_png":"I_Basalt_02.png","image_id":18,"category_name":"Basalt","category":2,"distinct_rating":1.84,"distinct_type":"Bottom","item_type":"Target","rt":1026,"stimulus":"Stimuli_Rocks480/I_Basalt_02.png","response":"l","trial_type":"image-keyboard-response","trial_index":113,"plugin_version":"2.1.0","time_elapsed":229013,"subject_id":"91444","group":"Group1","condition":"1_Rep","full_date":"2026-01-23T20:01:13.311Z","date":"2026-01-23","time":"20:01:13","cor_ans":true},{"trial_type":"html-keyboard-response","rt":null,"stimulus":"<p style=\"color: green; font-size: 50px; font-weight: bold;\">Correct</p>","response":null,"trial_index":114,"plugin_version":"2.1.0","time_elapsed":229515,"subject_id":"91444","group":"Group1","condition":"1_Rep","full_date":"2026-01-23T20:01:13.311Z","date":"2026-01-23","time":"20:01:13"},{"correct_response":"a","task":"test_phase","broad_category":"I","image_png":"I_Rhyolite_10.png","image_id":154,"category_name":"Rhyolite","category":10,"distinct_rating":2.88,"distinct_type":"Bottom","item_type":"Foil","rt":1484,"stimulus":"Stimuli_Rocks480/I_Rhyolite_10.png","response":"a","trial_type":"image-keyboard-response","trial_index":115,"plugin_version":"2.1.0","time_elapsed":231000,"subject_id":"91444","group":"Group1","condition":"1_Rep","full_date":"2026-01-23T20:01:13.311Z","date":"2026-01-23","time":"20:01:13","cor_ans":true},{"trial_type":"html-keyboard-response","rt":null,"stimulus":"<p style=\"color: green; font-size: 50px; font-weight: bold;\">Correct</p>","response":null,"trial_index":116,"plugin_version":"2.1.0","time_elapsed":231502,"subject_id":"91444","group":"Group1","condition":"1_Rep","full_date":"2026-01-23T20:01:13.311Z","date":"2026-01-23","time":"20:01:13"},{"correct_response":"a","task":"test_phase","broad_category":"M","image_png":"M_Slate_04.png","image_id":308,"category_name":"Slate","category":20,"distinct_rating":2.2,"distinct_type":"Bottom","item_type":"Foil","rt":1172,"stimulus":"Stimuli_Rocks480/M_Slate_04.png","response":"l","trial_type":"image-keyboard-response","trial_index":117,"plugin_version":"2.1.0","time_elapsed":232675,"subject_id":"91444","group":"Group1","condition":"1_Rep","full_date":"2026-01-23T20:01:13.311Z","date":"2026-01-23","time":"20:01:13","cor_ans":false},{"trial_type":"html-keyboard-response","rt":null,"stimulus":"<p style=\"color: red; font-size: 50px; font-weight: bold;\">Incorrect</p>","response":null,"trial_index":118,"plugin_version":"2.1.0","time_elapsed":233176,"subject_id":"91444","group":"Group1","condition":"1_Rep","full_date":"2026-01-23T20:01:13.311Z","date":"2026-01-23","time":"20:01:13"},{"correct_response":"a","task":"test_phase","broad_category":"S","image_png":"S_Dolomite_16.png","image_id":400,"category_name":"Dolomite","category":25,"distinct_rating":1.71,"distinct_type":"Bottom","item_type":"Foil","rt":2399,"stimulus":"Stimuli_Rocks480/S_Dolomite_16.png","response":"a","trial_type":"image-keyboard-response","trial_index":119,"plugin_version":"2.1.0","time_elapsed":235578,"subject_id":"91444","group":"Group1","condition":"1_Rep","full_date":"2026-01-23T20:01:13.311Z","date":"2026-01-23","time":"20:01:13","cor_ans":true},{"trial_type":"html-keyboard-response","rt":null,"stimulus":"<p style=\"color: green; font-size: 50px; font-weight: bold;\">Correct</p>","response":null,"trial_index":120,"plugin_version":"2.1.0","time_elapsed":236080,"subject_id":"91444","group":"Group1","condition":"1_Rep","full_date":"2026-01-23T20:01:13.311Z","date":"2026-01-23","time":"20:01:13"},{"correct_response":"a","task":"test_phase","broad_category":"S","image_png":"S_Dolomite_01.png","image_id":385,"category_name":"Dolomite","category":25,"distinct_rating":1.43,"distinct_type":"Bottom","item_type":"Foil","rt":2230,"stimulus":"Stimuli_Rocks480/S_Dolomite_01.png","response":"a","trial_type":"image-keyboard-response","trial_index":121,"plugin_version":"2.1.0","time_elapsed":238312,"subject_id":"91444","group":"Group1","condition":"1_Rep","full_date":"2026-01-23T20:01:13.311Z","date":"2026-01-23","time":"20:01:13","cor_ans":true},{"trial_type":"html-keyboard-response","rt":null,"stimulus":"<p style=\"color: green; font-size: 50px; font-weight: bold;\">Correct</p>","response":null,"trial_index":122,"plugin_version":"2.1.0","time_elapsed":238814,"subject_id":"91444","group":"Group1","condition":"1_Rep","full_date":"2026-01-23T20:01:13.311Z","date":"2026-01-23","time":"20:01:13"},{"correct_response":"l","task":"test_phase","broad_category":"S","image_png":"S_Shale_08.png","image_id":472,"category_name":"Shale","category":30,"distinct_rating":2.55,"distinct_type":"Bottom","item_type":"Target","rt":884,"stimulus":"Stimuli_Rocks480/S_Shale_08.png","response":"l","trial_type":"image-keyboard-response","trial_index":123,"plugin_version":"2.1.0","time_elapsed":239700,"subject_id":"91444","group":"Group1","condition":"1_Rep","full_date":"2026-01-23T20:01:13.311Z","date":"2026-01-23","time":"20:01:13","cor_ans":true},{"trial_type":"html-keyboard-response","rt":null,"stimulus":"<p style=\"color: green; font-size: 50px; font-weight: bold;\">Correct</p>","response":null,"trial_index":124,"plugin_version":"2.1.0","time_elapsed":240202,"subject_id":"91444","group":"Group1","condition":"1_Rep","full_date":"2026-01-23T20:01:13.311Z","date":"2026-01-23","time":"20:01:13"},{"correct_response":"a","task":"test_phase","broad_category":"S","image_png":"S_Dolomite_07.png","image_id":391,"category_name":"Dolomite","category":25,"distinct_rating":1.73,"distinct_type":"Bottom","item_type":"Foil","rt":2355,"stimulus":"Stimuli_Rocks480/S_Dolomite_07.png","response":"l","trial_type":"image-keyboard-response","trial_index":125,"plugin_version":"2.1.0","time_elapsed":242559,"subject_id":"91444","group":"Group1","condition":"1_Rep","full_date":"2026-01-23T20:01:13.311Z","date":"2026-01-23","time":"20:01:13","cor_ans":false},{"trial_type":"html-keyboard-response","rt":null,"stimulus":"<p style=\"color: red; font-size: 50px; font-weight: bold;\">Incorrect</p>","response":null,"trial_index":126,"plugin_version":"2.1.0","time_elapsed":243061,"subject_id":"91444","group":"Group1","condition":"1_Rep","full_date":"2026-01-23T20:01:13.311Z","date":"2026-01-23","time":"20:01:13"},{"correct_response":"a","task":"test_phase","broad_category":"I","image_png":"I_Basalt_10.png","image_id":26,"category_name":"Basalt","category":2,"distinct_rating":2.76,"distinct_type":"Bottom","item_type":"Foil","rt":1281,"stimulus":"Stimuli_Rocks480/I_Basalt_10.png","response":"a","trial_type":"image-keyboard-response","trial_index":127,"plugin_version":"2.1.0","time_elapsed":244344,"subject_id":"91444","group":"Group1","condition":"1_Rep","full_date":"2026-01-23T20:01:13.311Z","date":"2026-01-23","time":"20:01:13","cor_ans":true},{"trial_type":"html-keyboard-response","rt":null,"stimulus":"<p style=\"color: green; font-size: 50px; font-weight: bold;\">Correct</p>","response":null,"trial_index":128,"plugin_version":"2.1.0","time_elapsed":244845,"subject_id":"91444","group":"Group1","condition":"1_Rep","full_date":"2026-01-23T20:01:13.311Z","date":"2026-01-23","time":"20:01:13"},{"correct_response":"a","task":"test_phase","broad_category":"I","image_png":"I_Pegmatite_03.png","image_id":99,"category_name":"Pegmatite","category":7,"distinct_rating":7.24,"distinct_type":"Top","item_type":"Foil","rt":2271,"stimulus":"Stimuli_Rocks480/I_Pegmatite_03.png","response":"a","trial_type":"image-keyboard-response","trial_index":129,"plugin_version":"2.1.0","time_elapsed":247118,"subject_id":"91444","group":"Group1","condition":"1_Rep","full_date":"2026-01-23T20:01:13.311Z","date":"2026-01-23","time":"20:01:13","cor_ans":true},{"trial_type":"html-keyboard-response","rt":null,"stimulus":"<p style=\"color: green; font-size: 50px; font-weight: bold;\">Correct</p>","response":null,"trial_index":130,"plugin_version":"2.1.0","time_elapsed":247620,"subject_id":"91444","group":"Group1","condition":"1_Rep","full_date":"2026-01-23T20:01:13.311Z","date":"2026-01-23","time":"20:01:13"},{"correct_response":"a","task":"test_phase","broad_category":"I","image_png":"I_Andesite_09.png","image_id":9,"category_name":"Andesite","category":1,"distinct_rating":2.49,"distinct_type":"Bottom","item_type":"Foil","rt":1107,"stimulus":"Stimuli_Rocks480/I_Andesite_09.png","response":"l","trial_type":"image-keyboard-response","trial_index":131,"plugin_version":"2.1.0","time_elapsed":248729,"subject_id":"91444","group":"Group1","condition":"1_Rep","full_date":"2026-01-23T20:01:13.311Z","date":"2026-01-23","time":"20:01:13","cor_ans":false},{"trial_type":"html-keyboard-response","rt":null,"stimulus":"<p style=\"color: red; font-size: 50px; font-weight: bold;\">Incorrect</p>","response":null,"trial_index":132,"plugin_version":"2.1.0","time_elapsed":249231,"subject_id":"91444","group":"Group1","condition":"1_Rep","full_date":"2026-01-23T20:01:13.311Z","date":"2026-01-23","time":"20:01:13"},{"correct_response":"l","task":"test_phase","broad_category":"S","image_png":"S_Shale_01.png","image_id":465,"category_name":"Shale","category":30,"distinct_rating":2.7,"distinct_type":"Bottom","item_type":"Target","rt":1365,"stimulus":"Stimuli_Rocks480/S_Shale_01.png","response":"a","trial_type":"image-keyboard-response","trial_index":133,"plugin_version":"2.1.0","time_elapsed":250597,"subject_id":"91444","group":"Group1","condition":"1_Rep","full_date":"2026-01-23T20:01:13.311Z","date":"2026-01-23","time":"20:01:13","cor_ans":false},{"trial_type":"html-keyboard-response","rt":null,"stimulus":"<p style=\"color: red; font-size: 50px; font-weight: bold;\">Incorrect</p>","response":null,"trial_index":134,"plugin_version":"2.1.0","time_elapsed":251099,"subject_id":"91444","group":"Group1","condition":"1_Rep","full_date":"2026-01-23T20:01:13.311Z","date":"2026-01-23","time":"20:01:13"},{"correct_response":"l","task":"test_phase","broad_category":"S","image_png":"S_Chert_10.png","image_id":362,"category_name":"Chert","category":23,"distinct_rating":7.17,"distinct_type":"Top","item_type":"Target","rt":2171,"stimulus":"Stimuli_Rocks480/S_Chert_10.png","response":"a","trial_type":"image-keyboard-response","trial_index":135,"plugin_version":"2.1.0","time_elapsed":253272,"subject_id":"91444","group":"Group1","condition":"1_Rep","full_date":"2026-01-23T20:01:13.311Z","date":"2026-01-23","time":"20:01:13","cor_ans":false},{"trial_type":"html-keyboard-response","rt":null,"stimulus":"<p style=\"color: red; font-size: 50px; font-weight: bold;\">Incorrect</p>","response":null,"trial_index":136,"plugin_version":"2.1.0","time_elapsed":253774,"subject_id":"91444","group":"Group1","condition":"1_Rep","full_date":"2026-01-23T20:01:13.311Z","date":"2026-01-23","time":"20:01:13"},{"correct_response":"l","task":"test_phase","broad_category":"M","image_png":"M_Marble_06.png","image_id":230,"category_name":"Marble","category":15,"distinct_rating":3.4,"distinct_type":"Bottom","item_type":"Target","rt":1164,"stimulus":"Stimuli_Rocks480/M_Marble_06.png","response":"a","trial_type":"image-keyboard-response","trial_index":137,"plugin_version":"2.1.0","time_elapsed":254939,"subject_id":"91444","group":"Group1","condition":"1_Rep","full_date":"2026-01-23T20:01:13.311Z","date":"2026-01-23","time":"20:01:13","cor_ans":false},{"trial_type":"html-keyboard-response","rt":null,"stimulus":"<p style=\"color: red; font-size: 50px; font-weight: bold;\">Incorrect</p>","response":null,"trial_index":138,"plugin_version":"2.1.0","time_elapsed":255441,"subject_id":"91444","group":"Group1","condition":"1_Rep","full_date":"2026-01-23T20:01:13.311Z","date":"2026-01-23","time":"20:01:13"},{"correct_response":"a","task":"test_phase","broad_category":"S","image_png":"S_Shale_03.png","image_id":467,"category_name":"Shale","category":30,"distinct_rating":1.95,"distinct_type":"Bottom","item_type":"Foil","rt":1644,"stimulus":"Stimuli_Rocks480/S_Shale_03.png","response":"l","trial_type":"image-keyboard-response","trial_index":139,"plugin_version":"2.1.0","time_elapsed":257086,"subject_id":"91444","group":"Group1","condition":"1_Rep","full_date":"2026-01-23T20:01:13.311Z","date":"2026-01-23","time":"20:01:13","cor_ans":false},{"trial_type":"html-keyboard-response","rt":null,"stimulus":"<p style=\"color: red; font-size: 50px; font-weight: bold;\">Incorrect</p>","response":null,"trial_index":140,"plugin_version":"2.1.0","time_elapsed":257588,"subject_id":"91444","group":"Group1","condition":"1_Rep","full_date":"2026-01-23T20:01:13.311Z","date":"2026-01-23","time":"20:01:13"},{"correct_response":"l","task":"test_phase","broad_category":"I","image_png":"I_Gabbro_11.png","image_id":59,"category_name":"Gabbro","category":4,"distinct_rating":1.99,"distinct_type":"Bottom","item_type":"Target","rt":958,"stimulus":"Stimuli_Rocks480/I_Gabbro_11.png","response":"l","trial_type":"image-keyboard-response","trial_index":141,"plugin_version":"2.1.0","time_elapsed":258547,"subject_id":"91444","group":"Group1","condition":"1_Rep","full_date":"2026-01-23T20:01:13.311Z","date":"2026-01-23","time":"20:01:13","cor_ans":true},{"trial_type":"html-keyboard-response","rt":null,"stimulus":"<p style=\"color: green; font-size: 50px; font-weight: bold;\">Correct</p>","response":null,"trial_index":142,"plugin_version":"2.1.0","time_elapsed":259049,"subject_id":"91444","group":"Group1","condition":"1_Rep","full_date":"2026-01-23T20:01:13.311Z","date":"2026-01-23","time":"20:01:13"},{"correct_response":"l","task":"test_phase","broad_category":"M","image_png":"M_Gneiss_05.png","image_id":197,"category_name":"Gneiss","category":13,"distinct_rating":2.97,"distinct_type":"Bottom","item_type":"Target","rt":1097,"stimulus":"Stimuli_Rocks480/M_Gneiss_05.png","response":"l","trial_type":"image-keyboard-response","trial_index":143,"plugin_version":"2.1.0","time_elapsed":260148,"subject_id":"91444","group":"Group1","condition":"1_Rep","full_date":"2026-01-23T20:01:13.311Z","date":"2026-01-23","time":"20:01:13","cor_ans":true},{"trial_type":"html-keyboard-response","rt":null,"stimulus":"<p style=\"color: green; font-size: 50px; font-weight: bold;\">Correct</p>","response":null,"trial_index":144,"plugin_version":"2.1.0","time_elapsed":260649,"subject_id":"91444","group":"Group1","condition":"1_Rep","full_date":"2026-01-23T20:01:13.311Z","date":"2026-01-23","time":"20:01:13"},{"correct_response":"a","task":"test_phase","broad_category":"S","image_png":"S_Shale_07.png","image_id":471,"category_name":"Shale","category":30,"distinct_rating":2.73,"distinct_type":"Bottom","item_type":"Foil","rt":941,"stimulus":"Stimuli_Rocks480/S_Shale_07.png","response":"l","trial_type":"image-keyboard-response","trial_index":145,"plugin_version":"2.1.0","time_elapsed":261592,"subject_id":"91444","group":"Group1","condition":"1_Rep","full_date":"2026-01-23T20:01:13.311Z","date":"2026-01-23","time":"20:01:13","cor_ans":false},{"trial_type":"html-keyboard-response","rt":null,"stimulus":"<p style=\"color: red; font-size: 50px; font-weight: bold;\">Incorrect</p>","response":null,"trial_index":146,"plugin_version":"2.1.0","time_elapsed":262094,"subject_id":"91444","group":"Group1","condition":"1_Rep","full_date":"2026-01-23T20:01:13.311Z","date":"2026-01-23","time":"20:01:13"},{"correct_response":"a","task":"test_phase","broad_category":"I","image_png":"I_Pegmatite_11.png","image_id":107,"category_name":"Pegmatite","category":7,"distinct_rating":7.11,"distinct_type":"Top","item_type":"Foil","rt":928,"stimulus":"Stimuli_Rocks480/I_Pegmatite_11.png","response":"l","trial_type":"image-keyboard-response","trial_index":147,"plugin_version":"2.1.0","time_elapsed":263024,"subject_id":"91444","group":"Group1","condition":"1_Rep","full_date":"2026-01-23T20:01:13.311Z","date":"2026-01-23","time":"20:01:13","cor_ans":false},{"trial_type":"html-keyboard-response","rt":null,"stimulus":"<p style=\"color: red; font-size: 50px; font-weight: bold;\">Incorrect</p>","response":null,"trial_index":148,"plugin_version":"2.1.0","time_elapsed":263526,"subject_id":"91444","group":"Group1","condition":"1_Rep","full_date":"2026-01-23T20:01:13.311Z","date":"2026-01-23","time":"20:01:13"},{"correct_response":"a","task":"test_phase","broad_category":"M","image_png":"M_Marble_02.png","image_id":226,"category_name":"Marble","category":15,"distinct_rating":3.2,"distinct_type":"Bottom","item_type":"Foil","rt":939,"stimulus":"Stimuli_Rocks480/M_Marble_02.png","response":"l","trial_type":"image-keyboard-response","trial_index":149,"plugin_version":"2.1.0","time_elapsed":264467,"subject_id":"91444","group":"Group1","condition":"1_Rep","full_date":"2026-01-23T20:01:13.311Z","date":"2026-01-23","time":"20:01:13","cor_ans":false},{"trial_type":"html-keyboard-response","rt":null,"stimulus":"<p style=\"color: red; font-size: 50px; font-weight: bold;\">Incorrect</p>","response":null,"trial_index":150,"plugin_version":"2.1.0","time_elapsed":264969,"subject_id":"91444","group":"Group1","condition":"1_Rep","full_date":"2026-01-23T20:01:13.311Z","date":"2026-01-23","time":"20:01:13"},{"correct_response":"l","task":"test_phase","broad_category":"M","image_png":"M_Phyllite_10.png","image_id":266,"category_name":"Phyllite","category":17,"distinct_rating":2.6,"distinct_type":"Bottom","item_type":"Target","rt":1342,"stimulus":"Stimuli_Rocks480/M_Phyllite_10.png","response":"a","trial_type":"image-keyboard-response","trial_index":151,"plugin_version":"2.1.0","time_elapsed":266313,"subject_id":"91444","group":"Group1","condition":"1_Rep","full_date":"2026-01-23T20:01:13.311Z","date":"2026-01-23","time":"20:01:13","cor_ans":false},{"trial_type":"html-keyboard-response","rt":null,"stimulus":"<p style=\"color: red; font-size: 50px; font-weight: bold;\">Incorrect</p>","response":null,"trial_index":152,"plugin_version":"2.1.0","time_elapsed":266814,"subject_id":"91444","group":"Group1","condition":"1_Rep","full_date":"2026-01-23T20:01:13.311Z","date":"2026-01-23","time":"20:01:13"},{"correct_response":"l","task":"test_phase","broad_category":"S","image_png":"S_Sandstone_16.png","image_id":464,"category_name":"Sandstone","category":29,"distinct_rating":1.93,"distinct_type":"Bottom","item_type":"Target","rt":1071,"stimulus":"Stimuli_Rocks480/S_Sandstone_16.png","response":"l","trial_type":"image-keyboard-response","trial_index":153,"plugin_version":"2.1.0","time_elapsed":267887,"subject_id":"91444","group":"Group1","condition":"1_Rep","full_date":"2026-01-23T20:01:13.311Z","date":"2026-01-23","time":"20:01:13","cor_ans":true},{"trial_type":"html-keyboard-response","rt":null,"stimulus":"<p style=\"color: green; font-size: 50px; font-weight: bold;\">Correct</p>","response":null,"trial_index":154,"plugin_version":"2.1.0","time_elapsed":268389,"subject_id":"91444","group":"Group1","condition":"1_Rep","full_date":"2026-01-23T20:01:13.311Z","date":"2026-01-23","time":"20:01:13"},{"correct_response":"a","task":"test_phase","broad_category":"M","image_png":"M_Phyllite_02.png","image_id":258,"category_name":"Phyllite","category":17,"distinct_rating":2.89,"distinct_type":"Bottom","item_type":"Foil","rt":1268,"stimulus":"Stimuli_Rocks480/M_Phyllite_02.png","response":"a","trial_type":"image-keyboard-response","trial_index":155,"plugin_version":"2.1.0","time_elapsed":269659,"subject_id":"91444","group":"Group1","condition":"1_Rep","full_date":"2026-01-23T20:01:13.311Z","date":"2026-01-23","time":"20:01:13","cor_ans":true},{"trial_type":"html-keyboard-response","rt":null,"stimulus":"<p style=\"color: green; font-size: 50px; font-weight: bold;\">Correct</p>","response":null,"trial_index":156,"plugin_version":"2.1.0","time_elapsed":270160,"subject_id":"91444","group":"Group1","condition":"1_Rep","full_date":"2026-01-23T20:01:13.311Z","date":"2026-01-23","time":"20:01:13"},{"correct_response":"l","task":"test_phase","broad_category":"I","image_png":"I_Gabbro_08.png","image_id":56,"category_name":"Gabbro","category":4,"distinct_rating":3.02,"distinct_type":"Bottom","item_type":"Target","rt":918,"stimulus":"Stimuli_Rocks480/I_Gabbro_08.png","response":"a","trial_type":"image-keyboard-response","trial_index":157,"plugin_version":"2.1.0","time_elapsed":271080,"subject_id":"91444","group":"Group1","condition":"1_Rep","full_date":"2026-01-23T20:01:13.311Z","date":"2026-01-23","time":"20:01:13","cor_ans":false},{"trial_type":"html-keyboard-response","rt":null,"stimulus":"<p style=\"color: red; font-size: 50px; font-weight: bold;\">Incorrect</p>","response":null,"trial_index":158,"plugin_version":"2.1.0","time_elapsed":271581,"subject_id":"91444","group":"Group1","condition":"1_Rep","full_date":"2026-01-23T20:01:13.311Z","date":"2026-01-23","time":"20:01:13"},{"correct_response":"l","task":"test_phase","broad_category":"I","image_png":"I_Obsidian_05.png","image_id":85,"category_name":"Obsidian","category":6,"distinct_rating":7.32,"distinct_type":"Top","item_type":"Target","rt":835,"stimulus":"Stimuli_Rocks480/I_Obsidian_05.png","response":"l","trial_type":"image-keyboard-response","trial_index":159,"plugin_version":"2.1.0","time_elapsed":272418,"subject_id":"91444","group":"Group1","condition":"1_Rep","full_date":"2026-01-23T20:01:13.311Z","date":"2026-01-23","time":"20:01:13","cor_ans":true},{"trial_type":"html-keyboard-response","rt":null,"stimulus":"<p style=\"color: green; font-size: 50px; font-weight: bold;\">Correct</p>","response":null,"trial_index":160,"plugin_version":"2.1.0","time_elapsed":272920,"subject_id":"91444","group":"Group1","condition":"1_Rep","full_date":"2026-01-23T20:01:13.311Z","date":"2026-01-23","time":"20:01:13"},{"correct_response":"a","task":"test_phase","broad_category":"I","image_png":"I_Rhyolite_08.png","image_id":152,"category_name":"Rhyolite","category":10,"distinct_rating":1.38,"distinct_type":"Bottom","item_type":"Foil","rt":945,"stimulus":"Stimuli_Rocks480/I_Rhyolite_08.png","response":"a","trial_type":"image-keyboard-response","trial_index":161,"plugin_version":"2.1.0","time_elapsed":273866,"subject_id":"91444","group":"Group1","condition":"1_Rep","full_date":"2026-01-23T20:01:13.311Z","date":"2026-01-23","time":"20:01:13","cor_ans":true},{"trial_type":"html-keyboard-response","rt":null,"stimulus":"<p style=\"color: green; font-size: 50px; font-weight: bold;\">Correct</p>","response":null,"trial_index":162,"plugin_version":"2.1.0","time_elapsed":274368,"subject_id":"91444","group":"Group1","condition":"1_Rep","full_date":"2026-01-23T20:01:13.311Z","date":"2026-01-23","time":"20:01:13"},{"correct_response":"l","task":"test_phase","broad_category":"I","image_png":"I_Gabbro_16.png","image_id":64,"category_name":"Gabbro","category":4,"distinct_rating":2.52,"distinct_type":"Bottom","item_type":"Target","rt":986,"stimulus":"Stimuli_Rocks480/I_Gabbro_16.png","response":"a","trial_type":"image-keyboard-response","trial_index":163,"plugin_version":"2.1.0","time_elapsed":275355,"subject_id":"91444","group":"Group1","condition":"1_Rep","full_date":"2026-01-23T20:01:13.311Z","date":"2026-01-23","time":"20:01:13","cor_ans":false},{"trial_type":"html-keyboard-response","rt":null,"stimulus":"<p style=\"color: red; font-size: 50px; font-weight: bold;\">Incorrect</p>","response":null,"trial_index":164,"plugin_version":"2.1.0","time_elapsed":275857,"subject_id":"91444","group":"Group1","condition":"1_Rep","full_date":"2026-01-23T20:01:13.311Z","date":"2026-01-23","time":"20:01:13"},{"correct_response":"a","task":"test_phase","broad_category":"M","image_png":"M_Slate_10.png","image_id":314,"category_name":"Slate","category":20,"distinct_rating":1.94,"distinct_type":"Bottom","item_type":"Foil","rt":964,"stimulus":"Stimuli_Rocks480/M_Slate_10.png","response":"a","trial_type":"image-keyboard-response","trial_index":165,"plugin_version":"2.1.0","time_elapsed":276823,"subject_id":"91444","group":"Group1","condition":"1_Rep","full_date":"2026-01-23T20:01:13.311Z","date":"2026-01-23","time":"20:01:13","cor_ans":true},{"trial_type":"html-keyboard-response","rt":null,"stimulus":"<p style=\"color: green; font-size: 50px; font-weight: bold;\">Correct</p>","response":null,"trial_index":166,"plugin_version":"2.1.0","time_elapsed":277325,"subject_id":"91444","group":"Group1","condition":"1_Rep","full_date":"2026-01-23T20:01:13.311Z","date":"2026-01-23","time":"20:01:13"},{"correct_response":"a","task":"test_phase","broad_category":"I","image_png":"I_Basalt_13.png","image_id":29,"category_name":"Basalt","category":2,"distinct_rating":2.68,"distinct_type":"Bottom","item_type":"Foil","rt":1015,"stimulus":"Stimuli_Rocks480/I_Basalt_13.png","response":"a","trial_type":"image-keyboard-response","trial_index":167,"plugin_version":"2.1.0","time_elapsed":278341,"subject_id":"91444","group":"Group1","condition":"1_Rep","full_date":"2026-01-23T20:01:13.311Z","date":"2026-01-23","time":"20:01:13","cor_ans":true},{"trial_type":"html-keyboard-response","rt":null,"stimulus":"<p style=\"color: green; font-size: 50px; font-weight: bold;\">Correct</p>","response":null,"trial_index":168,"plugin_version":"2.1.0","time_elapsed":278843,"subject_id":"91444","group":"Group1","condition":"1_Rep","full_date":"2026-01-23T20:01:13.311Z","date":"2026-01-23","time":"20:01:13"},{"correct_response":"l","task":"test_phase","broad_category":"S","image_png":"S_Sandstone_15.png","image_id":463,"category_name":"Sandstone","category":29,"distinct_rating":2,"distinct_type":"Bottom","item_type":"Target","rt":1604,"stimulus":"Stimuli_Rocks480/S_Sandstone_15.png","response":"l","trial_type":"image-keyboard-response","trial_index":169,"plugin_version":"2.1.0","time_elapsed":280449,"subject_id":"91444","group":"Group1","condition":"1_Rep","full_date":"2026-01-23T20:01:13.311Z","date":"2026-01-23","time":"20:01:13","cor_ans":true},{"trial_type":"html-keyboard-response","rt":null,"stimulus":"<p style=\"color: green; font-size: 50px; font-weight: bold;\">Correct</p>","response":null,"trial_index":170,"plugin_version":"2.1.0","time_elapsed":280950,"subject_id":"91444","group":"Group1","condition":"1_Rep","full_date":"2026-01-23T20:01:13.311Z","date":"2026-01-23","time":"20:01:13"},{"correct_response":"l","task":"test_phase","broad_category":"S","image_png":"S_Dolomite_12.png","image_id":396,"category_name":"Dolomite","category":25,"distinct_rating":1.85,"distinct_type":"Bottom","item_type":"Target","rt":779,"stimulus":"Stimuli_Rocks480/S_Dolomite_12.png","response":"a","trial_type":"image-keyboard-response","trial_index":171,"plugin_version":"2.1.0","time_elapsed":281731,"subject_id":"91444","group":"Group1","condition":"1_Rep","full_date":"2026-01-23T20:01:13.311Z","date":"2026-01-23","time":"20:01:13","cor_ans":false},{"trial_type":"html-keyboard-response","rt":null,"stimulus":"<p style=\"color: red; font-size: 50px; font-weight: bold;\">Incorrect</p>","response":null,"trial_index":172,"plugin_version":"2.1.0","time_elapsed":282233,"subject_id":"91444","group":"Group1","condition":"1_Rep","full_date":"2026-01-23T20:01:13.311Z","date":"2026-01-23","time":"20:01:13"},{"correct_response":"a","task":"test_phase","broad_category":"S","image_png":"S_Sandstone_04.png","image_id":452,"category_name":"Sandstone","category":29,"distinct_rating":1.8,"distinct_type":"Bottom","item_type":"Foil","rt":1038,"stimulus":"Stimuli_Rocks480/S_Sandstone_04.png","response":"a","trial_type":"image-keyboard-response","trial_index":173,"plugin_version":"2.1.0","time_elapsed":283273,"subject_id":"91444","group":"Group1","condition":"1_Rep","full_date":"2026-01-23T20:01:13.311Z","date":"2026-01-23","time":"20:01:13","cor_ans":true},{"trial_type":"html-keyboard-response","rt":null,"stimulus":"<p style=\"color: green; font-size: 50px; font-weight: bold;\">Correct</p>","response":null,"trial_index":174,"plugin_version":"2.1.0","time_elapsed":283774,"subject_id":"91444","group":"Group1","condition":"1_Rep","full_date":"2026-01-23T20:01:13.311Z","date":"2026-01-23","time":"20:01:13"},{"correct_response":"a","task":"test_phase","broad_category":"M","image_png":"M_Gneiss_10.png","image_id":202,"category_name":"Gneiss","category":13,"distinct_rating":3.09,"distinct_type":"Bottom","item_type":"Foil","rt":878,"stimulus":"Stimuli_Rocks480/M_Gneiss_10.png","response":"l","trial_type":"image-keyboard-response","trial_index":175,"plugin_version":"2.1.0","time_elapsed":284654,"subject_id":"91444","group":"Group1","condition":"1_Rep","full_date":"2026-01-23T20:01:13.311Z","date":"2026-01-23","time":"20:01:13","cor_ans":false},{"trial_type":"html-keyboard-response","rt":null,"stimulus":"<p style=\"color: red; font-size: 50px; font-weight: bold;\">Incorrect</p>","response":null,"trial_index":176,"plugin_version":"2.1.0","time_elapsed":285156,"subject_id":"91444","group":"Group1","condition":"1_Rep","full_date":"2026-01-23T20:01:13.311Z","date":"2026-01-23","time":"20:01:13"},{"correct_response":"l","task":"test_phase","broad_category":"I","image_png":"I_Basalt_01.png","image_id":17,"category_name":"Basalt","category":2,"distinct_rating":1.92,"distinct_type":"Bottom","item_type":"Target","rt":668,"stimulus":"Stimuli_Rocks480/I_Basalt_01.png","response":"a","trial_type":"image-keyboard-response","trial_index":177,"plugin_version":"2.1.0","time_elapsed":285825,"subject_id":"91444","group":"Group1","condition":"1_Rep","full_date":"2026-01-23T20:01:13.311Z","date":"2026-01-23","time":"20:01:13","cor_ans":false},{"trial_type":"html-keyboard-response","rt":null,"stimulus":"<p style=\"color: red; font-size: 50px; font-weight: bold;\">Incorrect</p>","response":null,"trial_index":178,"plugin_version":"2.1.0","time_elapsed":286328,"subject_id":"91444","group":"Group1","condition":"1_Rep","full_date":"2026-01-23T20:01:13.311Z","date":"2026-01-23","time":"20:01:13"},{"correct_response":"l","task":"test_phase","broad_category":"M","image_png":"M_Marble_04.png","image_id":228,"category_name":"Marble","category":15,"distinct_rating":3.15,"distinct_type":"Bottom","item_type":"Target","rt":1462,"stimulus":"Stimuli_Rocks480/M_Marble_04.png","response":"l","trial_type":"image-keyboard-response","trial_index":179,"plugin_version":"2.1.0","time_elapsed":287791,"subject_id":"91444","group":"Group1","condition":"1_Rep","full_date":"2026-01-23T20:01:13.311Z","date":"2026-01-23","time":"20:01:13","cor_ans":true},{"trial_type":"html-keyboard-response","rt":null,"stimulus":"<p style=\"color: green; font-size: 50px; font-weight: bold;\">Correct</p>","response":null,"trial_index":180,"plugin_version":"2.1.0","time_elapsed":288293,"subject_id":"91444","group":"Group1","condition":"1_Rep","full_date":"2026-01-23T20:01:13.311Z","date":"2026-01-23","time":"20:01:13"},{"correct_response":"l","task":"test_phase","broad_category":"I","image_png":"I_Rhyolite_16.png","image_id":160,"category_name":"Rhyolite","category":10,"distinct_rating":2.19,"distinct_type":"Bottom","item_type":"Target","rt":967,"stimulus":"Stimuli_Rocks480/I_Rhyolite_16.png","response":"l","trial_type":"image-keyboard-response","trial_index":181,"plugin_version":"2.1.0","time_elapsed":289261,"subject_id":"91444","group":"Group1","condition":"1_Rep","full_date":"2026-01-23T20:01:13.311Z","date":"2026-01-23","time":"20:01:13","cor_ans":true},{"trial_type":"html-keyboard-response","rt":null,"stimulus":"<p style=\"color: green; font-size: 50px; font-weight: bold;\">Correct</p>","response":null,"trial_index":182,"plugin_version":"2.1.0","time_elapsed":289763,"subject_id":"91444","group":"Group1","condition":"1_Rep","full_date":"2026-01-23T20:01:13.311Z","date":"2026-01-23","time":"20:01:13"},{"correct_response":"l","task":"test_phase","broad_category":"S","image_png":"S_Conglomerate_05.png","image_id":373,"category_name":"Conglomerate","category":24,"distinct_rating":7.32,"distinct_type":"Top","item_type":"Target","rt":704,"stimulus":"Stimuli_Rocks480/S_Conglomerate_05.png","response":"l","trial_type":"image-keyboard-response","trial_index":183,"plugin_version":"2.1.0","time_elapsed":290469,"subject_id":"91444","group":"Group1","condition":"1_Rep","full_date":"2026-01-23T20:01:13.311Z","date":"2026-01-23","time":"20:01:13","cor_ans":true},{"trial_type":"html-keyboard-response","rt":null,"stimulus":"<p style=\"color: green; font-size: 50px; font-weight: bold;\">Correct</p>","response":null,"trial_index":184,"plugin_version":"2.1.0","time_elapsed":290970,"subject_id":"91444","group":"Group1","condition":"1_Rep","full_date":"2026-01-23T20:01:13.311Z","date":"2026-01-23","time":"20:01:13"},{"correct_response":"l","task":"test_phase","broad_category":"M","image_png":"M_Quartzite_08.png","image_id":280,"category_name":"Quartzite","category":18,"distinct_rating":2.15,"distinct_type":"Bottom","item_type":"Target","rt":949,"stimulus":"Stimuli_Rocks480/M_Quartzite_08.png","response":"a","trial_type":"image-keyboard-response","trial_index":185,"plugin_version":"2.1.0","time_elapsed":291920,"subject_id":"91444","group":"Group1","condition":"1_Rep","full_date":"2026-01-23T20:01:13.311Z","date":"2026-01-23","time":"20:01:13","cor_ans":false},{"trial_type":"html-keyboard-response","rt":null,"stimulus":"<p style=\"color: red; font-size: 50px; font-weight: bold;\">Incorrect</p>","response":null,"trial_index":186,"plugin_version":"2.1.0","time_elapsed":292422,"subject_id":"91444","group":"Group1","condition":"1_Rep","full_date":"2026-01-23T20:01:13.311Z","date":"2026-01-23","time":"20:01:13"},{"correct_response":"l","task":"test_phase","broad_category":"I","image_png":"I_Pegmatite_10.png","image_id":106,"category_name":"Pegmatite","category":7,"distinct_rating":7.66,"distinct_type":"Top","item_type":"Target","rt":885,"stimulus":"Stimuli_Rocks480/I_Pegmatite_10.png","response":"l","trial_type":"image-keyboard-response","trial_index":187,"plugin_version":"2.1.0","time_elapsed":293309,"subject_id":"91444","group":"Group1","condition":"1_Rep","full_date":"2026-01-23T20:01:13.311Z","date":"2026-01-23","time":"20:01:13","cor_ans":true},{"trial_type":"html-keyboard-response","rt":null,"stimulus":"<p style=\"color: green; font-size: 50px; font-weight: bold;\">Correct</p>","response":null,"trial_index":188,"plugin_version":"2.1.0","time_elapsed":293810,"subject_id":"91444","group":"Group1","condition":"1_Rep","full_date":"2026-01-23T20:01:13.311Z","date":"2026-01-23","time":"20:01:13"},{"correct_response":"a","task":"test_phase","broad_category":"I","image_png":"I_Andesite_04.png","image_id":4,"category_name":"Andesite","category":1,"distinct_rating":3.18,"distinct_type":"Bottom","item_type":"Foil","rt":1364,"stimulus":"Stimuli_Rocks480/I_Andesite_04.png","response":"l","trial_type":"image-keyboard-response","trial_index":189,"plugin_version":"2.1.0","time_elapsed":295176,"subject_id":"91444","group":"Group1","condition":"1_Rep","full_date":"2026-01-23T20:01:13.311Z","date":"2026-01-23","time":"20:01:13","cor_ans":false},{"trial_type":"html-keyboard-response","rt":null,"stimulus":"<p style=\"color: red; font-size: 50px; font-weight: bold;\">Incorrect</p>","response":null,"trial_index":190,"plugin_version":"2.1.0","time_elapsed":295677,"subject_id":"91444","group":"Group1","condition":"1_Rep","full_date":"2026-01-23T20:01:13.311Z","date":"2026-01-23","time":"20:01:13"},{"correct_response":"l","task":"test_phase","broad_category":"S","image_png":"S_Sandstone_03.png","image_id":451,"category_name":"Sandstone","category":29,"distinct_rating":1.86,"distinct_type":"Bottom","item_type":"Target","rt":696,"stimulus":"Stimuli_Rocks480/S_Sandstone_03.png","response":"a","trial_type":"image-keyboard-response","trial_index":191,"plugin_version":"2.1.0","time_elapsed":296375,"subject_id":"91444","group":"Group1","condition":"1_Rep","full_date":"2026-01-23T20:01:13.311Z","date":"2026-01-23","time":"20:01:13","cor_ans":false},{"trial_type":"html-keyboard-response","rt":null,"stimulus":"<p style=\"color: red; font-size: 50px; font-weight: bold;\">Incorrect</p>","response":null,"trial_index":192,"plugin_version":"2.1.0","time_elapsed":296876,"subject_id":"91444","group":"Group1","condition":"1_Rep","full_date":"2026-01-23T20:01:13.311Z","date":"2026-01-23","time":"20:01:13"},{"correct_response":"l","task":"test_phase","broad_category":"I","image_png":"I_Diorite_04.png","image_id":36,"category_name":"Diorite","category":3,"distinct_rating":2.98,"distinct_type":"Bottom","item_type":"Target","rt":818,"stimulus":"Stimuli_Rocks480/I_Diorite_04.png","response":"l","trial_type":"image-keyboard-response","trial_index":193,"plugin_version":"2.1.0","time_elapsed":297696,"subject_id":"91444","group":"Group1","condition":"1_Rep","full_date":"2026-01-23T20:01:13.311Z","date":"2026-01-23","time":"20:01:13","cor_ans":true},{"trial_type":"html-keyboard-response","rt":null,"stimulus":"<p style=\"color: green; font-size: 50px; font-weight: bold;\">Correct</p>","response":null,"trial_index":194,"plugin_version":"2.1.0","time_elapsed":298197,"subject_id":"91444","group":"Group1","condition":"1_Rep","full_date":"2026-01-23T20:01:13.311Z","date":"2026-01-23","time":"20:01:13"},{"correct_response":"a","task":"test_phase","broad_category":"S","image_png":"S_Conglomerate_14.png","image_id":382,"category_name":"Conglomerate","category":24,"distinct_rating":6.86,"distinct_type":"Top","item_type":"Foil","rt":994,"stimulus":"Stimuli_Rocks480/S_Conglomerate_14.png","response":"l","trial_type":"image-keyboard-response","trial_index":195,"plugin_version":"2.1.0","time_elapsed":299193,"subject_id":"91444","group":"Group1","condition":"1_Rep","full_date":"2026-01-23T20:01:13.311Z","date":"2026-01-23","time":"20:01:13","cor_ans":false},{"trial_type":"html-keyboard-response","rt":null,"stimulus":"<p style=\"color: red; font-size: 50px; font-weight: bold;\">Incorrect</p>","response":null,"trial_index":196,"plugin_version":"2.1.0","time_elapsed":299695,"subject_id":"91444","group":"Group1","condition":"1_Rep","full_date":"2026-01-23T20:01:13.311Z","date":"2026-01-23","time":"20:01:13"},{"correct_response":"l","task":"test_phase","broad_category":"M","image_png":"M_Slate_11.png","image_id":315,"category_name":"Slate","category":20,"distinct_rating":2.75,"distinct_type":"Bottom","item_type":"Target","rt":1203,"stimulus":"Stimuli_Rocks480/M_Slate_11.png","response":"a","trial_type":"image-keyboard-response","trial_index":197,"plugin_version":"2.1.0","time_elapsed":300900,"subject_id":"91444","group":"Group1","condition":"1_Rep","full_date":"2026-01-23T20:01:13.311Z","date":"2026-01-23","time":"20:01:13","cor_ans":false},{"trial_type":"html-keyboard-response","rt":null,"stimulus":"<p style=\"color: red; font-size: 50px; font-weight: bold;\">Incorrect</p>","response":null,"trial_index":198,"plugin_version":"2.1.0","time_elapsed":301401,"subject_id":"91444","group":"Group1","condition":"1_Rep","full_date":"2026-01-23T20:01:13.311Z","date":"2026-01-23","time":"20:01:13"},{"correct_response":"a","task":"test_phase","broad_category":"S","image_png":"S_Rock Salt_13.png","image_id":445,"category_name":"Rock Salt","category":28,"distinct_rating":7.58,"distinct_type":"Top","item_type":"Foil","rt":791,"stimulus":"Stimuli_Rocks480/S_Rock Salt_13.png","response":"a","trial_type":"image-keyboard-response","trial_index":199,"plugin_version":"2.1.0","time_elapsed":302194,"subject_id":"91444","group":"Group1","condition":"1_Rep","full_date":"2026-01-23T20:01:13.311Z","date":"2026-01-23","time":"20:01:13","cor_ans":true},{"trial_type":"html-keyboard-response","rt":null,"stimulus":"<p style=\"color: green; font-size: 50px; font-weight: bold;\">Correct</p>","response":null,"trial_index":200,"plugin_version":"2.1.0","time_elapsed":302695,"subject_id":"91444","group":"Group1","condition":"1_Rep","full_date":"2026-01-23T20:01:13.311Z","date":"2026-01-23","time":"20:01:13"},{"correct_response":"a","task":"test_phase","broad_category":"I","image_png":"I_Andesite_03.png","image_id":3,"category_name":"Andesite","category":1,"distinct_rating":3.17,"distinct_type":"Bottom","item_type":"Foil","rt":785,"stimulus":"Stimuli_Rocks480/I_Andesite_03.png","response":"a","trial_type":"image-keyboard-response","trial_index":201,"plugin_version":"2.1.0","time_elapsed":303481,"subject_id":"91444","group":"Group1","condition":"1_Rep","full_date":"2026-01-23T20:01:13.311Z","date":"2026-01-23","time":"20:01:13","cor_ans":true},{"trial_type":"html-keyboard-response","rt":null,"stimulus":"<p style=\"color: green; font-size: 50px; font-weight: bold;\">Correct</p>","response":null,"trial_index":202,"plugin_version":"2.1.0","time_elapsed":303983,"subject_id":"91444","group":"Group1","condition":"1_Rep","full_date":"2026-01-23T20:01:13.311Z","date":"2026-01-23","time":"20:01:13"},{"correct_response":"l","task":"test_phase","broad_category":"M","image_png":"M_Quartzite_05.png","image_id":277,"category_name":"Quartzite","category":18,"distinct_rating":2.23,"distinct_type":"Bottom","item_type":"Target","rt":651,"stimulus":"Stimuli_Rocks480/M_Quartzite_05.png","response":"a","trial_type":"image-keyboard-response","trial_index":203,"plugin_version":"2.1.0","time_elapsed":304635,"subject_id":"91444","group":"Group1","condition":"1_Rep","full_date":"2026-01-23T20:01:13.311Z","date":"2026-01-23","time":"20:01:13","cor_ans":false},{"trial_type":"html-keyboard-response","rt":null,"stimulus":"<p style=\"color: red; font-size: 50px; font-weight: bold;\">Incorrect</p>","response":null,"trial_index":204,"plugin_version":"2.1.0","time_elapsed":305137,"subject_id":"91444","group":"Group1","condition":"1_Rep","full_date":"2026-01-23T20:01:13.311Z","date":"2026-01-23","time":"20:01:13"},{"correct_response":"l","task":"test_phase","broad_category":"I","image_png":"I_Pumice_08.png","image_id":136,"category_name":"Pumice","category":9,"distinct_rating":3.1,"distinct_type":"Bottom","item_type":"Target","rt":746,"stimulus":"Stimuli_Rocks480/I_Pumice_08.png","response":"a","trial_type":"image-keyboard-response","trial_index":205,"plugin_version":"2.1.0","time_elapsed":305884,"subject_id":"91444","group":"Group1","condition":"1_Rep","full_date":"2026-01-23T20:01:13.311Z","date":"2026-01-23","time":"20:01:13","cor_ans":false},{"trial_type":"html-keyboard-response","rt":null,"stimulus":"<p style=\"color: red; font-size: 50px; font-weight: bold;\">Incorrect</p>","response":null,"trial_index":206,"plugin_version":"2.1.0","time_elapsed":306386,"subject_id":"91444","group":"Group1","condition":"1_Rep","full_date":"2026-01-23T20:01:13.311Z","date":"2026-01-23","time":"20:01:13"},{"correct_response":"l","task":"test_phase","broad_category":"I","image_png":"I_Diorite_03.png","image_id":35,"category_name":"Diorite","category":3,"distinct_rating":3.14,"distinct_type":"Bottom","item_type":"Target","rt":1103,"stimulus":"Stimuli_Rocks480/I_Diorite_03.png","response":"l","trial_type":"image-keyboard-response","trial_index":207,"plugin_version":"2.1.0","time_elapsed":307490,"subject_id":"91444","group":"Group1","condition":"1_Rep","full_date":"2026-01-23T20:01:13.311Z","date":"2026-01-23","time":"20:01:13","cor_ans":true},{"trial_type":"html-keyboard-response","rt":null,"stimulus":"<p style=\"color: green; font-size: 50px; font-weight: bold;\">Correct</p>","response":null,"trial_index":208,"plugin_version":"2.1.0","time_elapsed":307992,"subject_id":"91444","group":"Group1","condition":"1_Rep","full_date":"2026-01-23T20:01:13.311Z","date":"2026-01-23","time":"20:01:13"},{"correct_response":"l","task":"test_phase","broad_category":"S","image_png":"S_Rock Gypsum_04.png","image_id":420,"category_name":"Rock Gypsum","category":27,"distinct_rating":7.61,"distinct_type":"Top","item_type":"Target","rt":795,"stimulus":"Stimuli_Rocks480/S_Rock Gypsum_04.png","response":"l","trial_type":"image-keyboard-response","trial_index":209,"plugin_version":"2.1.0","time_elapsed":308789,"subject_id":"91444","group":"Group1","condition":"1_Rep","full_date":"2026-01-23T20:01:13.311Z","date":"2026-01-23","time":"20:01:13","cor_ans":true},{"trial_type":"html-keyboard-response","rt":null,"stimulus":"<p style=\"color: green; font-size: 50px; font-weight: bold;\">Correct</p>","response":null,"trial_index":210,"plugin_version":"2.1.0","time_elapsed":309290,"subject_id":"91444","group":"Group1","condition":"1_Rep","full_date":"2026-01-23T20:01:13.311Z","date":"2026-01-23","time":"20:01:13"},{"correct_response":"a","task":"test_phase","broad_category":"M","image_png":"M_Quartzite_07.png","image_id":279,"category_name":"Quartzite","category":18,"distinct_rating":1.97,"distinct_type":"Bottom","item_type":"Foil","rt":1341,"stimulus":"Stimuli_Rocks480/M_Quartzite_07.png","response":"l","trial_type":"image-keyboard-response","trial_index":211,"plugin_version":"2.1.0","time_elapsed":310632,"subject_id":"91444","group":"Group1","condition":"1_Rep","full_date":"2026-01-23T20:01:13.311Z","date":"2026-01-23","time":"20:01:13","cor_ans":false},{"trial_type":"html-keyboard-response","rt":null,"stimulus":"<p style=\"color: red; font-size: 50px; font-weight: bold;\">Incorrect</p>","response":null,"trial_index":212,"plugin_version":"2.1.0","time_elapsed":311134,"subject_id":"91444","group":"Group1","condition":"1_Rep","full_date":"2026-01-23T20:01:13.311Z","date":"2026-01-23","time":"20:01:13"},{"correct_response":"a","task":"test_phase","broad_category":"M","image_png":"M_Phyllite_13.png","image_id":269,"category_name":"Phyllite","category":17,"distinct_rating":2.8,"distinct_type":"Bottom","item_type":"Foil","rt":1173,"stimulus":"Stimuli_Rocks480/M_Phyllite_13.png","response":"a","trial_type":"image-keyboard-response","trial_index":213,"plugin_version":"2.1.0","time_elapsed":312309,"subject_id":"91444","group":"Group1","condition":"1_Rep","full_date":"2026-01-23T20:01:13.311Z","date":"2026-01-23","time":"20:01:13","cor_ans":true},{"trial_type":"html-keyboard-response","rt":null,"stimulus":"<p style=\"color: green; font-size: 50px; font-weight: bold;\">Correct</p>","response":null,"trial_index":214,"plugin_version":"2.1.0","time_elapsed":312810,"subject_id":"91444","group":"Group1","condition":"1_Rep","full_date":"2026-01-23T20:01:13.311Z","date":"2026-01-23","time":"20:01:13"},{"correct_response":"a","task":"test_phase","broad_category":"I","image_png":"I_Gabbro_02.png","image_id":50,"category_name":"Gabbro","category":4,"distinct_rating":2.73,"distinct_type":"Bottom","item_type":"Foil","rt":1079,"stimulus":"Stimuli_Rocks480/I_Gabbro_02.png","response":"a","trial_type":"image-keyboard-response","trial_index":215,"plugin_version":"2.1.0","time_elapsed":313891,"subject_id":"91444","group":"Group1","condition":"1_Rep","full_date":"2026-01-23T20:01:13.311Z","date":"2026-01-23","time":"20:01:13","cor_ans":true},{"trial_type":"html-keyboard-response","rt":null,"stimulus":"<p style=\"color: green; font-size: 50px; font-weight: bold;\">Correct</p>","response":null,"trial_index":216,"plugin_version":"2.1.0","time_elapsed":314392,"subject_id":"91444","group":"Group1","condition":"1_Rep","full_date":"2026-01-23T20:01:13.311Z","date":"2026-01-23","time":"20:01:13"},{"correct_response":"l","task":"test_phase","broad_category":"M","image_png":"M_Phyllite_03.png","image_id":259,"category_name":"Phyllite","category":17,"distinct_rating":2.5,"distinct_type":"Bottom","item_type":"Target","rt":900,"stimulus":"Stimuli_Rocks480/M_Phyllite_03.png","response":"a","trial_type":"image-keyboard-response","trial_index":217,"plugin_version":"2.1.0","time_elapsed":315294,"subject_id":"91444","group":"Group1","condition":"1_Rep","full_date":"2026-01-23T20:01:13.311Z","date":"2026-01-23","time":"20:01:13","cor_ans":false},{"trial_type":"html-keyboard-response","rt":null,"stimulus":"<p style=\"color: red; font-size: 50px; font-weight: bold;\">Incorrect</p>","response":null,"trial_index":218,"plugin_version":"2.1.0","time_elapsed":315795,"subject_id":"91444","group":"Group1","condition":"1_Rep","full_date":"2026-01-23T20:01:13.311Z","date":"2026-01-23","time":"20:01:13"},{"correct_response":"l","task":"test_phase","broad_category":"M","image_png":"M_Gneiss_13.png","image_id":205,"category_name":"Gneiss","category":13,"distinct_rating":3.26,"distinct_type":"Bottom","item_type":"Target","rt":843,"stimulus":"Stimuli_Rocks480/M_Gneiss_13.png","response":"a","trial_type":"image-keyboard-response","trial_index":219,"plugin_version":"2.1.0","time_elapsed":316640,"subject_id":"91444","group":"Group1","condition":"1_Rep","full_date":"2026-01-23T20:01:13.311Z","date":"2026-01-23","time":"20:01:13","cor_ans":false},{"trial_type":"html-keyboard-response","rt":null,"stimulus":"<p style=\"color: red; font-size: 50px; font-weight: bold;\">Incorrect</p>","response":null,"trial_index":220,"plugin_version":"2.1.0","time_elapsed":317142,"subject_id":"91444","group":"Group1","condition":"1_Rep","full_date":"2026-01-23T20:01:13.311Z","date":"2026-01-23","time":"20:01:13"},{"correct_response":"l","task":"test_phase","broad_category":"I","image_png":"I_Andesite_10.png","image_id":10,"category_name":"Andesite","category":1,"distinct_rating":3.15,"distinct_type":"Bottom","item_type":"Target","rt":1182,"stimulus":"Stimuli_Rocks480/I_Andesite_10.png","response":"l","trial_type":"image-keyboard-response","trial_index":221,"plugin_version":"2.1.0","time_elapsed":318326,"subject_id":"91444","group":"Group1","condition":"1_Rep","full_date":"2026-01-23T20:01:13.311Z","date":"2026-01-23","time":"20:01:13","cor_ans":true},{"trial_type":"html-keyboard-response","rt":null,"stimulus":"<p style=\"color: green; font-size: 50px; font-weight: bold;\">Correct</p>","response":null,"trial_index":222,"plugin_version":"2.1.0","time_elapsed":318828,"subject_id":"91444","group":"Group1","condition":"1_Rep","full_date":"2026-01-23T20:01:13.311Z","date":"2026-01-23","time":"20:01:13"},{"correct_response":"a","task":"test_phase","broad_category":"M","image_png":"M_Marble_14.png","image_id":238,"category_name":"Marble","category":15,"distinct_rating":3.31,"distinct_type":"Bottom","item_type":"Foil","rt":1159,"stimulus":"Stimuli_Rocks480/M_Marble_14.png","response":"a","trial_type":"image-keyboard-response","trial_index":223,"plugin_version":"2.1.0","time_elapsed":319988,"subject_id":"91444","group":"Group1","condition":"1_Rep","full_date":"2026-01-23T20:01:13.311Z","date":"2026-01-23","time":"20:01:13","cor_ans":true},{"trial_type":"html-keyboard-response","rt":null,"stimulus":"<p style=\"color: green; font-size: 50px; font-weight: bold;\">Correct</p>","response":null,"trial_index":224,"plugin_version":"2.1.0","time_elapsed":320490,"subject_id":"91444","group":"Group1","condition":"1_Rep","full_date":"2026-01-23T20:01:13.311Z","date":"2026-01-23","time":"20:01:13"},{"correct_response":"a","task":"test_phase","broad_category":"M"