[{"width":1411,"height":914,"webaudio":true,"browser":"chrome","browser_version":"143.0.0","mobile":false,"os":"Mac OS","fullscreen":true,"vsync_rate":60.62,"webcam":true,"microphone":true,"trial_type":"browser-check","trial_index":0,"plugin_version":"2.1.0","time_elapsed":1002,"subject_id":"92603","group":"Group1","condition":"1_Rep","full_date":"2026-01-28T05:44:15.184Z","date":"2026-01-28","time":"05:44:15"},{"success":true,"timeout":false,"failed_images":[],"failed_audio":[],"failed_video":[],"trial_type":"preload","trial_index":1,"plugin_version":"2.1.0","time_elapsed":11098,"subject_id":"92603","group":"Group1","condition":"1_Rep","full_date":"2026-01-28T05:44:15.184Z","date":"2026-01-28","time":"05:44:15"},{"rt":2491716,"url":"SONA_consent_memorability.html","trial_type":"external-html","trial_index":2,"plugin_version":"2.1.0","time_elapsed":40920174,"subject_id":"92603","group":"Group1","condition":"1_Rep","full_date":"2026-01-28T05:44:15.184Z","date":"2026-01-28","time":"05:44:15"},{"success":true,"rt":4778,"trial_type":"fullscreen","trial_index":3,"plugin_version":"2.1.0","time_elapsed":40925955,"subject_id":"92603","group":"Group1","condition":"1_Rep","full_date":"2026-01-28T05:44:15.184Z","date":"2026-01-28","time":"05:44:15"},{"rt":2864,"stimulus":"<div style=\"max-width: 760px; margin: auto; font-size: 20px; line-height: 1.5;\">\n      <h1 style=\"text-align:center; font-size: 30px;\">Instructions</h1>\n      <p>\n        Welcome to the study on <b>visual memory</b>. This experiment consists of <b>two phases</b>: \n        a <b>study phase</b> and a <b>test phase</b>.\n      </p>\n      <p>\n        In the study phase, you will see a series of rock images along with their category labels.\n        The images will appear one at a time.\n        <b>Your task</b> is to learn the categories to which the rock images belong \n        and to remember each image as accurately as possible.\n      </p> \n      <p>\n        Note that you will see each image only <b>once</b> during the study phase. \n          So, please pay close attention and try to remember each image carefully.\n      </p>\n      <p>\n        After the study phase, <b>your memory will be tested</b>. \n        Additional instructions for the test phase will be provided at that time.\n      </p>\n      <p>\n        If your computer has multiple <b>language settings</b> (e.g., English and another language),\n        please make sure it is set to English before starting.\n      </p>\n      <p>\n        You can track your progress using the <b>completion bar</b> at the top of the screen. \n        Please note that the bar will refresh when the test phase begins \n        to give you an accurate sense of your progress in both phases.\n      </p> \n      <p>\n        Press the button below when you are ready to begin.\n      </p>\n    </div>","response":0,"trial_type":"html-button-response","trial_index":4,"plugin_version":"2.1.0","time_elapsed":40928822,"subject_id":"92603","group":"Group1","condition":"1_Rep","full_date":"2026-01-28T05:44:15.184Z","date":"2026-01-28","time":"05:44:15"},{"rt":null,"stimulus":"<p style=\"font-size: 50px; margin: 0; text-align: center;\">+</p>","response":null,"trial_type":"html-keyboard-response","trial_index":5,"plugin_version":"2.1.0","time_elapsed":40929825,"subject_id":"92603","group":"Group1","condition":"1_Rep","full_date":"2026-01-28T05:44:15.184Z","date":"2026-01-28","time":"05:44:15"},{"task":"memory_phase","broad_category":"S","image_png":"S_Rock Gypsum_04.png","image_id":420,"category_name":"Rock Gypsum","category":27,"distinct_rating":7.61,"distinct_type":"Top","rt":null,"stimulus":"Stimuli_Rocks480/S_Rock Gypsum_04.png","response":null,"trial_type":"image-keyboard-response","trial_index":6,"plugin_version":"2.1.0","time_elapsed":40932328,"subject_id":"92603","group":"Group1","condition":"1_Rep","full_date":"2026-01-28T05:44:15.184Z","date":"2026-01-28","time":"05:44:15"},{"rt":null,"stimulus":"<p style=\"font-size: 50px; margin: 0; text-align: center;\">+</p>","response":null,"trial_type":"html-keyboard-response","trial_index":7,"plugin_version":"2.1.0","time_elapsed":40933331,"subject_id":"92603","group":"Group1","condition":"1_Rep","full_date":"2026-01-28T05:44:15.184Z","date":"2026-01-28","time":"05:44:15"},{"task":"memory_phase","broad_category":"S","image_png":"S_Shale_12.png","image_id":476,"category_name":"Shale","category":30,"distinct_rating":2.48,"distinct_type":"Bottom","rt":null,"stimulus":"Stimuli_Rocks480/S_Shale_12.png","response":null,"trial_type":"image-keyboard-response","trial_index":8,"plugin_version":"2.1.0","time_elapsed":40935833,"subject_id":"92603","group":"Group1","condition":"1_Rep","full_date":"2026-01-28T05:44:15.184Z","date":"2026-01-28","time":"05:44:15"},{"rt":null,"stimulus":"<p style=\"font-size: 50px; margin: 0; text-align: center;\">+</p>","response":null,"trial_type":"html-keyboard-response","trial_index":9,"plugin_version":"2.1.0","time_elapsed":40936836,"subject_id":"92603","group":"Group1","condition":"1_Rep","full_date":"2026-01-28T05:44:15.184Z","date":"2026-01-28","time":"05:44:15"},{"task":"memory_phase","broad_category":"I","image_png":"I_Gabbro_11.png","image_id":59,"category_name":"Gabbro","category":4,"distinct_rating":1.99,"distinct_type":"Bottom","rt":null,"stimulus":"Stimuli_Rocks480/I_Gabbro_11.png","response":null,"trial_type":"image-keyboard-response","trial_index":10,"plugin_version":"2.1.0","time_elapsed":40939339,"subject_id":"92603","group":"Group1","condition":"1_Rep","full_date":"2026-01-28T05:44:15.184Z","date":"2026-01-28","time":"05:44:15"},{"rt":null,"stimulus":"<p style=\"font-size: 50px; margin: 0; text-align: center;\">+</p>","response":null,"trial_type":"html-keyboard-response","trial_index":11,"plugin_version":"2.1.0","time_elapsed":40940341,"subject_id":"92603","group":"Group1","condition":"1_Rep","full_date":"2026-01-28T05:44:15.184Z","date":"2026-01-28","time":"05:44:15"},{"task":"memory_phase","broad_category":"M","image_png":"M_Phyllite_07.png","image_id":263,"category_name":"Phyllite","category":17,"distinct_rating":2.59,"distinct_type":"Bottom","rt":null,"stimulus":"Stimuli_Rocks480/M_Phyllite_07.png","response":null,"trial_type":"image-keyboard-response","trial_index":12,"plugin_version":"2.1.0","time_elapsed":40942844,"subject_id":"92603","group":"Group1","condition":"1_Rep","full_date":"2026-01-28T05:44:15.184Z","date":"2026-01-28","time":"05:44:15"},{"rt":null,"stimulus":"<p style=\"font-size: 50px; margin: 0; text-align: center;\">+</p>","response":null,"trial_type":"html-keyboard-response","trial_index":13,"plugin_version":"2.1.0","time_elapsed":40943846,"subject_id":"92603","group":"Group1","condition":"1_Rep","full_date":"2026-01-28T05:44:15.184Z","date":"2026-01-28","time":"05:44:15"},{"task":"memory_phase","broad_category":"S","image_png":"S_Breccia_11.png","image_id":347,"category_name":"Breccia","category":22,"distinct_rating":6.7,"distinct_type":"Top","rt":null,"stimulus":"Stimuli_Rocks480/S_Breccia_11.png","response":null,"trial_type":"image-keyboard-response","trial_index":14,"plugin_version":"2.1.0","time_elapsed":40946349,"subject_id":"92603","group":"Group1","condition":"1_Rep","full_date":"2026-01-28T05:44:15.184Z","date":"2026-01-28","time":"05:44:15"},{"rt":null,"stimulus":"<p style=\"font-size: 50px; margin: 0; text-align: center;\">+</p>","response":null,"trial_type":"html-keyboard-response","trial_index":15,"plugin_version":"2.1.0","time_elapsed":40947352,"subject_id":"92603","group":"Group1","condition":"1_Rep","full_date":"2026-01-28T05:44:15.184Z","date":"2026-01-28","time":"05:44:15"},{"task":"memory_phase","broad_category":"S","image_png":"S_Dolomite_12.png","image_id":396,"category_name":"Dolomite","category":25,"distinct_rating":1.85,"distinct_type":"Bottom","rt":null,"stimulus":"Stimuli_Rocks480/S_Dolomite_12.png","response":null,"trial_type":"image-keyboard-response","trial_index":16,"plugin_version":"2.1.0","time_elapsed":40949855,"subject_id":"92603","group":"Group1","condition":"1_Rep","full_date":"2026-01-28T05:44:15.184Z","date":"2026-01-28","time":"05:44:15"},{"rt":null,"stimulus":"<p style=\"font-size: 50px; margin: 0; text-align: center;\">+</p>","response":null,"trial_type":"html-keyboard-response","trial_index":17,"plugin_version":"2.1.0","time_elapsed":40950857,"subject_id":"92603","group":"Group1","condition":"1_Rep","full_date":"2026-01-28T05:44:15.184Z","date":"2026-01-28","time":"05:44:15"},{"task":"memory_phase","broad_category":"I","image_png":"I_Basalt_01.png","image_id":17,"category_name":"Basalt","category":2,"distinct_rating":1.92,"distinct_type":"Bottom","rt":null,"stimulus":"Stimuli_Rocks480/I_Basalt_01.png","response":null,"trial_type":"image-keyboard-response","trial_index":18,"plugin_version":"2.1.0","time_elapsed":40953360,"subject_id":"92603","group":"Group1","condition":"1_Rep","full_date":"2026-01-28T05:44:15.184Z","date":"2026-01-28","time":"05:44:15"},{"rt":null,"stimulus":"<p style=\"font-size: 50px; margin: 0; text-align: center;\">+</p>","response":null,"trial_type":"html-keyboard-response","trial_index":19,"plugin_version":"2.1.0","time_elapsed":40954362,"subject_id":"92603","group":"Group1","condition":"1_Rep","full_date":"2026-01-28T05:44:15.184Z","date":"2026-01-28","time":"05:44:15"},{"task":"memory_phase","broad_category":"I","image_png":"I_Pumice_08.png","image_id":136,"category_name":"Pumice","category":9,"distinct_rating":3.1,"distinct_type":"Bottom","rt":null,"stimulus":"Stimuli_Rocks480/I_Pumice_08.png","response":null,"trial_type":"image-keyboard-response","trial_index":20,"plugin_version":"2.1.0","time_elapsed":40956865,"subject_id":"92603","group":"Group1","condition":"1_Rep","full_date":"2026-01-28T05:44:15.184Z","date":"2026-01-28","time":"05:44:15"},{"rt":null,"stimulus":"<p style=\"font-size: 50px; margin: 0; text-align: center;\">+</p>","response":null,"trial_type":"html-keyboard-response","trial_index":21,"plugin_version":"2.1.0","time_elapsed":40957868,"subject_id":"92603","group":"Group1","condition":"1_Rep","full_date":"2026-01-28T05:44:15.184Z","date":"2026-01-28","time":"05:44:15"},{"task":"memory_phase","broad_category":"M","image_png":"M_Slate_03.png","image_id":307,"category_name":"Slate","category":20,"distinct_rating":1.87,"distinct_type":"Bottom","rt":null,"stimulus":"Stimuli_Rocks480/M_Slate_03.png","response":null,"trial_type":"image-keyboard-response","trial_index":22,"plugin_version":"2.1.0","time_elapsed":40960370,"subject_id":"92603","group":"Group1","condition":"1_Rep","full_date":"2026-01-28T05:44:15.184Z","date":"2026-01-28","time":"05:44:15"},{"rt":null,"stimulus":"<p style=\"font-size: 50px; margin: 0; text-align: center;\">+</p>","response":null,"trial_type":"html-keyboard-response","trial_index":23,"plugin_version":"2.1.0","time_elapsed":40961373,"subject_id":"92603","group":"Group1","condition":"1_Rep","full_date":"2026-01-28T05:44:15.184Z","date":"2026-01-28","time":"05:44:15"},{"task":"memory_phase","broad_category":"M","image_png":"M_Gneiss_13.png","image_id":205,"category_name":"Gneiss","category":13,"distinct_rating":3.26,"distinct_type":"Bottom","rt":null,"stimulus":"Stimuli_Rocks480/M_Gneiss_13.png","response":null,"trial_type":"image-keyboard-response","trial_index":24,"plugin_version":"2.1.0","time_elapsed":40963875,"subject_id":"92603","group":"Group1","condition":"1_Rep","full_date":"2026-01-28T05:44:15.184Z","date":"2026-01-28","time":"05:44:15"},{"rt":null,"stimulus":"<p style=\"font-size: 50px; margin: 0; text-align: center;\">+</p>","response":null,"trial_type":"html-keyboard-response","trial_index":25,"plugin_version":"2.1.0","time_elapsed":40964878,"subject_id":"92603","group":"Group1","condition":"1_Rep","full_date":"2026-01-28T05:44:15.184Z","date":"2026-01-28","time":"05:44:15"},{"task":"memory_phase","broad_category":"I","image_png":"I_Diorite_03.png","image_id":35,"category_name":"Diorite","category":3,"distinct_rating":3.14,"distinct_type":"Bottom","rt":null,"stimulus":"Stimuli_Rocks480/I_Diorite_03.png","response":null,"trial_type":"image-keyboard-response","trial_index":26,"plugin_version":"2.1.0","time_elapsed":40967380,"subject_id":"92603","group":"Group1","condition":"1_Rep","full_date":"2026-01-28T05:44:15.184Z","date":"2026-01-28","time":"05:44:15"},{"rt":null,"stimulus":"<p style=\"font-size: 50px; margin: 0; text-align: center;\">+</p>","response":null,"trial_type":"html-keyboard-response","trial_index":27,"plugin_version":"2.1.0","time_elapsed":40968383,"subject_id":"92603","group":"Group1","condition":"1_Rep","full_date":"2026-01-28T05:44:15.184Z","date":"2026-01-28","time":"05:44:15"},{"task":"memory_phase","broad_category":"I","image_png":"I_Obsidian_05.png","image_id":85,"category_name":"Obsidian","category":6,"distinct_rating":7.32,"distinct_type":"Top","rt":null,"stimulus":"Stimuli_Rocks480/I_Obsidian_05.png","response":null,"trial_type":"image-keyboard-response","trial_index":28,"plugin_version":"2.1.0","time_elapsed":40970886,"subject_id":"92603","group":"Group1","condition":"1_Rep","full_date":"2026-01-28T05:44:15.184Z","date":"2026-01-28","time":"05:44:15"},{"rt":null,"stimulus":"<p style=\"font-size: 50px; margin: 0; text-align: center;\">+</p>","response":null,"trial_type":"html-keyboard-response","trial_index":29,"plugin_version":"2.1.0","time_elapsed":40971888,"subject_id":"92603","group":"Group1","condition":"1_Rep","full_date":"2026-01-28T05:44:15.184Z","date":"2026-01-28","time":"05:44:15"},{"task":"memory_phase","broad_category":"M","image_png":"M_Gneiss_05.png","image_id":197,"category_name":"Gneiss","category":13,"distinct_rating":2.97,"distinct_type":"Bottom","rt":null,"stimulus":"Stimuli_Rocks480/M_Gneiss_05.png","response":null,"trial_type":"image-keyboard-response","trial_index":30,"plugin_version":"2.1.0","time_elapsed":40974392,"subject_id":"92603","group":"Group1","condition":"1_Rep","full_date":"2026-01-28T05:44:15.184Z","date":"2026-01-28","time":"05:44:15"},{"rt":null,"stimulus":"<p style=\"font-size: 50px; margin: 0; text-align: center;\">+</p>","response":null,"trial_type":"html-keyboard-response","trial_index":31,"plugin_version":"2.1.0","time_elapsed":40975394,"subject_id":"92603","group":"Group1","condition":"1_Rep","full_date":"2026-01-28T05:44:15.184Z","date":"2026-01-28","time":"05:44:15"},{"task":"memory_phase","broad_category":"S","image_png":"S_Sandstone_16.png","image_id":464,"category_name":"Sandstone","category":29,"distinct_rating":1.93,"distinct_type":"Bottom","rt":null,"stimulus":"Stimuli_Rocks480/S_Sandstone_16.png","response":null,"trial_type":"image-keyboard-response","trial_index":32,"plugin_version":"2.1.0","time_elapsed":40977897,"subject_id":"92603","group":"Group1","condition":"1_Rep","full_date":"2026-01-28T05:44:15.184Z","date":"2026-01-28","time":"05:44:15"},{"rt":null,"stimulus":"<p style=\"font-size: 50px; margin: 0; text-align: center;\">+</p>","response":null,"trial_type":"html-keyboard-response","trial_index":33,"plugin_version":"2.1.0","time_elapsed":40978899,"subject_id":"92603","group":"Group1","condition":"1_Rep","full_date":"2026-01-28T05:44:15.184Z","date":"2026-01-28","time":"05:44:15"},{"task":"memory_phase","broad_category":"S","image_png":"S_Conglomerate_05.png","image_id":373,"category_name":"Conglomerate","category":24,"distinct_rating":7.32,"distinct_type":"Top","rt":null,"stimulus":"Stimuli_Rocks480/S_Conglomerate_05.png","response":null,"trial_type":"image-keyboard-response","trial_index":34,"plugin_version":"2.1.0","time_elapsed":40981402,"subject_id":"92603","group":"Group1","condition":"1_Rep","full_date":"2026-01-28T05:44:15.184Z","date":"2026-01-28","time":"05:44:15"},{"rt":null,"stimulus":"<p style=\"font-size: 50px; margin: 0; text-align: center;\">+</p>","response":null,"trial_type":"html-keyboard-response","trial_index":35,"plugin_version":"2.1.0","time_elapsed":40982405,"subject_id":"92603","group":"Group1","condition":"1_Rep","full_date":"2026-01-28T05:44:15.184Z","date":"2026-01-28","time":"05:44:15"},{"task":"memory_phase","broad_category":"M","image_png":"M_Slate_15.png","image_id":319,"category_name":"Slate","category":20,"distinct_rating":2.13,"distinct_type":"Bottom","rt":null,"stimulus":"Stimuli_Rocks480/M_Slate_15.png","response":null,"trial_type":"image-keyboard-response","trial_index":36,"plugin_version":"2.1.0","time_elapsed":40984907,"subject_id":"92603","group":"Group1","condition":"1_Rep","full_date":"2026-01-28T05:44:15.184Z","date":"2026-01-28","time":"05:44:15"},{"rt":null,"stimulus":"<p style=\"font-size: 50px; margin: 0; text-align: center;\">+</p>","response":null,"trial_type":"html-keyboard-response","trial_index":37,"plugin_version":"2.1.0","time_elapsed":40985909,"subject_id":"92603","group":"Group1","condition":"1_Rep","full_date":"2026-01-28T05:44:15.184Z","date":"2026-01-28","time":"05:44:15"},{"task":"memory_phase","broad_category":"I","image_png":"I_Andesite_06.png","image_id":6,"category_name":"Andesite","category":1,"distinct_rating":3.17,"distinct_type":"Bottom","rt":null,"stimulus":"Stimuli_Rocks480/I_Andesite_06.png","response":null,"trial_type":"image-keyboard-response","trial_index":38,"plugin_version":"2.1.0","time_elapsed":40988411,"subject_id":"92603","group":"Group1","condition":"1_Rep","full_date":"2026-01-28T05:44:15.184Z","date":"2026-01-28","time":"05:44:15"},{"rt":null,"stimulus":"<p style=\"font-size: 50px; margin: 0; text-align: center;\">+</p>","response":null,"trial_type":"html-keyboard-response","trial_index":39,"plugin_version":"2.1.0","time_elapsed":40989414,"subject_id":"92603","group":"Group1","condition":"1_Rep","full_date":"2026-01-28T05:44:15.184Z","date":"2026-01-28","time":"05:44:15"},{"task":"memory_phase","broad_category":"S","image_png":"S_Sandstone_15.png","image_id":463,"category_name":"Sandstone","category":29,"distinct_rating":2,"distinct_type":"Bottom","rt":null,"stimulus":"Stimuli_Rocks480/S_Sandstone_15.png","response":null,"trial_type":"image-keyboard-response","trial_index":40,"plugin_version":"2.1.0","time_elapsed":40991917,"subject_id":"92603","group":"Group1","condition":"1_Rep","full_date":"2026-01-28T05:44:15.184Z","date":"2026-01-28","time":"05:44:15"},{"rt":null,"stimulus":"<p style=\"font-size: 50px; margin: 0; text-align: center;\">+</p>","response":null,"trial_type":"html-keyboard-response","trial_index":41,"plugin_version":"2.1.0","time_elapsed":40992919,"subject_id":"92603","group":"Group1","condition":"1_Rep","full_date":"2026-01-28T05:44:15.184Z","date":"2026-01-28","time":"05:44:15"},{"task":"memory_phase","broad_category":"S","image_png":"S_Rock Salt_01.png","image_id":433,"category_name":"Rock Salt","category":28,"distinct_rating":7.18,"distinct_type":"Top","rt":null,"stimulus":"Stimuli_Rocks480/S_Rock Salt_01.png","response":null,"trial_type":"image-keyboard-response","trial_index":42,"plugin_version":"2.1.0","time_elapsed":40995422,"subject_id":"92603","group":"Group1","condition":"1_Rep","full_date":"2026-01-28T05:44:15.184Z","date":"2026-01-28","time":"05:44:15"},{"rt":null,"stimulus":"<p style=\"font-size: 50px; margin: 0; text-align: center;\">+</p>","response":null,"trial_type":"html-keyboard-response","trial_index":43,"plugin_version":"2.1.0","time_elapsed":40996425,"subject_id":"92603","group":"Group1","condition":"1_Rep","full_date":"2026-01-28T05:44:15.184Z","date":"2026-01-28","time":"05:44:15"},{"task":"memory_phase","broad_category":"I","image_png":"I_Andesite_08.png","image_id":8,"category_name":"Andesite","category":1,"distinct_rating":1.95,"distinct_type":"Bottom","rt":null,"stimulus":"Stimuli_Rocks480/I_Andesite_08.png","response":null,"trial_type":"image-keyboard-response","trial_index":44,"plugin_version":"2.1.0","time_elapsed":40998927,"subject_id":"92603","group":"Group1","condition":"1_Rep","full_date":"2026-01-28T05:44:15.184Z","date":"2026-01-28","time":"05:44:15"},{"rt":null,"stimulus":"<p style=\"font-size: 50px; margin: 0; text-align: center;\">+</p>","response":null,"trial_type":"html-keyboard-response","trial_index":45,"plugin_version":"2.1.0","time_elapsed":40999929,"subject_id":"92603","group":"Group1","condition":"1_Rep","full_date":"2026-01-28T05:44:15.184Z","date":"2026-01-28","time":"05:44:15"},{"task":"memory_phase","broad_category":"S","image_png":"S_Shale_08.png","image_id":472,"category_name":"Shale","category":30,"distinct_rating":2.55,"distinct_type":"Bottom","rt":null,"stimulus":"Stimuli_Rocks480/S_Shale_08.png","response":null,"trial_type":"image-keyboard-response","trial_index":46,"plugin_version":"2.1.0","time_elapsed":41002431,"subject_id":"92603","group":"Group1","condition":"1_Rep","full_date":"2026-01-28T05:44:15.184Z","date":"2026-01-28","time":"05:44:15"},{"rt":null,"stimulus":"<p style=\"font-size: 50px; margin: 0; text-align: center;\">+</p>","response":null,"trial_type":"html-keyboard-response","trial_index":47,"plugin_version":"2.1.0","time_elapsed":41003434,"subject_id":"92603","group":"Group1","condition":"1_Rep","full_date":"2026-01-28T05:44:15.184Z","date":"2026-01-28","time":"05:44:15"},{"task":"memory_phase","broad_category":"S","image_png":"S_Shale_01.png","image_id":465,"category_name":"Shale","category":30,"distinct_rating":2.7,"distinct_type":"Bottom","rt":null,"stimulus":"Stimuli_Rocks480/S_Shale_01.png","response":null,"trial_type":"image-keyboard-response","trial_index":48,"plugin_version":"2.1.0","time_elapsed":41005936,"subject_id":"92603","group":"Group1","condition":"1_Rep","full_date":"2026-01-28T05:44:15.184Z","date":"2026-01-28","time":"05:44:15"},{"rt":null,"stimulus":"<p style=\"font-size: 50px; margin: 0; text-align: center;\">+</p>","response":null,"trial_type":"html-keyboard-response","trial_index":49,"plugin_version":"2.1.0","time_elapsed":41006938,"subject_id":"92603","group":"Group1","condition":"1_Rep","full_date":"2026-01-28T05:44:15.184Z","date":"2026-01-28","time":"05:44:15"},{"task":"memory_phase","broad_category":"M","image_png":"M_Gneiss_06.png","image_id":198,"category_name":"Gneiss","category":13,"distinct_rating":2.65,"distinct_type":"Bottom","rt":null,"stimulus":"Stimuli_Rocks480/M_Gneiss_06.png","response":null,"trial_type":"image-keyboard-response","trial_index":50,"plugin_version":"2.1.0","time_elapsed":41009440,"subject_id":"92603","group":"Group1","condition":"1_Rep","full_date":"2026-01-28T05:44:15.184Z","date":"2026-01-28","time":"05:44:15"},{"rt":null,"stimulus":"<p style=\"font-size: 50px; margin: 0; text-align: center;\">+</p>","response":null,"trial_type":"html-keyboard-response","trial_index":51,"plugin_version":"2.1.0","time_elapsed":41010443,"subject_id":"92603","group":"Group1","condition":"1_Rep","full_date":"2026-01-28T05:44:15.184Z","date":"2026-01-28","time":"05:44:15"},{"task":"memory_phase","broad_category":"M","image_png":"M_Quartzite_05.png","image_id":277,"category_name":"Quartzite","category":18,"distinct_rating":2.23,"distinct_type":"Bottom","rt":null,"stimulus":"Stimuli_Rocks480/M_Quartzite_05.png","response":null,"trial_type":"image-keyboard-response","trial_index":52,"plugin_version":"2.1.0","time_elapsed":41012945,"subject_id":"92603","group":"Group1","condition":"1_Rep","full_date":"2026-01-28T05:44:15.184Z","date":"2026-01-28","time":"05:44:15"},{"rt":null,"stimulus":"<p style=\"font-size: 50px; margin: 0; text-align: center;\">+</p>","response":null,"trial_type":"html-keyboard-response","trial_index":53,"plugin_version":"2.1.0","time_elapsed":41013947,"subject_id":"92603","group":"Group1","condition":"1_Rep","full_date":"2026-01-28T05:44:15.184Z","date":"2026-01-28","time":"05:44:15"},{"task":"memory_phase","broad_category":"S","image_png":"S_Dolomite_14.png","image_id":398,"category_name":"Dolomite","category":25,"distinct_rating":1.43,"distinct_type":"Bottom","rt":null,"stimulus":"Stimuli_Rocks480/S_Dolomite_14.png","response":null,"trial_type":"image-keyboard-response","trial_index":54,"plugin_version":"2.1.0","time_elapsed":41016450,"subject_id":"92603","group":"Group1","condition":"1_Rep","full_date":"2026-01-28T05:44:15.184Z","date":"2026-01-28","time":"05:44:15"},{"rt":13203,"stimulus":"<p style=\"max-width: 760px; margin: auto; font-size: 35px; line-height: 1.5;\">\n                Press SPACE to continue study phase\n              </p>","response":" ","trial_type":"html-keyboard-response","trial_index":55,"plugin_version":"2.1.0","time_elapsed":41029655,"subject_id":"92603","group":"Group1","condition":"1_Rep","full_date":"2026-01-28T05:44:15.184Z","date":"2026-01-28","time":"05:44:15"},{"rt":null,"stimulus":"<p style=\"font-size: 50px; margin: 0; text-align: center;\">+</p>","response":null,"trial_type":"html-keyboard-response","trial_index":56,"plugin_version":"2.1.0","time_elapsed":41030657,"subject_id":"92603","group":"Group1","condition":"1_Rep","full_date":"2026-01-28T05:44:15.184Z","date":"2026-01-28","time":"05:44:15"},{"task":"memory_phase","broad_category":"I","image_png":"I_Gabbro_16.png","image_id":64,"category_name":"Gabbro","category":4,"distinct_rating":2.52,"distinct_type":"Bottom","rt":null,"stimulus":"Stimuli_Rocks480/I_Gabbro_16.png","response":null,"trial_type":"image-keyboard-response","trial_index":57,"plugin_version":"2.1.0","time_elapsed":41033160,"subject_id":"92603","group":"Group1","condition":"1_Rep","full_date":"2026-01-28T05:44:15.184Z","date":"2026-01-28","time":"05:44:15"},{"rt":null,"stimulus":"<p style=\"font-size: 50px; margin: 0; text-align: center;\">+</p>","response":null,"trial_type":"html-keyboard-response","trial_index":58,"plugin_version":"2.1.0","time_elapsed":41034163,"subject_id":"92603","group":"Group1","condition":"1_Rep","full_date":"2026-01-28T05:44:15.184Z","date":"2026-01-28","time":"05:44:15"},{"task":"memory_phase","broad_category":"M","image_png":"M_Phyllite_03.png","image_id":259,"category_name":"Phyllite","category":17,"distinct_rating":2.5,"distinct_type":"Bottom","rt":null,"stimulus":"Stimuli_Rocks480/M_Phyllite_03.png","response":null,"trial_type":"image-keyboard-response","trial_index":59,"plugin_version":"2.1.0","time_elapsed":41036666,"subject_id":"92603","group":"Group1","condition":"1_Rep","full_date":"2026-01-28T05:44:15.184Z","date":"2026-01-28","time":"05:44:15"},{"rt":null,"stimulus":"<p style=\"font-size: 50px; margin: 0; text-align: center;\">+</p>","response":null,"trial_type":"html-keyboard-response","trial_index":60,"plugin_version":"2.1.0","time_elapsed":41037668,"subject_id":"92603","group":"Group1","condition":"1_Rep","full_date":"2026-01-28T05:44:15.184Z","date":"2026-01-28","time":"05:44:15"},{"task":"memory_phase","broad_category":"I","image_png":"I_Diorite_04.png","image_id":36,"category_name":"Diorite","category":3,"distinct_rating":2.98,"distinct_type":"Bottom","rt":null,"stimulus":"Stimuli_Rocks480/I_Diorite_04.png","response":null,"trial_type":"image-keyboard-response","trial_index":61,"plugin_version":"2.1.0","time_elapsed":41040171,"subject_id":"92603","group":"Group1","condition":"1_Rep","full_date":"2026-01-28T05:44:15.184Z","date":"2026-01-28","time":"05:44:15"},{"rt":null,"stimulus":"<p style=\"font-size: 50px; margin: 0; text-align: center;\">+</p>","response":null,"trial_type":"html-keyboard-response","trial_index":62,"plugin_version":"2.1.0","time_elapsed":41041173,"subject_id":"92603","group":"Group1","condition":"1_Rep","full_date":"2026-01-28T05:44:15.184Z","date":"2026-01-28","time":"05:44:15"},{"task":"memory_phase","broad_category":"I","image_png":"I_Andesite_10.png","image_id":10,"category_name":"Andesite","category":1,"distinct_rating":3.15,"distinct_type":"Bottom","rt":null,"stimulus":"Stimuli_Rocks480/I_Andesite_10.png","response":null,"trial_type":"image-keyboard-response","trial_index":63,"plugin_version":"2.1.0","time_elapsed":41043675,"subject_id":"92603","group":"Group1","condition":"1_Rep","full_date":"2026-01-28T05:44:15.184Z","date":"2026-01-28","time":"05:44:15"},{"rt":null,"stimulus":"<p style=\"font-size: 50px; margin: 0; text-align: center;\">+</p>","response":null,"trial_type":"html-keyboard-response","trial_index":64,"plugin_version":"2.1.0","time_elapsed":41044677,"subject_id":"92603","group":"Group1","condition":"1_Rep","full_date":"2026-01-28T05:44:15.184Z","date":"2026-01-28","time":"05:44:15"},{"task":"memory_phase","broad_category":"I","image_png":"I_Basalt_02.png","image_id":18,"category_name":"Basalt","category":2,"distinct_rating":1.84,"distinct_type":"Bottom","rt":null,"stimulus":"Stimuli_Rocks480/I_Basalt_02.png","response":null,"trial_type":"image-keyboard-response","trial_index":65,"plugin_version":"2.1.0","time_elapsed":41047180,"subject_id":"92603","group":"Group1","condition":"1_Rep","full_date":"2026-01-28T05:44:15.184Z","date":"2026-01-28","time":"05:44:15"},{"rt":null,"stimulus":"<p style=\"font-size: 50px; margin: 0; text-align: center;\">+</p>","response":null,"trial_type":"html-keyboard-response","trial_index":66,"plugin_version":"2.1.0","time_elapsed":41048182,"subject_id":"92603","group":"Group1","condition":"1_Rep","full_date":"2026-01-28T05:44:15.184Z","date":"2026-01-28","time":"05:44:15"},{"task":"memory_phase","broad_category":"S","image_png":"S_Dolomite_13.png","image_id":397,"category_name":"Dolomite","category":25,"distinct_rating":1.77,"distinct_type":"Bottom","rt":null,"stimulus":"Stimuli_Rocks480/S_Dolomite_13.png","response":null,"trial_type":"image-keyboard-response","trial_index":67,"plugin_version":"2.1.0","time_elapsed":41050684,"subject_id":"92603","group":"Group1","condition":"1_Rep","full_date":"2026-01-28T05:44:15.184Z","date":"2026-01-28","time":"05:44:15"},{"rt":null,"stimulus":"<p style=\"font-size: 50px; margin: 0; text-align: center;\">+</p>","response":null,"trial_type":"html-keyboard-response","trial_index":68,"plugin_version":"2.1.0","time_elapsed":41051687,"subject_id":"92603","group":"Group1","condition":"1_Rep","full_date":"2026-01-28T05:44:15.184Z","date":"2026-01-28","time":"05:44:15"},{"task":"memory_phase","broad_category":"S","image_png":"S_Chert_10.png","image_id":362,"category_name":"Chert","category":23,"distinct_rating":7.17,"distinct_type":"Top","rt":null,"stimulus":"Stimuli_Rocks480/S_Chert_10.png","response":null,"trial_type":"image-keyboard-response","trial_index":69,"plugin_version":"2.1.0","time_elapsed":41054190,"subject_id":"92603","group":"Group1","condition":"1_Rep","full_date":"2026-01-28T05:44:15.184Z","date":"2026-01-28","time":"05:44:15"},{"rt":null,"stimulus":"<p style=\"font-size: 50px; margin: 0; text-align: center;\">+</p>","response":null,"trial_type":"html-keyboard-response","trial_index":70,"plugin_version":"2.1.0","time_elapsed":41055193,"subject_id":"92603","group":"Group1","condition":"1_Rep","full_date":"2026-01-28T05:44:15.184Z","date":"2026-01-28","time":"05:44:15"},{"task":"memory_phase","broad_category":"I","image_png":"I_Rhyolite_16.png","image_id":160,"category_name":"Rhyolite","category":10,"distinct_rating":2.19,"distinct_type":"Bottom","rt":null,"stimulus":"Stimuli_Rocks480/I_Rhyolite_16.png","response":null,"trial_type":"image-keyboard-response","trial_index":71,"plugin_version":"2.1.0","time_elapsed":41057696,"subject_id":"92603","group":"Group1","condition":"1_Rep","full_date":"2026-01-28T05:44:15.184Z","date":"2026-01-28","time":"05:44:15"},{"rt":null,"stimulus":"<p style=\"font-size: 50px; margin: 0; text-align: center;\">+</p>","response":null,"trial_type":"html-keyboard-response","trial_index":72,"plugin_version":"2.1.0","time_elapsed":41058698,"subject_id":"92603","group":"Group1","condition":"1_Rep","full_date":"2026-01-28T05:44:15.184Z","date":"2026-01-28","time":"05:44:15"},{"task":"memory_phase","broad_category":"S","image_png":"S_Sandstone_03.png","image_id":451,"category_name":"Sandstone","category":29,"distinct_rating":1.86,"distinct_type":"Bottom","rt":null,"stimulus":"Stimuli_Rocks480/S_Sandstone_03.png","response":null,"trial_type":"image-keyboard-response","trial_index":73,"plugin_version":"2.1.0","time_elapsed":41061201,"subject_id":"92603","group":"Group1","condition":"1_Rep","full_date":"2026-01-28T05:44:15.184Z","date":"2026-01-28","time":"05:44:15"},{"rt":null,"stimulus":"<p style=\"font-size: 50px; margin: 0; text-align: center;\">+</p>","response":null,"trial_type":"html-keyboard-response","trial_index":74,"plugin_version":"2.1.0","time_elapsed":41062204,"subject_id":"92603","group":"Group1","condition":"1_Rep","full_date":"2026-01-28T05:44:15.184Z","date":"2026-01-28","time":"05:44:15"},{"task":"memory_phase","broad_category":"I","image_png":"I_Basalt_09.png","image_id":25,"category_name":"Basalt","category":2,"distinct_rating":1.89,"distinct_type":"Bottom","rt":null,"stimulus":"Stimuli_Rocks480/I_Basalt_09.png","response":null,"trial_type":"image-keyboard-response","trial_index":75,"plugin_version":"2.1.0","time_elapsed":41064706,"subject_id":"92603","group":"Group1","condition":"1_Rep","full_date":"2026-01-28T05:44:15.184Z","date":"2026-01-28","time":"05:44:15"},{"rt":null,"stimulus":"<p style=\"font-size: 50px; margin: 0; text-align: center;\">+</p>","response":null,"trial_type":"html-keyboard-response","trial_index":76,"plugin_version":"2.1.0","time_elapsed":41065709,"subject_id":"92603","group":"Group1","condition":"1_Rep","full_date":"2026-01-28T05:44:15.184Z","date":"2026-01-28","time":"05:44:15"},{"task":"memory_phase","broad_category":"M","image_png":"M_Marble_04.png","image_id":228,"category_name":"Marble","category":15,"distinct_rating":3.15,"distinct_type":"Bottom","rt":null,"stimulus":"Stimuli_Rocks480/M_Marble_04.png","response":null,"trial_type":"image-keyboard-response","trial_index":77,"plugin_version":"2.1.0","time_elapsed":41068211,"subject_id":"92603","group":"Group1","condition":"1_Rep","full_date":"2026-01-28T05:44:15.184Z","date":"2026-01-28","time":"05:44:15"},{"rt":null,"stimulus":"<p style=\"font-size: 50px; margin: 0; text-align: center;\">+</p>","response":null,"trial_type":"html-keyboard-response","trial_index":78,"plugin_version":"2.1.0","time_elapsed":41069214,"subject_id":"92603","group":"Group1","condition":"1_Rep","full_date":"2026-01-28T05:44:15.184Z","date":"2026-01-28","time":"05:44:15"},{"task":"memory_phase","broad_category":"I","image_png":"I_Pumice_11.png","image_id":139,"category_name":"Pumice","category":9,"distinct_rating":1.74,"distinct_type":"Bottom","rt":null,"stimulus":"Stimuli_Rocks480/I_Pumice_11.png","response":null,"trial_type":"image-keyboard-response","trial_index":79,"plugin_version":"2.1.0","time_elapsed":41071717,"subject_id":"92603","group":"Group1","condition":"1_Rep","full_date":"2026-01-28T05:44:15.184Z","date":"2026-01-28","time":"05:44:15"},{"rt":null,"stimulus":"<p style=\"font-size: 50px; margin: 0; text-align: center;\">+</p>","response":null,"trial_type":"html-keyboard-response","trial_index":80,"plugin_version":"2.1.0","time_elapsed":41072719,"subject_id":"92603","group":"Group1","condition":"1_Rep","full_date":"2026-01-28T05:44:15.184Z","date":"2026-01-28","time":"05:44:15"},{"task":"memory_phase","broad_category":"I","image_png":"I_Diorite_05.png","image_id":37,"category_name":"Diorite","category":3,"distinct_rating":3.08,"distinct_type":"Bottom","rt":null,"stimulus":"Stimuli_Rocks480/I_Diorite_05.png","response":null,"trial_type":"image-keyboard-response","trial_index":81,"plugin_version":"2.1.0","time_elapsed":41075222,"subject_id":"92603","group":"Group1","condition":"1_Rep","full_date":"2026-01-28T05:44:15.184Z","date":"2026-01-28","time":"05:44:15"},{"rt":null,"stimulus":"<p style=\"font-size: 50px; margin: 0; text-align: center;\">+</p>","response":null,"trial_type":"html-keyboard-response","trial_index":82,"plugin_version":"2.1.0","time_elapsed":41076224,"subject_id":"92603","group":"Group1","condition":"1_Rep","full_date":"2026-01-28T05:44:15.184Z","date":"2026-01-28","time":"05:44:15"},{"task":"memory_phase","broad_category":"I","image_png":"I_Rhyolite_14.png","image_id":158,"category_name":"Rhyolite","category":10,"distinct_rating":2.59,"distinct_type":"Bottom","rt":null,"stimulus":"Stimuli_Rocks480/I_Rhyolite_14.png","response":null,"trial_type":"image-keyboard-response","trial_index":83,"plugin_version":"2.1.0","time_elapsed":41078728,"subject_id":"92603","group":"Group1","condition":"1_Rep","full_date":"2026-01-28T05:44:15.184Z","date":"2026-01-28","time":"05:44:15"},{"rt":null,"stimulus":"<p style=\"font-size: 50px; margin: 0; text-align: center;\">+</p>","response":null,"trial_type":"html-keyboard-response","trial_index":84,"plugin_version":"2.1.0","time_elapsed":41079730,"subject_id":"92603","group":"Group1","condition":"1_Rep","full_date":"2026-01-28T05:44:15.184Z","date":"2026-01-28","time":"05:44:15"},{"task":"memory_phase","broad_category":"M","image_png":"M_Marble_06.png","image_id":230,"category_name":"Marble","category":15,"distinct_rating":3.4,"distinct_type":"Bottom","rt":null,"stimulus":"Stimuli_Rocks480/M_Marble_06.png","response":null,"trial_type":"image-keyboard-response","trial_index":85,"plugin_version":"2.1.0","time_elapsed":41082233,"subject_id":"92603","group":"Group1","condition":"1_Rep","full_date":"2026-01-28T05:44:15.184Z","date":"2026-01-28","time":"05:44:15"},{"rt":null,"stimulus":"<p style=\"font-size: 50px; margin: 0; text-align: center;\">+</p>","response":null,"trial_type":"html-keyboard-response","trial_index":86,"plugin_version":"2.1.0","time_elapsed":41083235,"subject_id":"92603","group":"Group1","condition":"1_Rep","full_date":"2026-01-28T05:44:15.184Z","date":"2026-01-28","time":"05:44:15"},{"task":"memory_phase","broad_category":"I","image_png":"I_Gabbro_08.png","image_id":56,"category_name":"Gabbro","category":4,"distinct_rating":3.02,"distinct_type":"Bottom","rt":null,"stimulus":"Stimuli_Rocks480/I_Gabbro_08.png","response":null,"trial_type":"image-keyboard-response","trial_index":87,"plugin_version":"2.1.0","time_elapsed":41085738,"subject_id":"92603","group":"Group1","condition":"1_Rep","full_date":"2026-01-28T05:44:15.184Z","date":"2026-01-28","time":"05:44:15"},{"rt":null,"stimulus":"<p style=\"font-size: 50px; margin: 0; text-align: center;\">+</p>","response":null,"trial_type":"html-keyboard-response","trial_index":88,"plugin_version":"2.1.0","time_elapsed":41086740,"subject_id":"92603","group":"Group1","condition":"1_Rep","full_date":"2026-01-28T05:44:15.184Z","date":"2026-01-28","time":"05:44:15"},{"task":"memory_phase","broad_category":"M","image_png":"M_Quartzite_08.png","image_id":280,"category_name":"Quartzite","category":18,"distinct_rating":2.15,"distinct_type":"Bottom","rt":null,"stimulus":"Stimuli_Rocks480/M_Quartzite_08.png","response":null,"trial_type":"image-keyboard-response","trial_index":89,"plugin_version":"2.1.0","time_elapsed":41089242,"subject_id":"92603","group":"Group1","condition":"1_Rep","full_date":"2026-01-28T05:44:15.184Z","date":"2026-01-28","time":"05:44:15"},{"rt":null,"stimulus":"<p style=\"font-size: 50px; margin: 0; text-align: center;\">+</p>","response":null,"trial_type":"html-keyboard-response","trial_index":90,"plugin_version":"2.1.0","time_elapsed":41090244,"subject_id":"92603","group":"Group1","condition":"1_Rep","full_date":"2026-01-28T05:44:15.184Z","date":"2026-01-28","time":"05:44:15"},{"task":"memory_phase","broad_category":"I","image_png":"I_Pegmatite_16.png","image_id":112,"category_name":"Pegmatite","category":7,"distinct_rating":7.03,"distinct_type":"Top","rt":null,"stimulus":"Stimuli_Rocks480/I_Pegmatite_16.png","response":null,"trial_type":"image-keyboard-response","trial_index":91,"plugin_version":"2.1.0","time_elapsed":41092747,"subject_id":"92603","group":"Group1","condition":"1_Rep","full_date":"2026-01-28T05:44:15.184Z","date":"2026-01-28","time":"05:44:15"},{"rt":null,"stimulus":"<p style=\"font-size: 50px; margin: 0; text-align: center;\">+</p>","response":null,"trial_type":"html-keyboard-response","trial_index":92,"plugin_version":"2.1.0","time_elapsed":41093749,"subject_id":"92603","group":"Group1","condition":"1_Rep","full_date":"2026-01-28T05:44:15.184Z","date":"2026-01-28","time":"05:44:15"},{"task":"memory_phase","broad_category":"M","image_png":"M_Slate_11.png","image_id":315,"category_name":"Slate","category":20,"distinct_rating":2.75,"distinct_type":"Bottom","rt":null,"stimulus":"Stimuli_Rocks480/M_Slate_11.png","response":null,"trial_type":"image-keyboard-response","trial_index":93,"plugin_version":"2.1.0","time_elapsed":41096252,"subject_id":"92603","group":"Group1","condition":"1_Rep","full_date":"2026-01-28T05:44:15.184Z","date":"2026-01-28","time":"05:44:15"},{"rt":null,"stimulus":"<p style=\"font-size: 50px; margin: 0; text-align: center;\">+</p>","response":null,"trial_type":"html-keyboard-response","trial_index":94,"plugin_version":"2.1.0","time_elapsed":41097254,"subject_id":"92603","group":"Group1","condition":"1_Rep","full_date":"2026-01-28T05:44:15.184Z","date":"2026-01-28","time":"05:44:15"},{"task":"memory_phase","broad_category":"M","image_png":"M_Quartzite_13.png","image_id":285,"category_name":"Quartzite","category":18,"distinct_rating":2.27,"distinct_type":"Bottom","rt":null,"stimulus":"Stimuli_Rocks480/M_Quartzite_13.png","response":null,"trial_type":"image-keyboard-response","trial_index":95,"plugin_version":"2.1.0","time_elapsed":41099756,"subject_id":"92603","group":"Group1","condition":"1_Rep","full_date":"2026-01-28T05:44:15.184Z","date":"2026-01-28","time":"05:44:15"},{"rt":null,"stimulus":"<p style=\"font-size: 50px; margin: 0; text-align: center;\">+</p>","response":null,"trial_type":"html-keyboard-response","trial_index":96,"plugin_version":"2.1.0","time_elapsed":41100758,"subject_id":"92603","group":"Group1","condition":"1_Rep","full_date":"2026-01-28T05:44:15.184Z","date":"2026-01-28","time":"05:44:15"},{"task":"memory_phase","broad_category":"I","image_png":"I_Rhyolite_11.png","image_id":155,"category_name":"Rhyolite","category":10,"distinct_rating":1.73,"distinct_type":"Bottom","rt":null,"stimulus":"Stimuli_Rocks480/I_Rhyolite_11.png","response":null,"trial_type":"image-keyboard-response","trial_index":97,"plugin_version":"2.1.0","time_elapsed":41103260,"subject_id":"92603","group":"Group1","condition":"1_Rep","full_date":"2026-01-28T05:44:15.184Z","date":"2026-01-28","time":"05:44:15"},{"rt":null,"stimulus":"<p style=\"font-size: 50px; margin: 0; text-align: center;\">+</p>","response":null,"trial_type":"html-keyboard-response","trial_index":98,"plugin_version":"2.1.0","time_elapsed":41104262,"subject_id":"92603","group":"Group1","condition":"1_Rep","full_date":"2026-01-28T05:44:15.184Z","date":"2026-01-28","time":"05:44:15"},{"task":"memory_phase","broad_category":"M","image_png":"M_Phyllite_10.png","image_id":266,"category_name":"Phyllite","category":17,"distinct_rating":2.6,"distinct_type":"Bottom","rt":null,"stimulus":"Stimuli_Rocks480/M_Phyllite_10.png","response":null,"trial_type":"image-keyboard-response","trial_index":99,"plugin_version":"2.1.0","time_elapsed":41106765,"subject_id":"92603","group":"Group1","condition":"1_Rep","full_date":"2026-01-28T05:44:15.184Z","date":"2026-01-28","time":"05:44:15"},{"rt":null,"stimulus":"<p style=\"font-size: 50px; margin: 0; text-align: center;\">+</p>","response":null,"trial_type":"html-keyboard-response","trial_index":100,"plugin_version":"2.1.0","time_elapsed":41107768,"subject_id":"92603","group":"Group1","condition":"1_Rep","full_date":"2026-01-28T05:44:15.184Z","date":"2026-01-28","time":"05:44:15"},{"task":"memory_phase","broad_category":"I","image_png":"I_Pumice_12.png","image_id":140,"category_name":"Pumice","category":9,"distinct_rating":2.97,"distinct_type":"Bottom","rt":null,"stimulus":"Stimuli_Rocks480/I_Pumice_12.png","response":null,"trial_type":"image-keyboard-response","trial_index":101,"plugin_version":"2.1.0","time_elapsed":41110270,"subject_id":"92603","group":"Group1","condition":"1_Rep","full_date":"2026-01-28T05:44:15.184Z","date":"2026-01-28","time":"05:44:15"},{"rt":null,"stimulus":"<p style=\"font-size: 50px; margin: 0; text-align: center;\">+</p>","response":null,"trial_type":"html-keyboard-response","trial_index":102,"plugin_version":"2.1.0","time_elapsed":41111272,"subject_id":"92603","group":"Group1","condition":"1_Rep","full_date":"2026-01-28T05:44:15.184Z","date":"2026-01-28","time":"05:44:15"},{"task":"memory_phase","broad_category":"M","image_png":"M_Marble_16.png","image_id":240,"category_name":"Marble","category":15,"distinct_rating":2.57,"distinct_type":"Bottom","rt":null,"stimulus":"Stimuli_Rocks480/M_Marble_16.png","response":null,"trial_type":"image-keyboard-response","trial_index":103,"plugin_version":"2.1.0","time_elapsed":41113775,"subject_id":"92603","group":"Group1","condition":"1_Rep","full_date":"2026-01-28T05:44:15.184Z","date":"2026-01-28","time":"05:44:15"},{"rt":null,"stimulus":"<p style=\"font-size: 50px; margin: 0; text-align: center;\">+</p>","response":null,"trial_type":"html-keyboard-response","trial_index":104,"plugin_version":"2.1.0","time_elapsed":41114777,"subject_id":"92603","group":"Group1","condition":"1_Rep","full_date":"2026-01-28T05:44:15.184Z","date":"2026-01-28","time":"05:44:15"},{"task":"memory_phase","broad_category":"I","image_png":"I_Pegmatite_10.png","image_id":106,"category_name":"Pegmatite","category":7,"distinct_rating":7.66,"distinct_type":"Top","rt":null,"stimulus":"Stimuli_Rocks480/I_Pegmatite_10.png","response":null,"trial_type":"image-keyboard-response","trial_index":105,"plugin_version":"2.1.0","time_elapsed":41117280,"subject_id":"92603","group":"Group1","condition":"1_Rep","full_date":"2026-01-28T05:44:15.184Z","date":"2026-01-28","time":"05:44:15"},{"rt":4771,"stimulus":"<div style=\"max-width: 760px; margin: auto; font-size: 20px; line-height: 1.5;\">\n      <h1 style=\"text-align:center; font-size: 30px;\">Instructions for the Test Phase</h1>\n      <p>\n        The study phase is now complete.\n      </p>\n      <p>\n        In the test phase, you will again see a series of rock images. \n        Some will be ones you saw before - during the study phase, while others will be new.  \n        <b>Your task</b> is to decide whether you have seen each image before by pressing the corresponding key on your keyboard:<br><br>\n          <b>A</b> - NO (you did not see this image before)<br>\n          <b>L</b> - YES (you saw this image before)<br><br>\n        The test will proceed at your own pace. You will receive feedback after each response.  \n        Please try to respond <b>as accurately as possible</b>.\n      </p>\n      <p>\n        <b>Reminder:</b> If your computer has multiple language settings (e.g., English and another language),\n        please ensure it is set to English during the test phase.\n      </p>\n      <p>\n        You can track your progress using the <b>completion bar</b> at the top of the screen.  \n        Note that it has been refreshed to reflect your progress during this final phase.\n      </p>\n      <p>\n        Press the button below when you are ready to continue.\n      </p>\n    </div>","response":0,"trial_type":"html-button-response","trial_index":106,"plugin_version":"2.1.0","time_elapsed":41122053,"subject_id":"92603","group":"Group1","condition":"1_Rep","full_date":"2026-01-28T05:44:15.184Z","date":"2026-01-28","time":"05:44:15"},{"correct_response":"l","task":"test_phase","broad_category":"M","image_png":"M_Phyllite_03.png","image_id":259,"category_name":"Phyllite","category":17,"distinct_rating":2.5,"distinct_type":"Bottom","item_type":"Target","rt":6469,"stimulus":"Stimuli_Rocks480/M_Phyllite_03.png","response":"a","trial_type":"image-keyboard-response","trial_index":107,"plugin_version":"2.1.0","time_elapsed":41128524,"subject_id":"92603","group":"Group1","condition":"1_Rep","full_date":"2026-01-28T05:44:15.184Z","date":"2026-01-28","time":"05:44:15","cor_ans":false},{"trial_type":"html-keyboard-response","rt":null,"stimulus":"<p style=\"color: red; font-size: 50px; font-weight: bold;\">Incorrect</p>","response":null,"trial_index":108,"plugin_version":"2.1.0","time_elapsed":41129026,"subject_id":"92603","group":"Group1","condition":"1_Rep","full_date":"2026-01-28T05:44:15.184Z","date":"2026-01-28","time":"05:44:15"},{"correct_response":"a","task":"test_phase","broad_category":"S","image_png":"S_Dolomite_16.png","image_id":400,"category_name":"Dolomite","category":25,"distinct_rating":1.71,"distinct_type":"Bottom","item_type":"Foil","rt":1996,"stimulus":"Stimuli_Rocks480/S_Dolomite_16.png","response":"a","trial_type":"image-keyboard-response","trial_index":109,"plugin_version":"2.1.0","time_elapsed":41131023,"subject_id":"92603","group":"Group1","condition":"1_Rep","full_date":"2026-01-28T05:44:15.184Z","date":"2026-01-28","time":"05:44:15","cor_ans":true},{"trial_type":"html-keyboard-response","rt":null,"stimulus":"<p style=\"color: green; font-size: 50px; font-weight: bold;\">Correct</p>","response":null,"trial_index":110,"plugin_version":"2.1.0","time_elapsed":41131525,"subject_id":"92603","group":"Group1","condition":"1_Rep","full_date":"2026-01-28T05:44:15.184Z","date":"2026-01-28","time":"05:44:15"},{"correct_response":"l","task":"test_phase","broad_category":"M","image_png":"M_Marble_16.png","image_id":240,"category_name":"Marble","category":15,"distinct_rating":2.57,"distinct_type":"Bottom","item_type":"Target","rt":3414,"stimulus":"Stimuli_Rocks480/M_Marble_16.png","response":"l","trial_type":"image-keyboard-response","trial_index":111,"plugin_version":"2.1.0","time_elapsed":41134941,"subject_id":"92603","group":"Group1","condition":"1_Rep","full_date":"2026-01-28T05:44:15.184Z","date":"2026-01-28","time":"05:44:15","cor_ans":true},{"trial_type":"html-keyboard-response","rt":null,"stimulus":"<p style=\"color: green; font-size: 50px; font-weight: bold;\">Correct</p>","response":null,"trial_index":112,"plugin_version":"2.1.0","time_elapsed":41135442,"subject_id":"92603","group":"Group1","condition":"1_Rep","full_date":"2026-01-28T05:44:15.184Z","date":"2026-01-28","time":"05:44:15"},{"correct_response":"l","task":"test_phase","broad_category":"M","image_png":"M_Gneiss_06.png","image_id":198,"category_name":"Gneiss","category":13,"distinct_rating":2.65,"distinct_type":"Bottom","item_type":"Target","rt":1047,"stimulus":"Stimuli_Rocks480/M_Gneiss_06.png","response":"l","trial_type":"image-keyboard-response","trial_index":113,"plugin_version":"2.1.0","time_elapsed":41136491,"subject_id":"92603","group":"Group1","condition":"1_Rep","full_date":"2026-01-28T05:44:15.184Z","date":"2026-01-28","time":"05:44:15","cor_ans":true},{"trial_type":"html-keyboard-response","rt":null,"stimulus":"<p style=\"color: green; font-size: 50px; font-weight: bold;\">Correct</p>","response":null,"trial_index":114,"plugin_version":"2.1.0","time_elapsed":41136992,"subject_id":"92603","group":"Group1","condition":"1_Rep","full_date":"2026-01-28T05:44:15.184Z","date":"2026-01-28","time":"05:44:15"},{"correct_response":"a","task":"test_phase","broad_category":"I","image_png":"I_Rhyolite_08.png","image_id":152,"category_name":"Rhyolite","category":10,"distinct_rating":1.38,"distinct_type":"Bottom","item_type":"Foil","rt":1482,"stimulus":"Stimuli_Rocks480/I_Rhyolite_08.png","response":"l","trial_type":"image-keyboard-response","trial_index":115,"plugin_version":"2.1.0","time_elapsed":41138475,"subject_id":"92603","group":"Group1","condition":"1_Rep","full_date":"2026-01-28T05:44:15.184Z","date":"2026-01-28","time":"05:44:15","cor_ans":false},{"trial_type":"html-keyboard-response","rt":null,"stimulus":"<p style=\"color: red; font-size: 50px; font-weight: bold;\">Incorrect</p>","response":null,"trial_index":116,"plugin_version":"2.1.0","time_elapsed":41138975,"subject_id":"92603","group":"Group1","condition":"1_Rep","full_date":"2026-01-28T05:44:15.184Z","date":"2026-01-28","time":"05:44:15"},{"correct_response":"a","task":"test_phase","broad_category":"I","image_png":"I_Gabbro_12.png","image_id":60,"category_name":"Gabbro","category":4,"distinct_rating":2.6,"distinct_type":"Bottom","item_type":"Foil","rt":2000,"stimulus":"Stimuli_Rocks480/I_Gabbro_12.png","response":"a","trial_type":"image-keyboard-response","trial_index":117,"plugin_version":"2.1.0","time_elapsed":41140977,"subject_id":"92603","group":"Group1","condition":"1_Rep","full_date":"2026-01-28T05:44:15.184Z","date":"2026-01-28","time":"05:44:15","cor_ans":true},{"trial_type":"html-keyboard-response","rt":null,"stimulus":"<p style=\"color: green; font-size: 50px; font-weight: bold;\">Correct</p>","response":null,"trial_index":118,"plugin_version":"2.1.0","time_elapsed":41141478,"subject_id":"92603","group":"Group1","condition":"1_Rep","full_date":"2026-01-28T05:44:15.184Z","date":"2026-01-28","time":"05:44:15"},{"correct_response":"l","task":"test_phase","broad_category":"I","image_png":"I_Obsidian_05.png","image_id":85,"category_name":"Obsidian","category":6,"distinct_rating":7.32,"distinct_type":"Top","item_type":"Target","rt":2880,"stimulus":"Stimuli_Rocks480/I_Obsidian_05.png","response":"l","trial_type":"image-keyboard-response","trial_index":119,"plugin_version":"2.1.0","time_elapsed":41144359,"subject_id":"92603","group":"Group1","condition":"1_Rep","full_date":"2026-01-28T05:44:15.184Z","date":"2026-01-28","time":"05:44:15","cor_ans":true},{"trial_type":"html-keyboard-response","rt":null,"stimulus":"<p style=\"color: green; font-size: 50px; font-weight: bold;\">Correct</p>","response":null,"trial_index":120,"plugin_version":"2.1.0","time_elapsed":41144860,"subject_id":"92603","group":"Group1","condition":"1_Rep","full_date":"2026-01-28T05:44:15.184Z","date":"2026-01-28","time":"05:44:15"},{"correct_response":"l","task":"test_phase","broad_category":"M","image_png":"M_Gneiss_05.png","image_id":197,"category_name":"Gneiss","category":13,"distinct_rating":2.97,"distinct_type":"Bottom","item_type":"Target","rt":1028,"stimulus":"Stimuli_Rocks480/M_Gneiss_05.png","response":"l","trial_type":"image-keyboard-response","trial_index":121,"plugin_version":"2.1.0","time_elapsed":41145890,"subject_id":"92603","group":"Group1","condition":"1_Rep","full_date":"2026-01-28T05:44:15.184Z","date":"2026-01-28","time":"05:44:15","cor_ans":true},{"trial_type":"html-keyboard-response","rt":null,"stimulus":"<p style=\"color: green; font-size: 50px; font-weight: bold;\">Correct</p>","response":null,"trial_index":122,"plugin_version":"2.1.0","time_elapsed":41146391,"subject_id":"92603","group":"Group1","condition":"1_Rep","full_date":"2026-01-28T05:44:15.184Z","date":"2026-01-28","time":"05:44:15"},{"correct_response":"a","task":"test_phase","broad_category":"I","image_png":"I_Pumice_14.png","image_id":142,"category_name":"Pumice","category":9,"distinct_rating":3.22,"distinct_type":"Bottom","item_type":"Foil","rt":1050,"stimulus":"Stimuli_Rocks480/I_Pumice_14.png","response":"a","trial_type":"image-keyboard-response","trial_index":123,"plugin_version":"2.1.0","time_elapsed":41147443,"subject_id":"92603","group":"Group1","condition":"1_Rep","full_date":"2026-01-28T05:44:15.184Z","date":"2026-01-28","time":"05:44:15","cor_ans":true},{"trial_type":"html-keyboard-response","rt":null,"stimulus":"<p style=\"color: green; font-size: 50px; font-weight: bold;\">Correct</p>","response":null,"trial_index":124,"plugin_version":"2.1.0","time_elapsed":41147944,"subject_id":"92603","group":"Group1","condition":"1_Rep","full_date":"2026-01-28T05:44:15.184Z","date":"2026-01-28","time":"05:44:15"},{"correct_response":"a","task":"test_phase","broad_category":"S","image_png":"S_Rock Salt_15.png","image_id":447,"category_name":"Rock Salt","category":28,"distinct_rating":7.79,"distinct_type":"Top","item_type":"Foil","rt":1285,"stimulus":"Stimuli_Rocks480/S_Rock Salt_15.png","response":"a","trial_type":"image-keyboard-response","trial_index":125,"plugin_version":"2.1.0","time_elapsed":41149230,"subject_id":"92603","group":"Group1","condition":"1_Rep","full_date":"2026-01-28T05:44:15.184Z","date":"2026-01-28","time":"05:44:15","cor_ans":true},{"trial_type":"html-keyboard-response","rt":null,"stimulus":"<p style=\"color: green; font-size: 50px; font-weight: bold;\">Correct</p>","response":null,"trial_index":126,"plugin_version":"2.1.0","time_elapsed":41149731,"subject_id":"92603","group":"Group1","condition":"1_Rep","full_date":"2026-01-28T05:44:15.184Z","date":"2026-01-28","time":"05:44:15"},{"correct_response":"l","task":"test_phase","broad_category":"S","image_png":"S_Shale_12.png","image_id":476,"category_name":"Shale","category":30,"distinct_rating":2.48,"distinct_type":"Bottom","item_type":"Target","rt":1246,"stimulus":"Stimuli_Rocks480/S_Shale_12.png","response":"a","trial_type":"image-keyboard-response","trial_index":127,"plugin_version":"2.1.0","time_elapsed":41150979,"subject_id":"92603","group":"Group1","condition":"1_Rep","full_date":"2026-01-28T05:44:15.184Z","date":"2026-01-28","time":"05:44:15","cor_ans":false},{"trial_type":"html-keyboard-response","rt":null,"stimulus":"<p style=\"color: red; font-size: 50px; font-weight: bold;\">Incorrect</p>","response":null,"trial_index":128,"plugin_version":"2.1.0","time_elapsed":41151480,"subject_id":"92603","group":"Group1","condition":"1_Rep","full_date":"2026-01-28T05:44:15.184Z","date":"2026-01-28","time":"05:44:15"},{"correct_response":"a","task":"test_phase","broad_category":"S","image_png":"S_Rock Salt_13.png","image_id":445,"category_name":"Rock Salt","category":28,"distinct_rating":7.58,"distinct_type":"Top","item_type":"Foil","rt":1153,"stimulus":"Stimuli_Rocks480/S_Rock Salt_13.png","response":"a","trial_type":"image-keyboard-response","trial_index":129,"plugin_version":"2.1.0","time_elapsed":41152634,"subject_id":"92603","group":"Group1","condition":"1_Rep","full_date":"2026-01-28T05:44:15.184Z","date":"2026-01-28","time":"05:44:15","cor_ans":true},{"trial_type":"html-keyboard-response","rt":null,"stimulus":"<p style=\"color: green; font-size: 50px; font-weight: bold;\">Correct</p>","response":null,"trial_index":130,"plugin_version":"2.1.0","time_elapsed":41153135,"subject_id":"92603","group":"Group1","condition":"1_Rep","full_date":"2026-01-28T05:44:15.184Z","date":"2026-01-28","time":"05:44:15"},{"correct_response":"a","task":"test_phase","broad_category":"M","image_png":"M_Gneiss_14.png","image_id":206,"category_name":"Gneiss","category":13,"distinct_rating":3.41,"distinct_type":"Bottom","item_type":"Foil","rt":1619,"stimulus":"Stimuli_Rocks480/M_Gneiss_14.png","response":"l","trial_type":"image-keyboard-response","trial_index":131,"plugin_version":"2.1.0","time_elapsed":41154756,"subject_id":"92603","group":"Group1","condition":"1_Rep","full_date":"2026-01-28T05:44:15.184Z","date":"2026-01-28","time":"05:44:15","cor_ans":false},{"trial_type":"html-keyboard-response","rt":null,"stimulus":"<p style=\"color: red; font-size: 50px; font-weight: bold;\">Incorrect</p>","response":null,"trial_index":132,"plugin_version":"2.1.0","time_elapsed":41155257,"subject_id":"92603","group":"Group1","condition":"1_Rep","full_date":"2026-01-28T05:44:15.184Z","date":"2026-01-28","time":"05:44:15"},{"correct_response":"l","task":"test_phase","broad_category":"I","image_png":"I_Pegmatite_16.png","image_id":112,"category_name":"Pegmatite","category":7,"distinct_rating":7.03,"distinct_type":"Top","item_type":"Target","rt":1862,"stimulus":"Stimuli_Rocks480/I_Pegmatite_16.png","response":"a","trial_type":"image-keyboard-response","trial_index":133,"plugin_version":"2.1.0","time_elapsed":41157120,"subject_id":"92603","group":"Group1","condition":"1_Rep","full_date":"2026-01-28T05:44:15.184Z","date":"2026-01-28","time":"05:44:15","cor_ans":false},{"trial_type":"html-keyboard-response","rt":null,"stimulus":"<p style=\"color: red; font-size: 50px; font-weight: bold;\">Incorrect</p>","response":null,"trial_index":134,"plugin_version":"2.1.0","time_elapsed":41157622,"subject_id":"92603","group":"Group1","condition":"1_Rep","full_date":"2026-01-28T05:44:15.184Z","date":"2026-01-28","time":"05:44:15"},{"correct_response":"a","task":"test_phase","broad_category":"M","image_png":"M_Slate_10.png","image_id":314,"category_name":"Slate","category":20,"distinct_rating":1.94,"distinct_type":"Bottom","item_type":"Foil","rt":1493,"stimulus":"Stimuli_Rocks480/M_Slate_10.png","response":"l","trial_type":"image-keyboard-response","trial_index":135,"plugin_version":"2.1.0","time_elapsed":41159115,"subject_id":"92603","group":"Group1","condition":"1_Rep","full_date":"2026-01-28T05:44:15.184Z","date":"2026-01-28","time":"05:44:15","cor_ans":false},{"trial_type":"html-keyboard-response","rt":null,"stimulus":"<p style=\"color: red; font-size: 50px; font-weight: bold;\">Incorrect</p>","response":null,"trial_index":136,"plugin_version":"2.1.0","time_elapsed":41159616,"subject_id":"92603","group":"Group1","condition":"1_Rep","full_date":"2026-01-28T05:44:15.184Z","date":"2026-01-28","time":"05:44:15"},{"correct_response":"a","task":"test_phase","broad_category":"S","image_png":"S_Chert_13.png","image_id":365,"category_name":"Chert","category":23,"distinct_rating":6.57,"distinct_type":"Top","item_type":"Foil","rt":1281,"stimulus":"Stimuli_Rocks480/S_Chert_13.png","response":"a","trial_type":"image-keyboard-response","trial_index":137,"plugin_version":"2.1.0","time_elapsed":41160898,"subject_id":"92603","group":"Group1","condition":"1_Rep","full_date":"2026-01-28T05:44:15.184Z","date":"2026-01-28","time":"05:44:15","cor_ans":true},{"trial_type":"html-keyboard-response","rt":null,"stimulus":"<p style=\"color: green; font-size: 50px; font-weight: bold;\">Correct</p>","response":null,"trial_index":138,"plugin_version":"2.1.0","time_elapsed":41161399,"subject_id":"92603","group":"Group1","condition":"1_Rep","full_date":"2026-01-28T05:44:15.184Z","date":"2026-01-28","time":"05:44:15"},{"correct_response":"l","task":"test_phase","broad_category":"I","image_png":"I_Andesite_10.png","image_id":10,"category_name":"Andesite","category":1,"distinct_rating":3.15,"distinct_type":"Bottom","item_type":"Target","rt":1341,"stimulus":"Stimuli_Rocks480/I_Andesite_10.png","response":"a","trial_type":"image-keyboard-response","trial_index":139,"plugin_version":"2.1.0","time_elapsed":41162741,"subject_id":"92603","group":"Group1","condition":"1_Rep","full_date":"2026-01-28T05:44:15.184Z","date":"2026-01-28","time":"05:44:15","cor_ans":false},{"trial_type":"html-keyboard-response","rt":null,"stimulus":"<p style=\"color: red; font-size: 50px; font-weight: bold;\">Incorrect</p>","response":null,"trial_index":140,"plugin_version":"2.1.0","time_elapsed":41163242,"subject_id":"92603","group":"Group1","condition":"1_Rep","full_date":"2026-01-28T05:44:15.184Z","date":"2026-01-28","time":"05:44:15"},{"correct_response":"l","task":"test_phase","broad_category":"I","image_png":"I_Diorite_03.png","image_id":35,"category_name":"Diorite","category":3,"distinct_rating":3.14,"distinct_type":"Bottom","item_type":"Target","rt":688,"stimulus":"Stimuli_Rocks480/I_Diorite_03.png","response":"a","trial_type":"image-keyboard-response","trial_index":141,"plugin_version":"2.1.0","time_elapsed":41163932,"subject_id":"92603","group":"Group1","condition":"1_Rep","full_date":"2026-01-28T05:44:15.184Z","date":"2026-01-28","time":"05:44:15","cor_ans":false},{"trial_type":"html-keyboard-response","rt":null,"stimulus":"<p style=\"color: red; font-size: 50px; font-weight: bold;\">Incorrect</p>","response":null,"trial_index":142,"plugin_version":"2.1.0","time_elapsed":41164433,"subject_id":"92603","group":"Group1","condition":"1_Rep","full_date":"2026-01-28T05:44:15.184Z","date":"2026-01-28","time":"05:44:15"},{"correct_response":"l","task":"test_phase","broad_category":"S","image_png":"S_Sandstone_16.png","image_id":464,"category_name":"Sandstone","category":29,"distinct_rating":1.93,"distinct_type":"Bottom","item_type":"Target","rt":1299,"stimulus":"Stimuli_Rocks480/S_Sandstone_16.png","response":"l","trial_type":"image-keyboard-response","trial_index":143,"plugin_version":"2.1.0","time_elapsed":41165733,"subject_id":"92603","group":"Group1","condition":"1_Rep","full_date":"2026-01-28T05:44:15.184Z","date":"2026-01-28","time":"05:44:15","cor_ans":true},{"trial_type":"html-keyboard-response","rt":null,"stimulus":"<p style=\"color: green; font-size: 50px; font-weight: bold;\">Correct</p>","response":null,"trial_index":144,"plugin_version":"2.1.0","time_elapsed":41166234,"subject_id":"92603","group":"Group1","condition":"1_Rep","full_date":"2026-01-28T05:44:15.184Z","date":"2026-01-28","time":"05:44:15"},{"correct_response":"a","task":"test_phase","broad_category":"I","image_png":"I_Rhyolite_10.png","image_id":154,"category_name":"Rhyolite","category":10,"distinct_rating":2.88,"distinct_type":"Bottom","item_type":"Foil","rt":990,"stimulus":"Stimuli_Rocks480/I_Rhyolite_10.png","response":"l","trial_type":"image-keyboard-response","trial_index":145,"plugin_version":"2.1.0","time_elapsed":41167225,"subject_id":"92603","group":"Group1","condition":"1_Rep","full_date":"2026-01-28T05:44:15.184Z","date":"2026-01-28","time":"05:44:15","cor_ans":false},{"trial_type":"html-keyboard-response","rt":null,"stimulus":"<p style=\"color: red; font-size: 50px; font-weight: bold;\">Incorrect</p>","response":null,"trial_index":146,"plugin_version":"2.1.0","time_elapsed":41167726,"subject_id":"92603","group":"Group1","condition":"1_Rep","full_date":"2026-01-28T05:44:15.184Z","date":"2026-01-28","time":"05:44:15"},{"correct_response":"l","task":"test_phase","broad_category":"I","image_png":"I_Pegmatite_10.png","image_id":106,"category_name":"Pegmatite","category":7,"distinct_rating":7.66,"distinct_type":"Top","item_type":"Target","rt":664,"stimulus":"Stimuli_Rocks480/I_Pegmatite_10.png","response":"l","trial_type":"image-keyboard-response","trial_index":147,"plugin_version":"2.1.0","time_elapsed":41168391,"subject_id":"92603","group":"Group1","condition":"1_Rep","full_date":"2026-01-28T05:44:15.184Z","date":"2026-01-28","time":"05:44:15","cor_ans":true},{"trial_type":"html-keyboard-response","rt":null,"stimulus":"<p style=\"color: green; font-size: 50px; font-weight: bold;\">Correct</p>","response":null,"trial_index":148,"plugin_version":"2.1.0","time_elapsed":41168893,"subject_id":"92603","group":"Group1","condition":"1_Rep","full_date":"2026-01-28T05:44:15.184Z","date":"2026-01-28","time":"05:44:15"},{"correct_response":"a","task":"test_phase","broad_category":"I","image_png":"I_Gabbro_02.png","image_id":50,"category_name":"Gabbro","category":4,"distinct_rating":2.73,"distinct_type":"Bottom","item_type":"Foil","rt":1172,"stimulus":"Stimuli_Rocks480/I_Gabbro_02.png","response":"a","trial_type":"image-keyboard-response","trial_index":149,"plugin_version":"2.1.0","time_elapsed":41170066,"subject_id":"92603","group":"Group1","condition":"1_Rep","full_date":"2026-01-28T05:44:15.184Z","date":"2026-01-28","time":"05:44:15","cor_ans":true},{"trial_type":"html-keyboard-response","rt":null,"stimulus":"<p style=\"color: green; font-size: 50px; font-weight: bold;\">Correct</p>","response":null,"trial_index":150,"plugin_version":"2.1.0","time_elapsed":41170567,"subject_id":"92603","group":"Group1","condition":"1_Rep","full_date":"2026-01-28T05:44:15.184Z","date":"2026-01-28","time":"05:44:15"},{"correct_response":"a","task":"test_phase","broad_category":"S","image_png":"S_Sandstone_11.png","image_id":459,"category_name":"Sandstone","category":29,"distinct_rating":1.82,"distinct_type":"Bottom","item_type":"Foil","rt":2939,"stimulus":"Stimuli_Rocks480/S_Sandstone_11.png","response":"l","trial_type":"image-keyboard-response","trial_index":151,"plugin_version":"2.1.0","time_elapsed":41173507,"subject_id":"92603","group":"Group1","condition":"1_Rep","full_date":"2026-01-28T05:44:15.184Z","date":"2026-01-28","time":"05:44:15","cor_ans":false},{"trial_type":"html-keyboard-response","rt":null,"stimulus":"<p style=\"color: red; font-size: 50px; font-weight: bold;\">Incorrect</p>","response":null,"trial_index":152,"plugin_version":"2.1.0","time_elapsed":41174008,"subject_id":"92603","group":"Group1","condition":"1_Rep","full_date":"2026-01-28T05:44:15.184Z","date":"2026-01-28","time":"05:44:15"},{"correct_response":"l","task":"test_phase","broad_category":"M","image_png":"M_Gneiss_13.png","image_id":205,"category_name":"Gneiss","category":13,"distinct_rating":3.26,"distinct_type":"Bottom","item_type":"Target","rt":614,"stimulus":"Stimuli_Rocks480/M_Gneiss_13.png","response":"l","trial_type":"image-keyboard-response","trial_index":153,"plugin_version":"2.1.0","time_elapsed":41174623,"subject_id":"92603","group":"Group1","condition":"1_Rep","full_date":"2026-01-28T05:44:15.184Z","date":"2026-01-28","time":"05:44:15","cor_ans":true},{"trial_type":"html-keyboard-response","rt":null,"stimulus":"<p style=\"color: green; font-size: 50px; font-weight: bold;\">Correct</p>","response":null,"trial_index":154,"plugin_version":"2.1.0","time_elapsed":41175125,"subject_id":"92603","group":"Group1","condition":"1_Rep","full_date":"2026-01-28T05:44:15.184Z","date":"2026-01-28","time":"05:44:15"},{"correct_response":"l","task":"test_phase","broad_category":"M","image_png":"M_Marble_06.png","image_id":230,"category_name":"Marble","category":15,"distinct_rating":3.4,"distinct_type":"Bottom","item_type":"Target","rt":1150,"stimulus":"Stimuli_Rocks480/M_Marble_06.png","response":"l","trial_type":"image-keyboard-response","trial_index":155,"plugin_version":"2.1.0","time_elapsed":41176275,"subject_id":"92603","group":"Group1","condition":"1_Rep","full_date":"2026-01-28T05:44:15.184Z","date":"2026-01-28","time":"05:44:15","cor_ans":true},{"trial_type":"html-keyboard-response","rt":null,"stimulus":"<p style=\"color: green; font-size: 50px; font-weight: bold;\">Correct</p>","response":null,"trial_index":156,"plugin_version":"2.1.0","time_elapsed":41176777,"subject_id":"92603","group":"Group1","condition":"1_Rep","full_date":"2026-01-28T05:44:15.184Z","date":"2026-01-28","time":"05:44:15"},{"correct_response":"l","task":"test_phase","broad_category":"M","image_png":"M_Slate_03.png","image_id":307,"category_name":"Slate","category":20,"distinct_rating":1.87,"distinct_type":"Bottom","item_type":"Target","rt":1010,"stimulus":"Stimuli_Rocks480/M_Slate_03.png","response":"a","trial_type":"image-keyboard-response","trial_index":157,"plugin_version":"2.1.0","time_elapsed":41177788,"subject_id":"92603","group":"Group1","condition":"1_Rep","full_date":"2026-01-28T05:44:15.184Z","date":"2026-01-28","time":"05:44:15","cor_ans":false},{"trial_type":"html-keyboard-response","rt":null,"stimulus":"<p style=\"color: red; font-size: 50px; font-weight: bold;\">Incorrect</p>","response":null,"trial_index":158,"plugin_version":"2.1.0","time_elapsed":41178289,"subject_id":"92603","group":"Group1","condition":"1_Rep","full_date":"2026-01-28T05:44:15.184Z","date":"2026-01-28","time":"05:44:15"},{"correct_response":"a","task":"test_phase","broad_category":"S","image_png":"S_Shale_03.png","image_id":467,"category_name":"Shale","category":30,"distinct_rating":1.95,"distinct_type":"Bottom","item_type":"Foil","rt":1331,"stimulus":"Stimuli_Rocks480/S_Shale_03.png","response":"a","trial_type":"image-keyboard-response","trial_index":159,"plugin_version":"2.1.0","time_elapsed":41179621,"subject_id":"92603","group":"Group1","condition":"1_Rep","full_date":"2026-01-28T05:44:15.184Z","date":"2026-01-28","time":"05:44:15","cor_ans":true},{"trial_type":"html-keyboard-response","rt":null,"stimulus":"<p style=\"color: green; font-size: 50px; font-weight: bold;\">Correct</p>","response":null,"trial_index":160,"plugin_version":"2.1.0","time_elapsed":41180123,"subject_id":"92603","group":"Group1","condition":"1_Rep","full_date":"2026-01-28T05:44:15.184Z","date":"2026-01-28","time":"05:44:15"},{"correct_response":"l","task":"test_phase","broad_category":"M","image_png":"M_Quartzite_13.png","image_id":285,"category_name":"Quartzite","category":18,"distinct_rating":2.27,"distinct_type":"Bottom","item_type":"Target","rt":990,"stimulus":"Stimuli_Rocks480/M_Quartzite_13.png","response":"l","trial_type":"image-keyboard-response","trial_index":161,"plugin_version":"2.1.0","time_elapsed":41181114,"subject_id":"92603","group":"Group1","condition":"1_Rep","full_date":"2026-01-28T05:44:15.184Z","date":"2026-01-28","time":"05:44:15","cor_ans":true},{"trial_type":"html-keyboard-response","rt":null,"stimulus":"<p style=\"color: green; font-size: 50px; font-weight: bold;\">Correct</p>","response":null,"trial_index":162,"plugin_version":"2.1.0","time_elapsed":41181615,"subject_id":"92603","group":"Group1","condition":"1_Rep","full_date":"2026-01-28T05:44:15.184Z","date":"2026-01-28","time":"05:44:15"},{"correct_response":"l","task":"test_phase","broad_category":"I","image_png":"I_Rhyolite_14.png","image_id":158,"category_name":"Rhyolite","category":10,"distinct_rating":2.59,"distinct_type":"Bottom","item_type":"Target","rt":1122,"stimulus":"Stimuli_Rocks480/I_Rhyolite_14.png","response":"a","trial_type":"image-keyboard-response","trial_index":163,"plugin_version":"2.1.0","time_elapsed":41182738,"subject_id":"92603","group":"Group1","condition":"1_Rep","full_date":"2026-01-28T05:44:15.184Z","date":"2026-01-28","time":"05:44:15","cor_ans":false},{"trial_type":"html-keyboard-response","rt":null,"stimulus":"<p style=\"color: red; font-size: 50px; font-weight: bold;\">Incorrect</p>","response":null,"trial_index":164,"plugin_version":"2.1.0","time_elapsed":41183239,"subject_id":"92603","group":"Group1","condition":"1_Rep","full_date":"2026-01-28T05:44:15.184Z","date":"2026-01-28","time":"05:44:15"},{"correct_response":"a","task":"test_phase","broad_category":"I","image_png":"I_Pumice_13.png","image_id":141,"category_name":"Pumice","category":9,"distinct_rating":3.12,"distinct_type":"Bottom","item_type":"Foil","rt":1110,"stimulus":"Stimuli_Rocks480/I_Pumice_13.png","response":"a","trial_type":"image-keyboard-response","trial_index":165,"plugin_version":"2.1.0","time_elapsed":41184350,"subject_id":"92603","group":"Group1","condition":"1_Rep","full_date":"2026-01-28T05:44:15.184Z","date":"2026-01-28","time":"05:44:15","cor_ans":true},{"trial_type":"html-keyboard-response","rt":null,"stimulus":"<p style=\"color: green; font-size: 50px; font-weight: bold;\">Correct</p>","response":null,"trial_index":166,"plugin_version":"2.1.0","time_elapsed":41184851,"subject_id":"92603","group":"Group1","condition":"1_Rep","full_date":"2026-01-28T05:44:15.184Z","date":"2026-01-28","time":"05:44:15"},{"correct_response":"a","task":"test_phase","broad_category":"I","image_png":"I_Diorite_10.png","image_id":42,"category_name":"Diorite","category":3,"distinct_rating":2.84,"distinct_type":"Bottom","item_type":"Foil","rt":1053,"stimulus":"Stimuli_Rocks480/I_Diorite_10.png","response":"l","trial_type":"image-keyboard-response","trial_index":167,"plugin_version":"2.1.0","time_elapsed":41185905,"subject_id":"92603","group":"Group1","condition":"1_Rep","full_date":"2026-01-28T05:44:15.184Z","date":"2026-01-28","time":"05:44:15","cor_ans":false},{"trial_type":"html-keyboard-response","rt":null,"stimulus":"<p style=\"color: red; font-size: 50px; font-weight: bold;\">Incorrect</p>","response":null,"trial_index":168,"plugin_version":"2.1.0","time_elapsed":41186406,"subject_id":"92603","group":"Group1","condition":"1_Rep","full_date":"2026-01-28T05:44:15.184Z","date":"2026-01-28","time":"05:44:15"},{"correct_response":"a","task":"test_phase","broad_category":"M","image_png":"M_Marble_02.png","image_id":226,"category_name":"Marble","category":15,"distinct_rating":3.2,"distinct_type":"Bottom","item_type":"Foil","rt":772,"stimulus":"Stimuli_Rocks480/M_Marble_02.png","response":"l","trial_type":"image-keyboard-response","trial_index":169,"plugin_version":"2.1.0","time_elapsed":41187179,"subject_id":"92603","group":"Group1","condition":"1_Rep","full_date":"2026-01-28T05:44:15.184Z","date":"2026-01-28","time":"05:44:15","cor_ans":false},{"trial_type":"html-keyboard-response","rt":null,"stimulus":"<p style=\"color: red; font-size: 50px; font-weight: bold;\">Incorrect</p>","response":null,"trial_index":170,"plugin_version":"2.1.0","time_elapsed":41187680,"subject_id":"92603","group":"Group1","condition":"1_Rep","full_date":"2026-01-28T05:44:15.184Z","date":"2026-01-28","time":"05:44:15"},{"correct_response":"l","task":"test_phase","broad_category":"S","image_png":"S_Sandstone_03.png","image_id":451,"category_name":"Sandstone","category":29,"distinct_rating":1.86,"distinct_type":"Bottom","item_type":"Target","rt":1399,"stimulus":"Stimuli_Rocks480/S_Sandstone_03.png","response":"l","trial_type":"image-keyboard-response","trial_index":171,"plugin_version":"2.1.0","time_elapsed":41189081,"subject_id":"92603","group":"Group1","condition":"1_Rep","full_date":"2026-01-28T05:44:15.184Z","date":"2026-01-28","time":"05:44:15","cor_ans":true},{"trial_type":"html-keyboard-response","rt":null,"stimulus":"<p style=\"color: green; font-size: 50px; font-weight: bold;\">Correct</p>","response":null,"trial_index":172,"plugin_version":"2.1.0","time_elapsed":41189582,"subject_id":"92603","group":"Group1","condition":"1_Rep","full_date":"2026-01-28T05:44:15.184Z","date":"2026-01-28","time":"05:44:15"},{"correct_response":"l","task":"test_phase","broad_category":"I","image_png":"I_Diorite_04.png","image_id":36,"category_name":"Diorite","category":3,"distinct_rating":2.98,"distinct_type":"Bottom","item_type":"Target","rt":931,"stimulus":"Stimuli_Rocks480/I_Diorite_04.png","response":"a","trial_type":"image-keyboard-response","trial_index":173,"plugin_version":"2.1.0","time_elapsed":41190514,"subject_id":"92603","group":"Group1","condition":"1_Rep","full_date":"2026-01-28T05:44:15.184Z","date":"2026-01-28","time":"05:44:15","cor_ans":false},{"trial_type":"html-keyboard-response","rt":null,"stimulus":"<p style=\"color: red; font-size: 50px; font-weight: bold;\">Incorrect</p>","response":null,"trial_index":174,"plugin_version":"2.1.0","time_elapsed":41191015,"subject_id":"92603","group":"Group1","condition":"1_Rep","full_date":"2026-01-28T05:44:15.184Z","date":"2026-01-28","time":"05:44:15"},{"correct_response":"l","task":"test_phase","broad_category":"S","image_png":"S_Sandstone_15.png","image_id":463,"category_name":"Sandstone","category":29,"distinct_rating":2,"distinct_type":"Bottom","item_type":"Target","rt":921,"stimulus":"Stimuli_Rocks480/S_Sandstone_15.png","response":"l","trial_type":"image-keyboard-response","trial_index":175,"plugin_version":"2.1.0","time_elapsed":41191938,"subject_id":"92603","group":"Group1","condition":"1_Rep","full_date":"2026-01-28T05:44:15.184Z","date":"2026-01-28","time":"05:44:15","cor_ans":true},{"trial_type":"html-keyboard-response","rt":null,"stimulus":"<p style=\"color: green; font-size: 50px; font-weight: bold;\">Correct</p>","response":null,"trial_index":176,"plugin_version":"2.1.0","time_elapsed":41192439,"subject_id":"92603","group":"Group1","condition":"1_Rep","full_date":"2026-01-28T05:44:15.184Z","date":"2026-01-28","time":"05:44:15"},{"correct_response":"l","task":"test_phase","broad_category":"S","image_png":"S_Shale_08.png","image_id":472,"category_name":"Shale","category":30,"distinct_rating":2.55,"distinct_type":"Bottom","item_type":"Target","rt":593,"stimulus":"Stimuli_Rocks480/S_Shale_08.png","response":"l","trial_type":"image-keyboard-response","trial_index":177,"plugin_version":"2.1.0","time_elapsed":41193032,"subject_id":"92603","group":"Group1","condition":"1_Rep","full_date":"2026-01-28T05:44:15.184Z","date":"2026-01-28","time":"05:44:15","cor_ans":true},{"trial_type":"html-keyboard-response","rt":null,"stimulus":"<p style=\"color: green; font-size: 50px; font-weight: bold;\">Correct</p>","response":null,"trial_index":178,"plugin_version":"2.1.0","time_elapsed":41193534,"subject_id":"92603","group":"Group1","condition":"1_Rep","full_date":"2026-01-28T05:44:15.184Z","date":"2026-01-28","time":"05:44:15"},{"correct_response":"a","task":"test_phase","broad_category":"I","image_png":"I_Diorite_15.png","image_id":47,"category_name":"Diorite","category":3,"distinct_rating":3.05,"distinct_type":"Bottom","item_type":"Foil","rt":638,"stimulus":"Stimuli_Rocks480/I_Diorite_15.png","response":"l","trial_type":"image-keyboard-response","trial_index":179,"plugin_version":"2.1.0","time_elapsed":41194173,"subject_id":"92603","group":"Group1","condition":"1_Rep","full_date":"2026-01-28T05:44:15.184Z","date":"2026-01-28","time":"05:44:15","cor_ans":false},{"trial_type":"html-keyboard-response","rt":null,"stimulus":"<p style=\"color: red; font-size: 50px; font-weight: bold;\">Incorrect</p>","response":null,"trial_index":180,"plugin_version":"2.1.0","time_elapsed":41194675,"subject_id":"92603","group":"Group1","condition":"1_Rep","full_date":"2026-01-28T05:44:15.184Z","date":"2026-01-28","time":"05:44:15"},{"correct_response":"a","task":"test_phase","broad_category":"I","image_png":"I_Andesite_04.png","image_id":4,"category_name":"Andesite","category":1,"distinct_rating":3.18,"distinct_type":"Bottom","item_type":"Foil","rt":1160,"stimulus":"Stimuli_Rocks480/I_Andesite_04.png","response":"l","trial_type":"image-keyboard-response","trial_index":181,"plugin_version":"2.1.0","time_elapsed":41195835,"subject_id":"92603","group":"Group1","condition":"1_Rep","full_date":"2026-01-28T05:44:15.184Z","date":"2026-01-28","time":"05:44:15","cor_ans":false},{"trial_type":"html-keyboard-response","rt":null,"stimulus":"<p style=\"color: red; font-size: 50px; font-weight: bold;\">Incorrect</p>","response":null,"trial_index":182,"plugin_version":"2.1.0","time_elapsed":41196337,"subject_id":"92603","group":"Group1","condition":"1_Rep","full_date":"2026-01-28T05:44:15.184Z","date":"2026-01-28","time":"05:44:15"},{"correct_response":"l","task":"test_phase","broad_category":"I","image_png":"I_Gabbro_16.png","image_id":64,"category_name":"Gabbro","category":4,"distinct_rating":2.52,"distinct_type":"Bottom","item_type":"Target","rt":842,"stimulus":"Stimuli_Rocks480/I_Gabbro_16.png","response":"l","trial_type":"image-keyboard-response","trial_index":183,"plugin_version":"2.1.0","time_elapsed":41197180,"subject_id":"92603","group":"Group1","condition":"1_Rep","full_date":"2026-01-28T05:44:15.184Z","date":"2026-01-28","time":"05:44:15","cor_ans":true},{"trial_type":"html-keyboard-response","rt":null,"stimulus":"<p style=\"color: green; font-size: 50px; font-weight: bold;\">Correct</p>","response":null,"trial_index":184,"plugin_version":"2.1.0","time_elapsed":41197682,"subject_id":"92603","group":"Group1","condition":"1_Rep","full_date":"2026-01-28T05:44:15.184Z","date":"2026-01-28","time":"05:44:15"},{"correct_response":"l","task":"test_phase","broad_category":"S","image_png":"S_Chert_10.png","image_id":362,"category_name":"Chert","category":23,"distinct_rating":7.17,"distinct_type":"Top","item_type":"Target","rt":1027,"stimulus":"Stimuli_Rocks480/S_Chert_10.png","response":"l","trial_type":"image-keyboard-response","trial_index":185,"plugin_version":"2.1.0","time_elapsed":41198710,"subject_id":"92603","group":"Group1","condition":"1_Rep","full_date":"2026-01-28T05:44:15.184Z","date":"2026-01-28","time":"05:44:15","cor_ans":true},{"trial_type":"html-keyboard-response","rt":null,"stimulus":"<p style=\"color: green; font-size: 50px; font-weight: bold;\">Correct</p>","response":null,"trial_index":186,"plugin_version":"2.1.0","time_elapsed":41199211,"subject_id":"92603","group":"Group1","condition":"1_Rep","full_date":"2026-01-28T05:44:15.184Z","date":"2026-01-28","time":"05:44:15"},{"correct_response":"l","task":"test_phase","broad_category":"I","image_png":"I_Pumice_08.png","image_id":136,"category_name":"Pumice","category":9,"distinct_rating":3.1,"distinct_type":"Bottom","item_type":"Target","rt":2683,"stimulus":"Stimuli_Rocks480/I_Pumice_08.png","response":"l","trial_type":"image-keyboard-response","trial_index":187,"plugin_version":"2.1.0","time_elapsed":41201895,"subject_id":"92603","group":"Group1","condition":"1_Rep","full_date":"2026-01-28T05:44:15.184Z","date":"2026-01-28","time":"05:44:15","cor_ans":true},{"trial_type":"html-keyboard-response","rt":null,"stimulus":"<p style=\"color: green; font-size: 50px; font-weight: bold;\">Correct</p>","response":null,"trial_index":188,"plugin_version":"2.1.0","time_elapsed":41202397,"subject_id":"92603","group":"Group1","condition":"1_Rep","full_date":"2026-01-28T05:44:15.184Z","date":"2026-01-28","time":"05:44:15"},{"correct_response":"a","task":"test_phase","broad_category":"M","image_png":"M_Phyllite_02.png","image_id":258,"category_name":"Phyllite","category":17,"distinct_rating":2.89,"distinct_type":"Bottom","item_type":"Foil","rt":932,"stimulus":"Stimuli_Rocks480/M_Phyllite_02.png","response":"a","trial_type":"image-keyboard-response","trial_index":189,"plugin_version":"2.1.0","time_elapsed":41203329,"subject_id":"92603","group":"Group1","condition":"1_Rep","full_date":"2026-01-28T05:44:15.184Z","date":"2026-01-28","time":"05:44:15","cor_ans":true},{"trial_type":"html-keyboard-response","rt":null,"stimulus":"<p style=\"color: green; font-size: 50px; font-weight: bold;\">Correct</p>","response":null,"trial_index":190,"plugin_version":"2.1.0","time_elapsed":41203830,"subject_id":"92603","group":"Group1","condition":"1_Rep","full_date":"2026-01-28T05:44:15.184Z","date":"2026-01-28","time":"05:44:15"},{"correct_response":"l","task":"test_phase","broad_category":"M","image_png":"M_Marble_04.png","image_id":228,"category_name":"Marble","category":15,"distinct_rating":3.15,"distinct_type":"Bottom","item_type":"Target","rt":763,"stimulus":"Stimuli_Rocks480/M_Marble_04.png","response":"l","trial_type":"image-keyboard-response","trial_index":191,"plugin_version":"2.1.0","time_elapsed":41204595,"subject_id":"92603","group":"Group1","condition":"1_Rep","full_date":"2026-01-28T05:44:15.184Z","date":"2026-01-28","time":"05:44:15","cor_ans":true},{"trial_type":"html-keyboard-response","rt":null,"stimulus":"<p style=\"color: green; font-size: 50px; font-weight: bold;\">Correct</p>","response":null,"trial_index":192,"plugin_version":"2.1.0","time_elapsed":41205096,"subject_id":"92603","group":"Group1","condition":"1_Rep","full_date":"2026-01-28T05:44:15.184Z","date":"2026-01-28","time":"05:44:15"},{"correct_response":"a","task":"test_phase","broad_category":"S","image_png":"S_Sandstone_04.png","image_id":452,"category_name":"Sandstone","category":29,"distinct_rating":1.8,"distinct_type":"Bottom","item_type":"Foil","rt":1560,"stimulus":"Stimuli_Rocks480/S_Sandstone_04.png","response":"a","trial_type":"image-keyboard-response","trial_index":193,"plugin_version":"2.1.0","time_elapsed":41206657,"subject_id":"92603","group":"Group1","condition":"1_Rep","full_date":"2026-01-28T05:44:15.184Z","date":"2026-01-28","time":"05:44:15","cor_ans":true},{"trial_type":"html-keyboard-response","rt":null,"stimulus":"<p style=\"color: green; font-size: 50px; font-weight: bold;\">Correct</p>","response":null,"trial_index":194,"plugin_version":"2.1.0","time_elapsed":41207159,"subject_id":"92603","group":"Group1","condition":"1_Rep","full_date":"2026-01-28T05:44:15.184Z","date":"2026-01-28","time":"05:44:15"},{"correct_response":"l","task":"test_phase","broad_category":"M","image_png":"M_Quartzite_08.png","image_id":280,"category_name":"Quartzite","category":18,"distinct_rating":2.15,"distinct_type":"Bottom","item_type":"Target","rt":2500,"stimulus":"Stimuli_Rocks480/M_Quartzite_08.png","response":"a","trial_type":"image-keyboard-response","trial_index":195,"plugin_version":"2.1.0","time_elapsed":41209660,"subject_id":"92603","group":"Group1","condition":"1_Rep","full_date":"2026-01-28T05:44:15.184Z","date":"2026-01-28","time":"05:44:15","cor_ans":false},{"trial_type":"html-keyboard-response","rt":null,"stimulus":"<p style=\"color: red; font-size: 50px; font-weight: bold;\">Incorrect</p>","response":null,"trial_index":196,"plugin_version":"2.1.0","time_elapsed":41210162,"subject_id":"92603","group":"Group1","condition":"1_Rep","full_date":"2026-01-28T05:44:15.184Z","date":"2026-01-28","time":"05:44:15"},{"correct_response":"a","task":"test_phase","broad_category":"I","image_png":"I_Pegmatite_11.png","image_id":107,"category_name":"Pegmatite","category":7,"distinct_rating":7.11,"distinct_type":"Top","item_type":"Foil","rt":904,"stimulus":"Stimuli_Rocks480/I_Pegmatite_11.png","response":"a","trial_type":"image-keyboard-response","trial_index":197,"plugin_version":"2.1.0","time_elapsed":41211067,"subject_id":"92603","group":"Group1","condition":"1_Rep","full_date":"2026-01-28T05:44:15.184Z","date":"2026-01-28","time":"05:44:15","cor_ans":true},{"trial_type":"html-keyboard-response","rt":null,"stimulus":"<p style=\"color: green; font-size: 50px; font-weight: bold;\">Correct</p>","response":null,"trial_index":198,"plugin_version":"2.1.0","time_elapsed":41211568,"subject_id":"92603","group":"Group1","condition":"1_Rep","full_date":"2026-01-28T05:44:15.184Z","date":"2026-01-28","time":"05:44:15"},{"correct_response":"a","task":"test_phase","broad_category":"S","image_png":"S_Conglomerate_14.png","image_id":382,"category_name":"Conglomerate","category":24,"distinct_rating":6.86,"distinct_type":"Top","item_type":"Foil","rt":871,"stimulus":"Stimuli_Rocks480/S_Conglomerate_14.png","response":"a","trial_type":"image-keyboard-response","trial_index":199,"plugin_version":"2.1.0","time_elapsed":41212440,"subject_id":"92603","group":"Group1","condition":"1_Rep","full_date":"2026-01-28T05:44:15.184Z","date":"2026-01-28","time":"05:44:15","cor_ans":true},{"trial_type":"html-keyboard-response","rt":null,"stimulus":"<p style=\"color: green; font-size: 50px; font-weight: bold;\">Correct</p>","response":null,"trial_index":200,"plugin_version":"2.1.0","time_elapsed":41212941,"subject_id":"92603","group":"Group1","condition":"1_Rep","full_date":"2026-01-28T05:44:15.184Z","date":"2026-01-28","time":"05:44:15"},{"correct_response":"a","task":"test_phase","broad_category":"M","image_png":"M_Gneiss_10.png","image_id":202,"category_name":"Gneiss","category":13,"distinct_rating":3.09,"distinct_type":"Bottom","item_type":"Foil","rt":1207,"stimulus":"Stimuli_Rocks480/M_Gneiss_10.png","response":"l","trial_type":"image-keyboard-response","trial_index":201,"plugin_version":"2.1.0","time_elapsed":41214150,"subject_id":"92603","group":"Group1","condition":"1_Rep","full_date":"2026-01-28T05:44:15.184Z","date":"2026-01-28","time":"05:44:15","cor_ans":false},{"trial_type":"html-keyboard-response","rt":null,"stimulus":"<p style=\"color: red; font-size: 50px; font-weight: bold;\">Incorrect</p>","response":null,"trial_index":202,"plugin_version":"2.1.0","time_elapsed":41214651,"subject_id":"92603","group":"Group1","condition":"1_Rep","full_date":"2026-01-28T05:44:15.184Z","date":"2026-01-28","time":"05:44:15"},{"correct_response":"l","task":"test_phase","broad_category":"S","image_png":"S_Rock Gypsum_04.png","image_id":420,"category_name":"Rock Gypsum","category":27,"distinct_rating":7.61,"distinct_type":"Top","item_type":"Target","rt":1471,"stimulus":"Stimuli_Rocks480/S_Rock Gypsum_04.png","response":"a","trial_type":"image-keyboard-response","trial_index":203,"plugin_version":"2.1.0","time_elapsed":41216123,"subject_id":"92603","group":"Group1","condition":"1_Rep","full_date":"2026-01-28T05:44:15.184Z","date":"2026-01-28","time":"05:44:15","cor_ans":false},{"trial_type":"html-keyboard-response","rt":null,"stimulus":"<p style=\"color: red; font-size: 50px; font-weight: bold;\">Incorrect</p>","response":null,"trial_index":204,"plugin_version":"2.1.0","time_elapsed":41216624,"subject_id":"92603","group":"Group1","condition":"1_Rep","full_date":"2026-01-28T05:44:15.184Z","date":"2026-01-28","time":"05:44:15"},{"correct_response":"l","task":"test_phase","broad_category":"S","image_png":"S_Dolomite_14.png","image_id":398,"category_name":"Dolomite","category":25,"distinct_rating":1.43,"distinct_type":"Bottom","item_type":"Target","rt":1366,"stimulus":"Stimuli_Rocks480/S_Dolomite_14.png","response":"l","trial_type":"image-keyboard-response","trial_index":205,"plugin_version":"2.1.0","time_elapsed":41217991,"subject_id":"92603","group":"Group1","condition":"1_Rep","full_date":"2026-01-28T05:44:15.184Z","date":"2026-01-28","time":"05:44:15","cor_ans":true},{"trial_type":"html-keyboard-response","rt":null,"stimulus":"<p style=\"color: green; font-size: 50px; font-weight: bold;\">Correct</p>","response":null,"trial_index":206,"plugin_version":"2.1.0","time_elapsed":41218493,"subject_id":"92603","group":"Group1","condition":"1_Rep","full_date":"2026-01-28T05:44:15.184Z","date":"2026-01-28","time":"05:44:15"},{"correct_response":"a","task":"test_phase","broad_category":"S","image_png":"S_Sandstone_08.png","image_id":456,"category_name":"Sandstone","category":29,"distinct_rating":1.5,"distinct_type":"Bottom","item_type":"Foil","rt":946,"stimulus":"Stimuli_Rocks480/S_Sandstone_08.png","response":"l","trial_type":"image-keyboard-response","trial_index":207,"plugin_version":"2.1.0","time_elapsed":41219441,"subject_id":"92603","group":"Group1","condition":"1_Rep","full_date":"2026-01-28T05:44:15.184Z","date":"2026-01-28","time":"05:44:15","cor_ans":false},{"trial_type":"html-keyboard-response","rt":null,"stimulus":"<p style=\"color: red; font-size: 50px; font-weight: bold;\">Incorrect</p>","response":null,"trial_index":208,"plugin_version":"2.1.0","time_elapsed":41219942,"subject_id":"92603","group":"Group1","condition":"1_Rep","full_date":"2026-01-28T05:44:15.184Z","date":"2026-01-28","time":"05:44:15"},{"correct_response":"a","task":"test_phase","broad_category":"I","image_png":"I_Andesite_09.png","image_id":9,"category_name":"Andesite","category":1,"distinct_rating":2.49,"distinct_type":"Bottom","item_type":"Foil","rt":793,"stimulus":"Stimuli_Rocks480/I_Andesite_09.png","response":"l","trial_type":"image-keyboard-response","trial_index":209,"plugin_version":"2.1.0","time_elapsed":41220736,"subject_id":"92603","group":"Group1","condition":"1_Rep","full_date":"2026-01-28T05:44:15.184Z","date":"2026-01-28","time":"05:44:15","cor_ans":false},{"trial_type":"html-keyboard-response","rt":null,"stimulus":"<p style=\"color: red; font-size: 50px; font-weight: bold;\">Incorrect</p>","response":null,"trial_index":210,"plugin_version":"2.1.0","time_elapsed":41221237,"subject_id":"92603","group":"Group1","condition":"1_Rep","full_date":"2026-01-28T05:44:15.184Z","date":"2026-01-28","time":"05:44:15"},{"correct_response":"l","task":"test_phase","broad_category":"I","image_png":"I_Basalt_01.png","image_id":17,"category_name":"Basalt","category":2,"distinct_rating":1.92,"distinct_type":"Bottom","item_type":"Target","rt":640,"stimulus":"Stimuli_Rocks480/I_Basalt_01.png","response":"a","trial_type":"image-keyboard-response","trial_index":211,"plugin_version":"2.1.0","time_elapsed":41221878,"subject_id":"92603","group":"Group1","condition":"1_Rep","full_date":"2026-01-28T05:44:15.184Z","date":"2026-01-28","time":"05:44:15","cor_ans":false},{"trial_type":"html-keyboard-response","rt":null,"stimulus":"<p style=\"color: red; font-size: 50px; font-weight: bold;\">Incorrect</p>","response":null,"trial_index":212,"plugin_version":"2.1.0","time_elapsed":41222380,"subject_id":"92603","group":"Group1","condition":"1_Rep","full_date":"2026-01-28T05:44:15.184Z","date":"2026-01-28","time":"05:44:15"},{"correct_response":"l","task":"test_phase","broad_category":"I","image_png":"I_Gabbro_11.png","image_id":59,"category_name":"Gabbro","category":4,"distinct_rating":1.99,"distinct_type":"Bottom","item_type":"Target","rt":981,"stimulus":"Stimuli_Rocks480/I_Gabbro_11.png","response":"a","trial_type":"image-keyboard-response","trial_index":213,"plugin_version":"2.1.0","time_elapsed":41223362,"subject_id":"92603","group":"Group1","condition":"1_Rep","full_date":"2026-01-28T05:44:15.184Z","date":"2026-01-28","time":"05:44:15","cor_ans":false},{"trial_type":"html-keyboard-response","rt":null,"stimulus":"<p style=\"color: red; font-size: 50px; font-weight: bold;\">Incorrect</p>","response":null,"trial_index":214,"plugin_version":"2.1.0","time_elapsed":41223863,"subject_id":"92603","group":"Group1","condition":"1_Rep","full_date":"2026-01-28T05:44:15.184Z","date":"2026-01-28","time":"05:44:15"},{"correct_response":"a","task":"test_phase","broad_category":"S","image_png":"S_Shale_02.png","image_id":466,"category_name":"Shale","category":30,"distinct_rating":2.9,"distinct_type":"Bottom","item_type":"Foil","rt":1101,"stimulus":"Stimuli_Rocks480/S_Shale_02.png","response":"a","trial_type":"image-keyboard-response","trial_index":215,"plugin_version":"2.1.0","time_elapsed":41224966,"subject_id":"92603","group":"Group1","condition":"1_Rep","full_date":"2026-01-28T05:44:15.184Z","date":"2026-01-28","time":"05:44:15","cor_ans":true},{"trial_type":"html-keyboard-response","rt":null,"stimulus":"<p style=\"color: green; font-size: 50px; font-weight: bold;\">Correct</p>","response":null,"trial_index":216,"plugin_version":"2.1.0","time_elapsed":41225467,"subject_id":"92603","group":"Group1","condition":"1_Rep","full_date":"2026-01-28T05:44:15.184Z","date":"2026-01-28","time":"05:44:15"},{"correct_response":"l","task":"test_phase","broad_category":"I","image_png":"I_Pumice_11.png","image_id":139,"category_name":"Pumice","category":9,"distinct_rating":1.74,"distinct_type":"Bottom","item_type":"Target","rt":963,"stimulus":"Stimuli_Rocks480/I_Pumice_11.png","response":"l","trial_type":"image-keyboard-response","trial_index":217,"plugin_version":"2.1.0","time_elapsed":41226431,"subject_id":"92603","group":"Group1","condition":"1_Rep","full_date":"2026-01-28T05:44:15.184Z","date":"2026-01-28","time":"05:44:15","cor_ans":true},{"trial_type":"html-keyboard-response","rt":null,"stimulus":"<p style=\"color: green; font-size: 50px; font-weight: bold;\">Correct</p>","response":null,"trial_index":218,"plugin_version":"2.1.0","time_elapsed":41226933,"subject_id":"92603","group":"Group1","condition":"1_Rep","full_date":"2026-01-28T05:44:15.184Z","date":"2026-01-28","time":"05:44:15"},{"correct_response":"l","task":"test_phase","broad_category":"M","image_png":"M_Phyllite_07.png","image_id":263,"category_name":"Phyllite","category":17,"distinct_rating":2.59,"distinct_type":"Bottom","item_type":"Target","rt":1012,"stimulus":"Stimuli_Rocks480/M_Phyllite_07.png","response":"l","trial_type":"image-keyboard-response","trial_index":219,"plugin_version":"2.1.0","time_elapsed":41227946,"subject_id":"92603","group":"Group1","condition":"1_Rep","full_date":"2026-01-28T05:44:15.184Z","date":"2026-01-28","time":"05:44:15","cor_ans":true},{"trial_type":"html-keyboard-response","rt":null,"stimulus":"<p style=\"color: green; font-size: 50px; font-weight: bold;\">Correct</p>","response":null,"trial_index":220,"plugin_version":"2.1.0","time_elapsed":41228448,"subject_id":"92603","group":"Group1","condition":"1_Rep","full_date":"2026-01-28T05:44:15.184Z","date":"2026-01-28","time":"05:44:15"},{"correct_response":"a","task":"test_phase","broad_category":"I","image_png":"I_Diorite_01.png","image_id":33,"category_name":"Diorite","category":3,"distinct_rating":2.97,"distinct_type":"Bottom","item_type":"Foil","rt":1212,"stimulus":"Stimuli_Rocks480/I_Diorite_01.png","response":"l","trial_type":"image-keyboard-response","trial_index":221,"plugin_version":"2.1.0","time_elapsed":41229661,"subject_id":"92603","group":"Group1","condition":"1_Rep","full_date":"2026-01-28T05:44:15.184Z","date":"2026-01-28","time":"05:44:15","cor_ans":false},{"trial_type":"html-keyboard-response","rt":null,"stimulus":"<p style=\"color: red; font-size: 50px; font-weight: bold;\">Incorrect</p>","response":null,"trial_index":222,"plugin_version":"2.1.0","time_elapsed":41230162,"subject_id":"92603","group":"Group1","condition":"1_Rep","full_date":"2026-01-28T05:44:15.184Z","date":"2026-01-28","time":"05:44:15"},{"correct_response":"a","task":"test_phase","broad_category":"I","image_png":"I_Pumice_01.png","image_id":129,"category_name":"Pumice","category":9,"distinct_rating":3.25,"distinct_type":"Bottom","item_type":"Foil","rt":845,"stimulus":"Stimuli_Rocks480/I_Pumice_01.png","response":"a","trial_type":"image-keyboard-response","trial_index":223,"plugin_version":"2.1.0","time_elapsed":41231008,"subject_id":"92603","group":"Group1","condition":"1_Rep","full_date":"2026-01-28T05:44:15.184