[{"width":1463,"height":746,"webaudio":true,"browser":"chrome","browser_version":"145.0.0","mobile":false,"os":"Windows 10","fullscreen":true,"vsync_rate":245.7,"webcam":true,"microphone":true,"trial_type":"browser-check","trial_index":0,"plugin_version":"2.1.0","time_elapsed":844,"subject_id":"92536","group":"Group1","condition":"3_Rep","full_date":"2026-02-27T03:21:15.964Z","date":"2026-02-27","time":"03:21:15"},{"success":true,"timeout":false,"failed_images":[],"failed_audio":[],"failed_video":[],"trial_type":"preload","trial_index":1,"plugin_version":"2.1.0","time_elapsed":3308,"subject_id":"92536","group":"Group1","condition":"3_Rep","full_date":"2026-02-27T03:21:15.964Z","date":"2026-02-27","time":"03:21:15"},{"rt":69065,"url":"SONA_consent_memorability.html","trial_type":"external-html","trial_index":2,"plugin_version":"2.1.0","time_elapsed":72430,"subject_id":"92536","group":"Group1","condition":"3_Rep","full_date":"2026-02-27T03:21:15.964Z","date":"2026-02-27","time":"03:21:15"},{"success":true,"rt":1473,"trial_type":"fullscreen","trial_index":3,"plugin_version":"2.1.0","time_elapsed":74910,"subject_id":"92536","group":"Group1","condition":"3_Rep","full_date":"2026-02-27T03:21:15.964Z","date":"2026-02-27","time":"03:21:15"},{"rt":2528,"stimulus":"<div style=\"max-width: 760px; margin: auto; font-size: 20px; line-height: 1.5;\">\n      <h1 style=\"text-align:center; font-size: 30px;\">Instructions</h1>\n      <p>\n        Welcome to the study on <b>visual memory</b>. This experiment consists of <b>two phases</b>: \n        a <b>study phase</b> and a <b>test phase</b>.\n      </p>\n      <p>\n        In the study phase, you will see a series of rock images along with their category labels.\n        The images will appear one at a time.\n        <b>Your task</b> is to learn the categories to which the rock images belong \n        and to remember each image as accurately as possible.\n      </p> \n      <p>\n        Note that we will repeat the study phase <b>3 times</b>, \n             so you will have multiple opportunities to see and remember each image.\n      </p>\n      <p>\n        After the study phase, <b>your memory will be tested</b>. \n        Additional instructions for the test phase will be provided at that time.\n      </p>\n      <p>\n        If your computer has multiple <b>language settings</b> (e.g., English and another language),\n        please make sure it is set to English before starting.\n      </p>\n      <p>\n        You can track your progress using the <b>completion bar</b> at the top of the screen. \n        Please note that the bar will refresh when the test phase begins \n        to give you an accurate sense of your progress in both phases.\n      </p> \n      <p>\n        Press the button below when you are ready to begin.\n      </p>\n    </div>","response":0,"trial_type":"html-button-response","trial_index":4,"plugin_version":"2.1.0","time_elapsed":77440,"subject_id":"92536","group":"Group1","condition":"3_Rep","full_date":"2026-02-27T03:21:15.964Z","date":"2026-02-27","time":"03:21:15"},{"rt":null,"stimulus":"<p style=\"font-size: 50px; margin: 0; text-align: center;\">+</p>","response":null,"trial_type":"html-keyboard-response","trial_index":5,"plugin_version":"2.1.0","time_elapsed":78446,"subject_id":"92536","group":"Group1","condition":"3_Rep","full_date":"2026-02-27T03:21:15.964Z","date":"2026-02-27","time":"03:21:15"},{"task":"memory_phase","broad_category":"S","image_png":"S_Breccia_11.png","image_id":347,"category_name":"Breccia","category":22,"distinct_rating":6.7,"distinct_type":"Top","rt":null,"stimulus":"Stimuli_Rocks480/S_Breccia_11.png","response":null,"trial_type":"image-keyboard-response","trial_index":6,"plugin_version":"2.1.0","time_elapsed":80959,"subject_id":"92536","group":"Group1","condition":"3_Rep","full_date":"2026-02-27T03:21:15.964Z","date":"2026-02-27","time":"03:21:15"},{"rt":null,"stimulus":"<p style=\"font-size: 50px; margin: 0; text-align: center;\">+</p>","response":null,"trial_type":"html-keyboard-response","trial_index":7,"plugin_version":"2.1.0","time_elapsed":81960,"subject_id":"92536","group":"Group1","condition":"3_Rep","full_date":"2026-02-27T03:21:15.964Z","date":"2026-02-27","time":"03:21:15"},{"task":"memory_phase","broad_category":"I","image_png":"I_Rhyolite_11.png","image_id":155,"category_name":"Rhyolite","category":10,"distinct_rating":1.73,"distinct_type":"Bottom","rt":null,"stimulus":"Stimuli_Rocks480/I_Rhyolite_11.png","response":null,"trial_type":"image-keyboard-response","trial_index":8,"plugin_version":"2.1.0","time_elapsed":84465,"subject_id":"92536","group":"Group1","condition":"3_Rep","full_date":"2026-02-27T03:21:15.964Z","date":"2026-02-27","time":"03:21:15"},{"rt":null,"stimulus":"<p style=\"font-size: 50px; margin: 0; text-align: center;\">+</p>","response":null,"trial_type":"html-keyboard-response","trial_index":9,"plugin_version":"2.1.0","time_elapsed":85466,"subject_id":"92536","group":"Group1","condition":"3_Rep","full_date":"2026-02-27T03:21:15.964Z","date":"2026-02-27","time":"03:21:15"},{"task":"memory_phase","broad_category":"M","image_png":"M_Marble_06.png","image_id":230,"category_name":"Marble","category":15,"distinct_rating":3.4,"distinct_type":"Bottom","rt":null,"stimulus":"Stimuli_Rocks480/M_Marble_06.png","response":null,"trial_type":"image-keyboard-response","trial_index":10,"plugin_version":"2.1.0","time_elapsed":87984,"subject_id":"92536","group":"Group1","condition":"3_Rep","full_date":"2026-02-27T03:21:15.964Z","date":"2026-02-27","time":"03:21:15"},{"rt":null,"stimulus":"<p style=\"font-size: 50px; margin: 0; text-align: center;\">+</p>","response":null,"trial_type":"html-keyboard-response","trial_index":11,"plugin_version":"2.1.0","time_elapsed":88995,"subject_id":"92536","group":"Group1","condition":"3_Rep","full_date":"2026-02-27T03:21:15.964Z","date":"2026-02-27","time":"03:21:15"},{"task":"memory_phase","broad_category":"M","image_png":"M_Gneiss_05.png","image_id":197,"category_name":"Gneiss","category":13,"distinct_rating":2.97,"distinct_type":"Bottom","rt":null,"stimulus":"Stimuli_Rocks480/M_Gneiss_05.png","response":null,"trial_type":"image-keyboard-response","trial_index":12,"plugin_version":"2.1.0","time_elapsed":91504,"subject_id":"92536","group":"Group1","condition":"3_Rep","full_date":"2026-02-27T03:21:15.964Z","date":"2026-02-27","time":"03:21:15"},{"rt":null,"stimulus":"<p style=\"font-size: 50px; margin: 0; text-align: center;\">+</p>","response":null,"trial_type":"html-keyboard-response","trial_index":13,"plugin_version":"2.1.0","time_elapsed":92514,"subject_id":"92536","group":"Group1","condition":"3_Rep","full_date":"2026-02-27T03:21:15.964Z","date":"2026-02-27","time":"03:21:15"},{"task":"memory_phase","broad_category":"I","image_png":"I_Diorite_05.png","image_id":37,"category_name":"Diorite","category":3,"distinct_rating":3.08,"distinct_type":"Bottom","rt":null,"stimulus":"Stimuli_Rocks480/I_Diorite_05.png","response":null,"trial_type":"image-keyboard-response","trial_index":14,"plugin_version":"2.1.0","time_elapsed":95024,"subject_id":"92536","group":"Group1","condition":"3_Rep","full_date":"2026-02-27T03:21:15.964Z","date":"2026-02-27","time":"03:21:15"},{"rt":null,"stimulus":"<p style=\"font-size: 50px; margin: 0; text-align: center;\">+</p>","response":null,"trial_type":"html-keyboard-response","trial_index":15,"plugin_version":"2.1.0","time_elapsed":96034,"subject_id":"92536","group":"Group1","condition":"3_Rep","full_date":"2026-02-27T03:21:15.964Z","date":"2026-02-27","time":"03:21:15"},{"task":"memory_phase","broad_category":"M","image_png":"M_Slate_15.png","image_id":319,"category_name":"Slate","category":20,"distinct_rating":2.13,"distinct_type":"Bottom","rt":null,"stimulus":"Stimuli_Rocks480/M_Slate_15.png","response":null,"trial_type":"image-keyboard-response","trial_index":16,"plugin_version":"2.1.0","time_elapsed":98544,"subject_id":"92536","group":"Group1","condition":"3_Rep","full_date":"2026-02-27T03:21:15.964Z","date":"2026-02-27","time":"03:21:15"},{"rt":null,"stimulus":"<p style=\"font-size: 50px; margin: 0; text-align: center;\">+</p>","response":null,"trial_type":"html-keyboard-response","trial_index":17,"plugin_version":"2.1.0","time_elapsed":99554,"subject_id":"92536","group":"Group1","condition":"3_Rep","full_date":"2026-02-27T03:21:15.964Z","date":"2026-02-27","time":"03:21:15"},{"task":"memory_phase","broad_category":"I","image_png":"I_Pumice_08.png","image_id":136,"category_name":"Pumice","category":9,"distinct_rating":3.1,"distinct_type":"Bottom","rt":null,"stimulus":"Stimuli_Rocks480/I_Pumice_08.png","response":null,"trial_type":"image-keyboard-response","trial_index":18,"plugin_version":"2.1.0","time_elapsed":102067,"subject_id":"92536","group":"Group1","condition":"3_Rep","full_date":"2026-02-27T03:21:15.964Z","date":"2026-02-27","time":"03:21:15"},{"rt":null,"stimulus":"<p style=\"font-size: 50px; margin: 0; text-align: center;\">+</p>","response":null,"trial_type":"html-keyboard-response","trial_index":19,"plugin_version":"2.1.0","time_elapsed":103075,"subject_id":"92536","group":"Group1","condition":"3_Rep","full_date":"2026-02-27T03:21:15.964Z","date":"2026-02-27","time":"03:21:15"},{"task":"memory_phase","broad_category":"S","image_png":"S_Chert_10.png","image_id":362,"category_name":"Chert","category":23,"distinct_rating":7.17,"distinct_type":"Top","rt":null,"stimulus":"Stimuli_Rocks480/S_Chert_10.png","response":null,"trial_type":"image-keyboard-response","trial_index":20,"plugin_version":"2.1.0","time_elapsed":105581,"subject_id":"92536","group":"Group1","condition":"3_Rep","full_date":"2026-02-27T03:21:15.964Z","date":"2026-02-27","time":"03:21:15"},{"rt":null,"stimulus":"<p style=\"font-size: 50px; margin: 0; text-align: center;\">+</p>","response":null,"trial_type":"html-keyboard-response","trial_index":21,"plugin_version":"2.1.0","time_elapsed":106582,"subject_id":"92536","group":"Group1","condition":"3_Rep","full_date":"2026-02-27T03:21:15.964Z","date":"2026-02-27","time":"03:21:15"},{"task":"memory_phase","broad_category":"I","image_png":"I_Pegmatite_16.png","image_id":112,"category_name":"Pegmatite","category":7,"distinct_rating":7.03,"distinct_type":"Top","rt":null,"stimulus":"Stimuli_Rocks480/I_Pegmatite_16.png","response":null,"trial_type":"image-keyboard-response","trial_index":22,"plugin_version":"2.1.0","time_elapsed":109084,"subject_id":"92536","group":"Group1","condition":"3_Rep","full_date":"2026-02-27T03:21:15.964Z","date":"2026-02-27","time":"03:21:15"},{"rt":null,"stimulus":"<p style=\"font-size: 50px; margin: 0; text-align: center;\">+</p>","response":null,"trial_type":"html-keyboard-response","trial_index":23,"plugin_version":"2.1.0","time_elapsed":110094,"subject_id":"92536","group":"Group1","condition":"3_Rep","full_date":"2026-02-27T03:21:15.964Z","date":"2026-02-27","time":"03:21:15"},{"task":"memory_phase","broad_category":"I","image_png":"I_Andesite_10.png","image_id":10,"category_name":"Andesite","category":1,"distinct_rating":3.15,"distinct_type":"Bottom","rt":null,"stimulus":"Stimuli_Rocks480/I_Andesite_10.png","response":null,"trial_type":"image-keyboard-response","trial_index":24,"plugin_version":"2.1.0","time_elapsed":112599,"subject_id":"92536","group":"Group1","condition":"3_Rep","full_date":"2026-02-27T03:21:15.964Z","date":"2026-02-27","time":"03:21:15"},{"rt":null,"stimulus":"<p style=\"font-size: 50px; margin: 0; text-align: center;\">+</p>","response":null,"trial_type":"html-keyboard-response","trial_index":25,"plugin_version":"2.1.0","time_elapsed":113610,"subject_id":"92536","group":"Group1","condition":"3_Rep","full_date":"2026-02-27T03:21:15.964Z","date":"2026-02-27","time":"03:21:15"},{"task":"memory_phase","broad_category":"M","image_png":"M_Slate_11.png","image_id":315,"category_name":"Slate","category":20,"distinct_rating":2.75,"distinct_type":"Bottom","rt":null,"stimulus":"Stimuli_Rocks480/M_Slate_11.png","response":null,"trial_type":"image-keyboard-response","trial_index":26,"plugin_version":"2.1.0","time_elapsed":116128,"subject_id":"92536","group":"Group1","condition":"3_Rep","full_date":"2026-02-27T03:21:15.964Z","date":"2026-02-27","time":"03:21:15"},{"rt":null,"stimulus":"<p style=\"font-size: 50px; margin: 0; text-align: center;\">+</p>","response":null,"trial_type":"html-keyboard-response","trial_index":27,"plugin_version":"2.1.0","time_elapsed":117129,"subject_id":"92536","group":"Group1","condition":"3_Rep","full_date":"2026-02-27T03:21:15.964Z","date":"2026-02-27","time":"03:21:15"},{"task":"memory_phase","broad_category":"I","image_png":"I_Diorite_04.png","image_id":36,"category_name":"Diorite","category":3,"distinct_rating":2.98,"distinct_type":"Bottom","rt":null,"stimulus":"Stimuli_Rocks480/I_Diorite_04.png","response":null,"trial_type":"image-keyboard-response","trial_index":28,"plugin_version":"2.1.0","time_elapsed":119642,"subject_id":"92536","group":"Group1","condition":"3_Rep","full_date":"2026-02-27T03:21:15.964Z","date":"2026-02-27","time":"03:21:15"},{"rt":null,"stimulus":"<p style=\"font-size: 50px; margin: 0; text-align: center;\">+</p>","response":null,"trial_type":"html-keyboard-response","trial_index":29,"plugin_version":"2.1.0","time_elapsed":120651,"subject_id":"92536","group":"Group1","condition":"3_Rep","full_date":"2026-02-27T03:21:15.964Z","date":"2026-02-27","time":"03:21:15"},{"task":"memory_phase","broad_category":"S","image_png":"S_Sandstone_15.png","image_id":463,"category_name":"Sandstone","category":29,"distinct_rating":2,"distinct_type":"Bottom","rt":null,"stimulus":"Stimuli_Rocks480/S_Sandstone_15.png","response":null,"trial_type":"image-keyboard-response","trial_index":30,"plugin_version":"2.1.0","time_elapsed":123157,"subject_id":"92536","group":"Group1","condition":"3_Rep","full_date":"2026-02-27T03:21:15.964Z","date":"2026-02-27","time":"03:21:15"},{"rt":null,"stimulus":"<p style=\"font-size: 50px; margin: 0; text-align: center;\">+</p>","response":null,"trial_type":"html-keyboard-response","trial_index":31,"plugin_version":"2.1.0","time_elapsed":124158,"subject_id":"92536","group":"Group1","condition":"3_Rep","full_date":"2026-02-27T03:21:15.964Z","date":"2026-02-27","time":"03:21:15"},{"task":"memory_phase","broad_category":"M","image_png":"M_Marble_04.png","image_id":228,"category_name":"Marble","category":15,"distinct_rating":3.15,"distinct_type":"Bottom","rt":null,"stimulus":"Stimuli_Rocks480/M_Marble_04.png","response":null,"trial_type":"image-keyboard-response","trial_index":32,"plugin_version":"2.1.0","time_elapsed":126663,"subject_id":"92536","group":"Group1","condition":"3_Rep","full_date":"2026-02-27T03:21:15.964Z","date":"2026-02-27","time":"03:21:15"},{"rt":null,"stimulus":"<p style=\"font-size: 50px; margin: 0; text-align: center;\">+</p>","response":null,"trial_type":"html-keyboard-response","trial_index":33,"plugin_version":"2.1.0","time_elapsed":127675,"subject_id":"92536","group":"Group1","condition":"3_Rep","full_date":"2026-02-27T03:21:15.964Z","date":"2026-02-27","time":"03:21:15"},{"task":"memory_phase","broad_category":"M","image_png":"M_Quartzite_05.png","image_id":277,"category_name":"Quartzite","category":18,"distinct_rating":2.23,"distinct_type":"Bottom","rt":null,"stimulus":"Stimuli_Rocks480/M_Quartzite_05.png","response":null,"trial_type":"image-keyboard-response","trial_index":34,"plugin_version":"2.1.0","time_elapsed":130188,"subject_id":"92536","group":"Group1","condition":"3_Rep","full_date":"2026-02-27T03:21:15.964Z","date":"2026-02-27","time":"03:21:15"},{"rt":null,"stimulus":"<p style=\"font-size: 50px; margin: 0; text-align: center;\">+</p>","response":null,"trial_type":"html-keyboard-response","trial_index":35,"plugin_version":"2.1.0","time_elapsed":131202,"subject_id":"92536","group":"Group1","condition":"3_Rep","full_date":"2026-02-27T03:21:15.964Z","date":"2026-02-27","time":"03:21:15"},{"task":"memory_phase","broad_category":"S","image_png":"S_Dolomite_13.png","image_id":397,"category_name":"Dolomite","category":25,"distinct_rating":1.77,"distinct_type":"Bottom","rt":null,"stimulus":"Stimuli_Rocks480/S_Dolomite_13.png","response":null,"trial_type":"image-keyboard-response","trial_index":36,"plugin_version":"2.1.0","time_elapsed":133711,"subject_id":"92536","group":"Group1","condition":"3_Rep","full_date":"2026-02-27T03:21:15.964Z","date":"2026-02-27","time":"03:21:15"},{"rt":null,"stimulus":"<p style=\"font-size: 50px; margin: 0; text-align: center;\">+</p>","response":null,"trial_type":"html-keyboard-response","trial_index":37,"plugin_version":"2.1.0","time_elapsed":134718,"subject_id":"92536","group":"Group1","condition":"3_Rep","full_date":"2026-02-27T03:21:15.964Z","date":"2026-02-27","time":"03:21:15"},{"task":"memory_phase","broad_category":"M","image_png":"M_Phyllite_03.png","image_id":259,"category_name":"Phyllite","category":17,"distinct_rating":2.5,"distinct_type":"Bottom","rt":null,"stimulus":"Stimuli_Rocks480/M_Phyllite_03.png","response":null,"trial_type":"image-keyboard-response","trial_index":38,"plugin_version":"2.1.0","time_elapsed":137225,"subject_id":"92536","group":"Group1","condition":"3_Rep","full_date":"2026-02-27T03:21:15.964Z","date":"2026-02-27","time":"03:21:15"},{"rt":null,"stimulus":"<p style=\"font-size: 50px; margin: 0; text-align: center;\">+</p>","response":null,"trial_type":"html-keyboard-response","trial_index":39,"plugin_version":"2.1.0","time_elapsed":138235,"subject_id":"92536","group":"Group1","condition":"3_Rep","full_date":"2026-02-27T03:21:15.964Z","date":"2026-02-27","time":"03:21:15"},{"task":"memory_phase","broad_category":"M","image_png":"M_Quartzite_13.png","image_id":285,"category_name":"Quartzite","category":18,"distinct_rating":2.27,"distinct_type":"Bottom","rt":null,"stimulus":"Stimuli_Rocks480/M_Quartzite_13.png","response":null,"trial_type":"image-keyboard-response","trial_index":40,"plugin_version":"2.1.0","time_elapsed":140751,"subject_id":"92536","group":"Group1","condition":"3_Rep","full_date":"2026-02-27T03:21:15.964Z","date":"2026-02-27","time":"03:21:15"},{"rt":null,"stimulus":"<p style=\"font-size: 50px; margin: 0; text-align: center;\">+</p>","response":null,"trial_type":"html-keyboard-response","trial_index":41,"plugin_version":"2.1.0","time_elapsed":141764,"subject_id":"92536","group":"Group1","condition":"3_Rep","full_date":"2026-02-27T03:21:15.964Z","date":"2026-02-27","time":"03:21:15"},{"task":"memory_phase","broad_category":"I","image_png":"I_Obsidian_05.png","image_id":85,"category_name":"Obsidian","category":6,"distinct_rating":7.32,"distinct_type":"Top","rt":null,"stimulus":"Stimuli_Rocks480/I_Obsidian_05.png","response":null,"trial_type":"image-keyboard-response","trial_index":42,"plugin_version":"2.1.0","time_elapsed":144280,"subject_id":"92536","group":"Group1","condition":"3_Rep","full_date":"2026-02-27T03:21:15.964Z","date":"2026-02-27","time":"03:21:15"},{"rt":null,"stimulus":"<p style=\"font-size: 50px; margin: 0; text-align: center;\">+</p>","response":null,"trial_type":"html-keyboard-response","trial_index":43,"plugin_version":"2.1.0","time_elapsed":145293,"subject_id":"92536","group":"Group1","condition":"3_Rep","full_date":"2026-02-27T03:21:15.964Z","date":"2026-02-27","time":"03:21:15"},{"task":"memory_phase","broad_category":"I","image_png":"I_Rhyolite_16.png","image_id":160,"category_name":"Rhyolite","category":10,"distinct_rating":2.19,"distinct_type":"Bottom","rt":null,"stimulus":"Stimuli_Rocks480/I_Rhyolite_16.png","response":null,"trial_type":"image-keyboard-response","trial_index":44,"plugin_version":"2.1.0","time_elapsed":147805,"subject_id":"92536","group":"Group1","condition":"3_Rep","full_date":"2026-02-27T03:21:15.964Z","date":"2026-02-27","time":"03:21:15"},{"rt":null,"stimulus":"<p style=\"font-size: 50px; margin: 0; text-align: center;\">+</p>","response":null,"trial_type":"html-keyboard-response","trial_index":45,"plugin_version":"2.1.0","time_elapsed":148814,"subject_id":"92536","group":"Group1","condition":"3_Rep","full_date":"2026-02-27T03:21:15.964Z","date":"2026-02-27","time":"03:21:15"},{"task":"memory_phase","broad_category":"S","image_png":"S_Rock Gypsum_04.png","image_id":420,"category_name":"Rock Gypsum","category":27,"distinct_rating":7.61,"distinct_type":"Top","rt":null,"stimulus":"Stimuli_Rocks480/S_Rock Gypsum_04.png","response":null,"trial_type":"image-keyboard-response","trial_index":46,"plugin_version":"2.1.0","time_elapsed":151326,"subject_id":"92536","group":"Group1","condition":"3_Rep","full_date":"2026-02-27T03:21:15.964Z","date":"2026-02-27","time":"03:21:15"},{"rt":null,"stimulus":"<p style=\"font-size: 50px; margin: 0; text-align: center;\">+</p>","response":null,"trial_type":"html-keyboard-response","trial_index":47,"plugin_version":"2.1.0","time_elapsed":152337,"subject_id":"92536","group":"Group1","condition":"3_Rep","full_date":"2026-02-27T03:21:15.964Z","date":"2026-02-27","time":"03:21:15"},{"task":"memory_phase","broad_category":"S","image_png":"S_Sandstone_03.png","image_id":451,"category_name":"Sandstone","category":29,"distinct_rating":1.86,"distinct_type":"Bottom","rt":null,"stimulus":"Stimuli_Rocks480/S_Sandstone_03.png","response":null,"trial_type":"image-keyboard-response","trial_index":48,"plugin_version":"2.1.0","time_elapsed":154840,"subject_id":"92536","group":"Group1","condition":"3_Rep","full_date":"2026-02-27T03:21:15.964Z","date":"2026-02-27","time":"03:21:15"},{"rt":null,"stimulus":"<p style=\"font-size: 50px; margin: 0; text-align: center;\">+</p>","response":null,"trial_type":"html-keyboard-response","trial_index":49,"plugin_version":"2.1.0","time_elapsed":155846,"subject_id":"92536","group":"Group1","condition":"3_Rep","full_date":"2026-02-27T03:21:15.964Z","date":"2026-02-27","time":"03:21:15"},{"task":"memory_phase","broad_category":"M","image_png":"M_Marble_16.png","image_id":240,"category_name":"Marble","category":15,"distinct_rating":2.57,"distinct_type":"Bottom","rt":null,"stimulus":"Stimuli_Rocks480/M_Marble_16.png","response":null,"trial_type":"image-keyboard-response","trial_index":50,"plugin_version":"2.1.0","time_elapsed":158358,"subject_id":"92536","group":"Group1","condition":"3_Rep","full_date":"2026-02-27T03:21:15.964Z","date":"2026-02-27","time":"03:21:15"},{"rt":null,"stimulus":"<p style=\"font-size: 50px; margin: 0; text-align: center;\">+</p>","response":null,"trial_type":"html-keyboard-response","trial_index":51,"plugin_version":"2.1.0","time_elapsed":159367,"subject_id":"92536","group":"Group1","condition":"3_Rep","full_date":"2026-02-27T03:21:15.964Z","date":"2026-02-27","time":"03:21:15"},{"task":"memory_phase","broad_category":"M","image_png":"M_Phyllite_07.png","image_id":263,"category_name":"Phyllite","category":17,"distinct_rating":2.59,"distinct_type":"Bottom","rt":null,"stimulus":"Stimuli_Rocks480/M_Phyllite_07.png","response":null,"trial_type":"image-keyboard-response","trial_index":52,"plugin_version":"2.1.0","time_elapsed":161873,"subject_id":"92536","group":"Group1","condition":"3_Rep","full_date":"2026-02-27T03:21:15.964Z","date":"2026-02-27","time":"03:21:15"},{"rt":null,"stimulus":"<p style=\"font-size: 50px; margin: 0; text-align: center;\">+</p>","response":null,"trial_type":"html-keyboard-response","trial_index":53,"plugin_version":"2.1.0","time_elapsed":162888,"subject_id":"92536","group":"Group1","condition":"3_Rep","full_date":"2026-02-27T03:21:15.964Z","date":"2026-02-27","time":"03:21:15"},{"task":"memory_phase","broad_category":"I","image_png":"I_Basalt_02.png","image_id":18,"category_name":"Basalt","category":2,"distinct_rating":1.84,"distinct_type":"Bottom","rt":null,"stimulus":"Stimuli_Rocks480/I_Basalt_02.png","response":null,"trial_type":"image-keyboard-response","trial_index":54,"plugin_version":"2.1.0","time_elapsed":165400,"subject_id":"92536","group":"Group1","condition":"3_Rep","full_date":"2026-02-27T03:21:15.964Z","date":"2026-02-27","time":"03:21:15"},{"rt":1898,"stimulus":"<p style=\"max-width: 760px; margin: auto; font-size: 35px; line-height: 1.5;\">\n                Press SPACE to continue study phase\n              </p>","response":" ","trial_type":"html-keyboard-response","trial_index":55,"plugin_version":"2.1.0","time_elapsed":167301,"subject_id":"92536","group":"Group1","condition":"3_Rep","full_date":"2026-02-27T03:21:15.964Z","date":"2026-02-27","time":"03:21:15"},{"rt":null,"stimulus":"<p style=\"font-size: 50px; margin: 0; text-align: center;\">+</p>","response":null,"trial_type":"html-keyboard-response","trial_index":56,"plugin_version":"2.1.0","time_elapsed":168306,"subject_id":"92536","group":"Group1","condition":"3_Rep","full_date":"2026-02-27T03:21:15.964Z","date":"2026-02-27","time":"03:21:15"},{"task":"memory_phase","broad_category":"M","image_png":"M_Slate_03.png","image_id":307,"category_name":"Slate","category":20,"distinct_rating":1.87,"distinct_type":"Bottom","rt":null,"stimulus":"Stimuli_Rocks480/M_Slate_03.png","response":null,"trial_type":"image-keyboard-response","trial_index":57,"plugin_version":"2.1.0","time_elapsed":170819,"subject_id":"92536","group":"Group1","condition":"3_Rep","full_date":"2026-02-27T03:21:15.964Z","date":"2026-02-27","time":"03:21:15"},{"rt":null,"stimulus":"<p style=\"font-size: 50px; margin: 0; text-align: center;\">+</p>","response":null,"trial_type":"html-keyboard-response","trial_index":58,"plugin_version":"2.1.0","time_elapsed":171835,"subject_id":"92536","group":"Group1","condition":"3_Rep","full_date":"2026-02-27T03:21:15.964Z","date":"2026-02-27","time":"03:21:15"},{"task":"memory_phase","broad_category":"I","image_png":"I_Gabbro_11.png","image_id":59,"category_name":"Gabbro","category":4,"distinct_rating":1.99,"distinct_type":"Bottom","rt":null,"stimulus":"Stimuli_Rocks480/I_Gabbro_11.png","response":null,"trial_type":"image-keyboard-response","trial_index":59,"plugin_version":"2.1.0","time_elapsed":174342,"subject_id":"92536","group":"Group1","condition":"3_Rep","full_date":"2026-02-27T03:21:15.964Z","date":"2026-02-27","time":"03:21:15"},{"rt":null,"stimulus":"<p style=\"font-size: 50px; margin: 0; text-align: center;\">+</p>","response":null,"trial_type":"html-keyboard-response","trial_index":60,"plugin_version":"2.1.0","time_elapsed":175353,"subject_id":"92536","group":"Group1","condition":"3_Rep","full_date":"2026-02-27T03:21:15.964Z","date":"2026-02-27","time":"03:21:15"},{"task":"memory_phase","broad_category":"I","image_png":"I_Diorite_03.png","image_id":35,"category_name":"Diorite","category":3,"distinct_rating":3.14,"distinct_type":"Bottom","rt":null,"stimulus":"Stimuli_Rocks480/I_Diorite_03.png","response":null,"trial_type":"image-keyboard-response","trial_index":61,"plugin_version":"2.1.0","time_elapsed":177863,"subject_id":"92536","group":"Group1","condition":"3_Rep","full_date":"2026-02-27T03:21:15.964Z","date":"2026-02-27","time":"03:21:15"},{"rt":null,"stimulus":"<p style=\"font-size: 50px; margin: 0; text-align: center;\">+</p>","response":null,"trial_type":"html-keyboard-response","trial_index":62,"plugin_version":"2.1.0","time_elapsed":178873,"subject_id":"92536","group":"Group1","condition":"3_Rep","full_date":"2026-02-27T03:21:15.964Z","date":"2026-02-27","time":"03:21:15"},{"task":"memory_phase","broad_category":"M","image_png":"M_Quartzite_08.png","image_id":280,"category_name":"Quartzite","category":18,"distinct_rating":2.15,"distinct_type":"Bottom","rt":null,"stimulus":"Stimuli_Rocks480/M_Quartzite_08.png","response":null,"trial_type":"image-keyboard-response","trial_index":63,"plugin_version":"2.1.0","time_elapsed":181388,"subject_id":"92536","group":"Group1","condition":"3_Rep","full_date":"2026-02-27T03:21:15.964Z","date":"2026-02-27","time":"03:21:15"},{"rt":null,"stimulus":"<p style=\"font-size: 50px; margin: 0; text-align: center;\">+</p>","response":null,"trial_type":"html-keyboard-response","trial_index":64,"plugin_version":"2.1.0","time_elapsed":182400,"subject_id":"92536","group":"Group1","condition":"3_Rep","full_date":"2026-02-27T03:21:15.964Z","date":"2026-02-27","time":"03:21:15"},{"task":"memory_phase","broad_category":"M","image_png":"M_Phyllite_10.png","image_id":266,"category_name":"Phyllite","category":17,"distinct_rating":2.6,"distinct_type":"Bottom","rt":null,"stimulus":"Stimuli_Rocks480/M_Phyllite_10.png","response":null,"trial_type":"image-keyboard-response","trial_index":65,"plugin_version":"2.1.0","time_elapsed":184917,"subject_id":"92536","group":"Group1","condition":"3_Rep","full_date":"2026-02-27T03:21:15.964Z","date":"2026-02-27","time":"03:21:15"},{"rt":null,"stimulus":"<p style=\"font-size: 50px; margin: 0; text-align: center;\">+</p>","response":null,"trial_type":"html-keyboard-response","trial_index":66,"plugin_version":"2.1.0","time_elapsed":185929,"subject_id":"92536","group":"Group1","condition":"3_Rep","full_date":"2026-02-27T03:21:15.964Z","date":"2026-02-27","time":"03:21:15"},{"task":"memory_phase","broad_category":"S","image_png":"S_Dolomite_14.png","image_id":398,"category_name":"Dolomite","category":25,"distinct_rating":1.43,"distinct_type":"Bottom","rt":null,"stimulus":"Stimuli_Rocks480/S_Dolomite_14.png","response":null,"trial_type":"image-keyboard-response","trial_index":67,"plugin_version":"2.1.0","time_elapsed":188442,"subject_id":"92536","group":"Group1","condition":"3_Rep","full_date":"2026-02-27T03:21:15.964Z","date":"2026-02-27","time":"03:21:15"},{"rt":null,"stimulus":"<p style=\"font-size: 50px; margin: 0; text-align: center;\">+</p>","response":null,"trial_type":"html-keyboard-response","trial_index":68,"plugin_version":"2.1.0","time_elapsed":189455,"subject_id":"92536","group":"Group1","condition":"3_Rep","full_date":"2026-02-27T03:21:15.964Z","date":"2026-02-27","time":"03:21:15"},{"task":"memory_phase","broad_category":"I","image_png":"I_Gabbro_16.png","image_id":64,"category_name":"Gabbro","category":4,"distinct_rating":2.52,"distinct_type":"Bottom","rt":null,"stimulus":"Stimuli_Rocks480/I_Gabbro_16.png","response":null,"trial_type":"image-keyboard-response","trial_index":69,"plugin_version":"2.1.0","time_elapsed":191959,"subject_id":"92536","group":"Group1","condition":"3_Rep","full_date":"2026-02-27T03:21:15.964Z","date":"2026-02-27","time":"03:21:15"},{"rt":null,"stimulus":"<p style=\"font-size: 50px; margin: 0; text-align: center;\">+</p>","response":null,"trial_type":"html-keyboard-response","trial_index":70,"plugin_version":"2.1.0","time_elapsed":192964,"subject_id":"92536","group":"Group1","condition":"3_Rep","full_date":"2026-02-27T03:21:15.964Z","date":"2026-02-27","time":"03:21:15"},{"task":"memory_phase","broad_category":"S","image_png":"S_Rock Salt_01.png","image_id":433,"category_name":"Rock Salt","category":28,"distinct_rating":7.18,"distinct_type":"Top","rt":null,"stimulus":"Stimuli_Rocks480/S_Rock Salt_01.png","response":null,"trial_type":"image-keyboard-response","trial_index":71,"plugin_version":"2.1.0","time_elapsed":195470,"subject_id":"92536","group":"Group1","condition":"3_Rep","full_date":"2026-02-27T03:21:15.964Z","date":"2026-02-27","time":"03:21:15"},{"rt":null,"stimulus":"<p style=\"font-size: 50px; margin: 0; text-align: center;\">+</p>","response":null,"trial_type":"html-keyboard-response","trial_index":72,"plugin_version":"2.1.0","time_elapsed":196472,"subject_id":"92536","group":"Group1","condition":"3_Rep","full_date":"2026-02-27T03:21:15.964Z","date":"2026-02-27","time":"03:21:15"},{"task":"memory_phase","broad_category":"I","image_png":"I_Gabbro_08.png","image_id":56,"category_name":"Gabbro","category":4,"distinct_rating":3.02,"distinct_type":"Bottom","rt":null,"stimulus":"Stimuli_Rocks480/I_Gabbro_08.png","response":null,"trial_type":"image-keyboard-response","trial_index":73,"plugin_version":"2.1.0","time_elapsed":198985,"subject_id":"92536","group":"Group1","condition":"3_Rep","full_date":"2026-02-27T03:21:15.964Z","date":"2026-02-27","time":"03:21:15"},{"rt":null,"stimulus":"<p style=\"font-size: 50px; margin: 0; text-align: center;\">+</p>","response":null,"trial_type":"html-keyboard-response","trial_index":74,"plugin_version":"2.1.0","time_elapsed":199997,"subject_id":"92536","group":"Group1","condition":"3_Rep","full_date":"2026-02-27T03:21:15.964Z","date":"2026-02-27","time":"03:21:15"},{"task":"memory_phase","broad_category":"M","image_png":"M_Gneiss_13.png","image_id":205,"category_name":"Gneiss","category":13,"distinct_rating":3.26,"distinct_type":"Bottom","rt":null,"stimulus":"Stimuli_Rocks480/M_Gneiss_13.png","response":null,"trial_type":"image-keyboard-response","trial_index":75,"plugin_version":"2.1.0","time_elapsed":202507,"subject_id":"92536","group":"Group1","condition":"3_Rep","full_date":"2026-02-27T03:21:15.964Z","date":"2026-02-27","time":"03:21:15"},{"rt":null,"stimulus":"<p style=\"font-size: 50px; margin: 0; text-align: center;\">+</p>","response":null,"trial_type":"html-keyboard-response","trial_index":76,"plugin_version":"2.1.0","time_elapsed":203518,"subject_id":"92536","group":"Group1","condition":"3_Rep","full_date":"2026-02-27T03:21:15.964Z","date":"2026-02-27","time":"03:21:15"},{"task":"memory_phase","broad_category":"I","image_png":"I_Pumice_12.png","image_id":140,"category_name":"Pumice","category":9,"distinct_rating":2.97,"distinct_type":"Bottom","rt":null,"stimulus":"Stimuli_Rocks480/I_Pumice_12.png","response":null,"trial_type":"image-keyboard-response","trial_index":77,"plugin_version":"2.1.0","time_elapsed":206024,"subject_id":"92536","group":"Group1","condition":"3_Rep","full_date":"2026-02-27T03:21:15.964Z","date":"2026-02-27","time":"03:21:15"},{"rt":null,"stimulus":"<p style=\"font-size: 50px; margin: 0; text-align: center;\">+</p>","response":null,"trial_type":"html-keyboard-response","trial_index":78,"plugin_version":"2.1.0","time_elapsed":207039,"subject_id":"92536","group":"Group1","condition":"3_Rep","full_date":"2026-02-27T03:21:15.964Z","date":"2026-02-27","time":"03:21:15"},{"task":"memory_phase","broad_category":"S","image_png":"S_Sandstone_16.png","image_id":464,"category_name":"Sandstone","category":29,"distinct_rating":1.93,"distinct_type":"Bottom","rt":null,"stimulus":"Stimuli_Rocks480/S_Sandstone_16.png","response":null,"trial_type":"image-keyboard-response","trial_index":79,"plugin_version":"2.1.0","time_elapsed":209542,"subject_id":"92536","group":"Group1","condition":"3_Rep","full_date":"2026-02-27T03:21:15.964Z","date":"2026-02-27","time":"03:21:15"},{"rt":null,"stimulus":"<p style=\"font-size: 50px; margin: 0; text-align: center;\">+</p>","response":null,"trial_type":"html-keyboard-response","trial_index":80,"plugin_version":"2.1.0","time_elapsed":210544,"subject_id":"92536","group":"Group1","condition":"3_Rep","full_date":"2026-02-27T03:21:15.964Z","date":"2026-02-27","time":"03:21:15"},{"task":"memory_phase","broad_category":"S","image_png":"S_Conglomerate_05.png","image_id":373,"category_name":"Conglomerate","category":24,"distinct_rating":7.32,"distinct_type":"Top","rt":null,"stimulus":"Stimuli_Rocks480/S_Conglomerate_05.png","response":null,"trial_type":"image-keyboard-response","trial_index":81,"plugin_version":"2.1.0","time_elapsed":213049,"subject_id":"92536","group":"Group1","condition":"3_Rep","full_date":"2026-02-27T03:21:15.964Z","date":"2026-02-27","time":"03:21:15"},{"rt":null,"stimulus":"<p style=\"font-size: 50px; margin: 0; text-align: center;\">+</p>","response":null,"trial_type":"html-keyboard-response","trial_index":82,"plugin_version":"2.1.0","time_elapsed":214066,"subject_id":"92536","group":"Group1","condition":"3_Rep","full_date":"2026-02-27T03:21:15.964Z","date":"2026-02-27","time":"03:21:15"},{"task":"memory_phase","broad_category":"I","image_png":"I_Pegmatite_10.png","image_id":106,"category_name":"Pegmatite","category":7,"distinct_rating":7.66,"distinct_type":"Top","rt":null,"stimulus":"Stimuli_Rocks480/I_Pegmatite_10.png","response":null,"trial_type":"image-keyboard-response","trial_index":83,"plugin_version":"2.1.0","time_elapsed":216573,"subject_id":"92536","group":"Group1","condition":"3_Rep","full_date":"2026-02-27T03:21:15.964Z","date":"2026-02-27","time":"03:21:15"},{"rt":null,"stimulus":"<p style=\"font-size: 50px; margin: 0; text-align: center;\">+</p>","response":null,"trial_type":"html-keyboard-response","trial_index":84,"plugin_version":"2.1.0","time_elapsed":217579,"subject_id":"92536","group":"Group1","condition":"3_Rep","full_date":"2026-02-27T03:21:15.964Z","date":"2026-02-27","time":"03:21:15"},{"task":"memory_phase","broad_category":"S","image_png":"S_Dolomite_12.png","image_id":396,"category_name":"Dolomite","category":25,"distinct_rating":1.85,"distinct_type":"Bottom","rt":null,"stimulus":"Stimuli_Rocks480/S_Dolomite_12.png","response":null,"trial_type":"image-keyboard-response","trial_index":85,"plugin_version":"2.1.0","time_elapsed":220084,"subject_id":"92536","group":"Group1","condition":"3_Rep","full_date":"2026-02-27T03:21:15.964Z","date":"2026-02-27","time":"03:21:15"},{"rt":null,"stimulus":"<p style=\"font-size: 50px; margin: 0; text-align: center;\">+</p>","response":null,"trial_type":"html-keyboard-response","trial_index":86,"plugin_version":"2.1.0","time_elapsed":221099,"subject_id":"92536","group":"Group1","condition":"3_Rep","full_date":"2026-02-27T03:21:15.964Z","date":"2026-02-27","time":"03:21:15"},{"task":"memory_phase","broad_category":"I","image_png":"I_Rhyolite_14.png","image_id":158,"category_name":"Rhyolite","category":10,"distinct_rating":2.59,"distinct_type":"Bottom","rt":null,"stimulus":"Stimuli_Rocks480/I_Rhyolite_14.png","response":null,"trial_type":"image-keyboard-response","trial_index":87,"plugin_version":"2.1.0","time_elapsed":223609,"subject_id":"92536","group":"Group1","condition":"3_Rep","full_date":"2026-02-27T03:21:15.964Z","date":"2026-02-27","time":"03:21:15"},{"rt":null,"stimulus":"<p style=\"font-size: 50px; margin: 0; text-align: center;\">+</p>","response":null,"trial_type":"html-keyboard-response","trial_index":88,"plugin_version":"2.1.0","time_elapsed":224620,"subject_id":"92536","group":"Group1","condition":"3_Rep","full_date":"2026-02-27T03:21:15.964Z","date":"2026-02-27","time":"03:21:15"},{"task":"memory_phase","broad_category":"I","image_png":"I_Andesite_06.png","image_id":6,"category_name":"Andesite","category":1,"distinct_rating":3.17,"distinct_type":"Bottom","rt":null,"stimulus":"Stimuli_Rocks480/I_Andesite_06.png","response":null,"trial_type":"image-keyboard-response","trial_index":89,"plugin_version":"2.1.0","time_elapsed":227134,"subject_id":"92536","group":"Group1","condition":"3_Rep","full_date":"2026-02-27T03:21:15.964Z","date":"2026-02-27","time":"03:21:15"},{"rt":null,"stimulus":"<p style=\"font-size: 50px; margin: 0; text-align: center;\">+</p>","response":null,"trial_type":"html-keyboard-response","trial_index":90,"plugin_version":"2.1.0","time_elapsed":228135,"subject_id":"92536","group":"Group1","condition":"3_Rep","full_date":"2026-02-27T03:21:15.964Z","date":"2026-02-27","time":"03:21:15"},{"task":"memory_phase","broad_category":"M","image_png":"M_Gneiss_06.png","image_id":198,"category_name":"Gneiss","category":13,"distinct_rating":2.65,"distinct_type":"Bottom","rt":null,"stimulus":"Stimuli_Rocks480/M_Gneiss_06.png","response":null,"trial_type":"image-keyboard-response","trial_index":91,"plugin_version":"2.1.0","time_elapsed":230649,"subject_id":"92536","group":"Group1","condition":"3_Rep","full_date":"2026-02-27T03:21:15.964Z","date":"2026-02-27","time":"03:21:15"},{"rt":null,"stimulus":"<p style=\"font-size: 50px; margin: 0; text-align: center;\">+</p>","response":null,"trial_type":"html-keyboard-response","trial_index":92,"plugin_version":"2.1.0","time_elapsed":231650,"subject_id":"92536","group":"Group1","condition":"3_Rep","full_date":"2026-02-27T03:21:15.964Z","date":"2026-02-27","time":"03:21:15"},{"task":"memory_phase","broad_category":"I","image_png":"I_Basalt_09.png","image_id":25,"category_name":"Basalt","category":2,"distinct_rating":1.89,"distinct_type":"Bottom","rt":null,"stimulus":"Stimuli_Rocks480/I_Basalt_09.png","response":null,"trial_type":"image-keyboard-response","trial_index":93,"plugin_version":"2.1.0","time_elapsed":234162,"subject_id":"92536","group":"Group1","condition":"3_Rep","full_date":"2026-02-27T03:21:15.964Z","date":"2026-02-27","time":"03:21:15"},{"rt":null,"stimulus":"<p style=\"font-size: 50px; margin: 0; text-align: center;\">+</p>","response":null,"trial_type":"html-keyboard-response","trial_index":94,"plugin_version":"2.1.0","time_elapsed":235170,"subject_id":"92536","group":"Group1","condition":"3_Rep","full_date":"2026-02-27T03:21:15.964Z","date":"2026-02-27","time":"03:21:15"},{"task":"memory_phase","broad_category":"S","image_png":"S_Shale_08.png","image_id":472,"category_name":"Shale","category":30,"distinct_rating":2.55,"distinct_type":"Bottom","rt":null,"stimulus":"Stimuli_Rocks480/S_Shale_08.png","response":null,"trial_type":"image-keyboard-response","trial_index":95,"plugin_version":"2.1.0","time_elapsed":237673,"subject_id":"92536","group":"Group1","condition":"3_Rep","full_date":"2026-02-27T03:21:15.964Z","date":"2026-02-27","time":"03:21:15"},{"rt":null,"stimulus":"<p style=\"font-size: 50px; margin: 0; text-align: center;\">+</p>","response":null,"trial_type":"html-keyboard-response","trial_index":96,"plugin_version":"2.1.0","time_elapsed":238684,"subject_id":"92536","group":"Group1","condition":"3_Rep","full_date":"2026-02-27T03:21:15.964Z","date":"2026-02-27","time":"03:21:15"},{"task":"memory_phase","broad_category":"I","image_png":"I_Andesite_08.png","image_id":8,"category_name":"Andesite","category":1,"distinct_rating":1.95,"distinct_type":"Bottom","rt":null,"stimulus":"Stimuli_Rocks480/I_Andesite_08.png","response":null,"trial_type":"image-keyboard-response","trial_index":97,"plugin_version":"2.1.0","time_elapsed":241200,"subject_id":"92536","group":"Group1","condition":"3_Rep","full_date":"2026-02-27T03:21:15.964Z","date":"2026-02-27","time":"03:21:15"},{"rt":null,"stimulus":"<p style=\"font-size: 50px; margin: 0; text-align: center;\">+</p>","response":null,"trial_type":"html-keyboard-response","trial_index":98,"plugin_version":"2.1.0","time_elapsed":242206,"subject_id":"92536","group":"Group1","condition":"3_Rep","full_date":"2026-02-27T03:21:15.964Z","date":"2026-02-27","time":"03:21:15"},{"task":"memory_phase","broad_category":"S","image_png":"S_Shale_01.png","image_id":465,"category_name":"Shale","category":30,"distinct_rating":2.7,"distinct_type":"Bottom","rt":null,"stimulus":"Stimuli_Rocks480/S_Shale_01.png","response":null,"trial_type":"image-keyboard-response","trial_index":99,"plugin_version":"2.1.0","time_elapsed":244719,"subject_id":"92536","group":"Group1","condition":"3_Rep","full_date":"2026-02-27T03:21:15.964Z","date":"2026-02-27","time":"03:21:15"},{"rt":null,"stimulus":"<p style=\"font-size: 50px; margin: 0; text-align: center;\">+</p>","response":null,"trial_type":"html-keyboard-response","trial_index":100,"plugin_version":"2.1.0","time_elapsed":245729,"subject_id":"92536","group":"Group1","condition":"3_Rep","full_date":"2026-02-27T03:21:15.964Z","date":"2026-02-27","time":"03:21:15"},{"task":"memory_phase","broad_category":"I","image_png":"I_Basalt_01.png","image_id":17,"category_name":"Basalt","category":2,"distinct_rating":1.92,"distinct_type":"Bottom","rt":null,"stimulus":"Stimuli_Rocks480/I_Basalt_01.png","response":null,"trial_type":"image-keyboard-response","trial_index":101,"plugin_version":"2.1.0","time_elapsed":248232,"subject_id":"92536","group":"Group1","condition":"3_Rep","full_date":"2026-02-27T03:21:15.964Z","date":"2026-02-27","time":"03:21:15"},{"rt":null,"stimulus":"<p style=\"font-size: 50px; margin: 0; text-align: center;\">+</p>","response":null,"trial_type":"html-keyboard-response","trial_index":102,"plugin_version":"2.1.0","time_elapsed":249234,"subject_id":"92536","group":"Group1","condition":"3_Rep","full_date":"2026-02-27T03:21:15.964Z","date":"2026-02-27","time":"03:21:15"},{"task":"memory_phase","broad_category":"S","image_png":"S_Shale_12.png","image_id":476,"category_name":"Shale","category":30,"distinct_rating":2.48,"distinct_type":"Bottom","rt":null,"stimulus":"Stimuli_Rocks480/S_Shale_12.png","response":null,"trial_type":"image-keyboard-response","trial_index":103,"plugin_version":"2.1.0","time_elapsed":251742,"subject_id":"92536","group":"Group1","condition":"3_Rep","full_date":"2026-02-27T03:21:15.964Z","date":"2026-02-27","time":"03:21:15"},{"rt":null,"stimulus":"<p style=\"font-size: 50px; margin: 0; text-align: center;\">+</p>","response":null,"trial_type":"html-keyboard-response","trial_index":104,"plugin_version":"2.1.0","time_elapsed":252755,"subject_id":"92536","group":"Group1","condition":"3_Rep","full_date":"2026-02-27T03:21:15.964Z","date":"2026-02-27","time":"03:21:15"},{"task":"memory_phase","broad_category":"I","image_png":"I_Pumice_11.png","image_id":139,"category_name":"Pumice","category":9,"distinct_rating":1.74,"distinct_type":"Bottom","rt":null,"stimulus":"Stimuli_Rocks480/I_Pumice_11.png","response":null,"trial_type":"image-keyboard-response","trial_index":105,"plugin_version":"2.1.0","time_elapsed":255266,"subject_id":"92536","group":"Group1","condition":"3_Rep","full_date":"2026-02-27T03:21:15.964Z","date":"2026-02-27","time":"03:21:15"},{"rt":9267,"stimulus":"<p style=\"max-width: 760px; margin: auto; font-size: 35px; line-height: 1.5;\">\n                You have completed 1 study phase. \n                Now, we'll show you all the images again 2 more times.\n                <br><br>Press SPACE to continue\n              </p>","response":" ","trial_type":"html-keyboard-response","trial_index":106,"plugin_version":"2.1.0","time_elapsed":264534,"subject_id":"92536","group":"Group1","condition":"3_Rep","full_date":"2026-02-27T03:21:15.964Z","date":"2026-02-27","time":"03:21:15"},{"rt":null,"stimulus":"<p style=\"font-size: 50px; margin: 0; text-align: center;\">+</p>","response":null,"trial_type":"html-keyboard-response","trial_index":107,"plugin_version":"2.1.0","time_elapsed":265550,"subject_id":"92536","group":"Group1","condition":"3_Rep","full_date":"2026-02-27T03:21:15.964Z","date":"2026-02-27","time":"03:21:15"},{"task":"memory_phase","broad_category":"M","image_png":"M_Marble_16.png","image_id":240,"category_name":"Marble","category":15,"distinct_rating":2.57,"distinct_type":"Bottom","rt":null,"stimulus":"Stimuli_Rocks480/M_Marble_16.png","response":null,"trial_type":"image-keyboard-response","trial_index":108,"plugin_version":"2.1.0","time_elapsed":268067,"subject_id":"92536","group":"Group1","condition":"3_Rep","full_date":"2026-02-27T03:21:15.964Z","date":"2026-02-27","time":"03:21:15"},{"rt":null,"stimulus":"<p style=\"font-size: 50px; margin: 0; text-align: center;\">+</p>","response":null,"trial_type":"html-keyboard-response","trial_index":109,"plugin_version":"2.1.0","time_elapsed":269073,"subject_id":"92536","group":"Group1","condition":"3_Rep","full_date":"2026-02-27T03:21:15.964Z","date":"2026-02-27","time":"03:21:15"},{"task":"memory_phase","broad_category":"I","image_png":"I_Pumice_11.png","image_id":139,"category_name":"Pumice","category":9,"distinct_rating":1.74,"distinct_type":"Bottom","rt":null,"stimulus":"Stimuli_Rocks480/I_Pumice_11.png","response":null,"trial_type":"image-keyboard-response","trial_index":110,"plugin_version":"2.1.0","time_elapsed":271583,"subject_id":"92536","group":"Group1","condition":"3_Rep","full_date":"2026-02-27T03:21:15.964Z","date":"2026-02-27","time":"03:21:15"},{"rt":null,"stimulus":"<p style=\"font-size: 50px; margin: 0; text-align: center;\">+</p>","response":null,"trial_type":"html-keyboard-response","trial_index":111,"plugin_version":"2.1.0","time_elapsed":272585,"subject_id":"92536","group":"Group1","condition":"3_Rep","full_date":"2026-02-27T03:21:15.964Z","date":"2026-02-27","time":"03:21:15"},{"task":"memory_phase","broad_category":"M","image_png":"M_Gneiss_05.png","image_id":197,"category_name":"Gneiss","category":13,"distinct_rating":2.97,"distinct_type":"Bottom","rt":null,"stimulus":"Stimuli_Rocks480/M_Gneiss_05.png","response":null,"trial_type":"image-keyboard-response","trial_index":112,"plugin_version":"2.1.0","time_elapsed":275088,"subject_id":"92536","group":"Group1","condition":"3_Rep","full_date":"2026-02-27T03:21:15.964Z","date":"2026-02-27","time":"03:21:15"},{"rt":null,"stimulus":"<p style=\"font-size: 50px; margin: 0; text-align: center;\">+</p>","response":null,"trial_type":"html-keyboard-response","trial_index":113,"plugin_version":"2.1.0","time_elapsed":276100,"subject_id":"92536","group":"Group1","condition":"3_Rep","full_date":"2026-02-27T03:21:15.964Z","date":"2026-02-27","time":"03:21:15"},{"task":"memory_phase","broad_category":"S","image_png":"S_Shale_12.png","image_id":476,"category_name":"Shale","category":30,"distinct_rating":2.48,"distinct_type":"Bottom","rt":null,"stimulus":"Stimuli_Rocks480/S_Shale_12.png","response":null,"trial_type":"image-keyboard-response","trial_index":114,"plugin_version":"2.1.0","time_elapsed":278612,"subject_id":"92536","group":"Group1","condition":"3_Rep","full_date":"2026-02-27T03:21:15.964Z","date":"2026-02-27","time":"03:21:15"},{"rt":null,"stimulus":"<p style=\"font-size: 50px; margin: 0; text-align: center;\">+</p>","response":null,"trial_type":"html-keyboard-response","trial_index":115,"plugin_version":"2.1.0","time_elapsed":279613,"subject_id":"92536","group":"Group1","condition":"3_Rep","full_date":"2026-02-27T03:21:15.964Z","date":"2026-02-27","time":"03:21:15"},{"task":"memory_phase","broad_category":"S","image_png":"S_Rock Salt_01.png","image_id":433,"category_name":"Rock Salt","category":28,"distinct_rating":7.18,"distinct_type":"Top","rt":null,"stimulus":"Stimuli_Rocks480/S_Rock Salt_01.png","response":null,"trial_type":"image-keyboard-response","trial_index":116,"plugin_version":"2.1.0","time_elapsed":282128,"subject_id":"92536","group":"Group1","condition":"3_Rep","full_date":"2026-02-27T03:21:15.964Z","date":"2026-02-27","time":"03:21:15"},{"rt":null,"stimulus":"<p style=\"font-size: 50px; margin: 0; text-align: center;\">+</p>","response":null,"trial_type":"html-keyboard-response","trial_index":117,"plugin_version":"2.1.0","time_elapsed":283139,"subject_id":"92536","group":"Group1","condition":"3_Rep","full_date":"2026-02-27T03:21:15.964Z","date":"2026-02-27","time":"03:21:15"},{"task":"memory_phase","broad_category":"M","image_png":"M_Gneiss_13.png","image_id":205,"category_name":"Gneiss","category":13,"distinct_rating":3.26,"distinct_type":"Bottom","rt":null,"stimulus":"Stimuli_Rocks480/M_Gneiss_13.png","response":null,"trial_type":"image-keyboard-response","trial_index":118,"plugin_version":"2.1.0","time_elapsed":285642,"subject_id":"92536","group":"Group1","condition":"3_Rep","full_date":"2026-02-27T03:21:15.964Z","date":"2026-02-27","time":"03:21:15"},{"rt":null,"stimulus":"<p style=\"font-size: 50px; margin: 0; text-align: center;\">+</p>","response":null,"trial_type":"html-keyboard-response","trial_index":119,"plugin_version":"2.1.0","time_elapsed":286644,"subject_id":"92536","group":"Group1","condition":"3_Rep","full_date":"2026-02-27T03:21:15.964Z","date":"2026-02-27","time":"03:21:15"},{"task":"memory_phase","broad_category":"I","image_png":"I_Rhyolite_11.png","image_id":155,"category_name":"Rhyolite","category":10,"distinct_rating":1.73,"distinct_type":"Bottom","rt":null,"stimulus":"Stimuli_Rocks480/I_Rhyolite_11.png","response":null,"trial_type":"image-keyboard-response","trial_index":120,"plugin_version":"2.1.0","time_elapsed":289160,"subject_id":"92536","group":"Group1","condition":"3_Rep","full_date":"2026-02-27T03:21:15.964Z","date":"2026-02-27","time":"03:21:15"},{"rt":null,"stimulus":"<p style=\"font-size: 50px; margin: 0; text-align: center;\">+</p>","response":null,"trial_type":"html-keyboard-response","trial_index":121,"plugin_version":"2.1.0","time_elapsed":290171,"subject_id":"92536","group":"Group1","condition":"3_Rep","full_date":"2026-02-27T03:21:15.964Z","date":"2026-02-27","time":"03:21:15"},{"task":"memory_phase","broad_category":"M","image_png":"M_Marble_04.png","image_id":228,"category_name":"Marble","category":15,"distinct_rating":3.15,"distinct_type":"Bottom","rt":null,"stimulus":"Stimuli_Rocks480/M_Marble_04.png","response":null,"trial_type":"image-keyboard-response","trial_index":122,"plugin_version":"2.1.0","time_elapsed":292684,"subject_id":"92536","group":"Group1","condition":"3_Rep","full_date":"2026-02-27T03:21:15.964Z","date":"2026-02-27","time":"03:21:15"},{"rt":null,"stimulus":"<p style=\"font-size: 50px; margin: 0; text-align: center;\">+</p>","response":null,"trial_type":"html-keyboard-response","trial_index":123,"plugin_version":"2.1.0","time_elapsed":293692,"subject_id":"92536","group":"Group1","condition":"3_Rep","full_date":"2026-02-27T03:21:15.964Z","date":"2026-02-27","time":"03:21:15"},{"task":"memory_phase","broad_category":"I","image_png":"I_Diorite_05.png","image_id":37,"category_name":"Diorite","category":3,"distinct_rating":3.08,"distinct_type":"Bottom","rt":null,"stimulus":"Stimuli_Rocks480/I_Diorite_05.png","response":null,"trial_type":"image-keyboard-response","trial_index":124,"plugin_version":"2.1.0","time_elapsed":296198,"subject_id":"92536","group":"Group1","condition":"3_Rep","full_date":"2026-02-27T03:21:15.964Z","date":"2026-02-27","time":"03:21:15"},{"rt":null,"stimulus":"<p style=\"font-size: 50px; margin: 0; text-align: center;\">+</p>","response":null,"trial_type":"html-keyboard-response","trial_index":125,"plugin_version":"2.1.0","time_elapsed":297203,"subject_id":"92536","group":"Group1","condition":"3_Rep","full_date":"2026-02-27T03:21:15.964Z","date":"2026-02-27","time":"03:21:15"},{"task":"memory_phase","broad_category":"I","image_png":"I_Rhyolite_14.png","image_id":158,"category_name":"Rhyolite","category":10,"distinct_rating":2.59,"distinct_type":"Bottom","rt":null,"stimulus":"Stimuli_Rocks480/I_Rhyolite_14.png","response":null,"trial_type":"image-keyboard-response","trial_index":126,"plugin_version":"2.1.0","time_elapsed":299713,"subject_id":"92536","group":"Group1","condition":"3_Rep","full_date":"2026-02-27T03:21:15.964Z","date":"2026-02-27","time":"03:21:15"},{"rt":null,"stimulus":"<p style=\"font-size: 50px; margin: 0; text-align: center;\">+</p>","response":null,"trial_type":"html-keyboard-response","trial_index":127,"plugin_version":"2.1.0","time_elapsed":300720,"subject_id":"92536","group":"Group1","condition":"3_Rep","full_date":"2026-02-27T03:21:15.964Z","date":"2026-02-27","time":"03:21:15"},{"task":"memory_phase","broad_category":"I","image_png":"I_Basalt_02.png","image_id":18,"category_name":"Basalt","category":2,"distinct_rating":1.84,"distinct_type":"Bottom","rt":null,"stimulus":"Stimuli_Rocks480/I_Basalt_02.png","response":null,"trial_type":"image-keyboard-response","trial_index":128,"plugin_version":"2.1.0","time_elapsed":303223,"subject_id":"92536","group":"Group1","condition":"3_Rep","full_date":"2026-02-27T03:21:15.964Z","date":"2026-02-27","time":"03:21:15"},{"rt":null,"stimulus":"<p style=\"font-size: 50px; margin: 0; text-align: center;\">+</p>","response":null,"trial_type":"html-keyboard-response","trial_index":129,"plugin_version":"2.1.0","time_elapsed":304233,"subject_id":"92536","group":"Group1","condition":"3_Rep","full_date":"2026-02-27T03:21:15.964Z","date":"2026-02-27","time":"03:21:15"},{"task":"memory_phase","broad_category":"S","image_png":"S_Conglomerate_05.png","image_id":373,"category_name":"Conglomerate","category":24,"distinct_rating":7.32,"distinct_type":"Top","rt":null,"stimulus":"Stimuli_Rocks480/S_Conglomerate_05.png","response":null,"trial_type":"image-keyboard-response","trial_index":130,"plugin_version":"2.1.0","time_elapsed":306746,"subject_id":"92536","group":"Group1","condition":"3_Rep","full_date":"2026-02-27T03:21:15.964Z","date":"2026-02-27","time":"03:21:15"},{"rt":null,"stimulus":"<p style=\"font-size: 50px; margin: 0; text-align: center;\">+</p>","response":null,"trial_type":"html-keyboard-response","trial_index":131,"plugin_version":"2.1.0","time_elapsed":307754,"subject_id":"92536","group":"Group1","condition":"3_Rep","full_date":"2026-02-27T03:21:15.964Z","date":"2026-02-27","time":"03:21:15"},{"task":"memory_phase","broad_category":"S","image_png":"S_Breccia_11.png","image_id":347,"category_name":"Breccia","category":22,"distinct_rating":6.7,"distinct_type":"Top","rt":null,"stimulus":"Stimuli_Rocks480/S_Breccia_11.png","response":null,"trial_type":"image-keyboard-response","trial_index":132,"plugin_version":"2.1.0","time_elapsed":310270,"subject_id":"92536","group":"Group1","condition":"3_Rep","full_date":"2026-02-27T03:21:15.964Z","date":"2026-02-27","time":"03:21:15"},{"rt":null,"stimulus":"<p style=\"font-size: 50px; margin: 0; text-align: center;\">+</p>","response":null,"trial_type":"html-keyboard-response","trial_index":133,"plugin_version":"2.1.0","time_elapsed":311276,"subject_id":"92536","group":"Group1","condition":"3_Rep","full_date":"2026-02-27T03:21:15.964Z","date":"2026-02-27","time":"03:21:15"},{"task":"memory_phase","broad_category":"I","image_png":"I_Diorite_04.png","image_id":36,"category_name":"Diorite","category":3,"distinct_rating":2.98,"distinct_type":"Bottom","rt":null,"stimulus":"Stimuli_Rocks480/I_Diorite_04.png","response":null,"trial_type":"image-keyboard-response","trial_index":134,"plugin_version":"2.1.0","time_elapsed":313782,"subject_id":"92536","group":"Group1","condition":"3_Rep","full_date":"2026-02-27T03:21:15.964Z","date":"2026-02-27","time":"03:21:15"},{"rt":null,"stimulus":"<p style=\"font-size: 50px; margin: 0; text-align: center;\">+</p>","response":null,"trial_type":"html-keyboard-response","trial_index":135,"plugin_version":"2.1.0","time_elapsed":314798,"subject_id":"92536","group":"Group1","condition":"3_Rep","full_date":"2026-02-27T03:21:15.964Z","date":"2026-02-27","time":"03:21:15"},{"task":"memory_phase","broad_category":"S","image_png":"S_Shale_08.png","image_id":472,"category_name":"Shale","category":30,"distinct_rating":2.55,"distinct_type":"Bottom","rt":null,"stimulus":"Stimuli_Rocks480/S_Shale_08.png","response":null,"trial_type":"image-keyboard-response","trial_index":136,"plugin_version":"2.1.0","time_elapsed":317306,"subject_id":"92536","group":"Group1","condition":"3_Rep","full_date":"2026-02-27T03:21:15.964Z","date":"2026-02-27","time":"03:21:15"},{"rt":null,"stimulus":"<p style=\"font-size: 50px; margin: 0; text-align: center;\">+</p>","response":null,"trial_type":"html-keyboard-response","trial_index":137,"plugin_version":"2.1.0","time_elapsed":318317,"subject_id":"92536","group":"Group1","condition":"3_Rep","full_date":"2026-02-27T03:21:15.964Z","date":"2026-02-27","time":"03:21:15"},{"task":"memory_phase","broad_category":"S","image_png":"S_Dolomite_13.png","image_id":397,"category_name":"Dolomite","category":25,"distinct_rating":1.77,"distinct_type":"Bottom","rt":null,"stimulus":"Stimuli_Rocks480/S_Dolomite_13.png","response":null,"trial_type":"image-keyboard-response","trial_index":138,"plugin_version":"2.1.0","time_elapsed":320824,"subject_id":"92536","group":"Group1","condition":"3_Rep","full_date":"2026-02-27T03:21:15.964Z","date":"2026-02-27","time":"03:21:15"},{"rt":null,"stimulus":"<p style=\"font-size: 50px; margin: 0; text-align: center;\">+</p>","response":null,"trial_type":"html-keyboard-response","trial_index":139,"plugin_version":"2.1.0","time_elapsed":321826,"subject_id":"92536","group":"Group1","condition":"3_Rep","full_date":"2026-02-27T03:21:15.964Z","date":"2026-02-27","time":"03:21:15"},{"task":"memory_phase","broad_category":"I","image_png":"I_Pumice_08.png","image_id":136,"category_name":"Pumice","category":9,"distinct_rating":3.1,"distinct_type":"Bottom","rt":null,"stimulus":"Stimuli_Rocks480/I_Pumice_08.png","response":null,"trial_type":"image-keyboard-response","trial_index":140,"plugin_version":"2.1.0","time_elapsed":324329,"subject_id":"92536","group":"Group1","condition":"3_Rep","full_date":"2026-02-27T03:21:15.964Z","date":"2026-02-27","time":"03:21:15"},{"rt":null,"stimulus":"<p style=\"font-size: 50px; margin: 0; text-align: center;\">+</p>","response":null,"trial_type":"html-keyboard-response","trial_index":141,"plugin_version":"2.1.0","time_elapsed":325330,"subject_id":"92536","group":"Group1","condition":"3_Rep","full_date":"2026-02-27T03:21:15.964Z","date":"2026-02-27","time":"03:21:15"},{"task":"memory_phase","broad_category":"M","image_png":"M_Quartzite_05.png","image_id":277,"category_name":"Quartzite","category":18,"distinct_rating":2.23,"distinct_type":"Bottom","rt":null,"stimulus":"Stimuli_Rocks480/M_Quartzite_05.png","response":null,"trial_type":"image-keyboard-response","trial_index":142,"plugin_version":"2.1.0","time_elapsed":327834,"subject_id":"92536","group":"Group1","condition":"3_Rep","full_date":"2026-02-27T03:21:15.964Z","date":"2026-02-27","time":"03:21:15"},{"rt":null,"stimulus":"<p style=\"font-size: 50px; margin: 0; text-align: center;\">+</p>","response":null,"trial_type":"html-keyboard-response","trial_index":143,"plugin_version":"2.1.0","time_elapsed":328837,"subject_id":"92536","group":"Group1","condition":"3_Rep","full_date":"2026-02-27T03:21:15.964Z","date":"2026-02-27","time":"03:21:15"},{"task":"memory_phase","broad_category":"I","image_png":"I_Andesite_06.png","image_id":6,"category_name":"Andesite","category":1,"distinct_rating":3.17,"distinct_type":"Bottom","rt":null,"stimulus":"Stimuli_Rocks480/I_Andesite_06.png","response":null,"trial_type":"image-keyboard-response","trial_index":144,"plugin_version":"2.1.0","time_elapsed":331343,"subject_id":"92536","group":"Group1","condition":"3_Rep","full_date":"2026-02-27T03:21:15.964Z","date":"2026-02-27","time":"03:21:15"},{"rt":null,"stimulus":"<p style=\"font-size: 50px; margin: 0; text-align: center;\">+</p>","response":null,"trial_type":"html-keyboard-response","trial_index":145,"plugin_version":"2.1.0","time_elapsed":332349,"subject_id":"92536","group":"Group1","condition":"3_Rep","full_date":"2026-02-27T03:21:15.964Z","date":"2026-02-27","time":"03:21:15"},{"task":"memory_phase","broad_category":"S","image_png":"S_Sandstone_16.png","image_id":464,"category_name":"Sandstone","category":29,"distinct_rating":1.93,"distinct_type":"Bottom","rt":null,"stimulus":"Stimuli_Rocks480/S_Sandstone_16.png","response":null,"trial_type":"image-keyboard-response","trial_index":146,"plugin_version":"2.1.0","time_elapsed":334857,"subject_id":"92536","group":"Group1","condition":"3_Rep","full_date":"2026-02-27T03:21:15.964Z","date":"2026-02-27","time":"03:21:15"},{"rt":null,"stimulus":"<p style=\"font-size: 50px; margin: 0; text-align: center;\">+</p>","response":null,"trial_type":"html-keyboard-response","trial_index":147,"plugin_version":"2.1.0","time_elapsed":335867,"subject_id":"92536","group":"Group1","condition":"3_Rep","full_date":"2026-02-27T03:21:15.964Z","date":"2026-02-27","time":"03:21:15"},{"task":"memory_phase","broad_category":"S","image_png":"S_Chert_10.png","image_id":362,"category_name":"Chert","category":23,"distinct_rating":7.17,"distinct_type":"Top","rt":null,"stimulus":"Stimuli_Rocks480/S_Chert_10.png","response":null,"trial_type":"image-keyboard-response","trial_index":148,"plugin_version":"2.1.0","time_elapsed":338376,"subject_id":"92536","group":"Group1","condition":"3_Rep","full_date":"2026-02-27T03:21:15.964Z","date":"2026-02-27","time":"03:21:15"},{"rt":null,"stimulus":"<p style=\"font-size: 50px; margin: 0; text-align: center;\">+</p>","response":null,"trial_type":"html-keyboard-response","trial_index":149,"plugin_version":"2.1.0","time_elapsed":339378,"subject_id":"92536","group":"Group1","condition":"3_Rep","full_date":"2026-02-27T03:21:15.964Z","date":"2026-02-27","time":"03:21:15"},{"task":"memory_phase","broad_category":"I","image_png":"I_Andesite_10.png","image_id":10,"category_name":"Andesite","category":1,"distinct_rating":3.15,"distinct_type":"Bottom","rt":null,"stimulus":"Stimuli_Rocks480/I_Andesite_10.png","response":null,"trial_type":"image-keyboard-response","trial_index":150,"plugin_version":"2.1.0","time_elapsed":341881,"subject_id":"92536","group":"Group1","condition":"3_Rep","full_date":"2026-02-27T03:21:15.964Z","date":"2026-02-27","time":"03:21:15"},{"rt":null,"stimulus":"<p style=\"font-size: 50px; margin: 0; text-align: center;\">+</p>","response":null,"trial_type":"html-keyboard-response","trial_index":151,"plugin_version":"2.1.0","time_elapsed":342894,"subject_id":"92536","group":"Group1","condition":"3_Rep","full_date":"2026-02-27T03:21:15.964Z","date":"2026-02-27","time":"03:21:15"},{"task":"memory_phase","broad_category":"I","image_png":"I_Pegmatite_10.png","image_id":106,"category_name":"Pegmatite","category":7,"distinct_rating":7.66,"distinct_type":"Top","rt":null,"stimulus":"Stimuli_Rocks480/I_Pegmatite_10.png","response":null,"trial_type":"image-keyboard-response","trial_index":152,"plugin_version":"2.1.0","time_elapsed":345408,"subject_id":"92536","group":"Group1","condition":"3_Rep","full_date":"2026-02-27T03:21:15.964Z","date":"2026-02-27","time":"03:21:15"},{"rt":null,"stimulus":"<p style=\"font-size: 50px; margin: 0; text-align: center;\">+</p>","response":null,"trial_type":"html-keyboard-response","trial_index":153,"plugin_version":"2.1.0","time_elapsed":346410,"subject_id":"92536","group":"Group1","condition":"3_Rep","full_date":"2026-02-27T03:21:15.964Z","date":"2026-02-27","time":"03:21:15"},{"task":"memory_phase","broad_category":"S","image_png":"S_Rock Gypsum_04.png","image_id":420,"category_name":"Rock Gypsum","category":27,"distinct_rating":7.61,"distinct_type":"Top","rt":null,"stimulus":"Stimuli_Rocks480/S_Rock Gypsum_04.png","response":null,"trial_type":"image-keyboard-response","trial_index":154,"plugin_version":"2.1.0","time_elapsed":348922,"subject_id":"92536","group":"Group1","condition":"3_Rep","full_date":"2026-02-27T03:21:15.964Z","date":"2026-02-27","time":"03:21:15"},{"rt":null,"stimulus":"<p style=\"font-size: 50px; margin: 0; text-align: center;\">+</p>","response":null,"trial_type":"html-keyboard-response","trial_index":155,"plugin_version":"2.1.0","time_elapsed":349929,"subject_id":"92536","group":"Group1","condition":"3_Rep","full_date":"2026-02-27T03:21:15.964Z","date":"2026-02-27","time":"03:21:15"},{"task":"memory_phase","broad_category":"S","image_png":"S_Sandstone_15.png","image_id":463,"category_name":"Sandstone","category":29,"distinct_rating":2,"distinct_type":"Bottom","rt":null,"stimulus":"Stimuli_Rocks480/S_Sandstone_15.png","response":null,"trial_type":"image-keyboard-response","trial_index":156,"plugin_version":"2.1.0","time_elapsed":352442,"subject_id":"92536","group":"Group1","condition":"3_Rep","full_date":"2026-02-27T03:21:15.964Z","date":"2026-02-27","time":"03:21:15"},{"rt":1993,"stimulus":"<p style=\"max-width: 760px; margin: auto; font-size: 35px; line-height: 1.5;\">\n                Press SPACE to continue study phase\n              </p>","response":" ","trial_type":"html-keyboard-response","trial_index":157,"plugin_version":"2.1.0","time_elapsed":354436,"subject_id":"92536","group":"Group1","condition":"3_Rep","full_date":"2026-02-27T03:21:15.964Z","date":"2026-02-27","time":"03:21:15"},{"rt":null,"stimulus":"<p style=\"font-size: 50px; margin: 0; text-align: center;\">+</p>","response":null,"trial_type":"html-keyboard-response","trial_index":158,"plugin_version":"2.1.0","time_elapsed":355444,"subject_id":"92536","group":"Group1","condition":"3_Rep","full_date":"2026-02-27T03:21:15.964Z","date":"2026-02-27","time":"03:21:15"},{"task":"memory_phase","broad_category":"M","image_png":"M_Slate_15.png","image_id":319,"category_name":"Slate","category":20,"distinct_rating":2.13,"distinct_type":"Bottom","rt":null,"stimulus":"Stimuli_Rocks480/M_Slate_15.png","response":null,"trial_type":"image-keyboard-response","trial_index":159,"plugin_version":"2.1.0","time_elapsed":357954,"subject_id":"92536","group":"Group1","condition":"3_Rep","full_date":"2026-02-27T03:21:15.964Z","date":"2026-02-27","time":"03:21:15"},{"rt":null,"stimulus":"<p style=\"font-size: 50px; margin: 0; text-align: center;\">+</p>","response":null,"trial_type":"html-keyboard-response","trial_index":160,"plugin_version":"2.1.0","time_elapsed":358961,"subject_id":"92536","group":"Group1","condition":"3_Rep","full_date":"2026-02-27T03:21:15.964Z","date":"2026-02-27","time":"03:21:15"},{"task":"memory_phase","broad_category":"M","image_png":"M_Gneiss_06.png","image_id":198,"category_name":"Gneiss","category":13,"distinct_rating":2.65,"distinct_type":"Bottom","rt":null,"stimulus":"Stimuli_Rocks480/M_Gneiss_06.png","response":null,"trial_type":"image-keyboard-response","trial_index":161,"plugin_version":"2.1.0","time_elapsed":361473,"subject_id":"92536","group":"Group1","condition":"3_Rep","full_date":"2026-02-27T03:21:15.964Z","date":"2026-02-27","time":"03:21:15"},{"rt":null,"stimulus":"<p style=\"font-size: 50px; margin: 0; text-align: center;\">+</p>","response":null,"trial_type":"html-keyboard-response","trial_index":162,"plugin_version":"2.1.0","time_elapsed":362481,"subject_id":"92536","group":"Group1","condition":"3_Rep","full_date":"2026-02-27T03:21:15.964Z","date":"2026-02-27","time":"03:21:15"},{"task":"memory_phase","broad_category":"I","image_png":"I_Gabbro_11.png","image_id":59,"category_name":"Gabbro","category":4,"distinct_rating":1.99,"distinct_type":"Bottom","rt":null,"stimulus":"Stimuli_Rocks480/I_Gabbro_11.png","response":null,"trial_type":"image-keyboard-response","trial_index":163,"plugin_version":"2.1.0","time_elapsed":364984,"subject_id":"92536","group":"Group1","condition":"3_Rep","full_date":"2026-02-27T03:21:15.964Z","date":"2026-02-27","time":"03:21:15"},{"rt":null,"stimulus":"<p style=\"font-size: 50px; margin: 0; text-align: center;\">+</p>","response":null,"trial_type":"html-keyboard-response","trial_index":164,"plugin_version":"2.1.0","time_elapsed":365996,"subject_id":"92536","group":"Group1","condition":"3_Rep","full_date":"2026-02-27T03:21:15.964Z","date":"2026-02-27","time":"03:21:15"},{"task":"memory_phase","broad_category":"I","image_png":"I_Rhyolite_16.png","image_id":160,"category_name":"Rhyolite","category":10,"distinct_rating":2.19,"distinct_type":"Bottom","rt":null,"stimulus":"Stimuli_Rocks480/I_Rhyolite_16.png","response":null,"trial_type":"image-keyboard-response","trial_index":165,"plugin_version":"2.1.0","time_elapsed":368499,"subject_id":"92536","group":"Group1","condition":"3_Rep","full_date":"2026-02-27T03:21:15.964Z","date":"2026-02-27","time":"03:21:15"},{"rt":null,"stimulus":"<p style=\"font-size: 50px; margin: 0; text-align: center;\">+</p>","response":null,"trial_type":"html-keyboard-response","trial_index":166,"plugin_version":"2.1.0","time_elapsed":369511,"subject_id":"92536","group":"Group1","condition":"3_Rep","full_date":"2026-02-27T03:21:15.964Z","date":"2026-02-27","time":"03:21:15"},{"task":"memory_phase","broad_category":"S","image_png":"S_Sandstone_03.png","image_id":451,"category_name":"Sandstone","category":29,"distinct_rating":1.86,"distinct_type":"Bottom","rt":null,"stimulus":"Stimuli_Rocks480/S_Sandstone_03.png","response":null,"trial_type":"image-keyboard-response","trial_index":167,"plugin_version":"2.1.0","time_elapsed":372030,"subject_id":"92536","group":"Group1","condition":"3_Rep","full_date":"2026-02-27T03:21:15.964Z","date":"2026-02-27","time":"03:21:15"},{"rt":null,"stimulus":"<p style=\"font-size: 50px; margin: 0; text-align: center;\">+</p>","response":null,"trial_type":"html-keyboard-response","trial_index":168,"plugin_version":"2.1.0","time_elapsed":373031,"subject_id":"92536","group":"Group1","condition":"3_Rep","full_date":"2026-02-27T03:21:15.964Z","date":"2026-02-27","time":"03:21:15"},{"task":"memory_phase","broad_category":"M","image_png":"M_Phyllite_07.png","image_id":263,"category_name":"Phyllite","category":17,"distinct_rating":2.59,"distinct_type":"Bottom","rt":null,"stimulus":"Stimuli_Rocks480/M_Phyllite_07.png","response":null,"trial_type":"image-keyboard-response","trial_index":169,"plugin_version":"2.1.0","time_elapsed":375532,"subject_id":"92536","group":"Group1","condition":"3_Rep","full_date":"2026-02-27T03:21:15.964Z","date":"2026-02-27","time":"03:21:15"},{"rt":null,"stimulus":"<p style=\"font-size: 50px; margin: 0; text-align: center;\">+</p>","response":null,"trial_type":"html-keyboard-response","trial_index":170,"plugin_version":"2.1.0","time_elapsed":376544,"subject_id":"92536","group":"Group1","condition":"3_Rep","full_date":"2026-02-27T03:21:15.964Z","date":"2026-02-27","time":"03:21:15"},{"task":"memory_phase","broad_category":"M","image_png":"M_Marble_06.png","image_id":230,"category_name":"Marble","category":15,"distinct_rating":3.4,"distinct_type":"Bottom","rt":null,"stimulus":"Stimuli_Rocks480/M_Marble_06.png","response":null,"trial_type":"image-keyboard-response","trial_index":171,"plugin_version":"2.1.0","time_elapsed":379046,"subject_id":"92536","group":"Group1","condition":"3_Rep","full_date":"2026-02-27T03:21:15.964Z","date":"2026-02-27","time":"03:21:15"},{"rt":null,"stimulus":"<p style=\"font-size: 50px; margin: 0; text-align: center;\">+</p>","response":null,"trial_type":"html-keyboard-response","trial_index":172,"plugin_version":"2.1.0","time_elapsed":380057,"subject_id":"92536","group":"Group1","condition":"3_Rep","full_date":"2026-02-27T03:21:15.964Z","date":"2026-02-27","time":"03:21:15"},{"task":"memory_phase","broad_category":"S","image_png":"S_Dolomite_14.png","image_id":398,"category_name":"Dolomite","category":25,"distinct_rating":1.43,"distinct_type":"Bottom","rt":null,"stimulus":"Stimuli_Rocks480/S_Dolomite_14.png","response":null,"trial_type":"image-keyboard-response","trial_index":173,"plugin_version":"2.1.0","time_elapsed":382565,"subject_id":"92536","group":"Group1","condition":"3_Rep","full_date":"2026-02-27T03:21:15.964Z","date":"2026-02-27","time":"03:21:15"},{"rt":null,"stimulus":"<p style=\"font-size: 50px; margin: 0; text-align: center;\">+</p>","response":null,"trial_type":"html-keyboard-response","trial_index":174,"plugin_version":"2.1.0","time_elapsed":383574,"subject_id":"92536","group":"Group1","condition":"3_Rep","full_date":"2026-02-27T03:21:15.964Z","date":"2026-02-27","time":"03:21:15"},{"task":"memory_phase","broad_category":"I","image_png":"I_Basalt_09.png","image_id":25,"category_name":"Basalt","category":2,"distinct_rating":1.89,"distinct_type":"Bottom","rt":null,"stimulus":"Stimuli_Rocks480/I_Basalt_09.png","response":null,"trial_type":"image-keyboard-response","trial_index":175,"plugin_version":"2.1.0","time_elapsed":386085,"subject_id":"92536","group":"Group1","condition":"3_Rep","full_date":"2026-02-27T03:21:15.964Z","date":"2026-02-27","time":"03:21:15"},{"rt":null,"stimulus":"<p style=\"font-size: 50px; margin: 0; text-align: center;\">+</p>","response":null,"trial_type":"html-keyboard-response","trial_index":176,"plugin_version":"2.1.0","time_elapsed":387087,"subject_id":"92536","group":"Group1","condition":"3_Rep","full_date":"2026-02-27T03:21:15.964Z","date":"2026-02-27","time":"03:21:15"},{"task":"memory_phase","broad_category":"M","image_png":"M_Slate_03.png","image_id":307,"category_name":"Slate","category":20,"distinct_rating":1.87,"distinct_type":"Bottom","rt":null,"stimulus":"Stimuli_Rocks480/M_Slate_03.png","response":null,"trial_type":"image-keyboard-response","trial_index":177,"plugin_version":"2.1.0","time_elapsed":389591,"subject_id":"92536","group":"Group1","condition":"3_Rep","full_date":"2026-02-27T03:21:15.964Z","date":"2026-02-27","time":"03:21:15"},{"rt":null,"stimulus":"<p style=\"font-size: 50px; margin: 0; text-align: center;\">+</p>","response":null,"trial_type":"html-keyboard-response","trial_index":178,"plugin_version":"2.1.0","time_elapsed":390593,"subject_id":"92536","group":"Group1","condition":"3_Rep","full_date":"2026-02-27T03:21:15.964Z","date":"2026-02-27","time":"03:21:15"},{"task":"memory_phase","broad_category":"S","image_png":"S_Shale_01.png","image_id":465,"category_name":"Shale","category":30,"distinct_rating":2.7,"distinct_type":"Bottom","rt":null,"stimulus":"Stimuli_Rocks480/S_Shale_01.png","response":null,"trial_type":"image-keyboard-response","trial_index":179,"plugin_version":"2.1.0","time_elapsed":393100,"subject_id":"92536","group":"Group1","condition":"3_Rep","full_date":"2026-02-27T03:21:15.964Z","date":"2026-02-27","time":"03:21:15"},{"rt":null,"stimulus":"<p style=\"font-size: 50px; margin: 0; text-align: center;\">+</p>","response":null,"trial_type":"html-keyboard-response","trial_index":180,"plugin_version":"2.1.0","time_elapsed":394102,"subject_id":"92536","group":"Group1","condition":"3_Rep","full_date":"2026-02-27T03:21:15.964Z","date":"2026-02-27","time":"03:21:15"},{"task":"memory_phase","broad_category":"I","image_png":"I_Gabbro_08.png","image_id":56,"category_name":"Gabbro","category":4,"distinct_rating":3.02,"distinct_type":"Bottom","rt":null,"stimulus":"Stimuli_Rocks480/I_Gabbro_08.png","response":null,"trial_type":"image-keyboard-response","trial_index":181,"plugin_version":"2.1.0","time_elapsed":396611,"subject_id":"92536","group":"Group1","condition":"3_Rep","full_date":"2026-02-27T03:21:15.964Z","date":"2026-02-27","time":"03:21:15"},{"rt":null,"stimulus":"<p style=\"font-size: 50px; margin: 0; text-align: center;\">+</p>","response":null,"trial_type":"html-keyboard-response","trial_index":182,"plugin_version":"2.1.0","time_elapsed":397616,"subject_id":"92536","group":"Group1","condition":"3_Rep","full_date":"2026-02-27T03:21:15.964Z","date":"2026-02-27","time":"03:21:15"},{"task":"memory_phase","broad_category":"I","image_png":"I_Gabbro_16.png","image_id":64,"category_name":"Gabbro","category":4,"distinct_rating":2.52,"distinct_type":"Bottom","rt":null,"stimulus":"Stimuli_Rocks480/I_Gabbro_16.png","response":null,"trial_type":"image-keyboard-response","trial_index":183,"plugin_version":"2.1.0","time_elapsed":400123,"subject_id":"92536","group":"Group1","condition":"3_Rep","full_date":"2026-02-27T03:21:15.964Z","date":"2026-02-27","time":"03:21:15"},{"rt":null,"stimulus":"<p style=\"font-size: 50px; margin: 0; text-align: center;\">+</p>","response":null,"trial_type":"html-keyboard-response","trial_index":184,"plugin_version":"2.1.0","time_elapsed":401137,"subject_id":"92536","group":"Group1","condition":"3_Rep","full_date":"2026-02-27T03:21:15.964Z","date":"2026-02-27","time":"03:21:15"},{"task":"memory_phase","broad_category":"M","image_png":"M_Phyllite_03.png","image_id":259,"category_name":"Phyllite","category":17,"distinct_rating":2.5,"distinct_type":"Bottom","rt":null,"stimulus":"Stimuli_Rocks480/M_Phyllite_03.png","response":null,"trial_type":"image-keyboard-response","trial_index":185,"plugin_version":"2.1.0","time_elapsed":403642,"subject_id":"92536","group":"Group1","condition":"3_Rep","full_date":"2026-02-27T03:21:15.964Z","date":"2026-02-27","time":"03:21:15"},{"rt":null,"stimulus":"<p style=\"font-size: 50px; margin: 0; text-align: center;\">+</p>","response":null,"trial_type":"html-keyboard-response","trial_index":186,"plugin_version":"2.1.0","time_elapsed":404644,"subject_id":"92536","group":"Group1","condition":"3_Rep","full_date":"2026-02-27T03:21:15.964Z","date":"2026-02-27","time":"03:21:15"},{"task":"memory_phase","broad_category":"M","image_png":"M_Quartzite_13.png","image_id":285,"category_name":"Quartzite","category":18,"distinct_rating":2.27,"distinct_type":"Bottom","rt":null,"stimulus":"Stimuli_Rocks480/M_Quartzite_13.png","response":null,"trial_type":"image-keyboard-response","trial_index":187,"plugin_version":"2.1.0","time_elapsed":407160,"subject_id":"92536","group":"Group1","condition":"3_Rep","full_date":"2026-02-27T03:21:15.964Z","date":"2026-02-27","time":"03:21:15"},{"rt":null,"stimulus":"<p style=\"font-size: 50px; margin: 0; text-align: center;\">+</p>","response":null,"trial_type":"html-keyboard-response","trial_index":188,"plugin_version":"2.1.0","time_elapsed":408169,"subject_id":"92536","group":"Group1","condition":"3_Rep","full_date":"2026-02-27T03:21:15.964Z","date":"2026-02-27","time":"03:21:15"},{"task":"memory_phase","broad_category":"I","image_png":"I_Diorite_03.png","image_id":35,"category_name":"Diorite","category":3,"distinct_rating":3.14,"distinct_type":"Bottom","rt":null,"stimulus":"Stimuli_Rocks480/I_Diorite_03.png","response":null,"trial_type":"image-keyboard-response","trial_index":189,"plugin_version":"2.1.0","time_elapsed":410685,"subject_id":"92536","group":"Group1","condition":"3_Rep","full_date":"2026-02-27T03:21:15.964Z","date":"2026-02-27","time":"03:21:15"},{"rt":null,"stimulus":"<p style=\"font-size: 50px; margin: 0; text-align: center;\">+</p>","response":null,"trial_type":"html-keyboard-response","trial_index":190,"plugin_version":"2.1.0","time_elapsed":411695,"subject_id":"92536","group":"Group1","condition":"3_Rep","full_date":"2026-02-27T03:21:15.964Z","date":"2026-02-27","time":"03:21:15"},{"task":"memory_phase","broad_category":"S","image_png":"S_Dolomite_12.png","image_id":396,"category_name":"Dolomite","category":25,"distinct_rating":1.85,"distinct_type":"Bottom","rt":null,"stimulus":"Stimuli_Rocks480/S_Dolomite_12.png","response":null,"trial_type":"image-keyboard-response","trial_index":191,"plugin_version":"2.1.0","time_elapsed":414204,"subject_id":"92536","group":"Group1","condition":"3_Rep","full_date":"2026-02-27T03:21:15.964Z","date":"2026-02-27","time":"03:21:15"},{"rt":null,"stimulus":"<p style=\"font-size: 50px; margin: 0; text-align: center;\">+</p>","response":null,"trial_type":"html-keyboard-response","trial_index":192,"plugin_version":"2.1.0","time_elapsed":415212,"subject_id":"92536","group":"Group1","condition":"3_Rep","full_date":"2026-02-27T03:21:15.964Z","date":"2026-02-27","time":"03:21:15"},{"task":"memory_phase","broad_category":"M","image_png":"M_Phyllite_10.png","image_id":266,"category_name":"Phyllite","category":17,"distinct_rating":2.6,"distinct_type":"Bottom","rt":null,"stimulus":"Stimuli_Rocks480/M_Phyllite_10.png","response":null,"trial_type":"image-keyboard-response","trial_index":193,"plugin_version":"2.1.0","time_elapsed":417723,"subject_id":"92536","group":"Group1","condition":"3_Rep","full_date":"2026-02-27T03:21:15.964Z","date":"2026-02-27","time":"03:21:15"},{"rt":null,"stimulus":"<p style=\"font-size: 50px; margin: 0; text-align: center;\">+</p>","response":null,"trial_type":"html-keyboard-response","trial_index":194,"plugin_version":"2.1.0","time_elapsed":418724,"subject_id":"92536","group":"Group1","condition":"3_Rep","full_date":"2026-02-27T03:21:15.964Z","date":"2026-02-27","time":"03:21:15"},{"task":"memory_phase","broad_category":"M","image_png":"M_Quartzite_08.png","image_id":280,"category_name":"Quartzite","category":18,"distinct_rating":2.15,"distinct_type":"Bottom","rt":null,"stimulus":"Stimuli_Rocks480/M_Quartzite_08.png","response":null,"trial_type":"image-keyboard-response","trial_index":195,"plugin_version":"2.1.0","time_elapsed":421229,"subject_id":"92536","group":"Group1","condition":"3_Rep","full_date":"2026-02-27T03:21:15.964Z","date":"2026-02-27","time":"03:21:15"},{"rt":null,"stimulus":"<p style=\"font-size: 50px; margin: 0; text-align: center;\">+</p>","response":null,"trial_type":"html-keyboard-response","trial_index":196,"plugin_version":"2.1.0","time_elapsed":422239,"subject_id":"92536","group":"Group1","condition":"3_Rep","full_date":"2026-02-27T03:21:15.964Z","date":"2026-02-27","time":"03:21:15"},{"task":"memory_phase","broad_category":"I","image_png":"I_Pumice_12.png","image_id":140,"category_name":"Pumice","category":9,"distinct_rating":2.97,"distinct_type":"Bottom","rt":null,"stimulus":"Stimuli_Rocks480/I_Pumice_12.png","response":null,"trial_type":"image-keyboard-response","trial_index":197,"plugin_version":"2.1.0","time_elapsed":424750,"subject_id":"92536","group":"Group1","condition":"3_Rep","full_date":"2026-02-27T03:21:15.964Z","date":"2026-02-27","time":"03:21:15"},{"rt":null,"stimulus":"<p style=\"font-size: 50px; margin: 0; text-align: center;\">+</p>","response":null,"trial_type":"html-keyboard-response","trial_index":198,"plugin_version":"2.1.0","time_elapsed":425759,"subject_id":"92536","group":"Group1","condition":"3_Rep","full_date":"2026-02-27T03:21:15.964Z","date":"2026-02-27","time":"03:21:15"},{"task":"memory_phase","broad_category":"I","image_png":"I_Basalt_01.png","image_id":17,"category_name":"Basalt","category":2,"distinct_rating":1.92,"distinct_type":"Bottom","rt":null,"stimulus":"Stimuli_Rocks480/I_Basalt_01.png","response":null,"trial_type":"image-keyboard-response","trial_index":199,"plugin_version":"2.1.0","time_elapsed":428263,"subject_id":"92536","group":"Group1","condition":"3_Rep","full_date":"2026-02-27T03:21:15.964Z","date":"2026-02-27","time":"03:21:15"},{"rt":null,"stimulus":"<p style=\"font-size: 50px; margin: 0; text-align: center;\">+</p>","response":null,"trial_type":"html-keyboard-response","trial_index":200,"plugin_version":"2.1.0","time_elapsed":429269,"subject_id":"92536","group":"Group1","condition":"3_Rep","full_date":"2026-02-27T03:21:15.964Z","date":"2026-02-27","time":"03:21:15"},{"task":"memory_phase","broad_category":"M","image_png":"M_Slate_11.png","image_id":315,"category_name":"Slate","category":20,"distinct_rating":2.75,"distinct_type":"Bottom","rt":null,"stimulus":"Stimuli_Rocks480/M_Slate_11.png","response":null,"trial_type":"image-keyboard-response","trial_index":201,"plugin_version":"2.1.0","time_elapsed":431773,"subject_id":"92536","group":"Group1","condition":"3_Rep","full_date":"2026-02-27T03:21:15.964Z","date":"2026-02-27","time":"03:21:15"},{"rt":null,"stimulus":"<p style=\"font-size: 50px; margin: 0; text-align: center;\">+</p>","response":null,"trial_type":"html-keyboard-response","trial_index":202,"plugin_version":"2.1.0","time_elapsed":432774,"subject_id":"92536","group":"Group1","condition":"3_Rep","full_date":"2026-02-27T03:21:15.964Z","date":"2026-02-27","time":"03:21:15"},{"task":"memory_phase","broad_category":"I","image_png":"I_Pegmatite_16.png","image_id":112,"category_name":"Pegmatite","category":7,"distinct_rating":7.03,"distinct_type":"Top","rt":null,"stimulus":"Stimuli_Rocks480/I_Pegmatite_16.png","response":null,"trial_type":"image-keyboard-response","trial_index":203,"plugin_version":"2.1.0","time_elapsed":435291,"subject_id":"92536","group":"Group1","condition":"3_Rep","full_date":"2026-02-27T03:21:15.964Z","date":"2026-02-27","time":"03:21:15"},{"rt":null,"stimulus":"<p style=\"font-size: 50px; margin: 0; text-align: center;\">+</p>","response":null,"trial_type":"html-keyboard-response","trial_index":204,"plugin_version":"2.1.0","time_elapsed":436302,"subject_id":"92536","group":"Group1","condition":"3_Rep","full_date":"2026-02-27T03:21:15.964Z","date":"2026-02-27","time":"03:21:15"},{"task":"memory_phase","broad_category":"I","image_png":"I_Andesite_08.png","image_id":8,"category_name":"Andesite","category":1,"distinct_rating":1.95,"distinct_type":"Bottom","rt":null,"stimulus":"Stimuli_Rocks480/I_Andesite_08.png","response":null,"trial_type":"image-keyboard-response","trial_index":205,"plugin_version":"2.1.0","time_elapsed":438808,"subject_id":"92536","group":"Group1","condition":"3_Rep","full_date":"2026-02-27T03:21:15.964Z","date":"2026-02-27","time":"03:21:15"},{"rt":null,"stimulus":"<p style=\"font-size: 50px; margin: 0; text-align: center;\">+</p>","response":null,"trial_type":"html-keyboard-response","trial_index":206,"plugin_version":"2.1.0","time_elapsed":439817,"subject_id":"92536","group":"Group1","condition":"3_Rep","full_date":"2026-02-27T03:21:15.964Z","date":"2026-02-27","time":"03:21:15"},{"task":"memory_phase","broad_category":"I","image_png":"I_Obsidian_05.png","image_id":85,"category_name":"Obsidian","category":6,"distinct_rating":7.32,"distinct_type":"Top","rt":null,"stimulus":"Stimuli_Rocks480/I_Obsidian_05.png","response":null,"trial_type":"image-keyboard-response","trial_index":207,"plugin_version":"2.1.0","time_elapsed":442323,"subject_id":"92536","group":"Group1","condition":"3_Rep","full_date":"2026-02-27T03:21:15.964Z","date":"2026-02-27","time":"03:21:15"},{"rt":3330,"stimulus":"<p style=\"max-width: 760px; margin: auto; font-size: 35px; line-height: 1.5;\">\n                You have completed 2 study phases. \n                Now, we'll show you all the images again 1 more time.\n                <br><br>Press SPACE to continue\n              </p>","response":" ","trial_type":"html-keyboard-response","trial_index":208,"plugin_version":"2.1.0","time_elapsed":445654,"subject_id":"92536","group":"Group1","condition":"3_Rep","full_date":"2026-02-27T03:21:15.964Z","date":"2026-02-27","time":"03:21:15"},{"rt":null,"stimulus":"<p style=\"font-size: 50px; margin: 0; text-align: center;\">+</p>","response":null,"trial_type":"html-keyboard-response","trial_index":209,"plugin_version":"2.1.0","time_elapsed":446662,"subject_id":"92536","group":"Group1","condition":"3_Rep","full_date":"2026-02-27T03:21:15.964Z","date":"2026-02-27","time":"03:21:15"},{"task":"memory_phase","broad_category":"M","image_png":"M_Phyllite_03.png","image_id":259,"category_name":"Phyllite","category":17,"distinct_rating":2.5,"distinct_type":"Bottom","rt":null,"stimulus":"Stimuli_Rocks480/M_Phyllite_03.png","response":null,"trial_type":"image-keyboard-response","trial_index":210,"plugin_version":"2.1.0","time_elapsed":449165,"subject_id":"92536","group":"Group1","condition":"3_Rep","full_date":"2026-02-27T03:21:15.964Z","date":"2026-02-27","time":"03:21:15"},{"rt":null,"stimulus":"<p style=\"font-size: 50px; margin: 0; text-align: center;\">+</p>","response":null,"trial_type":"html-keyboard-response","trial_index":211,"plugin_version":"2.1.0","time_elapsed":450167,"subject_id":"92536","group":"Group1","condition":"3_Rep","full_date":"2026-02-27T03:21:15.964Z","date":"2026-02-27","time":"03:21:15"},{"task":"memory_phase","broad_category":"I","image_png":"I_Basalt_01.png","image_id":17,"category_name":"Basalt","category":2,"distinct_rating":1.92,"distinct_type":"Bottom","rt":null,"stimulus":"Stimuli_Rocks480/I_Basalt_01.png","response":null,"trial_type":"image-keyboard-response","trial_index":212,"plugin_version":"2.1.0","time_elapsed":452684,"subject_id":"92536","group":"Group1","condition":"3_Rep","full_date":"2026-02-27T03:21:15.964Z","date":"2026-02-27","time":"03:21:15"},{"rt":null,"stimulus":"<p style=\"font-size: 50px; margin: 0; text-align: center;\">+</p>","response":null,"trial_type":"html-keyboard-response","trial_index":213,"plugin_version":"2.1.0","time_elapsed":453698,"subject_id":"92536","group":"Group1","condition":"3_Rep","full_date":"2026-02-27T03:21:15.964Z","date":"2026-02-27","time":"03:21:15"},{"task":"memory_phase","broad_category":"I","image_png":"I_Rhyolite_16.png","image_id":160,"category_name":"Rhyolite","category":10,"distinct_rating":2.19,"distinct_type":"Bottom","rt":null,"stimulus":"Stimuli_Rocks480/I_Rhyolite_16.png","response":null,"trial_type":"image-keyboard-response","trial_index":214,"plugin_version":"2.1.0","time_elapsed":456204,"subject_id":"92536","group":"Group1","condition":"3_Rep","full_date":"2026-02-27T03:21:15.964Z","date":"2026-02-27","time":"03:21:15"},{"rt":null,"stimulus":"<p style=\"font-size: 50px; margin: 0; text-align: center;\">+</p>","response":null,"trial_type":"html-keyboard-response","trial_index":215,"plugin_version":"2.1.0","time_elapsed":457205,"subject_id":"92536","group":"Group1","condition":"3_Rep","full_date":"2026-02-27T03:21:15.964Z","date":"2026-02-27","time":"03:21:15"},{"task":"memory_phase","broad_category":"M","image_png":"M_Gneiss_05.png","image_id":197,"category_name":"Gneiss","category":13,"distinct_rating":2.97,"distinct_type":"Bottom","rt":null,"stimulus":"Stimuli_Rocks480/M_Gneiss_05.png","response":null,"trial_type":"image-keyboard-response","trial_index":216,"plugin_version":"2.1.0","time_elapsed":459715,"subject_id":"92536","group":"Group1","condition":"3_Rep","full_date":"2026-02-27T03:21:15.964Z","date":"2026-02-27","time":"03:21:15"},{"rt":null,"stimulus":"<p style=\"font-size: 50px; margin: 0; text-align: center;\">+</p>","response":null,"trial_type":"html-keyboard-response","trial_index":217,"plugin_version":"2.1.0","time_elapsed":460723,"subject_id":"92536","group":"Group1","condition":"3_Rep","full_date":"2026-02-27T03:21:15.964Z","date":"2026-02-27","time":"03:21:15"},{"task":"memory_phase","broad_category":"S","image_png":"S_Sandstone_03.png","image_id":451,"category_name":"Sandstone","category":29,"distinct_rating":1.86,"distinct_type":"Bottom","rt":null,"stimulus":"Stimuli_Rocks480/S_Sandstone_03.png","response":null,"trial_type":"image-keyboard-response","trial_index":218,"plugin_version":"2.1.0","time_elapsed":463227,"subject_id":"92536","group":"Group1","condition":"3_Rep","full_date":"2026-02-27T03:21:15.964Z","date":"2026-02-27","time":"03:21:15"},{"rt":null,"stimulus":"<p style=\"font-size: 50px; margin: 0; text-align: center;\">+</p>","response":null,"trial_type":"html-keyboard-response","trial_index":219,"plugin_version":"2.1.0","time_elapsed":464228,"subject_id":"92536","group":"Group1","condition":"3_Rep","full_date":"2026-02-27T03:21:15.964Z","date":"2026-02-27","time":"03:21:15"},{"task":"memory_phase","broad_category":"M","image_png":"M_Marble_04.png","image_id":228,"category_name":"Marble","category":15,"distinct_rating":3.15,"distinct_type":"Bottom","rt":null,"stimulus":"Stimuli_Rocks480/M_Marble_04.png","response":null,"trial_type":"image-keyboard-response","trial_index":220,"plugin_version":"2.1.0","time_elapsed":466734,"subject_id":"92536","group":"Group1","condition":"3_Rep","full_date":"2026-02-27T03:21:15.964Z","date":"2026-02-27","time":"03:21:15"},{"rt":null,"stimulus":"<p style=\"font-size: 50px; margin: 0; text-align: center;\">+</p>","response":null,"trial_type":"html-keyboard-response","trial_index":221,"plugin_version":"2.1.0","time_elapsed":467736,"subject_id":"92536","group":"Group1","condition":"3_Rep","full_date":"2026-02-27T03:21:15.964Z","date":"2026-02-27","time":"03:21:15"},{"task":"memory_phase","broad_category":"I","image_png":"I_Andesite_06.png","image_id":6,"category_name":"Andesite","category":1,"distinct_rating":3.17,"distinct_type":"Bottom","rt":null,"stimulus":"Stimuli_Rocks480/I_Andesite_06.png","response":null,"trial_type":"image-keyboard-response","trial_index":222,"plugin_version":"2.1.0","time_elapsed":470248,"subject_id":"92536","group":"Group1","condition":"3_Rep","full_date":"2026-02-27T03:21:15.964Z","date":"2026-02-27","time":"03:21:15"},{"rt":null,"stimulus":"<p style=\"font-size: 50px; margin: 0; text-align: center;\">+</p>","response":null,"trial_type":"html-keyboard-response","trial_index":223,"plugin_version":"2.1.0","time_elapsed":471256,"subject_id":"92536","group":"Group1","condition":"3_Rep","full_date":"2026-02-27T03:21:15.964Z","date":"2026-02-27","time":"03:21:15"},{"task":"memory_phase","broad_category":"S","image_png":"S_Conglomerate_05.png","image_id":373,"category_name":"Conglomerate","category":24,"distinct_rating":7.32,"distinct_type":"Top","rt":null,"stimulus":"Stimuli_Rocks480/S_Conglomerate_05.png","response":null,"trial_type":"image-keyboard-response","trial_index":224,"plugin_version":"2.1.0","time_elapsed":473760,"subject_id":"92536","group":"Group1","condition":"3_Rep","full_date":"2026-02-27T03:21:15.964Z","date":"2026-02-27","time":"03:21:15"},{"rt":null,"stimulus":"<p style=\"font-size: 50px; margin: 0; text-align: center;\">+</p>","response":null,"trial_type":"html-keyboard-response","trial_index":225,"plugin_version":"2.1.0","time_elapsed":474762,"subject_id":"92536","group":"Group1","condition":"3_Rep","full_date":"2026-02-27T03:21:15.964Z","date":"2026-02-27","time":"03:21:15"},{"task":"memory_phase","broad_category":"M","image_png":"M_Marble_06.png","image_id":230,"category_name":"Marble","category":15,"distinct_rating":3.4,"distinct_type":"Bottom","rt":null,"stimulus":"Stimuli_Rocks480/M_Marble_06.png","response":null,"trial_type":"image-keyboard-response","trial_index":226,"plugin_version":"2.1.0","time_elapsed":477274,"subject_id":"92536","group":"Group1","condition":"3_Rep","full_date":"2026-02-27T03:21:15.964Z","date":"2026-02-27","time":"03:21:15"},{"rt":null,"stimulus":"<p style=\"font-size: 50px; margin: 0; text-align: center;\">+</p>","response":null,"trial_type":"html-keyboard-response","trial_index":227,"plugin_version":"2.1.0","time_elapsed":478276,"subject_id":"92536","group":"Group1","condition":"3_Rep","full_date":"2026-02-27T03:21:15.964Z","date":"2026-02-27","time":"03:21:15"},{"task":"memory_phase","broad_category":"M","image_png":"M_Marble_16.png","image_id":240,"category_name":"Marble","category":15,"distinct_rating":2.57,"distinct_type":"Bottom","rt":null,"stimulus":"Stimuli_Rocks480/M_Marble_16.png","response":null,"trial_type":"image-keyboard-response","trial_index":228,"plugin_version":"2.1.0","time_elapsed":480789,"subject_id":"92536","group":"Group1","condition":"3_Rep","full_date":"2026-02-27T03:21:15.964Z","date":"2026-02-27","time":"03:21:15"},{"rt":null,"stimulus":"<p style=\"font-size: 50px; margin: 0; text-align: center;\">+</p>","response":null,"trial_type":"html-keyboard-response","trial_index":229,"plugin_version":"2.1.0","time_elapsed":481793,"subject_id":"92536","group":"Group1","condition":"3_Rep","full_date":"2026-02-27T03:21:15.964Z","date":"2026-02-27","time":"03:21:15"},{"task":"memory_phase","broad_category":"I","image_png":"I_Basalt_02.png","image_id":18,"category_name":"Basalt","category":2,"distinct_rating":1.84,"distinct_type":"Bottom","rt":null,"stimulus":"Stimuli_Rocks480/I_Basalt_02.png","response":null,"trial_type":"image-keyboard-response","trial_index":230,"plugin_version":"2.1.0","time_elapsed":484304,"subject_id":"92536","group":"Group1","condition":"3_Rep","full_date":"2026-02-27T03:21:15.964Z","date":"2026-02-27","time":"03:21:15"},{"rt":null,"stimulus":"<p style=\"font-size: 50px; margin: 0; text-align: center;\">+</p>","response":null,"trial_type":"html-keyboard-response","trial_index":231,"plugin_version":"2.1.0","time_elapsed":485312,"subject_id":"92536","group":"Group1","condition":"3_Rep","full_date":"2026-02-27T03:21:15.964Z","date":"2026-02-27","time":"03:21:15"},{"task":"memory_phase","broad_category":"S","image_png":"S_Sandstone_16.png","image_id":464,"category_name":"Sandstone","category":29,"distinct_rating":1.93,"distinct_type":"Bottom","rt":null,"stimulus":"Stimuli_Rocks480/S_Sandstone_16.png","response":null,"trial_type":"image-keyboard-response","trial_index":232,"plugin_version":"2.1.0","time_elapsed":487816,"subject_id":"92536","group":"Group1","condition":"3_Rep","full_date":"2026-02-27T03:21:15.964Z","date":"2026-02-27","time":"03:21:15"},{"rt":null,"stimulus":"<p style=\"font-size: 50px; margin: 0; text-align: center;\">+</p>","response":null,"trial_type":"html-keyboard-response","trial_index":233,"plugin_version":"2.1.0","time_elapsed":488818,"subject_id":"92536","group":"Group1","condition":"3_Rep","full_date":"2026-02-27T03:21:15.964Z","date":"2026-02-27","time":"03:21:15"},{"task":"memory_phase","broad_category":"I","image_png":"I_Pumice_11.png","image_id":139,"category_name":"Pumice","category":9,"distinct_rating":1.74,"distinct_type":"Bottom","rt":null,"stimulus":"Stimuli_Rocks480/I_Pumice_11.png","response":null,"trial_type":"image-keyboard-response","trial_index":234,"plugin_version":"2.1.0","time_elapsed":491321,"subject_id":"92536","group":"Group1","condition":"3_Rep","full_date":"2026-02-27T03:21:15.964Z","date":"2026-02-27","time":"03:21:15"},{"rt":null,"stimulus":"<p style=\"font-size: 50px; margin: 0; text-align: center;\">+</p>","response":null,"trial_type":"html-keyboard-response","trial_index":235,"plugin_version":"2.1.0","time_elapsed":492324,"subject_id":"92536","group":"Group1","condition":"3_Rep","full_date":"2026-02-27T03:21:15.964Z","date":"2026-02-27","time":"03:21:15"},{"task":"memory_phase","broad_category":"S","image_png":"S_Chert_10.png","image_id":362,"category_name":"Chert","category":23,"distinct_rating":7.17,"distinct_type":"Top","rt":null,"stimulus":"Stim