[{"width":1728,"height":882,"webaudio":true,"browser":"chrome","browser_version":"144.0.0","mobile":false,"os":"Mac OS","fullscreen":true,"vsync_rate":119.74,"webcam":true,"microphone":true,"trial_type":"browser-check","trial_index":0,"plugin_version":"2.1.0","time_elapsed":510,"subject_id":"92522","group":"Group2","condition":"3_Rep","full_date":"2026-02-25T00:20:15.784Z","date":"2026-02-25","time":"00:20:15"},{"success":true,"timeout":false,"failed_images":[],"failed_audio":[],"failed_video":[],"trial_type":"preload","trial_index":1,"plugin_version":"2.1.0","time_elapsed":2027,"subject_id":"92522","group":"Group2","condition":"3_Rep","full_date":"2026-02-25T00:20:15.784Z","date":"2026-02-25","time":"00:20:15"},{"rt":5761,"url":"SONA_consent_memorability.html","trial_type":"external-html","trial_index":2,"plugin_version":"2.1.0","time_elapsed":7839,"subject_id":"92522","group":"Group2","condition":"3_Rep","full_date":"2026-02-25T00:20:15.784Z","date":"2026-02-25","time":"00:20:15"},{"success":true,"rt":2408,"trial_type":"fullscreen","trial_index":3,"plugin_version":"2.1.0","time_elapsed":11251,"subject_id":"92522","group":"Group2","condition":"3_Rep","full_date":"2026-02-25T00:20:15.784Z","date":"2026-02-25","time":"00:20:15"},{"rt":16667,"stimulus":"<div style=\"max-width: 760px; margin: auto; font-size: 20px; line-height: 1.5;\">\n      <h1 style=\"text-align:center; font-size: 30px;\">Instructions</h1>\n      <p>\n        Welcome to the study on <b>visual memory</b>. This experiment consists of <b>two phases</b>: \n        a <b>study phase</b> and a <b>test phase</b>.\n      </p>\n      <p>\n        In the study phase, you will see a series of rock images along with their category labels.\n        The images will appear one at a time.\n        <b>Your task</b> is to learn the categories to which the rock images belong \n        and to remember each image as accurately as possible.\n      </p> \n      <p>\n        Note that we will repeat the study phase <b>3 times</b>, \n             so you will have multiple opportunities to see and remember each image.\n      </p>\n      <p>\n        After the study phase, <b>your memory will be tested</b>. \n        Additional instructions for the test phase will be provided at that time.\n      </p>\n      <p>\n        If your computer has multiple <b>language settings</b> (e.g., English and another language),\n        please make sure it is set to English before starting.\n      </p>\n      <p>\n        You can track your progress using the <b>completion bar</b> at the top of the screen. \n        Please note that the bar will refresh when the test phase begins \n        to give you an accurate sense of your progress in both phases.\n      </p> \n      <p>\n        Press the button below when you are ready to begin.\n      </p>\n    </div>","response":0,"trial_type":"html-button-response","trial_index":4,"plugin_version":"2.1.0","time_elapsed":27922,"subject_id":"92522","group":"Group2","condition":"3_Rep","full_date":"2026-02-25T00:20:15.784Z","date":"2026-02-25","time":"00:20:15"},{"rt":null,"stimulus":"<p style=\"font-size: 50px; margin: 0; text-align: center;\">+</p>","response":null,"trial_type":"html-keyboard-response","trial_index":5,"plugin_version":"2.1.0","time_elapsed":28926,"subject_id":"92522","group":"Group2","condition":"3_Rep","full_date":"2026-02-25T00:20:15.784Z","date":"2026-02-25","time":"00:20:15"},{"task":"memory_phase","broad_category":"I","image_png":"I_Gabbro_14.png","image_id":62,"category_name":"Gabbro","category":4,"distinct_rating":2.95,"distinct_type":"Bottom","rt":null,"stimulus":"Stimuli_Rocks480/I_Gabbro_14.png","response":null,"trial_type":"image-keyboard-response","trial_index":6,"plugin_version":"2.1.0","time_elapsed":31433,"subject_id":"92522","group":"Group2","condition":"3_Rep","full_date":"2026-02-25T00:20:15.784Z","date":"2026-02-25","time":"00:20:15"},{"rt":null,"stimulus":"<p style=\"font-size: 50px; margin: 0; text-align: center;\">+</p>","response":null,"trial_type":"html-keyboard-response","trial_index":7,"plugin_version":"2.1.0","time_elapsed":32436,"subject_id":"92522","group":"Group2","condition":"3_Rep","full_date":"2026-02-25T00:20:15.784Z","date":"2026-02-25","time":"00:20:15"},{"task":"memory_phase","broad_category":"I","image_png":"I_Diorite_01.png","image_id":33,"category_name":"Diorite","category":3,"distinct_rating":2.97,"distinct_type":"Bottom","rt":null,"stimulus":"Stimuli_Rocks480/I_Diorite_01.png","response":null,"trial_type":"image-keyboard-response","trial_index":8,"plugin_version":"2.1.0","time_elapsed":34941,"subject_id":"92522","group":"Group2","condition":"3_Rep","full_date":"2026-02-25T00:20:15.784Z","date":"2026-02-25","time":"00:20:15"},{"rt":null,"stimulus":"<p style=\"font-size: 50px; margin: 0; text-align: center;\">+</p>","response":null,"trial_type":"html-keyboard-response","trial_index":9,"plugin_version":"2.1.0","time_elapsed":35944,"subject_id":"92522","group":"Group2","condition":"3_Rep","full_date":"2026-02-25T00:20:15.784Z","date":"2026-02-25","time":"00:20:15"},{"task":"memory_phase","broad_category":"M","image_png":"M_Quartzite_07.png","image_id":279,"category_name":"Quartzite","category":18,"distinct_rating":1.97,"distinct_type":"Bottom","rt":null,"stimulus":"Stimuli_Rocks480/M_Quartzite_07.png","response":null,"trial_type":"image-keyboard-response","trial_index":10,"plugin_version":"2.1.0","time_elapsed":38449,"subject_id":"92522","group":"Group2","condition":"3_Rep","full_date":"2026-02-25T00:20:15.784Z","date":"2026-02-25","time":"00:20:15"},{"rt":null,"stimulus":"<p style=\"font-size: 50px; margin: 0; text-align: center;\">+</p>","response":null,"trial_type":"html-keyboard-response","trial_index":11,"plugin_version":"2.1.0","time_elapsed":39451,"subject_id":"92522","group":"Group2","condition":"3_Rep","full_date":"2026-02-25T00:20:15.784Z","date":"2026-02-25","time":"00:20:15"},{"task":"memory_phase","broad_category":"S","image_png":"S_Sandstone_11.png","image_id":459,"category_name":"Sandstone","category":29,"distinct_rating":1.82,"distinct_type":"Bottom","rt":null,"stimulus":"Stimuli_Rocks480/S_Sandstone_11.png","response":null,"trial_type":"image-keyboard-response","trial_index":12,"plugin_version":"2.1.0","time_elapsed":41956,"subject_id":"92522","group":"Group2","condition":"3_Rep","full_date":"2026-02-25T00:20:15.784Z","date":"2026-02-25","time":"00:20:15"},{"rt":null,"stimulus":"<p style=\"font-size: 50px; margin: 0; text-align: center;\">+</p>","response":null,"trial_type":"html-keyboard-response","trial_index":13,"plugin_version":"2.1.0","time_elapsed":42959,"subject_id":"92522","group":"Group2","condition":"3_Rep","full_date":"2026-02-25T00:20:15.784Z","date":"2026-02-25","time":"00:20:15"},{"task":"memory_phase","broad_category":"M","image_png":"M_Quartzite_15.png","image_id":287,"category_name":"Quartzite","category":18,"distinct_rating":2.19,"distinct_type":"Bottom","rt":null,"stimulus":"Stimuli_Rocks480/M_Quartzite_15.png","response":null,"trial_type":"image-keyboard-response","trial_index":14,"plugin_version":"2.1.0","time_elapsed":45462,"subject_id":"92522","group":"Group2","condition":"3_Rep","full_date":"2026-02-25T00:20:15.784Z","date":"2026-02-25","time":"00:20:15"},{"rt":null,"stimulus":"<p style=\"font-size: 50px; margin: 0; text-align: center;\">+</p>","response":null,"trial_type":"html-keyboard-response","trial_index":15,"plugin_version":"2.1.0","time_elapsed":46465,"subject_id":"92522","group":"Group2","condition":"3_Rep","full_date":"2026-02-25T00:20:15.784Z","date":"2026-02-25","time":"00:20:15"},{"task":"memory_phase","broad_category":"S","image_png":"S_Conglomerate_14.png","image_id":382,"category_name":"Conglomerate","category":24,"distinct_rating":6.86,"distinct_type":"Top","rt":null,"stimulus":"Stimuli_Rocks480/S_Conglomerate_14.png","response":null,"trial_type":"image-keyboard-response","trial_index":16,"plugin_version":"2.1.0","time_elapsed":48970,"subject_id":"92522","group":"Group2","condition":"3_Rep","full_date":"2026-02-25T00:20:15.784Z","date":"2026-02-25","time":"00:20:15"},{"rt":null,"stimulus":"<p style=\"font-size: 50px; margin: 0; text-align: center;\">+</p>","response":null,"trial_type":"html-keyboard-response","trial_index":17,"plugin_version":"2.1.0","time_elapsed":49973,"subject_id":"92522","group":"Group2","condition":"3_Rep","full_date":"2026-02-25T00:20:15.784Z","date":"2026-02-25","time":"00:20:15"},{"task":"memory_phase","broad_category":"M","image_png":"M_Slate_10.png","image_id":314,"category_name":"Slate","category":20,"distinct_rating":1.94,"distinct_type":"Bottom","rt":null,"stimulus":"Stimuli_Rocks480/M_Slate_10.png","response":null,"trial_type":"image-keyboard-response","trial_index":18,"plugin_version":"2.1.0","time_elapsed":52478,"subject_id":"92522","group":"Group2","condition":"3_Rep","full_date":"2026-02-25T00:20:15.784Z","date":"2026-02-25","time":"00:20:15"},{"rt":null,"stimulus":"<p style=\"font-size: 50px; margin: 0; text-align: center;\">+</p>","response":null,"trial_type":"html-keyboard-response","trial_index":19,"plugin_version":"2.1.0","time_elapsed":53480,"subject_id":"92522","group":"Group2","condition":"3_Rep","full_date":"2026-02-25T00:20:15.784Z","date":"2026-02-25","time":"00:20:15"},{"task":"memory_phase","broad_category":"M","image_png":"M_Phyllite_13.png","image_id":269,"category_name":"Phyllite","category":17,"distinct_rating":2.8,"distinct_type":"Bottom","rt":null,"stimulus":"Stimuli_Rocks480/M_Phyllite_13.png","response":null,"trial_type":"image-keyboard-response","trial_index":20,"plugin_version":"2.1.0","time_elapsed":55984,"subject_id":"92522","group":"Group2","condition":"3_Rep","full_date":"2026-02-25T00:20:15.784Z","date":"2026-02-25","time":"00:20:15"},{"rt":null,"stimulus":"<p style=\"font-size: 50px; margin: 0; text-align: center;\">+</p>","response":null,"trial_type":"html-keyboard-response","trial_index":21,"plugin_version":"2.1.0","time_elapsed":56987,"subject_id":"92522","group":"Group2","condition":"3_Rep","full_date":"2026-02-25T00:20:15.784Z","date":"2026-02-25","time":"00:20:15"},{"task":"memory_phase","broad_category":"M","image_png":"M_Gneiss_15.png","image_id":207,"category_name":"Gneiss","category":13,"distinct_rating":3.11,"distinct_type":"Bottom","rt":null,"stimulus":"Stimuli_Rocks480/M_Gneiss_15.png","response":null,"trial_type":"image-keyboard-response","trial_index":22,"plugin_version":"2.1.0","time_elapsed":59491,"subject_id":"92522","group":"Group2","condition":"3_Rep","full_date":"2026-02-25T00:20:15.784Z","date":"2026-02-25","time":"00:20:15"},{"rt":null,"stimulus":"<p style=\"font-size: 50px; margin: 0; text-align: center;\">+</p>","response":null,"trial_type":"html-keyboard-response","trial_index":23,"plugin_version":"2.1.0","time_elapsed":60494,"subject_id":"92522","group":"Group2","condition":"3_Rep","full_date":"2026-02-25T00:20:15.784Z","date":"2026-02-25","time":"00:20:15"},{"task":"memory_phase","broad_category":"I","image_png":"I_Rhyolite_10.png","image_id":154,"category_name":"Rhyolite","category":10,"distinct_rating":2.88,"distinct_type":"Bottom","rt":null,"stimulus":"Stimuli_Rocks480/I_Rhyolite_10.png","response":null,"trial_type":"image-keyboard-response","trial_index":24,"plugin_version":"2.1.0","time_elapsed":62999,"subject_id":"92522","group":"Group2","condition":"3_Rep","full_date":"2026-02-25T00:20:15.784Z","date":"2026-02-25","time":"00:20:15"},{"rt":null,"stimulus":"<p style=\"font-size: 50px; margin: 0; text-align: center;\">+</p>","response":null,"trial_type":"html-keyboard-response","trial_index":25,"plugin_version":"2.1.0","time_elapsed":64001,"subject_id":"92522","group":"Group2","condition":"3_Rep","full_date":"2026-02-25T00:20:15.784Z","date":"2026-02-25","time":"00:20:15"},{"task":"memory_phase","broad_category":"M","image_png":"M_Phyllite_02.png","image_id":258,"category_name":"Phyllite","category":17,"distinct_rating":2.89,"distinct_type":"Bottom","rt":null,"stimulus":"Stimuli_Rocks480/M_Phyllite_02.png","response":null,"trial_type":"image-keyboard-response","trial_index":26,"plugin_version":"2.1.0","time_elapsed":66504,"subject_id":"92522","group":"Group2","condition":"3_Rep","full_date":"2026-02-25T00:20:15.784Z","date":"2026-02-25","time":"00:20:15"},{"rt":null,"stimulus":"<p style=\"font-size: 50px; margin: 0; text-align: center;\">+</p>","response":null,"trial_type":"html-keyboard-response","trial_index":27,"plugin_version":"2.1.0","time_elapsed":67507,"subject_id":"92522","group":"Group2","condition":"3_Rep","full_date":"2026-02-25T00:20:15.784Z","date":"2026-02-25","time":"00:20:15"},{"task":"memory_phase","broad_category":"I","image_png":"I_Peridotite_13.png","image_id":125,"category_name":"Peridotite","category":8,"distinct_rating":7.28,"distinct_type":"Top","rt":null,"stimulus":"Stimuli_Rocks480/I_Peridotite_13.png","response":null,"trial_type":"image-keyboard-response","trial_index":28,"plugin_version":"2.1.0","time_elapsed":70011,"subject_id":"92522","group":"Group2","condition":"3_Rep","full_date":"2026-02-25T00:20:15.784Z","date":"2026-02-25","time":"00:20:15"},{"rt":null,"stimulus":"<p style=\"font-size: 50px; margin: 0; text-align: center;\">+</p>","response":null,"trial_type":"html-keyboard-response","trial_index":29,"plugin_version":"2.1.0","time_elapsed":71014,"subject_id":"92522","group":"Group2","condition":"3_Rep","full_date":"2026-02-25T00:20:15.784Z","date":"2026-02-25","time":"00:20:15"},{"task":"memory_phase","broad_category":"S","image_png":"S_Dolomite_16.png","image_id":400,"category_name":"Dolomite","category":25,"distinct_rating":1.71,"distinct_type":"Bottom","rt":null,"stimulus":"Stimuli_Rocks480/S_Dolomite_16.png","response":null,"trial_type":"image-keyboard-response","trial_index":30,"plugin_version":"2.1.0","time_elapsed":73518,"subject_id":"92522","group":"Group2","condition":"3_Rep","full_date":"2026-02-25T00:20:15.784Z","date":"2026-02-25","time":"00:20:15"},{"rt":null,"stimulus":"<p style=\"font-size: 50px; margin: 0; text-align: center;\">+</p>","response":null,"trial_type":"html-keyboard-response","trial_index":31,"plugin_version":"2.1.0","time_elapsed":74520,"subject_id":"92522","group":"Group2","condition":"3_Rep","full_date":"2026-02-25T00:20:15.784Z","date":"2026-02-25","time":"00:20:15"},{"task":"memory_phase","broad_category":"M","image_png":"M_Gneiss_10.png","image_id":202,"category_name":"Gneiss","category":13,"distinct_rating":3.09,"distinct_type":"Bottom","rt":null,"stimulus":"Stimuli_Rocks480/M_Gneiss_10.png","response":null,"trial_type":"image-keyboard-response","trial_index":32,"plugin_version":"2.1.0","time_elapsed":77024,"subject_id":"92522","group":"Group2","condition":"3_Rep","full_date":"2026-02-25T00:20:15.784Z","date":"2026-02-25","time":"00:20:15"},{"rt":null,"stimulus":"<p style=\"font-size: 50px; margin: 0; text-align: center;\">+</p>","response":null,"trial_type":"html-keyboard-response","trial_index":33,"plugin_version":"2.1.0","time_elapsed":78027,"subject_id":"92522","group":"Group2","condition":"3_Rep","full_date":"2026-02-25T00:20:15.784Z","date":"2026-02-25","time":"00:20:15"},{"task":"memory_phase","broad_category":"S","image_png":"S_Shale_03.png","image_id":467,"category_name":"Shale","category":30,"distinct_rating":1.95,"distinct_type":"Bottom","rt":null,"stimulus":"Stimuli_Rocks480/S_Shale_03.png","response":null,"trial_type":"image-keyboard-response","trial_index":34,"plugin_version":"2.1.0","time_elapsed":80530,"subject_id":"92522","group":"Group2","condition":"3_Rep","full_date":"2026-02-25T00:20:15.784Z","date":"2026-02-25","time":"00:20:15"},{"rt":null,"stimulus":"<p style=\"font-size: 50px; margin: 0; text-align: center;\">+</p>","response":null,"trial_type":"html-keyboard-response","trial_index":35,"plugin_version":"2.1.0","time_elapsed":81533,"subject_id":"92522","group":"Group2","condition":"3_Rep","full_date":"2026-02-25T00:20:15.784Z","date":"2026-02-25","time":"00:20:15"},{"task":"memory_phase","broad_category":"I","image_png":"I_Basalt_13.png","image_id":29,"category_name":"Basalt","category":2,"distinct_rating":2.68,"distinct_type":"Bottom","rt":null,"stimulus":"Stimuli_Rocks480/I_Basalt_13.png","response":null,"trial_type":"image-keyboard-response","trial_index":36,"plugin_version":"2.1.0","time_elapsed":84037,"subject_id":"92522","group":"Group2","condition":"3_Rep","full_date":"2026-02-25T00:20:15.784Z","date":"2026-02-25","time":"00:20:15"},{"rt":null,"stimulus":"<p style=\"font-size: 50px; margin: 0; text-align: center;\">+</p>","response":null,"trial_type":"html-keyboard-response","trial_index":37,"plugin_version":"2.1.0","time_elapsed":85040,"subject_id":"92522","group":"Group2","condition":"3_Rep","full_date":"2026-02-25T00:20:15.784Z","date":"2026-02-25","time":"00:20:15"},{"task":"memory_phase","broad_category":"I","image_png":"I_Basalt_08.png","image_id":24,"category_name":"Basalt","category":2,"distinct_rating":2.31,"distinct_type":"Bottom","rt":null,"stimulus":"Stimuli_Rocks480/I_Basalt_08.png","response":null,"trial_type":"image-keyboard-response","trial_index":38,"plugin_version":"2.1.0","time_elapsed":87543,"subject_id":"92522","group":"Group2","condition":"3_Rep","full_date":"2026-02-25T00:20:15.784Z","date":"2026-02-25","time":"00:20:15"},{"rt":null,"stimulus":"<p style=\"font-size: 50px; margin: 0; text-align: center;\">+</p>","response":null,"trial_type":"html-keyboard-response","trial_index":39,"plugin_version":"2.1.0","time_elapsed":88546,"subject_id":"92522","group":"Group2","condition":"3_Rep","full_date":"2026-02-25T00:20:15.784Z","date":"2026-02-25","time":"00:20:15"},{"task":"memory_phase","broad_category":"I","image_png":"I_Andesite_03.png","image_id":3,"category_name":"Andesite","category":1,"distinct_rating":3.17,"distinct_type":"Bottom","rt":null,"stimulus":"Stimuli_Rocks480/I_Andesite_03.png","response":null,"trial_type":"image-keyboard-response","trial_index":40,"plugin_version":"2.1.0","time_elapsed":91051,"subject_id":"92522","group":"Group2","condition":"3_Rep","full_date":"2026-02-25T00:20:15.784Z","date":"2026-02-25","time":"00:20:15"},{"rt":null,"stimulus":"<p style=\"font-size: 50px; margin: 0; text-align: center;\">+</p>","response":null,"trial_type":"html-keyboard-response","trial_index":41,"plugin_version":"2.1.0","time_elapsed":92053,"subject_id":"92522","group":"Group2","condition":"3_Rep","full_date":"2026-02-25T00:20:15.784Z","date":"2026-02-25","time":"00:20:15"},{"task":"memory_phase","broad_category":"I","image_png":"I_Obsidian_06.png","image_id":86,"category_name":"Obsidian","category":6,"distinct_rating":8.01,"distinct_type":"Top","rt":null,"stimulus":"Stimuli_Rocks480/I_Obsidian_06.png","response":null,"trial_type":"image-keyboard-response","trial_index":42,"plugin_version":"2.1.0","time_elapsed":94557,"subject_id":"92522","group":"Group2","condition":"3_Rep","full_date":"2026-02-25T00:20:15.784Z","date":"2026-02-25","time":"00:20:15"},{"rt":null,"stimulus":"<p style=\"font-size: 50px; margin: 0; text-align: center;\">+</p>","response":null,"trial_type":"html-keyboard-response","trial_index":43,"plugin_version":"2.1.0","time_elapsed":95558,"subject_id":"92522","group":"Group2","condition":"3_Rep","full_date":"2026-02-25T00:20:15.784Z","date":"2026-02-25","time":"00:20:15"},{"task":"memory_phase","broad_category":"S","image_png":"S_Rock Salt_15.png","image_id":447,"category_name":"Rock Salt","category":28,"distinct_rating":7.79,"distinct_type":"Top","rt":null,"stimulus":"Stimuli_Rocks480/S_Rock Salt_15.png","response":null,"trial_type":"image-keyboard-response","trial_index":44,"plugin_version":"2.1.0","time_elapsed":98061,"subject_id":"92522","group":"Group2","condition":"3_Rep","full_date":"2026-02-25T00:20:15.784Z","date":"2026-02-25","time":"00:20:15"},{"rt":null,"stimulus":"<p style=\"font-size: 50px; margin: 0; text-align: center;\">+</p>","response":null,"trial_type":"html-keyboard-response","trial_index":45,"plugin_version":"2.1.0","time_elapsed":99064,"subject_id":"92522","group":"Group2","condition":"3_Rep","full_date":"2026-02-25T00:20:15.784Z","date":"2026-02-25","time":"00:20:15"},{"task":"memory_phase","broad_category":"S","image_png":"S_Dolomite_07.png","image_id":391,"category_name":"Dolomite","category":25,"distinct_rating":1.73,"distinct_type":"Bottom","rt":null,"stimulus":"Stimuli_Rocks480/S_Dolomite_07.png","response":null,"trial_type":"image-keyboard-response","trial_index":46,"plugin_version":"2.1.0","time_elapsed":101567,"subject_id":"92522","group":"Group2","condition":"3_Rep","full_date":"2026-02-25T00:20:15.784Z","date":"2026-02-25","time":"00:20:15"},{"rt":null,"stimulus":"<p style=\"font-size: 50px; margin: 0; text-align: center;\">+</p>","response":null,"trial_type":"html-keyboard-response","trial_index":47,"plugin_version":"2.1.0","time_elapsed":102571,"subject_id":"92522","group":"Group2","condition":"3_Rep","full_date":"2026-02-25T00:20:15.784Z","date":"2026-02-25","time":"00:20:15"},{"task":"memory_phase","broad_category":"I","image_png":"I_Pumice_14.png","image_id":142,"category_name":"Pumice","category":9,"distinct_rating":3.22,"distinct_type":"Bottom","rt":null,"stimulus":"Stimuli_Rocks480/I_Pumice_14.png","response":null,"trial_type":"image-keyboard-response","trial_index":48,"plugin_version":"2.1.0","time_elapsed":105074,"subject_id":"92522","group":"Group2","condition":"3_Rep","full_date":"2026-02-25T00:20:15.784Z","date":"2026-02-25","time":"00:20:15"},{"rt":null,"stimulus":"<p style=\"font-size: 50px; margin: 0; text-align: center;\">+</p>","response":null,"trial_type":"html-keyboard-response","trial_index":49,"plugin_version":"2.1.0","time_elapsed":106077,"subject_id":"92522","group":"Group2","condition":"3_Rep","full_date":"2026-02-25T00:20:15.784Z","date":"2026-02-25","time":"00:20:15"},{"task":"memory_phase","broad_category":"S","image_png":"S_Dolomite_01.png","image_id":385,"category_name":"Dolomite","category":25,"distinct_rating":1.43,"distinct_type":"Bottom","rt":null,"stimulus":"Stimuli_Rocks480/S_Dolomite_01.png","response":null,"trial_type":"image-keyboard-response","trial_index":50,"plugin_version":"2.1.0","time_elapsed":108582,"subject_id":"92522","group":"Group2","condition":"3_Rep","full_date":"2026-02-25T00:20:15.784Z","date":"2026-02-25","time":"00:20:15"},{"rt":null,"stimulus":"<p style=\"font-size: 50px; margin: 0; text-align: center;\">+</p>","response":null,"trial_type":"html-keyboard-response","trial_index":51,"plugin_version":"2.1.0","time_elapsed":109584,"subject_id":"92522","group":"Group2","condition":"3_Rep","full_date":"2026-02-25T00:20:15.784Z","date":"2026-02-25","time":"00:20:15"},{"task":"memory_phase","broad_category":"S","image_png":"S_Shale_02.png","image_id":466,"category_name":"Shale","category":30,"distinct_rating":2.9,"distinct_type":"Bottom","rt":null,"stimulus":"Stimuli_Rocks480/S_Shale_02.png","response":null,"trial_type":"image-keyboard-response","trial_index":52,"plugin_version":"2.1.0","time_elapsed":112089,"subject_id":"92522","group":"Group2","condition":"3_Rep","full_date":"2026-02-25T00:20:15.784Z","date":"2026-02-25","time":"00:20:15"},{"rt":null,"stimulus":"<p style=\"font-size: 50px; margin: 0; text-align: center;\">+</p>","response":null,"trial_type":"html-keyboard-response","trial_index":53,"plugin_version":"2.1.0","time_elapsed":113091,"subject_id":"92522","group":"Group2","condition":"3_Rep","full_date":"2026-02-25T00:20:15.784Z","date":"2026-02-25","time":"00:20:15"},{"task":"memory_phase","broad_category":"I","image_png":"I_Diorite_10.png","image_id":42,"category_name":"Diorite","category":3,"distinct_rating":2.84,"distinct_type":"Bottom","rt":null,"stimulus":"Stimuli_Rocks480/I_Diorite_10.png","response":null,"trial_type":"image-keyboard-response","trial_index":54,"plugin_version":"2.1.0","time_elapsed":115595,"subject_id":"92522","group":"Group2","condition":"3_Rep","full_date":"2026-02-25T00:20:15.784Z","date":"2026-02-25","time":"00:20:15"},{"rt":6626,"stimulus":"<p style=\"max-width: 760px; margin: auto; font-size: 35px; line-height: 1.5;\">\n                Press SPACE to continue study phase\n              </p>","response":" ","trial_type":"html-keyboard-response","trial_index":55,"plugin_version":"2.1.0","time_elapsed":122223,"subject_id":"92522","group":"Group2","condition":"3_Rep","full_date":"2026-02-25T00:20:15.784Z","date":"2026-02-25","time":"00:20:15"},{"rt":null,"stimulus":"<p style=\"font-size: 50px; margin: 0; text-align: center;\">+</p>","response":null,"trial_type":"html-keyboard-response","trial_index":56,"plugin_version":"2.1.0","time_elapsed":123225,"subject_id":"92522","group":"Group2","condition":"3_Rep","full_date":"2026-02-25T00:20:15.784Z","date":"2026-02-25","time":"00:20:15"},{"task":"memory_phase","broad_category":"M","image_png":"M_Slate_14.png","image_id":318,"category_name":"Slate","category":20,"distinct_rating":2.58,"distinct_type":"Bottom","rt":null,"stimulus":"Stimuli_Rocks480/M_Slate_14.png","response":null,"trial_type":"image-keyboard-response","trial_index":57,"plugin_version":"2.1.0","time_elapsed":125728,"subject_id":"92522","group":"Group2","condition":"3_Rep","full_date":"2026-02-25T00:20:15.784Z","date":"2026-02-25","time":"00:20:15"},{"rt":null,"stimulus":"<p style=\"font-size: 50px; margin: 0; text-align: center;\">+</p>","response":null,"trial_type":"html-keyboard-response","trial_index":58,"plugin_version":"2.1.0","time_elapsed":126731,"subject_id":"92522","group":"Group2","condition":"3_Rep","full_date":"2026-02-25T00:20:15.784Z","date":"2026-02-25","time":"00:20:15"},{"task":"memory_phase","broad_category":"I","image_png":"I_Diorite_15.png","image_id":47,"category_name":"Diorite","category":3,"distinct_rating":3.05,"distinct_type":"Bottom","rt":null,"stimulus":"Stimuli_Rocks480/I_Diorite_15.png","response":null,"trial_type":"image-keyboard-response","trial_index":59,"plugin_version":"2.1.0","time_elapsed":129234,"subject_id":"92522","group":"Group2","condition":"3_Rep","full_date":"2026-02-25T00:20:15.784Z","date":"2026-02-25","time":"00:20:15"},{"rt":null,"stimulus":"<p style=\"font-size: 50px; margin: 0; text-align: center;\">+</p>","response":null,"trial_type":"html-keyboard-response","trial_index":60,"plugin_version":"2.1.0","time_elapsed":130238,"subject_id":"92522","group":"Group2","condition":"3_Rep","full_date":"2026-02-25T00:20:15.784Z","date":"2026-02-25","time":"00:20:15"},{"task":"memory_phase","broad_category":"I","image_png":"I_Pegmatite_03.png","image_id":99,"category_name":"Pegmatite","category":7,"distinct_rating":7.24,"distinct_type":"Top","rt":null,"stimulus":"Stimuli_Rocks480/I_Pegmatite_03.png","response":null,"trial_type":"image-keyboard-response","trial_index":61,"plugin_version":"2.1.0","time_elapsed":132741,"subject_id":"92522","group":"Group2","condition":"3_Rep","full_date":"2026-02-25T00:20:15.784Z","date":"2026-02-25","time":"00:20:15"},{"rt":null,"stimulus":"<p style=\"font-size: 50px; margin: 0; text-align: center;\">+</p>","response":null,"trial_type":"html-keyboard-response","trial_index":62,"plugin_version":"2.1.0","time_elapsed":133744,"subject_id":"92522","group":"Group2","condition":"3_Rep","full_date":"2026-02-25T00:20:15.784Z","date":"2026-02-25","time":"00:20:15"},{"task":"memory_phase","broad_category":"M","image_png":"M_Quartzite_12.png","image_id":284,"category_name":"Quartzite","category":18,"distinct_rating":1.92,"distinct_type":"Bottom","rt":null,"stimulus":"Stimuli_Rocks480/M_Quartzite_12.png","response":null,"trial_type":"image-keyboard-response","trial_index":63,"plugin_version":"2.1.0","time_elapsed":136248,"subject_id":"92522","group":"Group2","condition":"3_Rep","full_date":"2026-02-25T00:20:15.784Z","date":"2026-02-25","time":"00:20:15"},{"rt":null,"stimulus":"<p style=\"font-size: 50px; margin: 0; text-align: center;\">+</p>","response":null,"trial_type":"html-keyboard-response","trial_index":64,"plugin_version":"2.1.0","time_elapsed":137251,"subject_id":"92522","group":"Group2","condition":"3_Rep","full_date":"2026-02-25T00:20:15.784Z","date":"2026-02-25","time":"00:20:15"},{"task":"memory_phase","broad_category":"S","image_png":"S_Rock Salt_13.png","image_id":445,"category_name":"Rock Salt","category":28,"distinct_rating":7.58,"distinct_type":"Top","rt":null,"stimulus":"Stimuli_Rocks480/S_Rock Salt_13.png","response":null,"trial_type":"image-keyboard-response","trial_index":65,"plugin_version":"2.1.0","time_elapsed":139755,"subject_id":"92522","group":"Group2","condition":"3_Rep","full_date":"2026-02-25T00:20:15.784Z","date":"2026-02-25","time":"00:20:15"},{"rt":null,"stimulus":"<p style=\"font-size: 50px; margin: 0; text-align: center;\">+</p>","response":null,"trial_type":"html-keyboard-response","trial_index":66,"plugin_version":"2.1.0","time_elapsed":140758,"subject_id":"92522","group":"Group2","condition":"3_Rep","full_date":"2026-02-25T00:20:15.784Z","date":"2026-02-25","time":"00:20:15"},{"task":"memory_phase","broad_category":"S","image_png":"S_Sandstone_08.png","image_id":456,"category_name":"Sandstone","category":29,"distinct_rating":1.5,"distinct_type":"Bottom","rt":null,"stimulus":"Stimuli_Rocks480/S_Sandstone_08.png","response":null,"trial_type":"image-keyboard-response","trial_index":67,"plugin_version":"2.1.0","time_elapsed":143261,"subject_id":"92522","group":"Group2","condition":"3_Rep","full_date":"2026-02-25T00:20:15.784Z","date":"2026-02-25","time":"00:20:15"},{"rt":null,"stimulus":"<p style=\"font-size: 50px; margin: 0; text-align: center;\">+</p>","response":null,"trial_type":"html-keyboard-response","trial_index":68,"plugin_version":"2.1.0","time_elapsed":144264,"subject_id":"92522","group":"Group2","condition":"3_Rep","full_date":"2026-02-25T00:20:15.784Z","date":"2026-02-25","time":"00:20:15"},{"task":"memory_phase","broad_category":"I","image_png":"I_Gabbro_02.png","image_id":50,"category_name":"Gabbro","category":4,"distinct_rating":2.73,"distinct_type":"Bottom","rt":null,"stimulus":"Stimuli_Rocks480/I_Gabbro_02.png","response":null,"trial_type":"image-keyboard-response","trial_index":69,"plugin_version":"2.1.0","time_elapsed":146768,"subject_id":"92522","group":"Group2","condition":"3_Rep","full_date":"2026-02-25T00:20:15.784Z","date":"2026-02-25","time":"00:20:15"},{"rt":null,"stimulus":"<p style=\"font-size: 50px; margin: 0; text-align: center;\">+</p>","response":null,"trial_type":"html-keyboard-response","trial_index":70,"plugin_version":"2.1.0","time_elapsed":147770,"subject_id":"92522","group":"Group2","condition":"3_Rep","full_date":"2026-02-25T00:20:15.784Z","date":"2026-02-25","time":"00:20:15"},{"task":"memory_phase","broad_category":"I","image_png":"I_Pumice_13.png","image_id":141,"category_name":"Pumice","category":9,"distinct_rating":3.12,"distinct_type":"Bottom","rt":null,"stimulus":"Stimuli_Rocks480/I_Pumice_13.png","response":null,"trial_type":"image-keyboard-response","trial_index":71,"plugin_version":"2.1.0","time_elapsed":150274,"subject_id":"92522","group":"Group2","condition":"3_Rep","full_date":"2026-02-25T00:20:15.784Z","date":"2026-02-25","time":"00:20:15"},{"rt":null,"stimulus":"<p style=\"font-size: 50px; margin: 0; text-align: center;\">+</p>","response":null,"trial_type":"html-keyboard-response","trial_index":72,"plugin_version":"2.1.0","time_elapsed":151276,"subject_id":"92522","group":"Group2","condition":"3_Rep","full_date":"2026-02-25T00:20:15.784Z","date":"2026-02-25","time":"00:20:15"},{"task":"memory_phase","broad_category":"M","image_png":"M_Phyllite_05.png","image_id":261,"category_name":"Phyllite","category":17,"distinct_rating":2.14,"distinct_type":"Bottom","rt":null,"stimulus":"Stimuli_Rocks480/M_Phyllite_05.png","response":null,"trial_type":"image-keyboard-response","trial_index":73,"plugin_version":"2.1.0","time_elapsed":153781,"subject_id":"92522","group":"Group2","condition":"3_Rep","full_date":"2026-02-25T00:20:15.784Z","date":"2026-02-25","time":"00:20:15"},{"rt":null,"stimulus":"<p style=\"font-size: 50px; margin: 0; text-align: center;\">+</p>","response":null,"trial_type":"html-keyboard-response","trial_index":74,"plugin_version":"2.1.0","time_elapsed":154783,"subject_id":"92522","group":"Group2","condition":"3_Rep","full_date":"2026-02-25T00:20:15.784Z","date":"2026-02-25","time":"00:20:15"},{"task":"memory_phase","broad_category":"I","image_png":"I_Gabbro_12.png","image_id":60,"category_name":"Gabbro","category":4,"distinct_rating":2.6,"distinct_type":"Bottom","rt":null,"stimulus":"Stimuli_Rocks480/I_Gabbro_12.png","response":null,"trial_type":"image-keyboard-response","trial_index":75,"plugin_version":"2.1.0","time_elapsed":157287,"subject_id":"92522","group":"Group2","condition":"3_Rep","full_date":"2026-02-25T00:20:15.784Z","date":"2026-02-25","time":"00:20:15"},{"rt":null,"stimulus":"<p style=\"font-size: 50px; margin: 0; text-align: center;\">+</p>","response":null,"trial_type":"html-keyboard-response","trial_index":76,"plugin_version":"2.1.0","time_elapsed":158290,"subject_id":"92522","group":"Group2","condition":"3_Rep","full_date":"2026-02-25T00:20:15.784Z","date":"2026-02-25","time":"00:20:15"},{"task":"memory_phase","broad_category":"I","image_png":"I_Rhyolite_08.png","image_id":152,"category_name":"Rhyolite","category":10,"distinct_rating":1.38,"distinct_type":"Bottom","rt":null,"stimulus":"Stimuli_Rocks480/I_Rhyolite_08.png","response":null,"trial_type":"image-keyboard-response","trial_index":77,"plugin_version":"2.1.0","time_elapsed":160794,"subject_id":"92522","group":"Group2","condition":"3_Rep","full_date":"2026-02-25T00:20:15.784Z","date":"2026-02-25","time":"00:20:15"},{"rt":null,"stimulus":"<p style=\"font-size: 50px; margin: 0; text-align: center;\">+</p>","response":null,"trial_type":"html-keyboard-response","trial_index":78,"plugin_version":"2.1.0","time_elapsed":161797,"subject_id":"92522","group":"Group2","condition":"3_Rep","full_date":"2026-02-25T00:20:15.784Z","date":"2026-02-25","time":"00:20:15"},{"task":"memory_phase","broad_category":"I","image_png":"I_Basalt_10.png","image_id":26,"category_name":"Basalt","category":2,"distinct_rating":2.76,"distinct_type":"Bottom","rt":null,"stimulus":"Stimuli_Rocks480/I_Basalt_10.png","response":null,"trial_type":"image-keyboard-response","trial_index":79,"plugin_version":"2.1.0","time_elapsed":164302,"subject_id":"92522","group":"Group2","condition":"3_Rep","full_date":"2026-02-25T00:20:15.784Z","date":"2026-02-25","time":"00:20:15"},{"rt":null,"stimulus":"<p style=\"font-size: 50px; margin: 0; text-align: center;\">+</p>","response":null,"trial_type":"html-keyboard-response","trial_index":80,"plugin_version":"2.1.0","time_elapsed":165304,"subject_id":"92522","group":"Group2","condition":"3_Rep","full_date":"2026-02-25T00:20:15.784Z","date":"2026-02-25","time":"00:20:15"},{"task":"memory_phase","broad_category":"M","image_png":"M_Gneiss_14.png","image_id":206,"category_name":"Gneiss","category":13,"distinct_rating":3.41,"distinct_type":"Bottom","rt":null,"stimulus":"Stimuli_Rocks480/M_Gneiss_14.png","response":null,"trial_type":"image-keyboard-response","trial_index":81,"plugin_version":"2.1.0","time_elapsed":167807,"subject_id":"92522","group":"Group2","condition":"3_Rep","full_date":"2026-02-25T00:20:15.784Z","date":"2026-02-25","time":"00:20:15"},{"rt":null,"stimulus":"<p style=\"font-size: 50px; margin: 0; text-align: center;\">+</p>","response":null,"trial_type":"html-keyboard-response","trial_index":82,"plugin_version":"2.1.0","time_elapsed":168810,"subject_id":"92522","group":"Group2","condition":"3_Rep","full_date":"2026-02-25T00:20:15.784Z","date":"2026-02-25","time":"00:20:15"},{"task":"memory_phase","broad_category":"S","image_png":"S_Chert_13.png","image_id":365,"category_name":"Chert","category":23,"distinct_rating":6.57,"distinct_type":"Top","rt":null,"stimulus":"Stimuli_Rocks480/S_Chert_13.png","response":null,"trial_type":"image-keyboard-response","trial_index":83,"plugin_version":"2.1.0","time_elapsed":171315,"subject_id":"92522","group":"Group2","condition":"3_Rep","full_date":"2026-02-25T00:20:15.784Z","date":"2026-02-25","time":"00:20:15"},{"rt":null,"stimulus":"<p style=\"font-size: 50px; margin: 0; text-align: center;\">+</p>","response":null,"trial_type":"html-keyboard-response","trial_index":84,"plugin_version":"2.1.0","time_elapsed":172317,"subject_id":"92522","group":"Group2","condition":"3_Rep","full_date":"2026-02-25T00:20:15.784Z","date":"2026-02-25","time":"00:20:15"},{"task":"memory_phase","broad_category":"S","image_png":"S_Shale_07.png","image_id":471,"category_name":"Shale","category":30,"distinct_rating":2.73,"distinct_type":"Bottom","rt":null,"stimulus":"Stimuli_Rocks480/S_Shale_07.png","response":null,"trial_type":"image-keyboard-response","trial_index":85,"plugin_version":"2.1.0","time_elapsed":174821,"subject_id":"92522","group":"Group2","condition":"3_Rep","full_date":"2026-02-25T00:20:15.784Z","date":"2026-02-25","time":"00:20:15"},{"rt":null,"stimulus":"<p style=\"font-size: 50px; margin: 0; text-align: center;\">+</p>","response":null,"trial_type":"html-keyboard-response","trial_index":86,"plugin_version":"2.1.0","time_elapsed":175824,"subject_id":"92522","group":"Group2","condition":"3_Rep","full_date":"2026-02-25T00:20:15.784Z","date":"2026-02-25","time":"00:20:15"},{"task":"memory_phase","broad_category":"I","image_png":"I_Pumice_01.png","image_id":129,"category_name":"Pumice","category":9,"distinct_rating":3.25,"distinct_type":"Bottom","rt":null,"stimulus":"Stimuli_Rocks480/I_Pumice_01.png","response":null,"trial_type":"image-keyboard-response","trial_index":87,"plugin_version":"2.1.0","time_elapsed":178328,"subject_id":"92522","group":"Group2","condition":"3_Rep","full_date":"2026-02-25T00:20:15.784Z","date":"2026-02-25","time":"00:20:15"},{"rt":null,"stimulus":"<p style=\"font-size: 50px; margin: 0; text-align: center;\">+</p>","response":null,"trial_type":"html-keyboard-response","trial_index":88,"plugin_version":"2.1.0","time_elapsed":179331,"subject_id":"92522","group":"Group2","condition":"3_Rep","full_date":"2026-02-25T00:20:15.784Z","date":"2026-02-25","time":"00:20:15"},{"task":"memory_phase","broad_category":"M","image_png":"M_Marble_03.png","image_id":227,"category_name":"Marble","category":15,"distinct_rating":2.67,"distinct_type":"Bottom","rt":null,"stimulus":"Stimuli_Rocks480/M_Marble_03.png","response":null,"trial_type":"image-keyboard-response","trial_index":89,"plugin_version":"2.1.0","time_elapsed":181835,"subject_id":"92522","group":"Group2","condition":"3_Rep","full_date":"2026-02-25T00:20:15.784Z","date":"2026-02-25","time":"00:20:15"},{"rt":null,"stimulus":"<p style=\"font-size: 50px; margin: 0; text-align: center;\">+</p>","response":null,"trial_type":"html-keyboard-response","trial_index":90,"plugin_version":"2.1.0","time_elapsed":182838,"subject_id":"92522","group":"Group2","condition":"3_Rep","full_date":"2026-02-25T00:20:15.784Z","date":"2026-02-25","time":"00:20:15"},{"task":"memory_phase","broad_category":"S","image_png":"S_Sandstone_04.png","image_id":452,"category_name":"Sandstone","category":29,"distinct_rating":1.8,"distinct_type":"Bottom","rt":null,"stimulus":"Stimuli_Rocks480/S_Sandstone_04.png","response":null,"trial_type":"image-keyboard-response","trial_index":91,"plugin_version":"2.1.0","time_elapsed":185342,"subject_id":"92522","group":"Group2","condition":"3_Rep","full_date":"2026-02-25T00:20:15.784Z","date":"2026-02-25","time":"00:20:15"},{"rt":null,"stimulus":"<p style=\"font-size: 50px; margin: 0; text-align: center;\">+</p>","response":null,"trial_type":"html-keyboard-response","trial_index":92,"plugin_version":"2.1.0","time_elapsed":186345,"subject_id":"92522","group":"Group2","condition":"3_Rep","full_date":"2026-02-25T00:20:15.784Z","date":"2026-02-25","time":"00:20:15"},{"task":"memory_phase","broad_category":"M","image_png":"M_Slate_04.png","image_id":308,"category_name":"Slate","category":20,"distinct_rating":2.2,"distinct_type":"Bottom","rt":null,"stimulus":"Stimuli_Rocks480/M_Slate_04.png","response":null,"trial_type":"image-keyboard-response","trial_index":93,"plugin_version":"2.1.0","time_elapsed":188849,"subject_id":"92522","group":"Group2","condition":"3_Rep","full_date":"2026-02-25T00:20:15.784Z","date":"2026-02-25","time":"00:20:15"},{"rt":null,"stimulus":"<p style=\"font-size: 50px; margin: 0; text-align: center;\">+</p>","response":null,"trial_type":"html-keyboard-response","trial_index":94,"plugin_version":"2.1.0","time_elapsed":189851,"subject_id":"92522","group":"Group2","condition":"3_Rep","full_date":"2026-02-25T00:20:15.784Z","date":"2026-02-25","time":"00:20:15"},{"task":"memory_phase","broad_category":"M","image_png":"M_Marble_14.png","image_id":238,"category_name":"Marble","category":15,"distinct_rating":3.31,"distinct_type":"Bottom","rt":null,"stimulus":"Stimuli_Rocks480/M_Marble_14.png","response":null,"trial_type":"image-keyboard-response","trial_index":95,"plugin_version":"2.1.0","time_elapsed":192355,"subject_id":"92522","group":"Group2","condition":"3_Rep","full_date":"2026-02-25T00:20:15.784Z","date":"2026-02-25","time":"00:20:15"},{"rt":null,"stimulus":"<p style=\"font-size: 50px; margin: 0; text-align: center;\">+</p>","response":null,"trial_type":"html-keyboard-response","trial_index":96,"plugin_version":"2.1.0","time_elapsed":193357,"subject_id":"92522","group":"Group2","condition":"3_Rep","full_date":"2026-02-25T00:20:15.784Z","date":"2026-02-25","time":"00:20:15"},{"task":"memory_phase","broad_category":"I","image_png":"I_Pegmatite_11.png","image_id":107,"category_name":"Pegmatite","category":7,"distinct_rating":7.11,"distinct_type":"Top","rt":null,"stimulus":"Stimuli_Rocks480/I_Pegmatite_11.png","response":null,"trial_type":"image-keyboard-response","trial_index":97,"plugin_version":"2.1.0","time_elapsed":195862,"subject_id":"92522","group":"Group2","condition":"3_Rep","full_date":"2026-02-25T00:20:15.784Z","date":"2026-02-25","time":"00:20:15"},{"rt":null,"stimulus":"<p style=\"font-size: 50px; margin: 0; text-align: center;\">+</p>","response":null,"trial_type":"html-keyboard-response","trial_index":98,"plugin_version":"2.1.0","time_elapsed":196865,"subject_id":"92522","group":"Group2","condition":"3_Rep","full_date":"2026-02-25T00:20:15.784Z","date":"2026-02-25","time":"00:20:15"},{"task":"memory_phase","broad_category":"I","image_png":"I_Andesite_09.png","image_id":9,"category_name":"Andesite","category":1,"distinct_rating":2.49,"distinct_type":"Bottom","rt":null,"stimulus":"Stimuli_Rocks480/I_Andesite_09.png","response":null,"trial_type":"image-keyboard-response","trial_index":99,"plugin_version":"2.1.0","time_elapsed":199369,"subject_id":"92522","group":"Group2","condition":"3_Rep","full_date":"2026-02-25T00:20:15.784Z","date":"2026-02-25","time":"00:20:15"},{"rt":null,"stimulus":"<p style=\"font-size: 50px; margin: 0; text-align: center;\">+</p>","response":null,"trial_type":"html-keyboard-response","trial_index":100,"plugin_version":"2.1.0","time_elapsed":200373,"subject_id":"92522","group":"Group2","condition":"3_Rep","full_date":"2026-02-25T00:20:15.784Z","date":"2026-02-25","time":"00:20:15"},{"task":"memory_phase","broad_category":"I","image_png":"I_Andesite_04.png","image_id":4,"category_name":"Andesite","category":1,"distinct_rating":3.18,"distinct_type":"Bottom","rt":null,"stimulus":"Stimuli_Rocks480/I_Andesite_04.png","response":null,"trial_type":"image-keyboard-response","trial_index":101,"plugin_version":"2.1.0","time_elapsed":202877,"subject_id":"92522","group":"Group2","condition":"3_Rep","full_date":"2026-02-25T00:20:15.784Z","date":"2026-02-25","time":"00:20:15"},{"rt":null,"stimulus":"<p style=\"font-size: 50px; margin: 0; text-align: center;\">+</p>","response":null,"trial_type":"html-keyboard-response","trial_index":102,"plugin_version":"2.1.0","time_elapsed":203880,"subject_id":"92522","group":"Group2","condition":"3_Rep","full_date":"2026-02-25T00:20:15.784Z","date":"2026-02-25","time":"00:20:15"},{"task":"memory_phase","broad_category":"M","image_png":"M_Marble_02.png","image_id":226,"category_name":"Marble","category":15,"distinct_rating":3.2,"distinct_type":"Bottom","rt":null,"stimulus":"Stimuli_Rocks480/M_Marble_02.png","response":null,"trial_type":"image-keyboard-response","trial_index":103,"plugin_version":"2.1.0","time_elapsed":206384,"subject_id":"92522","group":"Group2","condition":"3_Rep","full_date":"2026-02-25T00:20:15.784Z","date":"2026-02-25","time":"00:20:15"},{"rt":null,"stimulus":"<p style=\"font-size: 50px; margin: 0; text-align: center;\">+</p>","response":null,"trial_type":"html-keyboard-response","trial_index":104,"plugin_version":"2.1.0","time_elapsed":207387,"subject_id":"92522","group":"Group2","condition":"3_Rep","full_date":"2026-02-25T00:20:15.784Z","date":"2026-02-25","time":"00:20:15"},{"task":"memory_phase","broad_category":"I","image_png":"I_Rhyolite_05.png","image_id":149,"category_name":"Rhyolite","category":10,"distinct_rating":3.02,"distinct_type":"Bottom","rt":null,"stimulus":"Stimuli_Rocks480/I_Rhyolite_05.png","response":null,"trial_type":"image-keyboard-response","trial_index":105,"plugin_version":"2.1.0","time_elapsed":209890,"subject_id":"92522","group":"Group2","condition":"3_Rep","full_date":"2026-02-25T00:20:15.784Z","date":"2026-02-25","time":"00:20:15"},{"rt":3981,"stimulus":"<p style=\"max-width: 760px; margin: auto; font-size: 35px; line-height: 1.5;\">\n                You have completed 1 study phase. \n                Now, we'll show you all the images again 2 more times.\n                <br><br>Press SPACE to continue\n              </p>","response":" ","trial_type":"html-keyboard-response","trial_index":106,"plugin_version":"2.1.0","time_elapsed":213873,"subject_id":"92522","group":"Group2","condition":"3_Rep","full_date":"2026-02-25T00:20:15.784Z","date":"2026-02-25","time":"00:20:15"},{"rt":null,"stimulus":"<p style=\"font-size: 50px; margin: 0; text-align: center;\">+</p>","response":null,"trial_type":"html-keyboard-response","trial_index":107,"plugin_version":"2.1.0","time_elapsed":214876,"subject_id":"92522","group":"Group2","condition":"3_Rep","full_date":"2026-02-25T00:20:15.784Z","date":"2026-02-25","time":"00:20:15"},{"task":"memory_phase","broad_category":"I","image_png":"I_Diorite_01.png","image_id":33,"category_name":"Diorite","category":3,"distinct_rating":2.97,"distinct_type":"Bottom","rt":null,"stimulus":"Stimuli_Rocks480/I_Diorite_01.png","response":null,"trial_type":"image-keyboard-response","trial_index":108,"plugin_version":"2.1.0","time_elapsed":217380,"subject_id":"92522","group":"Group2","condition":"3_Rep","full_date":"2026-02-25T00:20:15.784Z","date":"2026-02-25","time":"00:20:15"},{"rt":null,"stimulus":"<p style=\"font-size: 50px; margin: 0; text-align: center;\">+</p>","response":null,"trial_type":"html-keyboard-response","trial_index":109,"plugin_version":"2.1.0","time_elapsed":218382,"subject_id":"92522","group":"Group2","condition":"3_Rep","full_date":"2026-02-25T00:20:15.784Z","date":"2026-02-25","time":"00:20:15"},{"task":"memory_phase","broad_category":"S","image_png":"S_Chert_13.png","image_id":365,"category_name":"Chert","category":23,"distinct_rating":6.57,"distinct_type":"Top","rt":null,"stimulus":"Stimuli_Rocks480/S_Chert_13.png","response":null,"trial_type":"image-keyboard-response","trial_index":110,"plugin_version":"2.1.0","time_elapsed":220886,"subject_id":"92522","group":"Group2","condition":"3_Rep","full_date":"2026-02-25T00:20:15.784Z","date":"2026-02-25","time":"00:20:15"},{"rt":null,"stimulus":"<p style=\"font-size: 50px; margin: 0; text-align: center;\">+</p>","response":null,"trial_type":"html-keyboard-response","trial_index":111,"plugin_version":"2.1.0","time_elapsed":221888,"subject_id":"92522","group":"Group2","condition":"3_Rep","full_date":"2026-02-25T00:20:15.784Z","date":"2026-02-25","time":"00:20:15"},{"task":"memory_phase","broad_category":"I","image_png":"I_Peridotite_13.png","image_id":125,"category_name":"Peridotite","category":8,"distinct_rating":7.28,"distinct_type":"Top","rt":null,"stimulus":"Stimuli_Rocks480/I_Peridotite_13.png","response":null,"trial_type":"image-keyboard-response","trial_index":112,"plugin_version":"2.1.0","time_elapsed":224392,"subject_id":"92522","group":"Group2","condition":"3_Rep","full_date":"2026-02-25T00:20:15.784Z","date":"2026-02-25","time":"00:20:15"},{"rt":null,"stimulus":"<p style=\"font-size: 50px; margin: 0; text-align: center;\">+</p>","response":null,"trial_type":"html-keyboard-response","trial_index":113,"plugin_version":"2.1.0","time_elapsed":225394,"subject_id":"92522","group":"Group2","condition":"3_Rep","full_date":"2026-02-25T00:20:15.784Z","date":"2026-02-25","time":"00:20:15"},{"task":"memory_phase","broad_category":"S","image_png":"S_Sandstone_04.png","image_id":452,"category_name":"Sandstone","category":29,"distinct_rating":1.8,"distinct_type":"Bottom","rt":null,"stimulus":"Stimuli_Rocks480/S_Sandstone_04.png","response":null,"trial_type":"image-keyboard-response","trial_index":114,"plugin_version":"2.1.0","time_elapsed":227898,"subject_id":"92522","group":"Group2","condition":"3_Rep","full_date":"2026-02-25T00:20:15.784Z","date":"2026-02-25","time":"00:20:15"},{"rt":null,"stimulus":"<p style=\"font-size: 50px; margin: 0; text-align: center;\">+</p>","response":null,"trial_type":"html-keyboard-response","trial_index":115,"plugin_version":"2.1.0","time_elapsed":228901,"subject_id":"92522","group":"Group2","condition":"3_Rep","full_date":"2026-02-25T00:20:15.784Z","date":"2026-02-25","time":"00:20:15"},{"task":"memory_phase","broad_category":"I","image_png":"I_Andesite_03.png","image_id":3,"category_name":"Andesite","category":1,"distinct_rating":3.17,"distinct_type":"Bottom","rt":null,"stimulus":"Stimuli_Rocks480/I_Andesite_03.png","response":null,"trial_type":"image-keyboard-response","trial_index":116,"plugin_version":"2.1.0","time_elapsed":231405,"subject_id":"92522","group":"Group2","condition":"3_Rep","full_date":"2026-02-25T00:20:15.784Z","date":"2026-02-25","time":"00:20:15"},{"rt":null,"stimulus":"<p style=\"font-size: 50px; margin: 0; text-align: center;\">+</p>","response":null,"trial_type":"html-keyboard-response","trial_index":117,"plugin_version":"2.1.0","time_elapsed":232408,"subject_id":"92522","group":"Group2","condition":"3_Rep","full_date":"2026-02-25T00:20:15.784Z","date":"2026-02-25","time":"00:20:15"},{"task":"memory_phase","broad_category":"I","image_png":"I_Diorite_15.png","image_id":47,"category_name":"Diorite","category":3,"distinct_rating":3.05,"distinct_type":"Bottom","rt":null,"stimulus":"Stimuli_Rocks480/I_Diorite_15.png","response":null,"trial_type":"image-keyboard-response","trial_index":118,"plugin_version":"2.1.0","time_elapsed":234912,"subject_id":"92522","group":"Group2","condition":"3_Rep","full_date":"2026-02-25T00:20:15.784Z","date":"2026-02-25","time":"00:20:15"},{"rt":null,"stimulus":"<p style=\"font-size: 50px; margin: 0; text-align: center;\">+</p>","response":null,"trial_type":"html-keyboard-response","trial_index":119,"plugin_version":"2.1.0","time_elapsed":235914,"subject_id":"92522","group":"Group2","condition":"3_Rep","full_date":"2026-02-25T00:20:15.784Z","date":"2026-02-25","time":"00:20:15"},{"task":"memory_phase","broad_category":"S","image_png":"S_Sandstone_08.png","image_id":456,"category_name":"Sandstone","category":29,"distinct_rating":1.5,"distinct_type":"Bottom","rt":null,"stimulus":"Stimuli_Rocks480/S_Sandstone_08.png","response":null,"trial_type":"image-keyboard-response","trial_index":120,"plugin_version":"2.1.0","time_elapsed":238418,"subject_id":"92522","group":"Group2","condition":"3_Rep","full_date":"2026-02-25T00:20:15.784Z","date":"2026-02-25","time":"00:20:15"},{"rt":null,"stimulus":"<p style=\"font-size: 50px; margin: 0; text-align: center;\">+</p>","response":null,"trial_type":"html-keyboard-response","trial_index":121,"plugin_version":"2.1.0","time_elapsed":239421,"subject_id":"92522","group":"Group2","condition":"3_Rep","full_date":"2026-02-25T00:20:15.784Z","date":"2026-02-25","time":"00:20:15"},{"task":"memory_phase","broad_category":"M","image_png":"M_Marble_14.png","image_id":238,"category_name":"Marble","category":15,"distinct_rating":3.31,"distinct_type":"Bottom","rt":null,"stimulus":"Stimuli_Rocks480/M_Marble_14.png","response":null,"trial_type":"image-keyboard-response","trial_index":122,"plugin_version":"2.1.0","time_elapsed":241926,"subject_id":"92522","group":"Group2","condition":"3_Rep","full_date":"2026-02-25T00:20:15.784Z","date":"2026-02-25","time":"00:20:15"},{"rt":null,"stimulus":"<p style=\"font-size: 50px; margin: 0; text-align: center;\">+</p>","response":null,"trial_type":"html-keyboard-response","trial_index":123,"plugin_version":"2.1.0","time_elapsed":242928,"subject_id":"92522","group":"Group2","condition":"3_Rep","full_date":"2026-02-25T00:20:15.784Z","date":"2026-02-25","time":"00:20:15"},{"task":"memory_phase","broad_category":"I","image_png":"I_Andesite_09.png","image_id":9,"category_name":"Andesite","category":1,"distinct_rating":2.49,"distinct_type":"Bottom","rt":null,"stimulus":"Stimuli_Rocks480/I_Andesite_09.png","response":null,"trial_type":"image-keyboard-response","trial_index":124,"plugin_version":"2.1.0","time_elapsed":245432,"subject_id":"92522","group":"Group2","condition":"3_Rep","full_date":"2026-02-25T00:20:15.784Z","date":"2026-02-25","time":"00:20:15"},{"rt":null,"stimulus":"<p style=\"font-size: 50px; margin: 0; text-align: center;\">+</p>","response":null,"trial_type":"html-keyboard-response","trial_index":125,"plugin_version":"2.1.0","time_elapsed":246434,"subject_id":"92522","group":"Group2","condition":"3_Rep","full_date":"2026-02-25T00:20:15.784Z","date":"2026-02-25","time":"00:20:15"},{"task":"memory_phase","broad_category":"I","image_png":"I_Rhyolite_05.png","image_id":149,"category_name":"Rhyolite","category":10,"distinct_rating":3.02,"distinct_type":"Bottom","rt":null,"stimulus":"Stimuli_Rocks480/I_Rhyolite_05.png","response":null,"trial_type":"image-keyboard-response","trial_index":126,"plugin_version":"2.1.0","time_elapsed":248938,"subject_id":"92522","group":"Group2","condition":"3_Rep","full_date":"2026-02-25T00:20:15.784Z","date":"2026-02-25","time":"00:20:15"},{"rt":null,"stimulus":"<p style=\"font-size: 50px; margin: 0; text-align: center;\">+</p>","response":null,"trial_type":"html-keyboard-response","trial_index":127,"plugin_version":"2.1.0","time_elapsed":249941,"subject_id":"92522","group":"Group2","condition":"3_Rep","full_date":"2026-02-25T00:20:15.784Z","date":"2026-02-25","time":"00:20:15"},{"task":"memory_phase","broad_category":"M","image_png":"M_Slate_14.png","image_id":318,"category_name":"Slate","category":20,"distinct_rating":2.58,"distinct_type":"Bottom","rt":null,"stimulus":"Stimuli_Rocks480/M_Slate_14.png","response":null,"trial_type":"image-keyboard-response","trial_index":128,"plugin_version":"2.1.0","time_elapsed":252445,"subject_id":"92522","group":"Group2","condition":"3_Rep","full_date":"2026-02-25T00:20:15.784Z","date":"2026-02-25","time":"00:20:15"},{"rt":null,"stimulus":"<p style=\"font-size: 50px; margin: 0; text-align: center;\">+</p>","response":null,"trial_type":"html-keyboard-response","trial_index":129,"plugin_version":"2.1.0","time_elapsed":253447,"subject_id":"92522","group":"Group2","condition":"3_Rep","full_date":"2026-02-25T00:20:15.784Z","date":"2026-02-25","time":"00:20:15"},{"task":"memory_phase","broad_category":"M","image_png":"M_Gneiss_10.png","image_id":202,"category_name":"Gneiss","category":13,"distinct_rating":3.09,"distinct_type":"Bottom","rt":null,"stimulus":"Stimuli_Rocks480/M_Gneiss_10.png","response":null,"trial_type":"image-keyboard-response","trial_index":130,"plugin_version":"2.1.0","time_elapsed":255952,"subject_id":"92522","group":"Group2","condition":"3_Rep","full_date":"2026-02-25T00:20:15.784Z","date":"2026-02-25","time":"00:20:15"},{"rt":null,"stimulus":"<p style=\"font-size: 50px; margin: 0; text-align: center;\">+</p>","response":null,"trial_type":"html-keyboard-response","trial_index":131,"plugin_version":"2.1.0","time_elapsed":256955,"subject_id":"92522","group":"Group2","condition":"3_Rep","full_date":"2026-02-25T00:20:15.784Z","date":"2026-02-25","time":"00:20:15"},{"task":"memory_phase","broad_category":"I","image_png":"I_Obsidian_06.png","image_id":86,"category_name":"Obsidian","category":6,"distinct_rating":8.01,"distinct_type":"Top","rt":null,"stimulus":"Stimuli_Rocks480/I_Obsidian_06.png","response":null,"trial_type":"image-keyboard-response","trial_index":132,"plugin_version":"2.1.0","time_elapsed":259459,"subject_id":"92522","group":"Group2","condition":"3_Rep","full_date":"2026-02-25T00:20:15.784Z","date":"2026-02-25","time":"00:20:15"},{"rt":null,"stimulus":"<p style=\"font-size: 50px; margin: 0; text-align: center;\">+</p>","response":null,"trial_type":"html-keyboard-response","trial_index":133,"plugin_version":"2.1.0","time_elapsed":260462,"subject_id":"92522","group":"Group2","condition":"3_Rep","full_date":"2026-02-25T00:20:15.784Z","date":"2026-02-25","time":"00:20:15"},{"task":"memory_phase","broad_category":"M","image_png":"M_Slate_04.png","image_id":308,"category_name":"Slate","category":20,"distinct_rating":2.2,"distinct_type":"Bottom","rt":null,"stimulus":"Stimuli_Rocks480/M_Slate_04.png","response":null,"trial_type":"image-keyboard-response","trial_index":134,"plugin_version":"2.1.0","time_elapsed":262966,"subject_id":"92522","group":"Group2","condition":"3_Rep","full_date":"2026-02-25T00:20:15.784Z","date":"2026-02-25","time":"00:20:15"},{"rt":null,"stimulus":"<p style=\"font-size: 50px; margin: 0; text-align: center;\">+</p>","response":null,"trial_type":"html-keyboard-response","trial_index":135,"plugin_version":"2.1.0","time_elapsed":263969,"subject_id":"92522","group":"Group2","condition":"3_Rep","full_date":"2026-02-25T00:20:15.784Z","date":"2026-02-25","time":"00:20:15"},{"task":"memory_phase","broad_category":"I","image_png":"I_Rhyolite_08.png","image_id":152,"category_name":"Rhyolite","category":10,"distinct_rating":1.38,"distinct_type":"Bottom","rt":null,"stimulus":"Stimuli_Rocks480/I_Rhyolite_08.png","response":null,"trial_type":"image-keyboard-response","trial_index":136,"plugin_version":"2.1.0","time_elapsed":266472,"subject_id":"92522","group":"Group2","condition":"3_Rep","full_date":"2026-02-25T00:20:15.784Z","date":"2026-02-25","time":"00:20:15"},{"rt":null,"stimulus":"<p style=\"font-size: 50px; margin: 0; text-align: center;\">+</p>","response":null,"trial_type":"html-keyboard-response","trial_index":137,"plugin_version":"2.1.0","time_elapsed":267475,"subject_id":"92522","group":"Group2","condition":"3_Rep","full_date":"2026-02-25T00:20:15.784Z","date":"2026-02-25","time":"00:20:15"},{"task":"memory_phase","broad_category":"I","image_png":"I_Gabbro_02.png","image_id":50,"category_name":"Gabbro","category":4,"distinct_rating":2.73,"distinct_type":"Bottom","rt":null,"stimulus":"Stimuli_Rocks480/I_Gabbro_02.png","response":null,"trial_type":"image-keyboard-response","trial_index":138,"plugin_version":"2.1.0","time_elapsed":269978,"subject_id":"92522","group":"Group2","condition":"3_Rep","full_date":"2026-02-25T00:20:15.784Z","date":"2026-02-25","time":"00:20:15"},{"rt":null,"stimulus":"<p style=\"font-size: 50px; margin: 0; text-align: center;\">+</p>","response":null,"trial_type":"html-keyboard-response","trial_index":139,"plugin_version":"2.1.0","time_elapsed":270981,"subject_id":"92522","group":"Group2","condition":"3_Rep","full_date":"2026-02-25T00:20:15.784Z","date":"2026-02-25","time":"00:20:15"},{"task":"memory_phase","broad_category":"M","image_png":"M_Phyllite_13.png","image_id":269,"category_name":"Phyllite","category":17,"distinct_rating":2.8,"distinct_type":"Bottom","rt":null,"stimulus":"Stimuli_Rocks480/M_Phyllite_13.png","response":null,"trial_type":"image-keyboard-response","trial_index":140,"plugin_version":"2.1.0","time_elapsed":273485,"subject_id":"92522","group":"Group2","condition":"3_Rep","full_date":"2026-02-25T00:20:15.784Z","date":"2026-02-25","time":"00:20:15"},{"rt":null,"stimulus":"<p style=\"font-size: 50px; margin: 0; text-align: center;\">+</p>","response":null,"trial_type":"html-keyboard-response","trial_index":141,"plugin_version":"2.1.0","time_elapsed":274488,"subject_id":"92522","group":"Group2","condition":"3_Rep","full_date":"2026-02-25T00:20:15.784Z","date":"2026-02-25","time":"00:20:15"},{"task":"memory_phase","broad_category":"I","image_png":"I_Diorite_10.png","image_id":42,"category_name":"Diorite","category":3,"distinct_rating":2.84,"distinct_type":"Bottom","rt":null,"stimulus":"Stimuli_Rocks480/I_Diorite_10.png","response":null,"trial_type":"image-keyboard-response","trial_index":142,"plugin_version":"2.1.0","time_elapsed":276992,"subject_id":"92522","group":"Group2","condition":"3_Rep","full_date":"2026-02-25T00:20:15.784Z","date":"2026-02-25","time":"00:20:15"},{"rt":null,"stimulus":"<p style=\"font-size: 50px; margin: 0; text-align: center;\">+</p>","response":null,"trial_type":"html-keyboard-response","trial_index":143,"plugin_version":"2.1.0","time_elapsed":277995,"subject_id":"92522","group":"Group2","condition":"3_Rep","full_date":"2026-02-25T00:20:15.784Z","date":"2026-02-25","time":"00:20:15"},{"task":"memory_phase","broad_category":"I","image_png":"I_Pegmatite_03.png","image_id":99,"category_name":"Pegmatite","category":7,"distinct_rating":7.24,"distinct_type":"Top","rt":null,"stimulus":"Stimuli_Rocks480/I_Pegmatite_03.png","response":null,"trial_type":"image-keyboard-response","trial_index":144,"plugin_version":"2.1.0","time_elapsed":280499,"subject_id":"92522","group":"Group2","condition":"3_Rep","full_date":"2026-02-25T00:20:15.784Z","date":"2026-02-25","time":"00:20:15"},{"rt":null,"stimulus":"<p style=\"font-size: 50px; margin: 0; text-align: center;\">+</p>","response":null,"trial_type":"html-keyboard-response","trial_index":145,"plugin_version":"2.1.0","time_elapsed":281502,"subject_id":"92522","group":"Group2","condition":"3_Rep","full_date":"2026-02-25T00:20:15.784Z","date":"2026-02-25","time":"00:20:15"},{"task":"memory_phase","broad_category":"M","image_png":"M_Marble_02.png","image_id":226,"category_name":"Marble","category":15,"distinct_rating":3.2,"distinct_type":"Bottom","rt":null,"stimulus":"Stimuli_Rocks480/M_Marble_02.png","response":null,"trial_type":"image-keyboard-response","trial_index":146,"plugin_version":"2.1.0","time_elapsed":284007,"subject_id":"92522","group":"Group2","condition":"3_Rep","full_date":"2026-02-25T00:20:15.784Z","date":"2026-02-25","time":"00:20:15"},{"rt":null,"stimulus":"<p style=\"font-size: 50px; margin: 0; text-align: center;\">+</p>","response":null,"trial_type":"html-keyboard-response","trial_index":147,"plugin_version":"2.1.0","time_elapsed":285010,"subject_id":"92522","group":"Group2","condition":"3_Rep","full_date":"2026-02-25T00:20:15.784Z","date":"2026-02-25","time":"00:20:15"},{"task":"memory_phase","broad_category":"I","image_png":"I_Gabbro_12.png","image_id":60,"category_name":"Gabbro","category":4,"distinct_rating":2.6,"distinct_type":"Bottom","rt":null,"stimulus":"Stimuli_Rocks480/I_Gabbro_12.png","response":null,"trial_type":"image-keyboard-response","trial_index":148,"plugin_version":"2.1.0","time_elapsed":287513,"subject_id":"92522","group":"Group2","condition":"3_Rep","full_date":"2026-02-25T00:20:15.784Z","date":"2026-02-25","time":"00:20:15"},{"rt":null,"stimulus":"<p style=\"font-size: 50px; margin: 0; text-align: center;\">+</p>","response":null,"trial_type":"html-keyboard-response","trial_index":149,"plugin_version":"2.1.0","time_elapsed":288516,"subject_id":"92522","group":"Group2","condition":"3_Rep","full_date":"2026-02-25T00:20:15.784Z","date":"2026-02-25","time":"00:20:15"},{"task":"memory_phase","broad_category":"S","image_png":"S_Rock Salt_15.png","image_id":447,"category_name":"Rock Salt","category":28,"distinct_rating":7.79,"distinct_type":"Top","rt":null,"stimulus":"Stimuli_Rocks480/S_Rock Salt_15.png","response":null,"trial_type":"image-keyboard-response","trial_index":150,"plugin_version":"2.1.0","time_elapsed":291020,"subject_id":"92522","group":"Group2","condition":"3_Rep","full_date":"2026-02-25T00:20:15.784Z","date":"2026-02-25","time":"00:20:15"},{"rt":null,"stimulus":"<p style=\"font-size: 50px; margin: 0; text-align: center;\">+</p>","response":null,"trial_type":"html-keyboard-response","trial_index":151,"plugin_version":"2.1.0","time_elapsed":292024,"subject_id":"92522","group":"Group2","condition":"3_Rep","full_date":"2026-02-25T00:20:15.784Z","date":"2026-02-25","time":"00:20:15"},{"task":"memory_phase","broad_category":"S","image_png":"S_Dolomite_01.png","image_id":385,"category_name":"Dolomite","category":25,"distinct_rating":1.43,"distinct_type":"Bottom","rt":null,"stimulus":"Stimuli_Rocks480/S_Dolomite_01.png","response":null,"trial_type":"image-keyboard-response","trial_index":152,"plugin_version":"2.1.0","time_elapsed":294527,"subject_id":"92522","group":"Group2","condition":"3_Rep","full_date":"2026-02-25T00:20:15.784Z","date":"2026-02-25","time":"00:20:15"},{"rt":null,"stimulus":"<p style=\"font-size: 50px; margin: 0; text-align: center;\">+</p>","response":null,"trial_type":"html-keyboard-response","trial_index":153,"plugin_version":"2.1.0","time_elapsed":295530,"subject_id":"92522","group":"Group2","condition":"3_Rep","full_date":"2026-02-25T00:20:15.784Z","date":"2026-02-25","time":"00:20:15"},{"task":"memory_phase","broad_category":"S","image_png":"S_Dolomite_07.png","image_id":391,"category_name":"Dolomite","category":25,"distinct_rating":1.73,"distinct_type":"Bottom","rt":null,"stimulus":"Stimuli_Rocks480/S_Dolomite_07.png","response":null,"trial_type":"image-keyboard-response","trial_index":154,"plugin_version":"2.1.0","time_elapsed":298034,"subject_id":"92522","group":"Group2","condition":"3_Rep","full_date":"2026-02-25T00:20:15.784Z","date":"2026-02-25","time":"00:20:15"},{"rt":null,"stimulus":"<p style=\"font-size: 50px; margin: 0; text-align: center;\">+</p>","response":null,"trial_type":"html-keyboard-response","trial_index":155,"plugin_version":"2.1.0","time_elapsed":299037,"subject_id":"92522","group":"Group2","condition":"3_Rep","full_date":"2026-02-25T00:20:15.784Z","date":"2026-02-25","time":"00:20:15"},{"task":"memory_phase","broad_category":"M","image_png":"M_Phyllite_02.png","image_id":258,"category_name":"Phyllite","category":17,"distinct_rating":2.89,"distinct_type":"Bottom","rt":null,"stimulus":"Stimuli_Rocks480/M_Phyllite_02.png","response":null,"trial_type":"image-keyboard-response","trial_index":156,"plugin_version":"2.1.0","time_elapsed":301541,"subject_id":"92522","group":"Group2","condition":"3_Rep","full_date":"2026-02-25T00:20:15.784Z","date":"2026-02-25","time":"00:20:15"},{"rt":1128,"stimulus":"<p style=\"max-width: 760px; margin: auto; font-size: 35px; line-height: 1.5;\">\n                Press SPACE to continue study phase\n              </p>","response":" ","trial_type":"html-keyboard-response","trial_index":157,"plugin_version":"2.1.0","time_elapsed":302671,"subject_id":"92522","group":"Group2","condition":"3_Rep","full_date":"2026-02-25T00:20:15.784Z","date":"2026-02-25","time":"00:20:15"},{"rt":null,"stimulus":"<p style=\"font-size: 50px; margin: 0; text-align: center;\">+</p>","response":null,"trial_type":"html-keyboard-response","trial_index":158,"plugin_version":"2.1.0","time_elapsed":303674,"subject_id":"92522","group":"Group2","condition":"3_Rep","full_date":"2026-02-25T00:20:15.784Z","date":"2026-02-25","time":"00:20:15"},{"task":"memory_phase","broad_category":"S","image_png":"S_Rock Salt_13.png","image_id":445,"category_name":"Rock Salt","category":28,"distinct_rating":7.58,"distinct_type":"Top","rt":null,"stimulus":"Stimuli_Rocks480/S_Rock Salt_13.png","response":null,"trial_type":"image-keyboard-response","trial_index":159,"plugin_version":"2.1.0","time_elapsed":306178,"subject_id":"92522","group":"Group2","condition":"3_Rep","full_date":"2026-02-25T00:20:15.784Z","date":"2026-02-25","time":"00:20:15"},{"rt":null,"stimulus":"<p style=\"font-size: 50px; margin: 0; text-align: center;\">+</p>","response":null,"trial_type":"html-keyboard-response","trial_index":160,"plugin_version":"2.1.0","time_elapsed":307181,"subject_id":"92522","group":"Group2","condition":"3_Rep","full_date":"2026-02-25T00:20:15.784Z","date":"2026-02-25","time":"00:20:15"},{"task":"memory_phase","broad_category":"M","image_png":"M_Quartzite_12.png","image_id":284,"category_name":"Quartzite","category":18,"distinct_rating":1.92,"distinct_type":"Bottom","rt":null,"stimulus":"Stimuli_Rocks480/M_Quartzite_12.png","response":null,"trial_type":"image-keyboard-response","trial_index":161,"plugin_version":"2.1.0","time_elapsed":309685,"subject_id":"92522","group":"Group2","condition":"3_Rep","full_date":"2026-02-25T00:20:15.784Z","date":"2026-02-25","time":"00:20:15"},{"rt":null,"stimulus":"<p style=\"font-size: 50px; margin: 0; text-align: center;\">+</p>","response":null,"trial_type":"html-keyboard-response","trial_index":162,"plugin_version":"2.1.0","time_elapsed":310687,"subject_id":"92522","group":"Group2","condition":"3_Rep","full_date":"2026-02-25T00:20:15.784Z","date":"2026-02-25","time":"00:20:15"},{"task":"memory_phase","broad_category":"I","image_png":"I_Andesite_04.png","image_id":4,"category_name":"Andesite","category":1,"distinct_rating":3.18,"distinct_type":"Bottom","rt":null,"stimulus":"Stimuli_Rocks480/I_Andesite_04.png","response":null,"trial_type":"image-keyboard-response","trial_index":163,"plugin_version":"2.1.0","time_elapsed":313191,"subject_id":"92522","group":"Group2","condition":"3_Rep","full_date":"2026-02-25T00:20:15.784Z","date":"2026-02-25","time":"00:20:15"},{"rt":null,"stimulus":"<p style=\"font-size: 50px; margin: 0; text-align: center;\">+</p>","response":null,"trial_type":"html-keyboard-response","trial_index":164,"plugin_version":"2.1.0","time_elapsed":314194,"subject_id":"92522","group":"Group2","condition":"3_Rep","full_date":"2026-02-25T00:20:15.784Z","date":"2026-02-25","time":"00:20:15"},{"task":"memory_phase","broad_category":"M","image_png":"M_Phyllite_05.png","image_id":261,"category_name":"Phyllite","category":17,"distinct_rating":2.14,"distinct_type":"Bottom","rt":null,"stimulus":"Stimuli_Rocks480/M_Phyllite_05.png","response":null,"trial_type":"image-keyboard-response","trial_index":165,"plugin_version":"2.1.0","time_elapsed":316698,"subject_id":"92522","group":"Group2","condition":"3_Rep","full_date":"2026-02-25T00:20:15.784Z","date":"2026-02-25","time":"00:20:15"},{"rt":null,"stimulus":"<p style=\"font-size: 50px; margin: 0; text-align: center;\">+</p>","response":null,"trial_type":"html-keyboard-response","trial_index":166,"plugin_version":"2.1.0","time_elapsed":317701,"subject_id":"92522","group":"Group2","condition":"3_Rep","full_date":"2026-02-25T00:20:15.784Z","date":"2026-02-25","time":"00:20:15"},{"task":"memory_phase","broad_category":"S","image_png":"S_Sandstone_11.png","image_id":459,"category_name":"Sandstone","category":29,"distinct_rating":1.82,"distinct_type":"Bottom","rt":null,"stimulus":"Stimuli_Rocks480/S_Sandstone_11.png","response":null,"trial_type":"image-keyboard-response","trial_index":167,"plugin_version":"2.1.0","time_elapsed":320205,"subject_id":"92522","group":"Group2","condition":"3_Rep","full_date":"2026-02-25T00:20:15.784Z","date":"2026-02-25","time":"00:20:15"},{"rt":null,"stimulus":"<p style=\"font-size: 50px; margin: 0; text-align: center;\">+</p>","response":null,"trial_type":"html-keyboard-response","trial_index":168,"plugin_version":"2.1.0","time_elapsed":321208,"subject_id":"92522","group":"Group2","condition":"3_Rep","full_date":"2026-02-25T00:20:15.784Z","date":"2026-02-25","time":"00:20:15"},{"task":"memory_phase","broad_category":"S","image_png":"S_Dolomite_16.png","image_id":400,"category_name":"Dolomite","category":25,"distinct_rating":1.71,"distinct_type":"Bottom","rt":null,"stimulus":"Stimuli_Rocks480/S_Dolomite_16.png","response":null,"trial_type":"image-keyboard-response","trial_index":169,"plugin_version":"2.1.0","time_elapsed":323712,"subject_id":"92522","group":"Group2","condition":"3_Rep","full_date":"2026-02-25T00:20:15.784Z","date":"2026-02-25","time":"00:20:15"},{"rt":null,"stimulus":"<p style=\"font-size: 50px; margin: 0; text-align: center;\">+</p>","response":null,"trial_type":"html-keyboard-response","trial_index":170,"plugin_version":"2.1.0","time_elapsed":324715,"subject_id":"92522","group":"Group2","condition":"3_Rep","full_date":"2026-02-25T00:20:15.784Z","date":"2026-02-25","time":"00:20:15"},{"task":"memory_phase","broad_category":"M","image_png":"M_Quartzite_15.png","image_id":287,"category_name":"Quartzite","category":18,"distinct_rating":2.19,"distinct_type":"Bottom","rt":null,"stimulus":"Stimuli_Rocks480/M_Quartzite_15.png","response":null,"trial_type":"image-keyboard-response","trial_index":171,"plugin_version":"2.1.0","time_elapsed":327219,"subject_id":"92522","group":"Group2","condition":"3_Rep","full_date":"2026-02-25T00:20:15.784Z","date":"2026-02-25","time":"00:20:15"},{"rt":null,"stimulus":"<p style=\"font-size: 50px; margin: 0; text-align: center;\">+</p>","response":null,"trial_type":"html-keyboard-response","trial_index":172,"plugin_version":"2.1.0","time_elapsed":328222,"subject_id":"92522","group":"Group2","condition":"3_Rep","full_date":"2026-02-25T00:20:15.784Z","date":"2026-02-25","time":"00:20:15"},{"task":"memory_phase","broad_category":"I","image_png":"I_Gabbro_14.png","image_id":62,"category_name":"Gabbro","category":4,"distinct_rating":2.95,"distinct_type":"Bottom","rt":null,"stimulus":"Stimuli_Rocks480/I_Gabbro_14.png","response":null,"trial_type":"image-keyboard-response","trial_index":173,"plugin_version":"2.1.0","time_elapsed":330726,"subject_id":"92522","group":"Group2","condition":"3_Rep","full_date":"2026-02-25T00:20:15.784Z","date":"2026-02-25","time":"00:20:15"},{"rt":null,"stimulus":"<p style=\"font-size: 50px; margin: 0; text-align: center;\">+</p>","response":null,"trial_type":"html-keyboard-response","trial_index":174,"plugin_version":"2.1.0","time_elapsed":331729,"subject_id":"92522","group":"Group2","condition":"3_Rep","full_date":"2026-02-25T00:20:15.784Z","date":"2026-02-25","time":"00:20:15"},{"task":"memory_phase","broad_category":"M","image_png":"M_Gneiss_14.png","image_id":206,"category_name":"Gneiss","category":13,"distinct_rating":3.41,"distinct_type":"Bottom","rt":null,"stimulus":"Stimuli_Rocks480/M_Gneiss_14.png","response":null,"trial_type":"image-keyboard-response","trial_index":175,"plugin_version":"2.1.0","time_elapsed":334233,"subject_id":"92522","group":"Group2","condition":"3_Rep","full_date":"2026-02-25T00:20:15.784Z","date":"2026-02-25","time":"00:20:15"},{"rt":null,"stimulus":"<p style=\"font-size: 50px; margin: 0; text-align: center;\">+</p>","response":null,"trial_type":"html-keyboard-response","trial_index":176,"plugin_version":"2.1.0","time_elapsed":335236,"subject_id":"92522","group":"Group2","condition":"3_Rep","full_date":"2026-02-25T00:20:15.784Z","date":"2026-02-25","time":"00:20:15"},{"task":"memory_phase","broad_category":"S","image_png":"S_Conglomerate_14.png","image_id":382,"category_name":"Conglomerate","category":24,"distinct_rating":6.86,"distinct_type":"Top","rt":null,"stimulus":"Stimuli_Rocks480/S_Conglomerate_14.png","response":null,"trial_type":"image-keyboard-response","trial_index":177,"plugin_version":"2.1.0","time_elapsed":337740,"subject_id":"92522","group":"Group2","condition":"3_Rep","full_date":"2026-02-25T00:20:15.784Z","date":"2026-02-25","time":"00:20:15"},{"rt":null,"stimulus":"<p style=\"font-size: 50px; margin: 0; text-align: center;\">+</p>","response":null,"trial_type":"html-keyboard-response","trial_index":178,"plugin_version":"2.1.0","time_elapsed":338743,"subject_id":"92522","group":"Group2","condition":"3_Rep","full_date":"2026-02-25T00:20:15.784Z","date":"2026-02-25","time":"00:20:15"},{"task":"memory_phase","broad_category":"I","image_png":"I_Basalt_10.png","image_id":26,"category_name":"Basalt","category":2,"distinct_rating":2.76,"distinct_type":"Bottom","rt":null,"stimulus":"Stimuli_Rocks480/I_Basalt_10.png","response":null,"trial_type":"image-keyboard-response","trial_index":179,"plugin_version":"2.1.0","time_elapsed":341247,"subject_id":"92522","group":"Group2","condition":"3_Rep","full_date":"2026-02-25T00:20:15.784Z","date":"2026-02-25","time":"00:20:15"},{"rt":null,"stimulus":"<p style=\"font-size: 50px; margin: 0; text-align: center;\">+</p>","response":null,"trial_type":"html-keyboard-response","trial_index":180,"plugin_version":"2.1.0","time_elapsed":342249,"subject_id":"92522","group":"Group2","condition":"3_Rep","full_date":"2026-02-25T00:20:15.784Z","date":"2026-02-25","time":"00:20:15"},{"task":"memory_phase","broad_category":"M","image_png":"M_Quartzite_07.png","image_id":279,"category_name":"Quartzite","category":18,"distinct_rating":1.97,"distinct_type":"Bottom","rt":null,"stimulus":"Stimuli_Rocks480/M_Quartzite_07.png","response":null,"trial_type":"image-keyboard-response","trial_index":181,"plugin_version":"2.1.0","time_elapsed":344753,"subject_id":"92522","group":"Group2","condition":"3_Rep","full_date":"2026-02-25T00:20:15.784Z","date":"2026-02-25","time":"00:20:15"},{"rt":null,"stimulus":"<p style=\"font-size: 50px; margin: 0; text-align: center;\">+</p>","response":null,"trial_type":"html-keyboard-response","trial_index":182,"plugin_version":"2.1.0","time_elapsed":345756,"subject_id":"92522","group":"Group2","condition":"3_Rep","full_date":"2026-02-25T00:20:15.784Z","date":"2026-02-25","time":"00:20:15"},{"task":"memory_phase","broad_category":"I","image_png":"I_Basalt_08.png","image_id":24,"category_name":"Basalt","category":2,"distinct_rating":2.31,"distinct_type":"Bottom","rt":null,"stimulus":"Stimuli_Rocks480/I_Basalt_08.png","response":null,"trial_type":"image-keyboard-response","trial_index":183,"plugin_version":"2.1.0","time_elapsed":348260,"subject_id":"92522","group":"Group2","condition":"3_Rep","full_date":"2026-02-25T00:20:15.784Z","date":"2026-02-25","time":"00:20:15"},{"rt":null,"stimulus":"<p style=\"font-size: 50px; margin: 0; text-align: center;\">+</p>","response":null,"trial_type":"html-keyboard-response","trial_index":184,"plugin_version":"2.1.0","time_elapsed":349262,"subject_id":"92522","group":"Group2","condition":"3_Rep","full_date":"2026-02-25T00:20:15.784Z","date":"2026-02-25","time":"00:20:15"},{"task":"memory_phase","broad_category":"I","image_png":"I_Pegmatite_11.png","image_id":107,"category_name":"Pegmatite","category":7,"distinct_rating":7.11,"distinct_type":"Top","rt":null,"stimulus":"Stimuli_Rocks480/I_Pegmatite_11.png","response":null,"trial_type":"image-keyboard-response","trial_index":185,"plugin_version":"2.1.0","time_elapsed":351766,"subject_id":"92522","group":"Group2","condition":"3_Rep","full_date":"2026-02-25T00:20:15.784Z","date":"2026-02-25","time":"00:20:15"},{"rt":null,"stimulus":"<p style=\"font-size: 50px; margin: 0; text-align: center;\">+</p>","response":null,"trial_type":"html-keyboard-response","trial_index":186,"plugin_version":"2.1.0","time_elapsed":352769,"subject_id":"92522","group":"Group2","condition":"3_Rep","full_date":"2026-02-25T00:20:15.784Z","date":"2026-02-25","time":"00:20:15"},{"task":"memory_phase","broad_category":"I","image_png":"I_Basalt_13.png","image_id":29,"category_name":"Basalt","category":2,"distinct_rating":2.68,"distinct_type":"Bottom","rt":null,"stimulus":"Stimuli_Rocks480/I_Basalt_13.png","response":null,"trial_type":"image-keyboard-response","trial_index":187,"plugin_version":"2.1.0","time_elapsed":355273,"subject_id":"92522","group":"Group2","condition":"3_Rep","full_date":"2026-02-25T00:20:15.784Z","date":"2026-02-25","time":"00:20:15"},{"rt":null,"stimulus":"<p style=\"font-size: 50px; margin: 0; text-align: center;\">+</p>","response":null,"trial_type":"html-keyboard-response","trial_index":188,"plugin_version":"2.1.0","time_elapsed":356277,"subject_id":"92522","group":"Group2","condition":"3_Rep","full_date":"2026-02-25T00:20:15.784Z","date":"2026-02-25","time":"00:20:15"},{"task":"memory_phase","broad_category":"I","image_png":"I_Pumice_13.png","image_id":141,"category_name":"Pumice","category":9,"distinct_rating":3.12,"distinct_type":"Bottom","rt":null,"stimulus":"Stimuli_Rocks480/I_Pumice_13.png","response":null,"trial_type":"image-keyboard-response","trial_index":189,"plugin_version":"2.1.0","time_elapsed":358781,"subject_id":"92522","group":"Group2","condition":"3_Rep","full_date":"2026-02-25T00:20:15.784Z","date":"2026-02-25","time":"00:20:15"},{"rt":null,"stimulus":"<p style=\"font-size: 50px; margin: 0; text-align: center;\">+</p>","response":null,"trial_type":"html-keyboard-response","trial_index":190,"plugin_version":"2.1.0","time_elapsed":359784,"subject_id":"92522","group":"Group2","condition":"3_Rep","full_date":"2026-02-25T00:20:15.784Z","date":"2026-02-25","time":"00:20:15"},{"task":"memory_phase","broad_category":"I","image_png":"I_Pumice_14.png","image_id":142,"category_name":"Pumice","category":9,"distinct_rating":3.22,"distinct_type":"Bottom","rt":null,"stimulus":"Stimuli_Rocks480/I_Pumice_14.png","response":null,"trial_type":"image-keyboard-response","trial_index":191,"plugin_version":"2.1.0","time_elapsed":362288,"subject_id":"92522","group":"Group2","condition":"3_Rep","full_date":"2026-02-25T00:20:15.784Z","date":"2026-02-25","time":"00:20:15"},{"rt":null,"stimulus":"<p style=\"font-size: 50px; margin: 0; text-align: center;\">+</p>","response":null,"trial_type":"html-keyboard-response","trial_index":192,"plugin_version":"2.1.0","time_elapsed":363290,"subject_id":"92522","group":"Group2","condition":"3_Rep","full_date":"2026-02-25T00:20:15.784Z","date":"2026-02-25","time":"00:20:15"},{"task":"memory_phase","broad_category":"M","image_png":"M_Slate_10.png","image_id":314,"category_name":"Slate","category":20,"distinct_rating":1.94,"distinct_type":"Bottom","rt":null,"stimulus":"Stimuli_Rocks480/M_Slate_10.png","response":null,"trial_type":"image-keyboard-response","trial_index":193,"plugin_version":"2.1.0","time_elapsed":365794,"subject_id":"92522","group":"Group2","condition":"3_Rep","full_date":"2026-02-25T00:20:15.784Z","date":"2026-02-25","time":"00:20:15"},{"rt":null,"stimulus":"<p style=\"font-size: 50px; margin: 0; text-align: center;\">+</p>","response":null,"trial_type":"html-keyboard-response","trial_index":194,"plugin_version":"2.1.0","time_elapsed":366797,"subject_id":"92522","group":"Group2","condition":"3_Rep","full_date":"2026-02-25T00:20:15.784Z","date":"2026-02-25","time":"00:20:15"},{"task":"memory_phase","broad_category":"S","image_png":"S_Shale_03.png","image_id":467,"category_name":"Shale","category":30,"distinct_rating":1.95,"distinct_type":"Bottom","rt":null,"stimulus":"Stimuli_Rocks480/S_Shale_03.png","response":null,"trial_type":"image-keyboard-response","trial_index":195,"plugin_version":"2.1.0","time_elapsed":369301,"subject_id":"92522","group":"Group2","condition":"3_Rep","full_date":"2026-02-25T00:20:15.784Z","date":"2026-02-25","time":"00:20:15"},{"rt":null,"stimulus":"<p style=\"font-size: 50px; margin: 0; text-align: center;\">+</p>","response":null,"trial_type":"html-keyboard-response","trial_index":196,"plugin_version":"2.1.0","time_elapsed":370304,"subject_id":"92522","group":"Group2","condition":"3_Rep","full_date":"2026-02-25T00:20:15.784Z","date":"2026-02-25","time":"00:20:15"},{"task":"memory_phase","broad_category":"M","image_png":"M_Gneiss_15.png","image_id":207,"category_name":"Gneiss","category":13,"distinct_rating":3.11,"distinct_type":"Bottom","rt":null,"stimulus":"Stimuli_Rocks480/M_Gneiss_15.png","response":null,"trial_type":"image-keyboard-response","trial_index":197,"plugin_version":"2.1.0","time_elapsed":372808,"subject_id":"92522","group":"Group2","condition":"3_Rep","full_date":"2026-02-25T00:20:15.784Z","date":"2026-02-25","time":"00:20:15"},{"rt":null,"stimulus":"<p style=\"font-size: 50px; margin: 0; text-align: center;\">+</p>","response":null,"trial_type":"html-keyboard-response","trial_index":198,"plugin_version":"2.1.0","time_elapsed":373811,"subject_id":"92522","group":"Group2","condition":"3_Rep","full_date":"2026-02-25T00:20:15.784Z","date":"2026-02-25","time":"00:20:15"},{"task":"memory_phase","broad_category":"S","image_png":"S_Shale_07.png","image_id":471,"category_name":"Shale","category":30,"distinct_rating":2.73,"distinct_type":"Bottom","rt":null,"stimulus":"Stimuli_Rocks480/S_Shale_07.png","response":null,"trial_type":"image-keyboard-response","trial_index":199,"plugin_version":"2.1.0","time_elapsed":376314,"subject_id":"92522","group":"Group2","condition":"3_Rep","full_date":"2026-02-25T00:20:15.784Z","date":"2026-02-25","time":"00:20:15"},{"rt":null,"stimulus":"<p style=\"font-size: 50px; margin: 0; text-align: center;\">+</p>","response":null,"trial_type":"html-keyboard-response","trial_index":200,"plugin_version":"2.1.0","time_elapsed":377317,"subject_id":"92522","group":"Group2","condition":"3_Rep","full_date":"2026-02-25T00:20:15.784Z","date":"2026-02-25","time":"00:20:15"},{"task":"memory_phase","broad_category":"I","image_png":"I_Rhyolite_10.png","image_id":154,"category_name":"Rhyolite","category":10,"distinct_rating":2.88,"distinct_type":"Bottom","rt":null,"stimulus":"Stimuli_Rocks480/I_Rhyolite_10.png","response":null,"trial_type":"image-keyboard-response","trial_index":201,"plugin_version":"2.1.0","time_elapsed":379820,"subject_id":"92522","group":"Group2","condition":"3_Rep","full_date":"2026-02-25T00:20:15.784Z","date":"2026-02-25","time":"00:20:15"},{"rt":null,"stimulus":"<p style=\"font-size: 50px; margin: 0; text-align: center;\">+</p>","response":null,"trial_type":"html-keyboard-response","trial_index":202,"plugin_version":"2.1.0","time_elapsed":380823,"subject_id":"92522","group":"Group2","condition":"3_Rep","full_date":"2026-02-25T00:20:15.784Z","date":"2026-02-25","time":"00:20:15"},{"task":"memory_phase","broad_category":"I","image_png":"I_Pumice_01.png","image_id":129,"category_name":"Pumice","category":9,"distinct_rating":3.25,"distinct_type":"Bottom","rt":null,"stimulus":"Stimuli_Rocks480/I_Pumice_01.png","response":null,"trial_type":"image-keyboard-response","trial_index":203,"plugin_version":"2.1.0","time_elapsed":383327,"subject_id":"92522","group":"Group2","condition":"3_Rep","full_date":"2026-02-25T00:20:15.784Z","date":"2026-02-25","time":"00:20:15"},{"rt":null,"stimulus":"<p style=\"font-size: 50px; margin: 0; text-align: center;\">+</p>","response":null,"trial_type":"html-keyboard-response","trial_index":204,"plugin_version":"2.1.0","time_elapsed":384330,"subject_id":"92522","group":"Group2","condition":"3_Rep","full_date":"2026-02-25T00:20:15.784Z","date":"2026-02-25","time":"00:20:15"},{"task":"memory_phase","broad_category":"S","image_png":"S_Shale_02.png","image_id":466,"category_name":"Shale","category":30,"distinct_rating":2.9,"distinct_type":"Bottom","rt":null,"stimulus":"Stimuli_Rocks480/S_Shale_02.png","response":null,"trial_type":"image-keyboard-response","trial_index":205,"plugin_version":"2.1.0","time_elapsed":386834,"subject_id":"92522","group":"Group2","condition":"3_Rep","full_date":"2026-02-25T00:20:15.784Z","date":"2026-02-25","time":"00:20:15"},{"rt":null,"stimulus":"<p style=\"font-size: 50px; margin: 0; text-align: center;\">+</p>","response":null,"trial_type":"html-keyboard-response","trial_index":206,"plugin_version":"2.1.0","time_elapsed":387836,"subject_id":"92522","group":"Group2","condition":"3_Rep","full_date":"2026-02-25T00:20:15.784Z","date":"2026-02-25","time":"00:20:15"},{"task":"memory_phase","broad_category":"M","image_png":"M_Marble_03.png","image_id":227,"category_name":"Marble","category":15,"distinct_rating":2.67,"distinct_type":"Bottom","rt":null,"stimulus":"Stimuli_Rocks480/M_Marble_03.png","response":null,"trial_type":"image-keyboard-response","trial_index":207,"plugin_version":"2.1.0","time_elapsed":390340,"subject_id":"92522","group":"Group2","condition":"3_Rep","full_date":"2026-02-25T00:20:15.784Z","date":"2026-02-25","time":"00:20:15"},{"rt":6573,"stimulus":"<p style=\"max-width: 760px; margin: auto; font-size: 35px; line-height: 1.5;\">\n                You have completed 2 study phases. \n                Now, we'll show you all the images again 1 more time.\n                <br><br>Press SPACE to continue\n              </p>","response":" ","trial_type":"html-keyboard-response","trial_index":208,"plugin_version":"2.1.0","time_elapsed":396914,"subject_id":"92522","group":"Group2","condition":"3_Rep","full_date":"2026-02-25T00:20:15.784Z","date":"2026-02-25","time":"00:20:15"},{"rt":null,"stimulus":"<p style=\"font-size: 50px; margin: 0; text-align: center;\">+</p>","response":null,"trial_type":"html-keyboard-response","trial_index":209,"plugin_version":"2.1.0","time_elapsed":397917,"subject_id":"92522","group":"Group2","condition":"3_Rep","full_date":"2026-02-25T00:20:15.784Z","date":"2026-02-25","time":"00:20:15"},{"task":"memory_phase","broad_category":"I","image_png":"I_Rhyolite_10.png","image_id":154,"category_name":"Rhyolite","category":10,"distinct_rating":2.88,"distinct_type":"Bottom","rt":null,"stimulus":"Stimuli_Rocks480/I_Rhyolite_10.png","response":null,"trial_type":"image-keyboard-response","trial_index":210,"plugin_version":"2.1.0","time_elapsed":400421,"subject_id":"92522","group":"Group2","condition":"3_Rep","full_date":"2026-02-25T00:20:15.784Z","date":"2026-02-25","time":"00:20:15"},{"rt":null,"stimulus":"<p style=\"font-size: 50px; margin: 0; text-align: center;\">+</p>","response":null,"trial_type":"html-keyboard-response","trial_index":211,"plugin_version":"2.1.0","time_elapsed":401424,"subject_id":"92522","group":"Group2","condition":"3_Rep","full_date":"2026-02-25T00:20:15.784Z","date":"2026-02-25","time":"00:20:15"},{"task":"memory_phase","broad_category":"I","image_png":"I_Basalt_10.png","image_id":26,"category_name":"Basalt","category":2,"distinct_rating":2.76,"distinct_type":"Bottom","rt":null,"stimulus":"Stimuli_Rocks480/I_Basalt_10.png","response":null,"trial_type":"image-keyboard-response","trial_index":212,"plugin_version":"2.1.0","time_elapsed":403927,"subject_id":"92522","group":"Group2","condition":"3_Rep","full_date":"2026-02-25T00:20:15.784Z","date":"2026-02-25","time":"00:20:15"},{"rt":null,"stimulus":"<p style=\"font-size: 50px; margin: 0; text-align: center;\">+</p>","response":null,"trial_type":"html-keyboard-response","trial_index":213,"plugin_version":"2.1.0","time_elapsed":404930,"subject_id":"92522","group":"Group2","condition":"3_Rep","full_date":"2026-02-25T00:20:15.784Z","date":"2026-02-25","time":"00:20:15"},{"task":"memory_phase","broad_category":"S","image_png":"S_Chert_13.png","image_id":365,"category_name":"Chert","category":23,"distinct_rating":6.57,"distinct_type":"Top","rt":null,"stimulus":"Stimuli_Rocks480/S_Chert_13.png","response":null,"trial_type":"image-keyboard-response","trial_index":214,"plugin_version":"2.1.0","time_elapsed":407434,"subject_id":"92522","group":"Group2","condition":"3_Rep","full_date":"2026-02-25T00:20:15.784Z","date":"2026-02-25","time":"00:20:15"},{"rt":null,"stimulus":"<p style=\"font-size: 50px; margin: 0; text-align: center;\">+</p>","response":null,"trial_type":"html-keyboard-response","trial_index":215,"plugin_version":"2.1.0","time_elapsed":408437,"subject_id":"92522","group":"Group2","condition":"3_Rep","full_date":"2026-02-25T00:20:15.784Z","date":"2026-02-25","time":"00:20:15"},{"task":"memory_phase","broad_category":"M","image_png":"M_Slate_04.png","image_id":308,"category_name":"Slate","category":20,"distinct_rating":2.2,"distinct_type":"Bottom","rt":null,"stimulus":"Stimuli_Rocks480/M_Slate_04.png","response":null,"trial_type":"image-keyboard-response","trial_index":216,"plugin_version":"2.1.0","time_elapsed":410941,"subject_id":"92522","group":"Group2","condition":"3_Rep","full_date":"2026-02-25T00:20:15.784Z","date":"2026-02-25","time":"00:20:15"},{"rt":null,"stimulus":"<p style=\"font-size: 50px; margin: 0; text-align: center;\">+</p>","response":null,"trial_type":"html-keyboard-response","trial_index":217,"plugin_version":"2.1.0","time_elapsed":411944,"subject_id":"92522","group":"Group2","condition":"3_Rep","full_date":"2026-02-25T00:20:15.784Z","date":"2026-02-25","time":"00:20:15"},{"task":"memory_phase","broad_category":"S","image_png":"S_Dolomite_16.png","image_id":400,"category_name":"Dolomite","category":25,"distinct_rating":1.71,"distinct_type":"Bottom","rt":null,"stimulus":"Stimuli_Rocks480/S_Dolomite_16.png","response":null,"trial_type":"image-keyboard-response","trial_index":218,"plugin_version":"2.1.0","time_elapsed":414448,"subject_id":"92522","group":"Group2","condition":"3_Rep","full_date":"2026-02-25T00:20:15.784Z","date":"2026-02-25","time":"00:20:15"},{"rt":null,"stimulus":"<p style=\"font-size: 50px; margin: 0; text-align: center;\">+</p>","response":null,"trial_type":"html-keyboard-response","trial_index":219,"plugin_version":"2.1.0","time_elapsed":415451,"subject_id":"92522","group":"Group2","condition":"3_Rep","full_date":"2026-02-25T00:20:15.784Z","date":"2026-02-25","time":"00:20:15"},{"task":"memory_phase","broad_category":"S","image_png":"S_Rock Salt_15.png","image_id":447,"category_name":"Rock Salt","category":28,"distinct_rating":7.79,"distinct_type":"Top","rt":null,"stimulus":"Stimuli_Rocks480/S_Rock Salt_15.png","response":null,"trial_type":"image-keyboard-response","trial_index":220,"plugin_version":"2.1.0","time_elapsed":417955,"subject_id":"92522","group":"Group2","condition":"3_Rep","full_date":"2026-02-25T00:20:15.784Z","date":"2026-02-25","time":"00:20:15"},{"rt":null,"stimulus":"<p style=\"font-size: 50px; margin: 0; text-align: center;\">+</p>","response":null,"trial_type":"html-keyboard-response","trial_index":221,"plugin_version":"2.1.0","time_elapsed":418958,"subject_id":"92522","group":"Group2","condition":"3_Rep","full_date":"2026-02-25T00:20:15.784Z","date":"2026-02-25","time":"00:20:15"},{"task":"memory_phase","broad_category":"I","image_png":"I_Andesite_09.png","image_id":9,"category_name":"Andesite","category":1,"distinct_rating":2.49,"distinct_type":"Bottom","rt":null,"stimulus":"Stimuli_Rocks480/I_Andesite_09.png","response":null,"trial_type":"image-keyboard-response","trial_index":222,"plugin_version":"2.1.0","time_elapsed":421462,"subject_id":"92522","group":"Group2","condition":"3_Rep","full_date":"2026-02-25T00:20:15.784Z","date":"2026-02-25","time":"00:20:15"},{"rt":null,"stimulus":"<p style=\"font-size: 50px; margin: 0; text-align: center;\">+</p>","response":null,"trial_type":"html-keyboard-response","trial_index":223,"plugin_version":"2.1.0","time_elapsed":422464,"subject_id":"92522","group":"Group2","condition":"3_Rep","full_date":"2026-02-25T00:20:15.784Z","date":"2026-02-25","time":"00:20:15"},{"task":"memory_phase","broad_category":"S","image_png":"S_Shale_03.png","image_id":467,"category_name":"Shale","category":30,"distinct_rating":1.95,"distinct_type":"Bottom","rt":null,"stimulus":"Stimuli_Rocks480/S_Shale_03.png","response":null,"trial_type":"image-keyboard-response","trial_index":224,"plugin_version":"2.1.0","time_elapsed":424968,"subject_id":"92522","group":"Group2","condition":"3_Rep","full_date":"2026-02-25T00:20:15.784Z","date":"2026-02-25","time":"00:20:15"},{"rt":null,"stimulus":"<p style=\"font-size: 50px; margin: 0; text-align: center;\">+</p>","response":null,"trial_type":"html-keyboard-response","trial_index":225,"plugin_version":"2.1.0","time_elapsed":425971,"subject_id":"92522","group":"Group2","condition":"3_Rep","full_date":"2026-02-25T00:20:15.784Z","date":"2026-02-25","time":"00:20:15"},{"task":"memory_phase","broad_category":"M","image_png":"M_Phyllite_13.png","image_id":269,"category_name":"Phyllite","category":17,"distinct_rating":2.8,"distinct_type":"Bottom","rt":null,"stimulus":"Stimuli_Rocks480/M_Phyllite_13.png","response":null,"trial_type":"image-keyboard-response","trial_index":226,"plugin_version":"2.1.0","time_elapsed":428474,"subject_id":"92522","group":"Group2","condition":"3_Rep","full_date":"2026-02-25T00:20:15.784Z","date":"2026-02-25","time":"00:20:15"},{"rt":null,"stimulus":"<p style=\"font-size: 50px; margin: 0; text-align: center;\">+</p>","response":null,"trial_type":"html-keyboard-response","trial_index":227,"plugin_version":"2.1.0","time_elapsed":429477,"subject_id":"92522","group":"Group2","condition":"3_Rep","full_date":"2026-02-25T00:20:15.784Z","date":"2026-02-25","time":"00:20:15"},{"task":"memory_phase","broad_category":"I","image_png":"I_Gabbro_14.png","image_id":62,"category_name":"Gabbro","category":4,"distinct_rating":2.95,"distinct_type":"Bottom","rt":null,"stimulus":"Stimuli_Rocks480/I_Gabbro_14.png","response":null,"trial_type":"image-keyboard-response","trial_index":228,"plugin_version":"2.1.0","time_elapsed":431981,"subject_id":"92522","group":"Group2","condition":"3_Rep","full_date":"2026-02-25T00:20:15.784Z","date":"2026-02-25","time":"00:20:15"},{"rt":null,"stimulus":"<p style=\"font-size: 50px; margin: 0; text-align: center;\">+</p>","response":null,"trial_type":"html-keyboard-response","trial_index":229,"plugin_version":"2.1.0","time_elapsed":432984,"subject_id":"92522","group":"Group2","condition":"3_Rep","full_date":"2026-02-25T00:20:15.784Z","date":"2026-02-25","time":"00:20:15"},{"task":"memory_phase","broad_category":"M","image_png":"M_Gneiss_15.png","image_id":207,"category_name":"Gneiss","category":13,"distinct_rating":3.11,"distinct_type":"Bottom","rt":null,"stimulus":"Stimuli_Rocks480/M_Gneiss_15.png","response":null,"trial_type":"image-keyboard-response","trial_index":230,"plugin_version":"2.1.0","time_elapsed":435488,"subject_id":"92522","group":"Group2","condition":"3_Rep","full_date":"2026-02-25T00:20:15.784Z","date":"2026-02-25","time":"00:20:15"},{"rt":null,"stimulus":"<p style=\"font-size: 50px; margin: 0; text-align: center;\">+</p>","response":null,"trial_type":"html-keyboard-response","trial_index":231,"plugin_version":"2.1.0","time_elapsed":436491,"subject_id":"92522","group":"Group2","condition":"3_Rep","full_date":"2026-02-25T00:20:15.784Z","date":"2026-02-25","time":"00:20:15"},{"task":"memory_phase","broad_category":"S","image_png":"S_Sandstone_08.png","image_id":456,"category_name":"Sandstone","category":29,"distinct_rating":1.5,"distinct_type":"Bottom","rt":null,"stimulus":"Stimuli_Rocks480/S_Sandstone_08.png","response":null,"trial_type":"image-keyboard-response","trial_index":232,"plugin_version":"2.1.0","time_elapsed":438995,"subject_id":"92522","group":"Group2","condition":"3_Rep","full_date":"2026-02-25T00:20:15.784Z","date":"2026-02-25","time":"00:20:15"},{"rt":null,"stimulus":"<p style=\"font-size: 50px; margin: 0; text-align: center;\">+</p>","response":null,"trial_type":"html-keyboard-response","trial_index":233,"plugin_version":"2.1.0","time_elapsed":439998,"subject_id":"92522","group":"Group2","condition":"3_Rep","full_date":"2026-02-25T00:20:15.784Z","date":"2026-02-25","time":"00:20:15"},{"task":"memory_phase","broad_category":"S","image_png":"S_Sandstone_11.png","image_id":459,"category_name":"Sandstone","category":29,"distinct_rating":1.82,"distinct_type":"Bottom","rt":null,"stimulus":"Stimuli_Rocks480/S_Sandstone_11.png","response":null,"trial_type":"image-keyboard-response","trial_index":234,"plugin_version":"2.1.0","time_elapsed":442502,"subject_id":"92522","group":"Group2","condition":"3_Rep","full_date":"2026-02-25T00:20:15.784Z","date":"2026-02-25","time":"00:20:15"},{"rt":null,"stimulus":"<p style=\"font-size: 50px; margin: 0; text-align: center;\">+</p>","response":null,"trial_type":"html-keyboard-response","trial_index":235,"plugin_version":"2.1.0","time_elapsed":443505,"subject_id":"92522","group":"Group2","condition":"3_Rep","full_date":"2026-02-25T00:20:15.784Z","date":"2026-02-25","time":"00:20:15"},{"task":"memory_phase","broad_category":"M","image_png":"M_Phyllite_05.png","image_id":261,"category_name":"Phyllite","category":17,"distinct_rating":2.14,"distinct_type":"Bottom","rt":null,"stimulus":"Stimuli_Rocks480/M_Phyllite_05.png","r