[{"width":1432,"height":784,"webaudio":true,"browser":"edge-chromium","browser_version":"145.0.0","mobile":false,"os":"Windows 10","fullscreen":true,"vsync_rate":61.06,"webcam":true,"microphone":true,"trial_type":"browser-check","trial_index":0,"plugin_version":"2.1.0","time_elapsed":997,"subject_id":"91297","group":"Group1","condition":"1_Rep","full_date":"2026-02-26T04:09:23.125Z","date":"2026-02-26","time":"04:09:23"},{"success":true,"timeout":false,"failed_images":[],"failed_audio":[],"failed_video":[],"trial_type":"preload","trial_index":1,"plugin_version":"2.1.0","time_elapsed":2534,"subject_id":"91297","group":"Group1","condition":"1_Rep","full_date":"2026-02-26T04:09:23.125Z","date":"2026-02-26","time":"04:09:23"},{"rt":15365,"url":"SONA_consent_memorability.html","trial_type":"external-html","trial_index":2,"plugin_version":"2.1.0","time_elapsed":17983,"subject_id":"91297","group":"Group1","condition":"1_Rep","full_date":"2026-02-26T04:09:23.125Z","date":"2026-02-26","time":"04:09:23"},{"success":true,"rt":1532,"trial_type":"fullscreen","trial_index":3,"plugin_version":"2.1.0","time_elapsed":20527,"subject_id":"91297","group":"Group1","condition":"1_Rep","full_date":"2026-02-26T04:09:23.125Z","date":"2026-02-26","time":"04:09:23"},{"rt":1258,"stimulus":"<div style=\"max-width: 760px; margin: auto; font-size: 20px; line-height: 1.5;\">\n      <h1 style=\"text-align:center; font-size: 30px;\">Instructions</h1>\n      <p>\n        Welcome to the study on <b>visual memory</b>. This experiment consists of <b>two phases</b>: \n        a <b>study phase</b> and a <b>test phase</b>.\n      </p>\n      <p>\n        In the study phase, you will see a series of rock images along with their category labels.\n        The images will appear one at a time.\n        <b>Your task</b> is to learn the categories to which the rock images belong \n        and to remember each image as accurately as possible.\n      </p> \n      <p>\n        Note that you will see each image only <b>once</b> during the study phase. \n          So, please pay close attention and try to remember each image carefully.\n      </p>\n      <p>\n        After the study phase, <b>your memory will be tested</b>. \n        Additional instructions for the test phase will be provided at that time.\n      </p>\n      <p>\n        If your computer has multiple <b>language settings</b> (e.g., English and another language),\n        please make sure it is set to English before starting.\n      </p>\n      <p>\n        You can track your progress using the <b>completion bar</b> at the top of the screen. \n        Please note that the bar will refresh when the test phase begins \n        to give you an accurate sense of your progress in both phases.\n      </p> \n      <p>\n        Press the button below when you are ready to begin.\n      </p>\n    </div>","response":0,"trial_type":"html-button-response","trial_index":4,"plugin_version":"2.1.0","time_elapsed":21787,"subject_id":"91297","group":"Group1","condition":"1_Rep","full_date":"2026-02-26T04:09:23.125Z","date":"2026-02-26","time":"04:09:23"},{"rt":null,"stimulus":"<p style=\"font-size: 50px; margin: 0; text-align: center;\">+</p>","response":null,"trial_type":"html-keyboard-response","trial_index":5,"plugin_version":"2.1.0","time_elapsed":22797,"subject_id":"91297","group":"Group1","condition":"1_Rep","full_date":"2026-02-26T04:09:23.125Z","date":"2026-02-26","time":"04:09:23"},{"task":"memory_phase","broad_category":"I","image_png":"I_Gabbro_16.png","image_id":64,"category_name":"Gabbro","category":4,"distinct_rating":2.52,"distinct_type":"Bottom","rt":null,"stimulus":"Stimuli_Rocks480/I_Gabbro_16.png","response":null,"trial_type":"image-keyboard-response","trial_index":6,"plugin_version":"2.1.0","time_elapsed":25318,"subject_id":"91297","group":"Group1","condition":"1_Rep","full_date":"2026-02-26T04:09:23.125Z","date":"2026-02-26","time":"04:09:23"},{"rt":null,"stimulus":"<p style=\"font-size: 50px; margin: 0; text-align: center;\">+</p>","response":null,"trial_type":"html-keyboard-response","trial_index":7,"plugin_version":"2.1.0","time_elapsed":26328,"subject_id":"91297","group":"Group1","condition":"1_Rep","full_date":"2026-02-26T04:09:23.125Z","date":"2026-02-26","time":"04:09:23"},{"task":"memory_phase","broad_category":"M","image_png":"M_Slate_03.png","image_id":307,"category_name":"Slate","category":20,"distinct_rating":1.87,"distinct_type":"Bottom","rt":null,"stimulus":"Stimuli_Rocks480/M_Slate_03.png","response":null,"trial_type":"image-keyboard-response","trial_index":8,"plugin_version":"2.1.0","time_elapsed":28841,"subject_id":"91297","group":"Group1","condition":"1_Rep","full_date":"2026-02-26T04:09:23.125Z","date":"2026-02-26","time":"04:09:23"},{"rt":null,"stimulus":"<p style=\"font-size: 50px; margin: 0; text-align: center;\">+</p>","response":null,"trial_type":"html-keyboard-response","trial_index":9,"plugin_version":"2.1.0","time_elapsed":29850,"subject_id":"91297","group":"Group1","condition":"1_Rep","full_date":"2026-02-26T04:09:23.125Z","date":"2026-02-26","time":"04:09:23"},{"task":"memory_phase","broad_category":"M","image_png":"M_Slate_15.png","image_id":319,"category_name":"Slate","category":20,"distinct_rating":2.13,"distinct_type":"Bottom","rt":null,"stimulus":"Stimuli_Rocks480/M_Slate_15.png","response":null,"trial_type":"image-keyboard-response","trial_index":10,"plugin_version":"2.1.0","time_elapsed":32356,"subject_id":"91297","group":"Group1","condition":"1_Rep","full_date":"2026-02-26T04:09:23.125Z","date":"2026-02-26","time":"04:09:23"},{"rt":null,"stimulus":"<p style=\"font-size: 50px; margin: 0; text-align: center;\">+</p>","response":null,"trial_type":"html-keyboard-response","trial_index":11,"plugin_version":"2.1.0","time_elapsed":33357,"subject_id":"91297","group":"Group1","condition":"1_Rep","full_date":"2026-02-26T04:09:23.125Z","date":"2026-02-26","time":"04:09:23"},{"task":"memory_phase","broad_category":"I","image_png":"I_Basalt_01.png","image_id":17,"category_name":"Basalt","category":2,"distinct_rating":1.92,"distinct_type":"Bottom","rt":null,"stimulus":"Stimuli_Rocks480/I_Basalt_01.png","response":null,"trial_type":"image-keyboard-response","trial_index":12,"plugin_version":"2.1.0","time_elapsed":35862,"subject_id":"91297","group":"Group1","condition":"1_Rep","full_date":"2026-02-26T04:09:23.125Z","date":"2026-02-26","time":"04:09:23"},{"rt":null,"stimulus":"<p style=\"font-size: 50px; margin: 0; text-align: center;\">+</p>","response":null,"trial_type":"html-keyboard-response","trial_index":13,"plugin_version":"2.1.0","time_elapsed":36872,"subject_id":"91297","group":"Group1","condition":"1_Rep","full_date":"2026-02-26T04:09:23.125Z","date":"2026-02-26","time":"04:09:23"},{"task":"memory_phase","broad_category":"M","image_png":"M_Quartzite_05.png","image_id":277,"category_name":"Quartzite","category":18,"distinct_rating":2.23,"distinct_type":"Bottom","rt":null,"stimulus":"Stimuli_Rocks480/M_Quartzite_05.png","response":null,"trial_type":"image-keyboard-response","trial_index":14,"plugin_version":"2.1.0","time_elapsed":39388,"subject_id":"91297","group":"Group1","condition":"1_Rep","full_date":"2026-02-26T04:09:23.125Z","date":"2026-02-26","time":"04:09:23"},{"rt":null,"stimulus":"<p style=\"font-size: 50px; margin: 0; text-align: center;\">+</p>","response":null,"trial_type":"html-keyboard-response","trial_index":15,"plugin_version":"2.1.0","time_elapsed":40397,"subject_id":"91297","group":"Group1","condition":"1_Rep","full_date":"2026-02-26T04:09:23.125Z","date":"2026-02-26","time":"04:09:23"},{"task":"memory_phase","broad_category":"M","image_png":"M_Phyllite_03.png","image_id":259,"category_name":"Phyllite","category":17,"distinct_rating":2.5,"distinct_type":"Bottom","rt":null,"stimulus":"Stimuli_Rocks480/M_Phyllite_03.png","response":null,"trial_type":"image-keyboard-response","trial_index":16,"plugin_version":"2.1.0","time_elapsed":42906,"subject_id":"91297","group":"Group1","condition":"1_Rep","full_date":"2026-02-26T04:09:23.125Z","date":"2026-02-26","time":"04:09:23"},{"rt":null,"stimulus":"<p style=\"font-size: 50px; margin: 0; text-align: center;\">+</p>","response":null,"trial_type":"html-keyboard-response","trial_index":17,"plugin_version":"2.1.0","time_elapsed":43917,"subject_id":"91297","group":"Group1","condition":"1_Rep","full_date":"2026-02-26T04:09:23.125Z","date":"2026-02-26","time":"04:09:23"},{"task":"memory_phase","broad_category":"S","image_png":"S_Chert_10.png","image_id":362,"category_name":"Chert","category":23,"distinct_rating":7.17,"distinct_type":"Top","rt":null,"stimulus":"Stimuli_Rocks480/S_Chert_10.png","response":null,"trial_type":"image-keyboard-response","trial_index":18,"plugin_version":"2.1.0","time_elapsed":46426,"subject_id":"91297","group":"Group1","condition":"1_Rep","full_date":"2026-02-26T04:09:23.125Z","date":"2026-02-26","time":"04:09:23"},{"rt":null,"stimulus":"<p style=\"font-size: 50px; margin: 0; text-align: center;\">+</p>","response":null,"trial_type":"html-keyboard-response","trial_index":19,"plugin_version":"2.1.0","time_elapsed":47432,"subject_id":"91297","group":"Group1","condition":"1_Rep","full_date":"2026-02-26T04:09:23.125Z","date":"2026-02-26","time":"04:09:23"},{"task":"memory_phase","broad_category":"I","image_png":"I_Pumice_12.png","image_id":140,"category_name":"Pumice","category":9,"distinct_rating":2.97,"distinct_type":"Bottom","rt":null,"stimulus":"Stimuli_Rocks480/I_Pumice_12.png","response":null,"trial_type":"image-keyboard-response","trial_index":20,"plugin_version":"2.1.0","time_elapsed":49939,"subject_id":"91297","group":"Group1","condition":"1_Rep","full_date":"2026-02-26T04:09:23.125Z","date":"2026-02-26","time":"04:09:23"},{"rt":null,"stimulus":"<p style=\"font-size: 50px; margin: 0; text-align: center;\">+</p>","response":null,"trial_type":"html-keyboard-response","trial_index":21,"plugin_version":"2.1.0","time_elapsed":50952,"subject_id":"91297","group":"Group1","condition":"1_Rep","full_date":"2026-02-26T04:09:23.125Z","date":"2026-02-26","time":"04:09:23"},{"task":"memory_phase","broad_category":"M","image_png":"M_Gneiss_06.png","image_id":198,"category_name":"Gneiss","category":13,"distinct_rating":2.65,"distinct_type":"Bottom","rt":null,"stimulus":"Stimuli_Rocks480/M_Gneiss_06.png","response":null,"trial_type":"image-keyboard-response","trial_index":22,"plugin_version":"2.1.0","time_elapsed":53469,"subject_id":"91297","group":"Group1","condition":"1_Rep","full_date":"2026-02-26T04:09:23.125Z","date":"2026-02-26","time":"04:09:23"},{"rt":null,"stimulus":"<p style=\"font-size: 50px; margin: 0; text-align: center;\">+</p>","response":null,"trial_type":"html-keyboard-response","trial_index":23,"plugin_version":"2.1.0","time_elapsed":54482,"subject_id":"91297","group":"Group1","condition":"1_Rep","full_date":"2026-02-26T04:09:23.125Z","date":"2026-02-26","time":"04:09:23"},{"task":"memory_phase","broad_category":"M","image_png":"M_Marble_06.png","image_id":230,"category_name":"Marble","category":15,"distinct_rating":3.4,"distinct_type":"Bottom","rt":null,"stimulus":"Stimuli_Rocks480/M_Marble_06.png","response":null,"trial_type":"image-keyboard-response","trial_index":24,"plugin_version":"2.1.0","time_elapsed":56992,"subject_id":"91297","group":"Group1","condition":"1_Rep","full_date":"2026-02-26T04:09:23.125Z","date":"2026-02-26","time":"04:09:23"},{"rt":null,"stimulus":"<p style=\"font-size: 50px; margin: 0; text-align: center;\">+</p>","response":null,"trial_type":"html-keyboard-response","trial_index":25,"plugin_version":"2.1.0","time_elapsed":58004,"subject_id":"91297","group":"Group1","condition":"1_Rep","full_date":"2026-02-26T04:09:23.125Z","date":"2026-02-26","time":"04:09:23"},{"task":"memory_phase","broad_category":"I","image_png":"I_Basalt_09.png","image_id":25,"category_name":"Basalt","category":2,"distinct_rating":1.89,"distinct_type":"Bottom","rt":null,"stimulus":"Stimuli_Rocks480/I_Basalt_09.png","response":null,"trial_type":"image-keyboard-response","trial_index":26,"plugin_version":"2.1.0","time_elapsed":60524,"subject_id":"91297","group":"Group1","condition":"1_Rep","full_date":"2026-02-26T04:09:23.125Z","date":"2026-02-26","time":"04:09:23"},{"rt":null,"stimulus":"<p style=\"font-size: 50px; margin: 0; text-align: center;\">+</p>","response":null,"trial_type":"html-keyboard-response","trial_index":27,"plugin_version":"2.1.0","time_elapsed":61528,"subject_id":"91297","group":"Group1","condition":"1_Rep","full_date":"2026-02-26T04:09:23.125Z","date":"2026-02-26","time":"04:09:23"},{"task":"memory_phase","broad_category":"I","image_png":"I_Diorite_05.png","image_id":37,"category_name":"Diorite","category":3,"distinct_rating":3.08,"distinct_type":"Bottom","rt":null,"stimulus":"Stimuli_Rocks480/I_Diorite_05.png","response":null,"trial_type":"image-keyboard-response","trial_index":28,"plugin_version":"2.1.0","time_elapsed":64040,"subject_id":"91297","group":"Group1","condition":"1_Rep","full_date":"2026-02-26T04:09:23.125Z","date":"2026-02-26","time":"04:09:23"},{"rt":null,"stimulus":"<p style=\"font-size: 50px; margin: 0; text-align: center;\">+</p>","response":null,"trial_type":"html-keyboard-response","trial_index":29,"plugin_version":"2.1.0","time_elapsed":65055,"subject_id":"91297","group":"Group1","condition":"1_Rep","full_date":"2026-02-26T04:09:23.125Z","date":"2026-02-26","time":"04:09:23"},{"task":"memory_phase","broad_category":"S","image_png":"S_Shale_01.png","image_id":465,"category_name":"Shale","category":30,"distinct_rating":2.7,"distinct_type":"Bottom","rt":null,"stimulus":"Stimuli_Rocks480/S_Shale_01.png","response":null,"trial_type":"image-keyboard-response","trial_index":30,"plugin_version":"2.1.0","time_elapsed":67569,"subject_id":"91297","group":"Group1","condition":"1_Rep","full_date":"2026-02-26T04:09:23.125Z","date":"2026-02-26","time":"04:09:23"},{"rt":null,"stimulus":"<p style=\"font-size: 50px; margin: 0; text-align: center;\">+</p>","response":null,"trial_type":"html-keyboard-response","trial_index":31,"plugin_version":"2.1.0","time_elapsed":68579,"subject_id":"91297","group":"Group1","condition":"1_Rep","full_date":"2026-02-26T04:09:23.125Z","date":"2026-02-26","time":"04:09:23"},{"task":"memory_phase","broad_category":"S","image_png":"S_Sandstone_15.png","image_id":463,"category_name":"Sandstone","category":29,"distinct_rating":2,"distinct_type":"Bottom","rt":null,"stimulus":"Stimuli_Rocks480/S_Sandstone_15.png","response":null,"trial_type":"image-keyboard-response","trial_index":32,"plugin_version":"2.1.0","time_elapsed":71094,"subject_id":"91297","group":"Group1","condition":"1_Rep","full_date":"2026-02-26T04:09:23.125Z","date":"2026-02-26","time":"04:09:23"},{"rt":null,"stimulus":"<p style=\"font-size: 50px; margin: 0; text-align: center;\">+</p>","response":null,"trial_type":"html-keyboard-response","trial_index":33,"plugin_version":"2.1.0","time_elapsed":72106,"subject_id":"91297","group":"Group1","condition":"1_Rep","full_date":"2026-02-26T04:09:23.125Z","date":"2026-02-26","time":"04:09:23"},{"task":"memory_phase","broad_category":"I","image_png":"I_Pumice_08.png","image_id":136,"category_name":"Pumice","category":9,"distinct_rating":3.1,"distinct_type":"Bottom","rt":null,"stimulus":"Stimuli_Rocks480/I_Pumice_08.png","response":null,"trial_type":"image-keyboard-response","trial_index":34,"plugin_version":"2.1.0","time_elapsed":74613,"subject_id":"91297","group":"Group1","condition":"1_Rep","full_date":"2026-02-26T04:09:23.125Z","date":"2026-02-26","time":"04:09:23"},{"rt":null,"stimulus":"<p style=\"font-size: 50px; margin: 0; text-align: center;\">+</p>","response":null,"trial_type":"html-keyboard-response","trial_index":35,"plugin_version":"2.1.0","time_elapsed":75622,"subject_id":"91297","group":"Group1","condition":"1_Rep","full_date":"2026-02-26T04:09:23.125Z","date":"2026-02-26","time":"04:09:23"},{"task":"memory_phase","broad_category":"M","image_png":"M_Gneiss_05.png","image_id":197,"category_name":"Gneiss","category":13,"distinct_rating":2.97,"distinct_type":"Bottom","rt":null,"stimulus":"Stimuli_Rocks480/M_Gneiss_05.png","response":null,"trial_type":"image-keyboard-response","trial_index":36,"plugin_version":"2.1.0","time_elapsed":78138,"subject_id":"91297","group":"Group1","condition":"1_Rep","full_date":"2026-02-26T04:09:23.125Z","date":"2026-02-26","time":"04:09:23"},{"rt":null,"stimulus":"<p style=\"font-size: 50px; margin: 0; text-align: center;\">+</p>","response":null,"trial_type":"html-keyboard-response","trial_index":37,"plugin_version":"2.1.0","time_elapsed":79143,"subject_id":"91297","group":"Group1","condition":"1_Rep","full_date":"2026-02-26T04:09:23.125Z","date":"2026-02-26","time":"04:09:23"},{"task":"memory_phase","broad_category":"I","image_png":"I_Andesite_06.png","image_id":6,"category_name":"Andesite","category":1,"distinct_rating":3.17,"distinct_type":"Bottom","rt":null,"stimulus":"Stimuli_Rocks480/I_Andesite_06.png","response":null,"trial_type":"image-keyboard-response","trial_index":38,"plugin_version":"2.1.0","time_elapsed":81650,"subject_id":"91297","group":"Group1","condition":"1_Rep","full_date":"2026-02-26T04:09:23.125Z","date":"2026-02-26","time":"04:09:23"},{"rt":null,"stimulus":"<p style=\"font-size: 50px; margin: 0; text-align: center;\">+</p>","response":null,"trial_type":"html-keyboard-response","trial_index":39,"plugin_version":"2.1.0","time_elapsed":82659,"subject_id":"91297","group":"Group1","condition":"1_Rep","full_date":"2026-02-26T04:09:23.125Z","date":"2026-02-26","time":"04:09:23"},{"task":"memory_phase","broad_category":"I","image_png":"I_Andesite_10.png","image_id":10,"category_name":"Andesite","category":1,"distinct_rating":3.15,"distinct_type":"Bottom","rt":null,"stimulus":"Stimuli_Rocks480/I_Andesite_10.png","response":null,"trial_type":"image-keyboard-response","trial_index":40,"plugin_version":"2.1.0","time_elapsed":85164,"subject_id":"91297","group":"Group1","condition":"1_Rep","full_date":"2026-02-26T04:09:23.125Z","date":"2026-02-26","time":"04:09:23"},{"rt":null,"stimulus":"<p style=\"font-size: 50px; margin: 0; text-align: center;\">+</p>","response":null,"trial_type":"html-keyboard-response","trial_index":41,"plugin_version":"2.1.0","time_elapsed":86172,"subject_id":"91297","group":"Group1","condition":"1_Rep","full_date":"2026-02-26T04:09:23.125Z","date":"2026-02-26","time":"04:09:23"},{"task":"memory_phase","broad_category":"M","image_png":"M_Quartzite_13.png","image_id":285,"category_name":"Quartzite","category":18,"distinct_rating":2.27,"distinct_type":"Bottom","rt":null,"stimulus":"Stimuli_Rocks480/M_Quartzite_13.png","response":null,"trial_type":"image-keyboard-response","trial_index":42,"plugin_version":"2.1.0","time_elapsed":88688,"subject_id":"91297","group":"Group1","condition":"1_Rep","full_date":"2026-02-26T04:09:23.125Z","date":"2026-02-26","time":"04:09:23"},{"rt":null,"stimulus":"<p style=\"font-size: 50px; margin: 0; text-align: center;\">+</p>","response":null,"trial_type":"html-keyboard-response","trial_index":43,"plugin_version":"2.1.0","time_elapsed":89698,"subject_id":"91297","group":"Group1","condition":"1_Rep","full_date":"2026-02-26T04:09:23.125Z","date":"2026-02-26","time":"04:09:23"},{"task":"memory_phase","broad_category":"S","image_png":"S_Rock Salt_01.png","image_id":433,"category_name":"Rock Salt","category":28,"distinct_rating":7.18,"distinct_type":"Top","rt":null,"stimulus":"Stimuli_Rocks480/S_Rock Salt_01.png","response":null,"trial_type":"image-keyboard-response","trial_index":44,"plugin_version":"2.1.0","time_elapsed":92207,"subject_id":"91297","group":"Group1","condition":"1_Rep","full_date":"2026-02-26T04:09:23.125Z","date":"2026-02-26","time":"04:09:23"},{"rt":null,"stimulus":"<p style=\"font-size: 50px; margin: 0; text-align: center;\">+</p>","response":null,"trial_type":"html-keyboard-response","trial_index":45,"plugin_version":"2.1.0","time_elapsed":93217,"subject_id":"91297","group":"Group1","condition":"1_Rep","full_date":"2026-02-26T04:09:23.125Z","date":"2026-02-26","time":"04:09:23"},{"task":"memory_phase","broad_category":"S","image_png":"S_Rock Gypsum_04.png","image_id":420,"category_name":"Rock Gypsum","category":27,"distinct_rating":7.61,"distinct_type":"Top","rt":null,"stimulus":"Stimuli_Rocks480/S_Rock Gypsum_04.png","response":null,"trial_type":"image-keyboard-response","trial_index":46,"plugin_version":"2.1.0","time_elapsed":95729,"subject_id":"91297","group":"Group1","condition":"1_Rep","full_date":"2026-02-26T04:09:23.125Z","date":"2026-02-26","time":"04:09:23"},{"rt":null,"stimulus":"<p style=\"font-size: 50px; margin: 0; text-align: center;\">+</p>","response":null,"trial_type":"html-keyboard-response","trial_index":47,"plugin_version":"2.1.0","time_elapsed":96742,"subject_id":"91297","group":"Group1","condition":"1_Rep","full_date":"2026-02-26T04:09:23.125Z","date":"2026-02-26","time":"04:09:23"},{"task":"memory_phase","broad_category":"I","image_png":"I_Rhyolite_14.png","image_id":158,"category_name":"Rhyolite","category":10,"distinct_rating":2.59,"distinct_type":"Bottom","rt":null,"stimulus":"Stimuli_Rocks480/I_Rhyolite_14.png","response":null,"trial_type":"image-keyboard-response","trial_index":48,"plugin_version":"2.1.0","time_elapsed":99256,"subject_id":"91297","group":"Group1","condition":"1_Rep","full_date":"2026-02-26T04:09:23.125Z","date":"2026-02-26","time":"04:09:23"},{"rt":null,"stimulus":"<p style=\"font-size: 50px; margin: 0; text-align: center;\">+</p>","response":null,"trial_type":"html-keyboard-response","trial_index":49,"plugin_version":"2.1.0","time_elapsed":100260,"subject_id":"91297","group":"Group1","condition":"1_Rep","full_date":"2026-02-26T04:09:23.125Z","date":"2026-02-26","time":"04:09:23"},{"task":"memory_phase","broad_category":"I","image_png":"I_Rhyolite_16.png","image_id":160,"category_name":"Rhyolite","category":10,"distinct_rating":2.19,"distinct_type":"Bottom","rt":null,"stimulus":"Stimuli_Rocks480/I_Rhyolite_16.png","response":null,"trial_type":"image-keyboard-response","trial_index":50,"plugin_version":"2.1.0","time_elapsed":102776,"subject_id":"91297","group":"Group1","condition":"1_Rep","full_date":"2026-02-26T04:09:23.125Z","date":"2026-02-26","time":"04:09:23"},{"rt":null,"stimulus":"<p style=\"font-size: 50px; margin: 0; text-align: center;\">+</p>","response":null,"trial_type":"html-keyboard-response","trial_index":51,"plugin_version":"2.1.0","time_elapsed":103789,"subject_id":"91297","group":"Group1","condition":"1_Rep","full_date":"2026-02-26T04:09:23.125Z","date":"2026-02-26","time":"04:09:23"},{"task":"memory_phase","broad_category":"I","image_png":"I_Pumice_11.png","image_id":139,"category_name":"Pumice","category":9,"distinct_rating":1.74,"distinct_type":"Bottom","rt":null,"stimulus":"Stimuli_Rocks480/I_Pumice_11.png","response":null,"trial_type":"image-keyboard-response","trial_index":52,"plugin_version":"2.1.0","time_elapsed":106291,"subject_id":"91297","group":"Group1","condition":"1_Rep","full_date":"2026-02-26T04:09:23.125Z","date":"2026-02-26","time":"04:09:23"},{"rt":null,"stimulus":"<p style=\"font-size: 50px; margin: 0; text-align: center;\">+</p>","response":null,"trial_type":"html-keyboard-response","trial_index":53,"plugin_version":"2.1.0","time_elapsed":107300,"subject_id":"91297","group":"Group1","condition":"1_Rep","full_date":"2026-02-26T04:09:23.125Z","date":"2026-02-26","time":"04:09:23"},{"task":"memory_phase","broad_category":"S","image_png":"S_Dolomite_13.png","image_id":397,"category_name":"Dolomite","category":25,"distinct_rating":1.77,"distinct_type":"Bottom","rt":null,"stimulus":"Stimuli_Rocks480/S_Dolomite_13.png","response":null,"trial_type":"image-keyboard-response","trial_index":54,"plugin_version":"2.1.0","time_elapsed":109808,"subject_id":"91297","group":"Group1","condition":"1_Rep","full_date":"2026-02-26T04:09:23.125Z","date":"2026-02-26","time":"04:09:23"},{"rt":5022,"stimulus":"<p style=\"max-width: 760px; margin: auto; font-size: 35px; line-height: 1.5;\">\n                Press SPACE to continue study phase\n              </p>","response":" ","trial_type":"html-keyboard-response","trial_index":55,"plugin_version":"2.1.0","time_elapsed":114831,"subject_id":"91297","group":"Group1","condition":"1_Rep","full_date":"2026-02-26T04:09:23.125Z","date":"2026-02-26","time":"04:09:23"},{"rt":null,"stimulus":"<p style=\"font-size: 50px; margin: 0; text-align: center;\">+</p>","response":null,"trial_type":"html-keyboard-response","trial_index":56,"plugin_version":"2.1.0","time_elapsed":115843,"subject_id":"91297","group":"Group1","condition":"1_Rep","full_date":"2026-02-26T04:09:23.125Z","date":"2026-02-26","time":"04:09:23"},{"task":"memory_phase","broad_category":"S","image_png":"S_Dolomite_14.png","image_id":398,"category_name":"Dolomite","category":25,"distinct_rating":1.43,"distinct_type":"Bottom","rt":null,"stimulus":"Stimuli_Rocks480/S_Dolomite_14.png","response":null,"trial_type":"image-keyboard-response","trial_index":57,"plugin_version":"2.1.0","time_elapsed":118348,"subject_id":"91297","group":"Group1","condition":"1_Rep","full_date":"2026-02-26T04:09:23.125Z","date":"2026-02-26","time":"04:09:23"},{"rt":null,"stimulus":"<p style=\"font-size: 50px; margin: 0; text-align: center;\">+</p>","response":null,"trial_type":"html-keyboard-response","trial_index":58,"plugin_version":"2.1.0","time_elapsed":119363,"subject_id":"91297","group":"Group1","condition":"1_Rep","full_date":"2026-02-26T04:09:23.125Z","date":"2026-02-26","time":"04:09:23"},{"task":"memory_phase","broad_category":"I","image_png":"I_Pegmatite_16.png","image_id":112,"category_name":"Pegmatite","category":7,"distinct_rating":7.03,"distinct_type":"Top","rt":null,"stimulus":"Stimuli_Rocks480/I_Pegmatite_16.png","response":null,"trial_type":"image-keyboard-response","trial_index":59,"plugin_version":"2.1.0","time_elapsed":121891,"subject_id":"91297","group":"Group1","condition":"1_Rep","full_date":"2026-02-26T04:09:23.125Z","date":"2026-02-26","time":"04:09:23"},{"rt":null,"stimulus":"<p style=\"font-size: 50px; margin: 0; text-align: center;\">+</p>","response":null,"trial_type":"html-keyboard-response","trial_index":60,"plugin_version":"2.1.0","time_elapsed":122897,"subject_id":"91297","group":"Group1","condition":"1_Rep","full_date":"2026-02-26T04:09:23.125Z","date":"2026-02-26","time":"04:09:23"},{"task":"memory_phase","broad_category":"I","image_png":"I_Andesite_08.png","image_id":8,"category_name":"Andesite","category":1,"distinct_rating":1.95,"distinct_type":"Bottom","rt":null,"stimulus":"Stimuli_Rocks480/I_Andesite_08.png","response":null,"trial_type":"image-keyboard-response","trial_index":61,"plugin_version":"2.1.0","time_elapsed":125412,"subject_id":"91297","group":"Group1","condition":"1_Rep","full_date":"2026-02-26T04:09:23.125Z","date":"2026-02-26","time":"04:09:23"},{"rt":null,"stimulus":"<p style=\"font-size: 50px; margin: 0; text-align: center;\">+</p>","response":null,"trial_type":"html-keyboard-response","trial_index":62,"plugin_version":"2.1.0","time_elapsed":126425,"subject_id":"91297","group":"Group1","condition":"1_Rep","full_date":"2026-02-26T04:09:23.125Z","date":"2026-02-26","time":"04:09:23"},{"task":"memory_phase","broad_category":"I","image_png":"I_Gabbro_08.png","image_id":56,"category_name":"Gabbro","category":4,"distinct_rating":3.02,"distinct_type":"Bottom","rt":null,"stimulus":"Stimuli_Rocks480/I_Gabbro_08.png","response":null,"trial_type":"image-keyboard-response","trial_index":63,"plugin_version":"2.1.0","time_elapsed":128932,"subject_id":"91297","group":"Group1","condition":"1_Rep","full_date":"2026-02-26T04:09:23.125Z","date":"2026-02-26","time":"04:09:23"},{"rt":null,"stimulus":"<p style=\"font-size: 50px; margin: 0; text-align: center;\">+</p>","response":null,"trial_type":"html-keyboard-response","trial_index":64,"plugin_version":"2.1.0","time_elapsed":129943,"subject_id":"91297","group":"Group1","condition":"1_Rep","full_date":"2026-02-26T04:09:23.125Z","date":"2026-02-26","time":"04:09:23"},{"task":"memory_phase","broad_category":"I","image_png":"I_Diorite_03.png","image_id":35,"category_name":"Diorite","category":3,"distinct_rating":3.14,"distinct_type":"Bottom","rt":null,"stimulus":"Stimuli_Rocks480/I_Diorite_03.png","response":null,"trial_type":"image-keyboard-response","trial_index":65,"plugin_version":"2.1.0","time_elapsed":132461,"subject_id":"91297","group":"Group1","condition":"1_Rep","full_date":"2026-02-26T04:09:23.125Z","date":"2026-02-26","time":"04:09:23"},{"rt":null,"stimulus":"<p style=\"font-size: 50px; margin: 0; text-align: center;\">+</p>","response":null,"trial_type":"html-keyboard-response","trial_index":66,"plugin_version":"2.1.0","time_elapsed":133472,"subject_id":"91297","group":"Group1","condition":"1_Rep","full_date":"2026-02-26T04:09:23.125Z","date":"2026-02-26","time":"04:09:23"},{"task":"memory_phase","broad_category":"S","image_png":"S_Sandstone_03.png","image_id":451,"category_name":"Sandstone","category":29,"distinct_rating":1.86,"distinct_type":"Bottom","rt":null,"stimulus":"Stimuli_Rocks480/S_Sandstone_03.png","response":null,"trial_type":"image-keyboard-response","trial_index":67,"plugin_version":"2.1.0","time_elapsed":135983,"subject_id":"91297","group":"Group1","condition":"1_Rep","full_date":"2026-02-26T04:09:23.125Z","date":"2026-02-26","time":"04:09:23"},{"rt":null,"stimulus":"<p style=\"font-size: 50px; margin: 0; text-align: center;\">+</p>","response":null,"trial_type":"html-keyboard-response","trial_index":68,"plugin_version":"2.1.0","time_elapsed":136996,"subject_id":"91297","group":"Group1","condition":"1_Rep","full_date":"2026-02-26T04:09:23.125Z","date":"2026-02-26","time":"04:09:23"},{"task":"memory_phase","broad_category":"I","image_png":"I_Basalt_02.png","image_id":18,"category_name":"Basalt","category":2,"distinct_rating":1.84,"distinct_type":"Bottom","rt":null,"stimulus":"Stimuli_Rocks480/I_Basalt_02.png","response":null,"trial_type":"image-keyboard-response","trial_index":69,"plugin_version":"2.1.0","time_elapsed":139513,"subject_id":"91297","group":"Group1","condition":"1_Rep","full_date":"2026-02-26T04:09:23.125Z","date":"2026-02-26","time":"04:09:23"},{"rt":null,"stimulus":"<p style=\"font-size: 50px; margin: 0; text-align: center;\">+</p>","response":null,"trial_type":"html-keyboard-response","trial_index":70,"plugin_version":"2.1.0","time_elapsed":140521,"subject_id":"91297","group":"Group1","condition":"1_Rep","full_date":"2026-02-26T04:09:23.125Z","date":"2026-02-26","time":"04:09:23"},{"task":"memory_phase","broad_category":"I","image_png":"I_Pegmatite_10.png","image_id":106,"category_name":"Pegmatite","category":7,"distinct_rating":7.66,"distinct_type":"Top","rt":null,"stimulus":"Stimuli_Rocks480/I_Pegmatite_10.png","response":null,"trial_type":"image-keyboard-response","trial_index":71,"plugin_version":"2.1.0","time_elapsed":143033,"subject_id":"91297","group":"Group1","condition":"1_Rep","full_date":"2026-02-26T04:09:23.125Z","date":"2026-02-26","time":"04:09:23"},{"rt":null,"stimulus":"<p style=\"font-size: 50px; margin: 0; text-align: center;\">+</p>","response":null,"trial_type":"html-keyboard-response","trial_index":72,"plugin_version":"2.1.0","time_elapsed":144044,"subject_id":"91297","group":"Group1","condition":"1_Rep","full_date":"2026-02-26T04:09:23.125Z","date":"2026-02-26","time":"04:09:23"},{"task":"memory_phase","broad_category":"M","image_png":"M_Marble_04.png","image_id":228,"category_name":"Marble","category":15,"distinct_rating":3.15,"distinct_type":"Bottom","rt":null,"stimulus":"Stimuli_Rocks480/M_Marble_04.png","response":null,"trial_type":"image-keyboard-response","trial_index":73,"plugin_version":"2.1.0","time_elapsed":146554,"subject_id":"91297","group":"Group1","condition":"1_Rep","full_date":"2026-02-26T04:09:23.125Z","date":"2026-02-26","time":"04:09:23"},{"rt":null,"stimulus":"<p style=\"font-size: 50px; margin: 0; text-align: center;\">+</p>","response":null,"trial_type":"html-keyboard-response","trial_index":74,"plugin_version":"2.1.0","time_elapsed":147564,"subject_id":"91297","group":"Group1","condition":"1_Rep","full_date":"2026-02-26T04:09:23.125Z","date":"2026-02-26","time":"04:09:23"},{"task":"memory_phase","broad_category":"S","image_png":"S_Sandstone_16.png","image_id":464,"category_name":"Sandstone","category":29,"distinct_rating":1.93,"distinct_type":"Bottom","rt":null,"stimulus":"Stimuli_Rocks480/S_Sandstone_16.png","response":null,"trial_type":"image-keyboard-response","trial_index":75,"plugin_version":"2.1.0","time_elapsed":150071,"subject_id":"91297","group":"Group1","condition":"1_Rep","full_date":"2026-02-26T04:09:23.125Z","date":"2026-02-26","time":"04:09:23"},{"rt":null,"stimulus":"<p style=\"font-size: 50px; margin: 0; text-align: center;\">+</p>","response":null,"trial_type":"html-keyboard-response","trial_index":76,"plugin_version":"2.1.0","time_elapsed":151082,"subject_id":"91297","group":"Group1","condition":"1_Rep","full_date":"2026-02-26T04:09:23.125Z","date":"2026-02-26","time":"04:09:23"},{"task":"memory_phase","broad_category":"M","image_png":"M_Slate_11.png","image_id":315,"category_name":"Slate","category":20,"distinct_rating":2.75,"distinct_type":"Bottom","rt":null,"stimulus":"Stimuli_Rocks480/M_Slate_11.png","response":null,"trial_type":"image-keyboard-response","trial_index":77,"plugin_version":"2.1.0","time_elapsed":153587,"subject_id":"91297","group":"Group1","condition":"1_Rep","full_date":"2026-02-26T04:09:23.125Z","date":"2026-02-26","time":"04:09:23"},{"rt":null,"stimulus":"<p style=\"font-size: 50px; margin: 0; text-align: center;\">+</p>","response":null,"trial_type":"html-keyboard-response","trial_index":78,"plugin_version":"2.1.0","time_elapsed":154597,"subject_id":"91297","group":"Group1","condition":"1_Rep","full_date":"2026-02-26T04:09:23.125Z","date":"2026-02-26","time":"04:09:23"},{"task":"memory_phase","broad_category":"S","image_png":"S_Conglomerate_05.png","image_id":373,"category_name":"Conglomerate","category":24,"distinct_rating":7.32,"distinct_type":"Top","rt":null,"stimulus":"Stimuli_Rocks480/S_Conglomerate_05.png","response":null,"trial_type":"image-keyboard-response","trial_index":79,"plugin_version":"2.1.0","time_elapsed":157105,"subject_id":"91297","group":"Group1","condition":"1_Rep","full_date":"2026-02-26T04:09:23.125Z","date":"2026-02-26","time":"04:09:23"},{"rt":null,"stimulus":"<p style=\"font-size: 50px; margin: 0; text-align: center;\">+</p>","response":null,"trial_type":"html-keyboard-response","trial_index":80,"plugin_version":"2.1.0","time_elapsed":158120,"subject_id":"91297","group":"Group1","condition":"1_Rep","full_date":"2026-02-26T04:09:23.125Z","date":"2026-02-26","time":"04:09:23"},{"task":"memory_phase","broad_category":"S","image_png":"S_Shale_12.png","image_id":476,"category_name":"Shale","category":30,"distinct_rating":2.48,"distinct_type":"Bottom","rt":null,"stimulus":"Stimuli_Rocks480/S_Shale_12.png","response":null,"trial_type":"image-keyboard-response","trial_index":81,"plugin_version":"2.1.0","time_elapsed":160627,"subject_id":"91297","group":"Group1","condition":"1_Rep","full_date":"2026-02-26T04:09:23.125Z","date":"2026-02-26","time":"04:09:23"},{"rt":null,"stimulus":"<p style=\"font-size: 50px; margin: 0; text-align: center;\">+</p>","response":null,"trial_type":"html-keyboard-response","trial_index":82,"plugin_version":"2.1.0","time_elapsed":161634,"subject_id":"91297","group":"Group1","condition":"1_Rep","full_date":"2026-02-26T04:09:23.125Z","date":"2026-02-26","time":"04:09:23"},{"task":"memory_phase","broad_category":"M","image_png":"M_Phyllite_10.png","image_id":266,"category_name":"Phyllite","category":17,"distinct_rating":2.6,"distinct_type":"Bottom","rt":null,"stimulus":"Stimuli_Rocks480/M_Phyllite_10.png","response":null,"trial_type":"image-keyboard-response","trial_index":83,"plugin_version":"2.1.0","time_elapsed":164136,"subject_id":"91297","group":"Group1","condition":"1_Rep","full_date":"2026-02-26T04:09:23.125Z","date":"2026-02-26","time":"04:09:23"},{"rt":null,"stimulus":"<p style=\"font-size: 50px; margin: 0; text-align: center;\">+</p>","response":null,"trial_type":"html-keyboard-response","trial_index":84,"plugin_version":"2.1.0","time_elapsed":165149,"subject_id":"91297","group":"Group1","condition":"1_Rep","full_date":"2026-02-26T04:09:23.125Z","date":"2026-02-26","time":"04:09:23"},{"task":"memory_phase","broad_category":"I","image_png":"I_Diorite_04.png","image_id":36,"category_name":"Diorite","category":3,"distinct_rating":2.98,"distinct_type":"Bottom","rt":null,"stimulus":"Stimuli_Rocks480/I_Diorite_04.png","response":null,"trial_type":"image-keyboard-response","trial_index":85,"plugin_version":"2.1.0","time_elapsed":167659,"subject_id":"91297","group":"Group1","condition":"1_Rep","full_date":"2026-02-26T04:09:23.125Z","date":"2026-02-26","time":"04:09:23"},{"rt":null,"stimulus":"<p style=\"font-size: 50px; margin: 0; text-align: center;\">+</p>","response":null,"trial_type":"html-keyboard-response","trial_index":86,"plugin_version":"2.1.0","time_elapsed":168671,"subject_id":"91297","group":"Group1","condition":"1_Rep","full_date":"2026-02-26T04:09:23.125Z","date":"2026-02-26","time":"04:09:23"},{"task":"memory_phase","broad_category":"I","image_png":"I_Obsidian_05.png","image_id":85,"category_name":"Obsidian","category":6,"distinct_rating":7.32,"distinct_type":"Top","rt":null,"stimulus":"Stimuli_Rocks480/I_Obsidian_05.png","response":null,"trial_type":"image-keyboard-response","trial_index":87,"plugin_version":"2.1.0","time_elapsed":171183,"subject_id":"91297","group":"Group1","condition":"1_Rep","full_date":"2026-02-26T04:09:23.125Z","date":"2026-02-26","time":"04:09:23"},{"rt":null,"stimulus":"<p style=\"font-size: 50px; margin: 0; text-align: center;\">+</p>","response":null,"trial_type":"html-keyboard-response","trial_index":88,"plugin_version":"2.1.0","time_elapsed":172199,"subject_id":"91297","group":"Group1","condition":"1_Rep","full_date":"2026-02-26T04:09:23.125Z","date":"2026-02-26","time":"04:09:23"},{"task":"memory_phase","broad_category":"S","image_png":"S_Dolomite_12.png","image_id":396,"category_name":"Dolomite","category":25,"distinct_rating":1.85,"distinct_type":"Bottom","rt":null,"stimulus":"Stimuli_Rocks480/S_Dolomite_12.png","response":null,"trial_type":"image-keyboard-response","trial_index":89,"plugin_version":"2.1.0","time_elapsed":174714,"subject_id":"91297","group":"Group1","condition":"1_Rep","full_date":"2026-02-26T04:09:23.125Z","date":"2026-02-26","time":"04:09:23"},{"rt":null,"stimulus":"<p style=\"font-size: 50px; margin: 0; text-align: center;\">+</p>","response":null,"trial_type":"html-keyboard-response","trial_index":90,"plugin_version":"2.1.0","time_elapsed":175716,"subject_id":"91297","group":"Group1","condition":"1_Rep","full_date":"2026-02-26T04:09:23.125Z","date":"2026-02-26","time":"04:09:23"},{"task":"memory_phase","broad_category":"M","image_png":"M_Quartzite_08.png","image_id":280,"category_name":"Quartzite","category":18,"distinct_rating":2.15,"distinct_type":"Bottom","rt":null,"stimulus":"Stimuli_Rocks480/M_Quartzite_08.png","response":null,"trial_type":"image-keyboard-response","trial_index":91,"plugin_version":"2.1.0","time_elapsed":178226,"subject_id":"91297","group":"Group1","condition":"1_Rep","full_date":"2026-02-26T04:09:23.125Z","date":"2026-02-26","time":"04:09:23"},{"rt":null,"stimulus":"<p style=\"font-size: 50px; margin: 0; text-align: center;\">+</p>","response":null,"trial_type":"html-keyboard-response","trial_index":92,"plugin_version":"2.1.0","time_elapsed":179233,"subject_id":"91297","group":"Group1","condition":"1_Rep","full_date":"2026-02-26T04:09:23.125Z","date":"2026-02-26","time":"04:09:23"},{"task":"memory_phase","broad_category":"M","image_png":"M_Phyllite_07.png","image_id":263,"category_name":"Phyllite","category":17,"distinct_rating":2.59,"distinct_type":"Bottom","rt":null,"stimulus":"Stimuli_Rocks480/M_Phyllite_07.png","response":null,"trial_type":"image-keyboard-response","trial_index":93,"plugin_version":"2.1.0","time_elapsed":181759,"subject_id":"91297","group":"Group1","condition":"1_Rep","full_date":"2026-02-26T04:09:23.125Z","date":"2026-02-26","time":"04:09:23"},{"rt":null,"stimulus":"<p style=\"font-size: 50px; margin: 0; text-align: center;\">+</p>","response":null,"trial_type":"html-keyboard-response","trial_index":94,"plugin_version":"2.1.0","time_elapsed":182769,"subject_id":"91297","group":"Group1","condition":"1_Rep","full_date":"2026-02-26T04:09:23.125Z","date":"2026-02-26","time":"04:09:23"},{"task":"memory_phase","broad_category":"M","image_png":"M_Gneiss_13.png","image_id":205,"category_name":"Gneiss","category":13,"distinct_rating":3.26,"distinct_type":"Bottom","rt":null,"stimulus":"Stimuli_Rocks480/M_Gneiss_13.png","response":null,"trial_type":"image-keyboard-response","trial_index":95,"plugin_version":"2.1.0","time_elapsed":185279,"subject_id":"91297","group":"Group1","condition":"1_Rep","full_date":"2026-02-26T04:09:23.125Z","date":"2026-02-26","time":"04:09:23"},{"rt":null,"stimulus":"<p style=\"font-size: 50px; margin: 0; text-align: center;\">+</p>","response":null,"trial_type":"html-keyboard-response","trial_index":96,"plugin_version":"2.1.0","time_elapsed":186287,"subject_id":"91297","group":"Group1","condition":"1_Rep","full_date":"2026-02-26T04:09:23.125Z","date":"2026-02-26","time":"04:09:23"},{"task":"memory_phase","broad_category":"S","image_png":"S_Breccia_11.png","image_id":347,"category_name":"Breccia","category":22,"distinct_rating":6.7,"distinct_type":"Top","rt":null,"stimulus":"Stimuli_Rocks480/S_Breccia_11.png","response":null,"trial_type":"image-keyboard-response","trial_index":97,"plugin_version":"2.1.0","time_elapsed":188794,"subject_id":"91297","group":"Group1","condition":"1_Rep","full_date":"2026-02-26T04:09:23.125Z","date":"2026-02-26","time":"04:09:23"},{"rt":null,"stimulus":"<p style=\"font-size: 50px; margin: 0; text-align: center;\">+</p>","response":null,"trial_type":"html-keyboard-response","trial_index":98,"plugin_version":"2.1.0","time_elapsed":189802,"subject_id":"91297","group":"Group1","condition":"1_Rep","full_date":"2026-02-26T04:09:23.125Z","date":"2026-02-26","time":"04:09:23"},{"task":"memory_phase","broad_category":"I","image_png":"I_Rhyolite_11.png","image_id":155,"category_name":"Rhyolite","category":10,"distinct_rating":1.73,"distinct_type":"Bottom","rt":null,"stimulus":"Stimuli_Rocks480/I_Rhyolite_11.png","response":null,"trial_type":"image-keyboard-response","trial_index":99,"plugin_version":"2.1.0","time_elapsed":192312,"subject_id":"91297","group":"Group1","condition":"1_Rep","full_date":"2026-02-26T04:09:23.125Z","date":"2026-02-26","time":"04:09:23"},{"rt":null,"stimulus":"<p style=\"font-size: 50px; margin: 0; text-align: center;\">+</p>","response":null,"trial_type":"html-keyboard-response","trial_index":100,"plugin_version":"2.1.0","time_elapsed":193322,"subject_id":"91297","group":"Group1","condition":"1_Rep","full_date":"2026-02-26T04:09:23.125Z","date":"2026-02-26","time":"04:09:23"},{"task":"memory_phase","broad_category":"M","image_png":"M_Marble_16.png","image_id":240,"category_name":"Marble","category":15,"distinct_rating":2.57,"distinct_type":"Bottom","rt":null,"stimulus":"Stimuli_Rocks480/M_Marble_16.png","response":null,"trial_type":"image-keyboard-response","trial_index":101,"plugin_version":"2.1.0","time_elapsed":195833,"subject_id":"91297","group":"Group1","condition":"1_Rep","full_date":"2026-02-26T04:09:23.125Z","date":"2026-02-26","time":"04:09:23"},{"rt":null,"stimulus":"<p style=\"font-size: 50px; margin: 0; text-align: center;\">+</p>","response":null,"trial_type":"html-keyboard-response","trial_index":102,"plugin_version":"2.1.0","time_elapsed":196846,"subject_id":"91297","group":"Group1","condition":"1_Rep","full_date":"2026-02-26T04:09:23.125Z","date":"2026-02-26","time":"04:09:23"},{"task":"memory_phase","broad_category":"I","image_png":"I_Gabbro_11.png","image_id":59,"category_name":"Gabbro","category":4,"distinct_rating":1.99,"distinct_type":"Bottom","rt":null,"stimulus":"Stimuli_Rocks480/I_Gabbro_11.png","response":null,"trial_type":"image-keyboard-response","trial_index":103,"plugin_version":"2.1.0","time_elapsed":199360,"subject_id":"91297","group":"Group1","condition":"1_Rep","full_date":"2026-02-26T04:09:23.125Z","date":"2026-02-26","time":"04:09:23"},{"rt":null,"stimulus":"<p style=\"font-size: 50px; margin: 0; text-align: center;\">+</p>","response":null,"trial_type":"html-keyboard-response","trial_index":104,"plugin_version":"2.1.0","time_elapsed":200373,"subject_id":"91297","group":"Group1","condition":"1_Rep","full_date":"2026-02-26T04:09:23.125Z","date":"2026-02-26","time":"04:09:23"},{"task":"memory_phase","broad_category":"S","image_png":"S_Shale_08.png","image_id":472,"category_name":"Shale","category":30,"distinct_rating":2.55,"distinct_type":"Bottom","rt":null,"stimulus":"Stimuli_Rocks480/S_Shale_08.png","response":null,"trial_type":"image-keyboard-response","trial_index":105,"plugin_version":"2.1.0","time_elapsed":202875,"subject_id":"91297","group":"Group1","condition":"1_Rep","full_date":"2026-02-26T04:09:23.125Z","date":"2026-02-26","time":"04:09:23"},{"rt":15661,"stimulus":"<div style=\"max-width: 760px; margin: auto; font-size: 20px; line-height: 1.5;\">\n      <h1 style=\"text-align:center; font-size: 30px;\">Instructions for the Test Phase</h1>\n      <p>\n        The study phase is now complete.\n      </p>\n      <p>\n        In the test phase, you will again see a series of rock images. \n        Some will be ones you saw before - during the study phase, while others will be new.  \n        <b>Your task</b> is to decide whether you have seen each image before by pressing the corresponding key on your keyboard:<br><br>\n          <b>A</b> - NO (you did not see this image before)<br>\n          <b>L</b> - YES (you saw this image before)<br><br>\n        The test will proceed at your own pace. You will receive feedback after each response.  \n        Please try to respond <b>as accurately as possible</b>.\n      </p>\n      <p>\n        <b>Reminder:</b> If your computer has multiple language settings (e.g., English and another language),\n        please ensure it is set to English during the test phase.\n      </p>\n      <p>\n        You can track your progress using the <b>completion bar</b> at the top of the screen.  \n        Note that it has been refreshed to reflect your progress during this final phase.\n      </p>\n      <p>\n        Press the button below when you are ready to continue.\n      </p>\n    </div>","response":0,"trial_type":"html-button-response","trial_index":106,"plugin_version":"2.1.0","time_elapsed":218538,"subject_id":"91297","group":"Group1","condition":"1_Rep","full_date":"2026-02-26T04:09:23.125Z","date":"2026-02-26","time":"04:09:23"},{"correct_response":"l","task":"test_phase","broad_category":"M","image_png":"M_Quartzite_13.png","image_id":285,"category_name":"Quartzite","category":18,"distinct_rating":2.27,"distinct_type":"Bottom","item_type":"Target","rt":2547,"stimulus":"Stimuli_Rocks480/M_Quartzite_13.png","response":"l","trial_type":"image-keyboard-response","trial_index":107,"plugin_version":"2.1.0","time_elapsed":221088,"subject_id":"91297","group":"Group1","condition":"1_Rep","full_date":"2026-02-26T04:09:23.125Z","date":"2026-02-26","time":"04:09:23","cor_ans":true},{"trial_type":"html-keyboard-response","rt":null,"stimulus":"<p style=\"color: green; font-size: 50px; font-weight: bold;\">Correct</p>","response":null,"trial_index":108,"plugin_version":"2.1.0","time_elapsed":221596,"subject_id":"91297","group":"Group1","condition":"1_Rep","full_date":"2026-02-26T04:09:23.125Z","date":"2026-02-26","time":"04:09:23"},{"correct_response":"l","task":"test_phase","broad_category":"I","image_png":"I_Rhyolite_14.png","image_id":158,"category_name":"Rhyolite","category":10,"distinct_rating":2.59,"distinct_type":"Bottom","item_type":"Target","rt":1348,"stimulus":"Stimuli_Rocks480/I_Rhyolite_14.png","response":"l","trial_type":"image-keyboard-response","trial_index":109,"plugin_version":"2.1.0","time_elapsed":222945,"subject_id":"91297","group":"Group1","condition":"1_Rep","full_date":"2026-02-26T04:09:23.125Z","date":"2026-02-26","time":"04:09:23","cor_ans":true},{"trial_type":"html-keyboard-response","rt":null,"stimulus":"<p style=\"color: green; font-size: 50px; font-weight: bold;\">Correct</p>","response":null,"trial_index":110,"plugin_version":"2.1.0","time_elapsed":223454,"subject_id":"91297","group":"Group1","condition":"1_Rep","full_date":"2026-02-26T04:09:23.125Z","date":"2026-02-26","time":"04:09:23"},{"correct_response":"a","task":"test_phase","broad_category":"S","image_png":"S_Rock Salt_13.png","image_id":445,"category_name":"Rock Salt","category":28,"distinct_rating":7.58,"distinct_type":"Top","item_type":"Foil","rt":1981,"stimulus":"Stimuli_Rocks480/S_Rock Salt_13.png","response":"a","trial_type":"image-keyboard-response","trial_index":111,"plugin_version":"2.1.0","time_elapsed":225437,"subject_id":"91297","group":"Group1","condition":"1_Rep","full_date":"2026-02-26T04:09:23.125Z","date":"2026-02-26","time":"04:09:23","cor_ans":true},{"trial_type":"html-keyboard-response","rt":null,"stimulus":"<p style=\"color: green; font-size: 50px; font-weight: bold;\">Correct</p>","response":null,"trial_index":112,"plugin_version":"2.1.0","time_elapsed":225946,"subject_id":"91297","group":"Group1","condition":"1_Rep","full_date":"2026-02-26T04:09:23.125Z","date":"2026-02-26","time":"04:09:23"},{"correct_response":"a","task":"test_phase","broad_category":"I","image_png":"I_Gabbro_14.png","image_id":62,"category_name":"Gabbro","category":4,"distinct_rating":2.95,"distinct_type":"Bottom","item_type":"Foil","rt":1157,"stimulus":"Stimuli_Rocks480/I_Gabbro_14.png","response":"l","trial_type":"image-keyboard-response","trial_index":113,"plugin_version":"2.1.0","time_elapsed":227105,"subject_id":"91297","group":"Group1","condition":"1_Rep","full_date":"2026-02-26T04:09:23.125Z","date":"2026-02-26","time":"04:09:23","cor_ans":false},{"trial_type":"html-keyboard-response","rt":null,"stimulus":"<p style=\"color: red; font-size: 50px; font-weight: bold;\">Incorrect</p>","response":null,"trial_index":114,"plugin_version":"2.1.0","time_elapsed":227615,"subject_id":"91297","group":"Group1","condition":"1_Rep","full_date":"2026-02-26T04:09:23.125Z","date":"2026-02-26","time":"04:09:23"},{"correct_response":"l","task":"test_phase","broad_category":"S","image_png":"S_Breccia_11.png","image_id":347,"category_name":"Breccia","category":22,"distinct_rating":6.7,"distinct_type":"Top","item_type":"Target","rt":722,"stimulus":"Stimuli_Rocks480/S_Breccia_11.png","response":"l","trial_type":"image-keyboard-response","trial_index":115,"plugin_version":"2.1.0","time_elapsed":228338,"subject_id":"91297","group":"Group1","condition":"1_Rep","full_date":"2026-02-26T04:09:23.125Z","date":"2026-02-26","time":"04:09:23","cor_ans":true},{"trial_type":"html-keyboard-response","rt":null,"stimulus":"<p style=\"color: green; font-size: 50px; font-weight: bold;\">Correct</p>","response":null,"trial_index":116,"plugin_version":"2.1.0","time_elapsed":228851,"subject_id":"91297","group":"Group1","condition":"1_Rep","full_date":"2026-02-26T04:09:23.125Z","date":"2026-02-26","time":"04:09:23"},{"correct_response":"a","task":"test_phase","broad_category":"I","image_png":"I_Andesite_04.png","image_id":4,"category_name":"Andesite","category":1,"distinct_rating":3.18,"distinct_type":"Bottom","item_type":"Foil","rt":1002,"stimulus":"Stimuli_Rocks480/I_Andesite_04.png","response":"l","trial_type":"image-keyboard-response","trial_index":117,"plugin_version":"2.1.0","time_elapsed":229854,"subject_id":"91297","group":"Group1","condition":"1_Rep","full_date":"2026-02-26T04:09:23.125Z","date":"2026-02-26","time":"04:09:23","cor_ans":false},{"trial_type":"html-keyboard-response","rt":null,"stimulus":"<p style=\"color: red; font-size: 50px; font-weight: bold;\">Incorrect</p>","response":null,"trial_index":118,"plugin_version":"2.1.0","time_elapsed":230359,"subject_id":"91297","group":"Group1","condition":"1_Rep","full_date":"2026-02-26T04:09:23.125Z","date":"2026-02-26","time":"04:09:23"},{"correct_response":"l","task":"test_phase","broad_category":"I","image_png":"I_Basalt_01.png","image_id":17,"category_name":"Basalt","category":2,"distinct_rating":1.92,"distinct_type":"Bottom","item_type":"Target","rt":1077,"stimulus":"Stimuli_Rocks480/I_Basalt_01.png","response":"l","trial_type":"image-keyboard-response","trial_index":119,"plugin_version":"2.1.0","time_elapsed":231438,"subject_id":"91297","group":"Group1","condition":"1_Rep","full_date":"2026-02-26T04:09:23.125Z","date":"2026-02-26","time":"04:09:23","cor_ans":true},{"trial_type":"html-keyboard-response","rt":null,"stimulus":"<p style=\"color: green; font-size: 50px; font-weight: bold;\">Correct</p>","response":null,"trial_index":120,"plugin_version":"2.1.0","time_elapsed":231948,"subject_id":"91297","group":"Group1","condition":"1_Rep","full_date":"2026-02-26T04:09:23.125Z","date":"2026-02-26","time":"04:09:23"},{"correct_response":"a","task":"test_phase","broad_category":"M","image_png":"M_Quartzite_12.png","image_id":284,"category_name":"Quartzite","category":18,"distinct_rating":1.92,"distinct_type":"Bottom","item_type":"Foil","rt":1222,"stimulus":"Stimuli_Rocks480/M_Quartzite_12.png","response":"l","trial_type":"image-keyboard-response","trial_index":121,"plugin_version":"2.1.0","time_elapsed":233172,"subject_id":"91297","group":"Group1","condition":"1_Rep","full_date":"2026-02-26T04:09:23.125Z","date":"2026-02-26","time":"04:09:23","cor_ans":false},{"trial_type":"html-keyboard-response","rt":null,"stimulus":"<p style=\"color: red; font-size: 50px; font-weight: bold;\">Incorrect</p>","response":null,"trial_index":122,"plugin_version":"2.1.0","time_elapsed":233681,"subject_id":"91297","group":"Group1","condition":"1_Rep","full_date":"2026-02-26T04:09:23.125Z","date":"2026-02-26","time":"04:09:23"},{"correct_response":"l","task":"test_phase","broad_category":"I","image_png":"I_Diorite_04.png","image_id":36,"category_name":"Diorite","category":3,"distinct_rating":2.98,"distinct_type":"Bottom","item_type":"Target","rt":1285,"stimulus":"Stimuli_Rocks480/I_Diorite_04.png","response":"a","trial_type":"image-keyboard-response","trial_index":123,"plugin_version":"2.1.0","time_elapsed":234968,"subject_id":"91297","group":"Group1","condition":"1_Rep","full_date":"2026-02-26T04:09:23.125Z","date":"2026-02-26","time":"04:09:23","cor_ans":false},{"trial_type":"html-keyboard-response","rt":null,"stimulus":"<p style=\"color: red; font-size: 50px; font-weight: bold;\">Incorrect</p>","response":null,"trial_index":124,"plugin_version":"2.1.0","time_elapsed":235480,"subject_id":"91297","group":"Group1","condition":"1_Rep","full_date":"2026-02-26T04:09:23.125Z","date":"2026-02-26","time":"04:09:23"},{"correct_response":"a","task":"test_phase","broad_category":"M","image_png":"M_Marble_02.png","image_id":226,"category_name":"Marble","category":15,"distinct_rating":3.2,"distinct_type":"Bottom","item_type":"Foil","rt":915,"stimulus":"Stimuli_Rocks480/M_Marble_02.png","response":"a","trial_type":"image-keyboard-response","trial_index":125,"plugin_version":"2.1.0","time_elapsed":236396,"subject_id":"91297","group":"Group1","condition":"1_Rep","full_date":"2026-02-26T04:09:23.125Z","date":"2026-02-26","time":"04:09:23","cor_ans":true},{"trial_type":"html-keyboard-response","rt":null,"stimulus":"<p style=\"color: green; font-size: 50px; font-weight: bold;\">Correct</p>","response":null,"trial_index":126,"plugin_version":"2.1.0","time_elapsed":236908,"subject_id":"91297","group":"Group1","condition":"1_Rep","full_date":"2026-02-26T04:09:23.125Z","date":"2026-02-26","time":"04:09:23"},{"correct_response":"a","task":"test_phase","broad_category":"M","image_png":"M_Marble_14.png","image_id":238,"category_name":"Marble","category":15,"distinct_rating":3.31,"distinct_type":"Bottom","item_type":"Foil","rt":963,"stimulus":"Stimuli_Rocks480/M_Marble_14.png","response":"a","trial_type":"image-keyboard-response","trial_index":127,"plugin_version":"2.1.0","time_elapsed":237873,"subject_id":"91297","group":"Group1","condition":"1_Rep","full_date":"2026-02-26T04:09:23.125Z","date":"2026-02-26","time":"04:09:23","cor_ans":true},{"trial_type":"html-keyboard-response","rt":null,"stimulus":"<p style=\"color: green; font-size: 50px; font-weight: bold;\">Correct</p>","response":null,"trial_index":128,"plugin_version":"2.1.0","time_elapsed":238383,"subject_id":"91297","group":"Group1","condition":"1_Rep","full_date":"2026-02-26T04:09:23.125Z","date":"2026-02-26","time":"04:09:23"},{"correct_response":"a","task":"test_phase","broad_category":"I","image_png":"I_Rhyolite_10.png","image_id":154,"category_name":"Rhyolite","category":10,"distinct_rating":2.88,"distinct_type":"Bottom","item_type":"Foil","rt":965,"stimulus":"Stimuli_Rocks480/I_Rhyolite_10.png","response":"l","trial_type":"image-keyboard-response","trial_index":129,"plugin_version":"2.1.0","time_elapsed":239349,"subject_id":"91297","group":"Group1","condition":"1_Rep","full_date":"2026-02-26T04:09:23.125Z","date":"2026-02-26","time":"04:09:23","cor_ans":false},{"trial_type":"html-keyboard-response","rt":null,"stimulus":"<p style=\"color: red; font-size: 50px; font-weight: bold;\">Incorrect</p>","response":null,"trial_index":130,"plugin_version":"2.1.0","time_elapsed":239856,"subject_id":"91297","group":"Group1","condition":"1_Rep","full_date":"2026-02-26T04:09:23.125Z","date":"2026-02-26","time":"04:09:23"},{"correct_response":"a","task":"test_phase","broad_category":"I","image_png":"I_Rhyolite_08.png","image_id":152,"category_name":"Rhyolite","category":10,"distinct_rating":1.38,"distinct_type":"Bottom","item_type":"Foil","rt":884,"stimulus":"Stimuli_Rocks480/I_Rhyolite_08.png","response":"l","trial_type":"image-keyboard-response","trial_index":131,"plugin_version":"2.1.0","time_elapsed":240742,"subject_id":"91297","group":"Group1","condition":"1_Rep","full_date":"2026-02-26T04:09:23.125Z","date":"2026-02-26","time":"04:09:23","cor_ans":false},{"trial_type":"html-keyboard-response","rt":null,"stimulus":"<p style=\"color: red; font-size: 50px; font-weight: bold;\">Incorrect</p>","response":null,"trial_index":132,"plugin_version":"2.1.0","time_elapsed":241257,"subject_id":"91297","group":"Group1","condition":"1_Rep","full_date":"2026-02-26T04:09:23.125Z","date":"2026-02-26","time":"04:09:23"},{"correct_response":"l","task":"test_phase","broad_category":"S","image_png":"S_Dolomite_13.png","image_id":397,"category_name":"Dolomite","category":25,"distinct_rating":1.77,"distinct_type":"Bottom","item_type":"Target","rt":594,"stimulus":"Stimuli_Rocks480/S_Dolomite_13.png","response":"l","trial_type":"image-keyboard-response","trial_index":133,"plugin_version":"2.1.0","time_elapsed":241866,"subject_id":"91297","group":"Group1","condition":"1_Rep","full_date":"2026-02-26T04:09:23.125Z","date":"2026-02-26","time":"04:09:23","cor_ans":true},{"trial_type":"html-keyboard-response","rt":null,"stimulus":"<p style=\"color: green; font-size: 50px; font-weight: bold;\">Correct</p>","response":null,"trial_index":134,"plugin_version":"2.1.0","time_elapsed":242377,"subject_id":"91297","group":"Group1","condition":"1_Rep","full_date":"2026-02-26T04:09:23.125Z","date":"2026-02-26","time":"04:09:23"},{"correct_response":"a","task":"test_phase","broad_category":"S","image_png":"S_Chert_13.png","image_id":365,"category_name":"Chert","category":23,"distinct_rating":6.57,"distinct_type":"Top","item_type":"Foil","rt":913,"stimulus":"Stimuli_Rocks480/S_Chert_13.png","response":"a","trial_type":"image-keyboard-response","trial_index":135,"plugin_version":"2.1.0","time_elapsed":243293,"subject_id":"91297","group":"Group1","condition":"1_Rep","full_date":"2026-02-26T04:09:23.125Z","date":"2026-02-26","time":"04:09:23","cor_ans":true},{"trial_type":"html-keyboard-response","rt":null,"stimulus":"<p style=\"color: green; font-size: 50px; font-weight: bold;\">Correct</p>","response":null,"trial_index":136,"plugin_version":"2.1.0","time_elapsed":243803,"subject_id":"91297","group":"Group1","condition":"1_Rep","full_date":"2026-02-26T04:09:23.125Z","date":"2026-02-26","time":"04:09:23"},{"correct_response":"a","task":"test_phase","broad_category":"S","image_png":"S_Conglomerate_14.png","image_id":382,"category_name":"Conglomerate","category":24,"distinct_rating":6.86,"distinct_type":"Top","item_type":"Foil","rt":1009,"stimulus":"Stimuli_Rocks480/S_Conglomerate_14.png","response":"a","trial_type":"image-keyboard-response","trial_index":137,"plugin_version":"2.1.0","time_elapsed":244814,"subject_id":"91297","group":"Group1","condition":"1_Rep","full_date":"2026-02-26T04:09:23.125Z","date":"2026-02-26","time":"04:09:23","cor_ans":true},{"trial_type":"html-keyboard-response","rt":null,"stimulus":"<p style=\"color: green; font-size: 50px; font-weight: bold;\">Correct</p>","response":null,"trial_index":138,"plugin_version":"2.1.0","time_elapsed":245326,"subject_id":"91297","group":"Group1","condition":"1_Rep","full_date":"2026-02-26T04:09:23.125Z","date":"2026-02-26","time":"04:09:23"},{"correct_response":"l","task":"test_phase","broad_category":"I","image_png":"I_Diorite_03.png","image_id":35,"category_name":"Diorite","category":3,"distinct_rating":3.14,"distinct_type":"Bottom","item_type":"Target","rt":1045,"stimulus":"Stimuli_Rocks480/I_Diorite_03.png","response":"l","trial_type":"image-keyboard-response","trial_index":139,"plugin_version":"2.1.0","time_elapsed":246374,"subject_id":"91297","group":"Group1","condition":"1_Rep","full_date":"2026-02-26T04:09:23.125Z","date":"2026-02-26","time":"04:09:23","cor_ans":true},{"trial_type":"html-keyboard-response","rt":null,"stimulus":"<p style=\"color: green; font-size: 50px; font-weight: bold;\">Correct</p>","response":null,"trial_index":140,"plugin_version":"2.1.0","time_elapsed":246883,"subject_id":"91297","group":"Group1","condition":"1_Rep","full_date":"2026-02-26T04:09:23.125Z","date":"2026-02-26","time":"04:09:23"},{"correct_response":"l","task":"test_phase","broad_category":"I","image_png":"I_Basalt_09.png","image_id":25,"category_name":"Basalt","category":2,"distinct_rating":1.89,"distinct_type":"Bottom","item_type":"Target","rt":1058,"stimulus":"Stimuli_Rocks480/I_Basalt_09.png","response":"l","trial_type":"image-keyboard-response","trial_index":141,"plugin_version":"2.1.0","time_elapsed":247942,"subject_id":"91297","group":"Group1","condition":"1_Rep","full_date":"2026-02-26T04:09:23.125Z","date":"2026-02-26","time":"04:09:23","cor_ans":true},{"trial_type":"html-keyboard-response","rt":null,"stimulus":"<p style=\"color: green; font-size: 50px; font-weight: bold;\">Correct</p>","response":null,"trial_index":142,"plugin_version":"2.1.0","time_elapsed":248455,"subject_id":"91297","group":"Group1","condition":"1_Rep","full_date":"2026-02-26T04:09:23.125Z","date":"2026-02-26","time":"04:09:23"},{"correct_response":"a","task":"test_phase","broad_category":"I","image_png":"I_Gabbro_12.png","image_id":60,"category_name":"Gabbro","category":4,"distinct_rating":2.6,"distinct_type":"Bottom","item_type":"Foil","rt":801,"stimulus":"Stimuli_Rocks480/I_Gabbro_12.png","response":"a","trial_type":"image-keyboard-response","trial_index":143,"plugin_version":"2.1.0","time_elapsed":249258,"subject_id":"91297","group":"Group1","condition":"1_Rep","full_date":"2026-02-26T04:09:23.125Z","date":"2026-02-26","time":"04:09:23","cor_ans":true},{"trial_type":"html-keyboard-response","rt":null,"stimulus":"<p style=\"color: green; font-size: 50px; font-weight: bold;\">Correct</p>","response":null,"trial_index":144,"plugin_version":"2.1.0","time_elapsed":249769,"subject_id":"91297","group":"Group1","condition":"1_Rep","full_date":"2026-02-26T04:09:23.125Z","date":"2026-02-26","time":"04:09:23"},{"correct_response":"a","task":"test_phase","broad_category":"I","image_png":"I_Pumice_13.png","image_id":141,"category_name":"Pumice","category":9,"distinct_rating":3.12,"distinct_type":"Bottom","item_type":"Foil","rt":707,"stimulus":"Stimuli_Rocks480/I_Pumice_13.png","response":"a","trial_type":"image-keyboard-response","trial_index":145,"plugin_version":"2.1.0","time_elapsed":250478,"subject_id":"91297","group":"Group1","condition":"1_Rep","full_date":"2026-02-26T04:09:23.125Z","date":"2026-02-26","time":"04:09:23","cor_ans":true},{"trial_type":"html-keyboard-response","rt":null,"stimulus":"<p style=\"color: green; font-size: 50px; font-weight: bold;\">Correct</p>","response":null,"trial_index":146,"plugin_version":"2.1.0","time_elapsed":250989,"subject_id":"91297","group":"Group1","condition":"1_Rep","full_date":"2026-02-26T04:09:23.125Z","date":"2026-02-26","time":"04:09:23"},{"correct_response":"l","task":"test_phase","broad_category":"S","image_png":"S_Shale_12.png","image_id":476,"category_name":"Shale","category":30,"distinct_rating":2.48,"distinct_type":"Bottom","item_type":"Target","rt":925,"stimulus":"Stimuli_Rocks480/S_Shale_12.png","response":"a","trial_type":"image-keyboard-response","trial_index":147,"plugin_version":"2.1.0","time_elapsed":251915,"subject_id":"91297","group":"Group1","condition":"1_Rep","full_date":"2026-02-26T04:09:23.125Z","date":"2026-02-26","time":"04:09:23","cor_ans":false},{"trial_type":"html-keyboard-response","rt":null,"stimulus":"<p style=\"color: red; font-size: 50px; font-weight: bold;\">Incorrect</p>","response":null,"trial_index":148,"plugin_version":"2.1.0","time_elapsed":252427,"subject_id":"91297","group":"Group1","condition":"1_Rep","full_date":"2026-02-26T04:09:23.125Z","date":"2026-02-26","time":"04:09:23"},{"correct_response":"l","task":"test_phase","broad_category":"S","image_png":"S_Dolomite_12.png","image_id":396,"category_name":"Dolomite","category":25,"distinct_rating":1.85,"distinct_type":"Bottom","item_type":"Target","rt":834,"stimulus":"Stimuli_Rocks480/S_Dolomite_12.png","response":"l","trial_type":"image-keyboard-response","trial_index":149,"plugin_version":"2.1.0","time_elapsed":253263,"subject_id":"91297","group":"Group1","condition":"1_Rep","full_date":"2026-02-26T04:09:23.125Z","date":"2026-02-26","time":"04:09:23","cor_ans":true},{"trial_type":"html-keyboard-response","rt":null,"stimulus":"<p style=\"color: green; font-size: 50px; font-weight: bold;\">Correct</p>","response":null,"trial_index":150,"plugin_version":"2.1.0","time_elapsed":253773,"subject_id":"91297","group":"Group1","condition":"1_Rep","full_date":"2026-02-26T04:09:23.125Z","date":"2026-02-26","time":"04:09:23"},{"correct_response":"l","task":"test_phase","broad_category":"I","image_png":"I_Rhyolite_11.png","image_id":155,"category_name":"Rhyolite","category":10,"distinct_rating":1.73,"distinct_type":"Bottom","item_type":"Target","rt":800,"stimulus":"Stimuli_Rocks480/I_Rhyolite_11.png","response":"l","trial_type":"image-keyboard-response","trial_index":151,"plugin_version":"2.1.0","time_elapsed":254575,"subject_id":"91297","group":"Group1","condition":"1_Rep","full_date":"2026-02-26T04:09:23.125Z","date":"2026-02-26","time":"04:09:23","cor_ans":true},{"trial_type":"html-keyboard-response","rt":null,"stimulus":"<p style=\"color: green; font-size: 50px; font-weight: bold;\">Correct</p>","response":null,"trial_index":152,"plugin_version":"2.1.0","time_elapsed":255085,"subject_id":"91297","group":"Group1","condition":"1_Rep","full_date":"2026-02-26T04:09:23.125Z","date":"2026-02-26","time":"04:09:23"},{"correct_response":"a","task":"test_phase","broad_category":"I","image_png":"I_Diorite_01.png","image_id":33,"category_name":"Diorite","category":3,"distinct_rating":2.97,"distinct_type":"Bottom","item_type":"Foil","rt":771,"stimulus":"Stimuli_Rocks480/I_Diorite_01.png","response":"l","trial_type":"image-keyboard-response","trial_index":153,"plugin_version":"2.1.0","time_elapsed":255858,"subject_id":"91297","group":"Group1","condition":"1_Rep","full_date":"2026-02-26T04:09:23.125Z","date":"2026-02-26","time":"04:09:23","cor_ans":false},{"trial_type":"html-keyboard-response","rt":null,"stimulus":"<p style=\"color: red; font-size: 50px; font-weight: bold;\">Incorrect</p>","response":null,"trial_index":154,"plugin_version":"2.1.0","time_elapsed":256368,"subject_id":"91297","group":"Group1","condition":"1_Rep","full_date":"2026-02-26T04:09:23.125Z","date":"2026-02-26","time":"04:09:23"},{"correct_response":"l","task":"test_phase","broad_category":"M","image_png":"M_Slate_15.png","image_id":319,"category_name":"Slate","category":20,"distinct_rating":2.13,"distinct_type":"Bottom","item_type":"Target","rt":753,"stimulus":"Stimuli_Rocks480/M_Slate_15.png","response":"l","trial_type":"image-keyboard-response","trial_index":155,"plugin_version":"2.1.0","time_elapsed":257123,"subject_id":"91297","group":"Group1","condition":"1_Rep","full_date":"2026-02-26T04:09:23.125Z","date":"2026-02-26","time":"04:09:23","cor_ans":true},{"trial_type":"html-keyboard-response","rt":null,"stimulus":"<p style=\"color: green; font-size: 50px; font-weight: bold;\">Correct</p>","response":null,"trial_index":156,"plugin_version":"2.1.0","time_elapsed":257634,"subject_id":"91297","group":"Group1","condition":"1_Rep","full_date":"2026-02-26T04:09:23.125Z","date":"2026-02-26","time":"04:09:23"},{"correct_response":"l","task":"test_phase","broad_category":"S","image_png":"S_Chert_10.png","image_id":362,"category_name":"Chert","category":23,"distinct_rating":7.17,"distinct_type":"Top","item_type":"Target","rt":902,"stimulus":"Stimuli_Rocks480/S_Chert_10.png","response":"l","trial_type":"image-keyboard-response","trial_index":157,"plugin_version":"2.1.0","time_elapsed":258538,"subject_id":"91297","group":"Group1","condition":"1_Rep","full_date":"2026-02-26T04:09:23.125Z","date":"2026-02-26","time":"04:09:23","cor_ans":true},{"trial_type":"html-keyboard-response","rt":null,"stimulus":"<p style=\"color: green; font-size: 50px; font-weight: bold;\">Correct</p>","response":null,"trial_index":158,"plugin_version":"2.1.0","time_elapsed":259048,"subject_id":"91297","group":"Group1","condition":"1_Rep","full_date":"2026-02-26T04:09:23.125Z","date":"2026-02-26","time":"04:09:23"},{"correct_response":"l","task":"test_phase","broad_category":"S","image_png":"S_Sandstone_03.png","image_id":451,"category_name":"Sandstone","category":29,"distinct_rating":1.86,"distinct_type":"Bottom","item_type":"Target","rt":736,"stimulus":"Stimuli_Rocks480/S_Sandstone_03.png","response":"l","trial_type":"image-keyboard-response","trial_index":159,"plugin_version":"2.1.0","time_elapsed":259786,"subject_id":"91297","group":"Group1","condition":"1_Rep","full_date":"2026-02-26T04:09:23.125Z","date":"2026-02-26","time":"04:09:23","cor_ans":true},{"trial_type":"html-keyboard-response","rt":null,"stimulus":"<p style=\"color: green; font-size: 50px; font-weight: bold;\">Correct</p>","response":null,"trial_index":160,"plugin_version":"2.1.0","time_elapsed":260296,"subject_id":"91297","group":"Group1","condition":"1_Rep","full_date":"2026-02-26T04:09:23.125Z","date":"2026-02-26","time":"04:09:23"},{"correct_response":"a","task":"test_phase","broad_category":"M","image_png":"M_Slate_14.png","image_id":318,"category_name":"Slate","category":20,"distinct_rating":2.58,"distinct_type":"Bottom","item_type":"Foil","rt":803,"stimulus":"Stimuli_Rocks480/M_Slate_14.png","response":"a","trial_type":"image-keyboard-response","trial_index":161,"plugin_version":"2.1.0","time_elapsed":261101,"subject_id":"91297","group":"Group1","condition":"1_Rep","full_date":"2026-02-26T04:09:23.125Z","date":"2026-02-26","time":"04:09:23","cor_ans":true},{"trial_type":"html-keyboard-response","rt":null,"stimulus":"<p style=\"color: green; font-size: 50px; font-weight: bold;\">Correct</p>","response":null,"trial_index":162,"plugin_version":"2.1.0","time_elapsed":261610,"subject_id":"91297","group":"Group1","condition":"1_Rep","full_date":"2026-02-26T04:09:23.125Z","date":"2026-02-26","time":"04:09:23"},{"correct_response":"a","task":"test_phase","broad_category":"S","image_png":"S_Rock Salt_15.png","image_id":447,"category_name":"Rock Salt","category":28,"distinct_rating":7.79,"distinct_type":"Top","item_type":"Foil","rt":1251,"stimulus":"Stimuli_Rocks480/S_Rock Salt_15.png","response":"a","trial_type":"image-keyboard-response","trial_index":163,"plugin_version":"2.1.0","time_elapsed":262864,"subject_id":"91297","group":"Group1","condition":"1_Rep","full_date":"2026-02-26T04:09:23.125Z","date":"2026-02-26","time":"04:09:23","cor_ans":true},{"trial_type":"html-keyboard-response","rt":null,"stimulus":"<p style=\"color: green; font-size: 50px; font-weight: bold;\">Correct</p>","response":null,"trial_index":164,"plugin_version":"2.1.0","time_elapsed":263375,"subject_id":"91297","group":"Group1","condition":"1_Rep","full_date":"2026-02-26T04:09:23.125Z","date":"2026-02-26","time":"04:09:23"},{"correct_response":"a","task":"test_phase","broad_category":"M","image_png":"M_Phyllite_05.png","image_id":261,"category_name":"Phyllite","category":17,"distinct_rating":2.14,"distinct_type":"Bottom","item_type":"Foil","rt":919,"stimulus":"Stimuli_Rocks480/M_Phyllite_05.png","response":"a","trial_type":"image-keyboard-response","trial_index":165,"plugin_version":"2.1.0","time_elapsed":264295,"subject_id":"91297","group":"Group1","condition":"1_Rep","full_date":"2026-02-26T04:09:23.125Z","date":"2026-02-26","time":"04:09:23","cor_ans":true},{"trial_type":"html-keyboard-response","rt":null,"stimulus":"<p style=\"color: green; font-size: 50px; font-weight: bold;\">Correct</p>","response":null,"trial_index":166,"plugin_version":"2.1.0","time_elapsed":264806,"subject_id":"91297","group":"Group1","condition":"1_Rep","full_date":"2026-02-26T04:09:23.125Z","date":"2026-02-26","time":"04:09:23"},{"correct_response":"a","task":"test_phase","broad_category":"M","image_png":"M_Quartzite_07.png","image_id":279,"category_name":"Quartzite","category":18,"distinct_rating":1.97,"distinct_type":"Bottom","item_type":"Foil","rt":930,"stimulus":"Stimuli_Rocks480/M_Quartzite_07.png","response":"a","trial_type":"image-keyboard-response","trial_index":167,"plugin_version":"2.1.0","time_elapsed":265738,"subject_id":"91297","group":"Group1","condition":"1_Rep","full_date":"2026-02-26T04:09:23.125Z","date":"2026-02-26","time":"04:09:23","cor_ans":true},{"trial_type":"html-keyboard-response","rt":null,"stimulus":"<p style=\"color: green; font-size: 50px; font-weight: bold;\">Correct</p>","response":null,"trial_index":168,"plugin_version":"2.1.0","time_elapsed":266248,"subject_id":"91297","group":"Group1","condition":"1_Rep","full_date":"2026-02-26T04:09:23.125Z","date":"2026-02-26","time":"04:09:23"},{"correct_response":"a","task":"test_phase","broad_category":"M","image_png":"M_Slate_10.png","image_id":314,"category_name":"Slate","category":20,"distinct_rating":1.94,"distinct_type":"Bottom","item_type":"Foil","rt":868,"stimulus":"Stimuli_Rocks480/M_Slate_10.png","response":"l","trial_type":"image-keyboard-response","trial_index":169,"plugin_version":"2.1.0","time_elapsed":267118,"subject_id":"91297","group":"Group1","condition":"1_Rep","full_date":"2026-02-26T04:09:23.125Z","date":"2026-02-26","time":"04:09:23","cor_ans":false},{"trial_type":"html-keyboard-response","rt":null,"stimulus":"<p style=\"color: red; font-size: 50px; font-weight: bold;\">Incorrect</p>","response":null,"trial_index":170,"plugin_version":"2.1.0","time_elapsed":267629,"subject_id":"91297","group":"Group1","condition":"1_Rep","full_date":"2026-02-26T04:09:23.125Z","date":"2026-02-26","time":"04:09:23"},{"correct_response":"l","task":"test_phase","broad_category":"I","image_png":"I_Pumice_11.png","image_id":139,"category_name":"Pumice","category":9,"distinct_rating":1.74,"distinct_type":"Bottom","item_type":"Target","rt":979,"stimulus":"Stimuli_Rocks480/I_Pumice_11.png","response":"a","trial_type":"image-keyboard-response","trial_index":171,"plugin_version":"2.1.0","time_elapsed":268610,"subject_id":"91297","group":"Group1","condition":"1_Rep","full_date":"2026-02-26T04:09:23.125Z","date":"2026-02-26","time":"04:09:23","cor_ans":false},{"trial_type":"html-keyboard-response","rt":null,"stimulus":"<p style=\"color: red; font-size: 50px; font-weight: bold;\">Incorrect</p>","response":null,"trial_index":172,"plugin_version":"2.1.0","time_elapsed":269121,"subject_id":"91297","group":"Group1","condition":"1_Rep","full_date":"2026-02-26T04:09:23.125Z","date":"2026-02-26","time":"04:09:23"},{"correct_response":"l","task":"test_phase","broad_category":"M","image_png":"M_Phyllite_10.png","image_id":266,"category_name":"Phyllite","category":17,"distinct_rating":2.6,"distinct_type":"Bottom","item_type":"Target","rt":801,"stimulus":"Stimuli_Rocks480/M_Phyllite_10.png","response":"l","trial_type":"image-keyboard-response","trial_index":173,"plugin_version":"2.1.0","time_elapsed":269923,"subject_id":"91297","group":"Group1","condition":"1_Rep","full_date":"2026-02-26T04:09:23.125Z","date":"2026-02-26","time":"04:09:23","cor_ans":true},{"trial_type":"html-keyboard-response","rt":null,"stimulus":"<p style=\"color: green; font-size: 50px; font-weight: bold;\">Correct</p>","response":null,"trial_index":174,"plugin_version":"2.1.0","time_elapsed":270434,"subject_id":"91297","group":"Group1","condition":"1_Rep","full_date":"2026-02-26T04:09:23.125Z","date":"2026-02-26","time":"04:09:23"},{"correct_response":"l","task":"test_phase","broad_category":"I","image_png":"I_Andesite_10.png","image_id":10,"category_name":"Andesite","category":1,"distinct_rating":3.15,"distinct_type":"Bottom","item_type":"Target","rt":1113,"stimulus":"Stimuli_Rocks480/I_Andesite_10.png","response":"l","trial_type":"image-keyboard-response","trial_index":175,"plugin_version":"2.1.0","time_elapsed":271549,"subject_id":"91297","group":"Group1","condition":"1_Rep","full_date":"2026-02-26T04:09:23.125Z","date":"2026-02-26","time":"04:09:23","cor_ans":true},{"trial_type":"html-keyboard-response","rt":null,"stimulus":"<p style=\"color: green; font-size: 50px; font-weight: bold;\">Correct</p>","response":null,"trial_index":176,"plugin_version":"2.1.0","time_elapsed":272060,"subject_id":"91297","group":"Group1","condition":"1_Rep","full_date":"2026-02-26T04:09:23.125Z","date":"2026-02-26","time":"04:09:23"},{"correct_response":"l","task":"test_phase","broad_category":"M","image_png":"M_Marble_06.png","image_id":230,"category_name":"Marble","category":15,"distinct_rating":3.4,"distinct_type":"Bottom","item_type":"Target","rt":900,"stimulus":"Stimuli_Rocks480/M_Marble_06.png","response":"l","trial_type":"image-keyboard-response","trial_index":177,"plugin_version":"2.1.0","time_elapsed":272961,"subject_id":"91297","group":"Group1","condition":"1_Rep","full_date":"2026-02-26T04:09:23.125Z","date":"2026-02-26","time":"04:09:23","cor_ans":true},{"trial_type":"html-keyboard-response","rt":null,"stimulus":"<p style=\"color: green; font-size: 50px; font-weight: bold;\">Correct</p>","response":null,"trial_index":178,"plugin_version":"2.1.0","time_elapsed":273474,"subject_id":"91297","group":"Group1","condition":"1_Rep","full_date":"2026-02-26T04:09:23.125Z","date":"2026-02-26","time":"04:09:23"},{"correct_response":"l","task":"test_phase","broad_category":"I","image_png":"I_Diorite_05.png","image_id":37,"category_name":"Diorite","category":3,"distinct_rating":3.08,"distinct_type":"Bottom","item_type":"Target","rt":851,"stimulus":"Stimuli_Rocks480/I_Diorite_05.png","response":"l","trial_type":"image-keyboard-response","trial_index":179,"plugin_version":"2.1.0","time_elapsed":274326,"subject_id":"91297","group":"Group1","condition":"1_Rep","full_date":"2026-02-26T04:09:23.125Z","date":"2026-02-26","time":"04:09:23","cor_ans":true},{"trial_type":"html-keyboard-response","rt":null,"stimulus":"<p style=\"color: green; font-size: 50px; font-weight: bold;\">Correct</p>","response":null,"trial_index":180,"plugin_version":"2.1.0","time_elapsed":274836,"subject_id":"91297","group":"Group1","condition":"1_Rep","full_date":"2026-02-26T04:09:23.125Z","date":"2026-02-26","time":"04:09:23"},{"correct_response":"l","task":"test_phase","broad_category":"M","image_png":"M_Gneiss_06.png","image_id":198,"category_name":"Gneiss","category":13,"distinct_rating":2.65,"distinct_type":"Bottom","item_type":"Target","rt":848,"stimulus":"Stimuli_Rocks480/M_Gneiss_06.png","response":"a","trial_type":"image-keyboard-response","trial_index":181,"plugin_version":"2.1.0","time_elapsed":275686,"subject_id":"91297","group":"Group1","condition":"1_Rep","full_date":"2026-02-26T04:09:23.125Z","date":"2026-02-26","time":"04:09:23","cor_ans":false},{"trial_type":"html-keyboard-response","rt":null,"stimulus":"<p style=\"color: red; font-size: 50px; font-weight: bold;\">Incorrect</p>","response":null,"trial_index":182,"plugin_version":"2.1.0","time_elapsed":276197,"subject_id":"91297","group":"Group1","condition":"1_Rep","full_date":"2026-02-26T04:09:23.125Z","date":"2026-02-26","time":"04:09:23"},{"correct_response":"a","task":"test_phase","broad_category":"I","image_png":"I_Andesite_03.png","image_id":3,"category_name":"Andesite","category":1,"distinct_rating":3.17,"distinct_type":"Bottom","item_type":"Foil","rt":867,"stimulus":"Stimuli_Rocks480/I_Andesite_03.png","response":"l","trial_type":"image-keyboard-response","trial_index":183,"plugin_version":"2.1.0","time_elapsed":277065,"subject_id":"91297","group":"Group1","condition":"1_Rep","full_date":"2026-02-26T04:09:23.125Z","date":"2026-02-26","time":"04:09:23","cor_ans":false},{"trial_type":"html-keyboard-response","rt":null,"stimulus":"<p style=\"color: red; font-size: 50px; font-weight: bold;\">Incorrect</p>","response":null,"trial_index":184,"plugin_version":"2.1.0","time_elapsed":277576,"subject_id":"91297","group":"Group1","condition":"1_Rep","full_date":"2026-02-26T04:09:23.125Z","date":"2026-02-26","time":"04:09:23"},{"correct_response":"a","task":"test_phase","broad_category":"I","image_png":"I_Pegmatite_03.png","image_id":99,"category_name":"Pegmatite","category":7,"distinct_rating":7.24,"distinct_type":"Top","item_type":"Foil","rt":945,"stimulus":"Stimuli_Rocks480/I_Pegmatite_03.png","response":"l","trial_type":"image-keyboard-response","trial_index":185,"plugin_version":"2.1.0","time_elapsed":278523,"subject_id":"91297","group":"Group1","condition":"1_Rep","full_date":"2026-02-26T04:09:23.125Z","date":"2026-02-26","time":"04:09:23","cor_ans":false},{"trial_type":"html-keyboard-response","rt":null,"stimulus":"<p style=\"color: red; font-size: 50px; font-weight: bold;\">Incorrect</p>","response":null,"trial_index":186,"plugin_version":"2.1.0","time_elapsed":279035,"subject_id":"91297","group":"Group1","condition":"1_Rep","full_date":"2026-02-26T04:09:23.125Z","date":"2026-02-26","time":"04:09:23"},{"correct_response":"l","task":"test_phase","broad_category":"M","image_png":"M_Gneiss_05.png","image_id":197,"category_name":"Gneiss","category":13,"distinct_rating":2.97,"distinct_type":"Bottom","item_type":"Target","rt":1688,"stimulus":"Stimuli_Rocks480/M_Gneiss_05.png","response":"l","trial_type":"image-keyboard-response","trial_index":187,"plugin_version":"2.1.0","time_elapsed":280725,"subject_id":"91297","group":"Group1","condition":"1_Rep","full_date":"2026-02-26T04:09:23.125Z","date":"2026-02-26","time":"04:09:23","cor_ans":true},{"trial_type":"html-keyboard-response","rt":null,"stimulus":"<p style=\"color: green; font-size: 50px; font-weight: bold;\">Correct</p>","response":null,"trial_index":188,"plugin_version":"2.1.0","time_elapsed":281236,"subject_id":"91297","group":"Group1","condition":"1_Rep","full_date":"2026-02-26T04:09:23.125Z","date":"2026-02-26","time":"04:09:23"},{"correct_response":"l","task":"test_phase","broad_category":"S","image_png":"S_Sandstone_16.png","image_id":464,"category_name":"Sandstone","category":29,"distinct_rating":1.93,"distinct_type":"Bottom","item_type":"Target","rt":989,"stimulus":"Stimuli_Rocks480/S_Sandstone_16.png","response":"l","trial_type":"image-keyboard-response","trial_index":189,"plugin_version":"2.1.0","time_elapsed":282227,"subject_id":"91297","group":"Group1","condition":"1_Rep","full_date":"2026-02-26T04:09:23.125Z","date":"2026-02-26","time":"04:09:23","cor_ans":true},{"trial_type":"html-keyboard-response","rt":null,"stimulus":"<p style=\"color: green; font-size: 50px; font-weight: bold;\">Correct</p>","response":null,"trial_index":190,"plugin_version":"2.1.0","time_elapsed":282736,"subject_id":"91297","group":"Group1","condition":"1_Rep","full_date":"2026-02-26T04:09:23.125Z","date":"2026-02-26","time":"04:09:23"},{"correct_response":"a","task":"test_phase","broad_category":"M","image_png":"M_Quartzite_15.png","image_id":287,"category_name":"Quartzite","category":18,"distinct_rating":2.19,"distinct_type":"Bottom","item_type":"Foil","rt":1028,"stimulus":"Stimuli_Rocks480/M_Quartzite_15.png","response":"l","trial_type":"image-keyboard-response","trial_index":191,"plugin_version":"2.1.0","time_elapsed":283766,"subject_id":"91297","group":"Group1","condition":"1_Rep","full_date":"2026-02-26T04:09:23.125Z","date":"2026-02-26","time":"04:09:23","cor_ans":false},{"trial_type":"html-keyboard-response","rt":null,"stimulus":"<p style=\"color: red; font-size: 50px; font-weight: bold;\">Incorrect</p>","response":null,"trial_index":192,"plugin_version":"2.1.0","time_elapsed":284275,"subject_id":"91297","group":"Group1","condition":"1_Rep","full_date":"2026-02-26T04:09:23.125Z","date":"2026-02-26","time":"04:09:23"},{"correct_response":"a","task":"test_phase","broad_category":"I","image_png":"I_Gabbro_02.png","image_id":50,"category_name":"Gabbro","category":4,"distinct_rating":2.73,"distinct_type":"Bottom","item_type":"Foil","rt":962,"stimulus":"Stimuli_Rocks480/I_Gabbro_02.png","response":"a","trial_type":"image-keyboard-response","trial_index":193,"plugin_version":"2.1.0","time_elapsed":285239,"subject_id":"91297","group":"Group1","condition":"1_Rep","full_date":"2026-02-26T04:09:23.125Z","date":"2026-02-26","time":"04:09:23","cor_ans":true},{"trial_type":"html-keyboard-response","rt":null,"stimulus":"<p style=\"color: green; font-size: 50px; font-weight: bold;\">Correct</p>","response":null,"trial_index":194,"plugin_version":"2.1.0","time_elapsed":285750,"subject_id":"91297","group":"Group1","condition":"1_Rep","full_date":"2026-02-26T04:09:23.125Z","date":"2026-02-26","time":"04:09:23"},{"correct_response":"l","task":"test_phase","broad_category":"S","image_png":"S_Dolomite_14.png","image_id":398,"category_name":"Dolomite","category":25,"distinct_rating":1.43,"distinct_type":"Bottom","item_type":"Target","rt":1492,"stimulus":"Stimuli_Rocks480/S_Dolomite_14.png","response":"l","trial_type":"image-keyboard-response","trial_index":195,"plugin_version":"2.1.0","time_elapsed":287243,"subject_id":"91297","group":"Group1","condition":"1_Rep","full_date":"2026-02-26T04:09:23.125Z","date":"2026-02-26","time":"04:09:23","cor_ans":true},{"trial_type":"html-keyboard-response","rt":null,"stimulus":"<p style=\"color: green; font-size: 50px; font-weight: bold;\">Correct</p>","response":null,"trial_index":196,"plugin_version":"2.1.0","time_elapsed":287754,"subject_id":"91297","group":"Group1","condition":"1_Rep","full_date":"2026-02-26T04:09:23.125Z","date":"2026-02-26","time":"04:09:23"},{"correct_response":"l","task":"test_phase","broad_category":"I","image_png":"I_Gabbro_16.png","image_id":64,"category_name":"Gabbro","category":4,"distinct_rating":2.52,"distinct_type":"Bottom","item_type":"Target","rt":1364,"stimulus":"Stimuli_Rocks480/I_Gabbro_16.png","response":"a","trial_type":"image-keyboard-response","trial_index":197,"plugin_version":"2.1.0","time_elapsed":289120,"subject_id":"91297","group":"Group1","condition":"1_Rep","full_date":"2026-02-26T04:09:23.125Z","date":"2026-02-26","time":"04:09:23","cor_ans":false},{"trial_type":"html-keyboard-response","rt":null,"stimulus":"<p style=\"color: red; font-size: 50px; font-weight: bold;\">Incorrect</p>","response":null,"trial_index":198,"plugin_version":"2.1.0","time_elapsed":289629,"subject_id":"91297","group":"Group1","condition":"1_Rep","full_date":"2026-02-26T04:09:23.125Z","date":"2026-02-26","time":"04:09:23"},{"correct_response":"l","task":"test_phase","broad_category":"S","image_png":"S_Shale_08.png","image_id":472,"category_name":"Shale","category":30,"distinct_rating":2.55,"distinct_type":"Bottom","item_type":"Target","rt":707,"stimulus":"Stimuli_Rocks480/S_Shale_08.png","response":"a","trial_type":"image-keyboard-response","trial_index":199,"plugin_version":"2.1.0","time_elapsed":290337,"subject_id":"91297","group":"Group1","condition":"1_Rep","full_date":"2026-02-26T04:09:23.125Z","date":"2026-02-26","time":"04:09:23","cor_ans":false},{"trial_type":"html-keyboard-response","rt":null,"stimulus":"<p style=\"color: red; font-size: 50px; font-weight: bold;\">Incorrect</p>","response":null,"trial_index":200,"plugin_version":"2.1.0","time_elapsed":290850,"subject_id":"91297","group":"Group1","condition":"1_Rep","full_date":"2026-02-26T04:09:23.125Z","date":"2026-02-26","time":"04:09:23"},{"correct_response":"a","task":"test_phase","broad_category":"M","image_png":"M_Gneiss_10.png","image_id":202,"category_name":"Gneiss","category":13,"distinct_rating":3.09,"distinct_type":"Bottom","item_type":"Foil","rt":868,"stimulus":"Stimuli_Rocks480/M_Gneiss_10.png","response":"l","trial_type":"image-keyboard-response","trial_index":201,"plugin_version":"2.1.0","time_elapsed":291720,"subject_id":"91297","group":"Group1","condition":"1_Rep","full_date":"2026-02-26T04:09:23.125Z","date":"2026-02-26","time":"04:09:23","cor_ans":false},{"trial_type":"html-keyboard-response","rt":null,"stimulus":"<p style=\"color: red; font-size: 50px; font-weight: bold;\">Incorrect</p>","response":null,"trial_index":202,"plugin_version":"2.1.0","time_elapsed":292231,"subject_id":"91297","group":"Group1","condition":"1_Rep","full_date":"2026-02-26T04:09:23.125Z","date":"2026-02-26","time":"04:09:23"},{"correct_response":"l","task":"test_phase","broad_category":"M","image_png":"M_Phyllite_07.png","image_id":263,"category_name":"Phyllite","category":17,"distinct_rating":2.59,"distinct_type":"Bottom","item_type":"Target","rt":852,"stimulus":"Stimuli_Rocks480/M_Phyllite_07.png","response":"l","trial_type":"image-keyboard-response","trial_index":203,"plugin_version":"2.1.0","time_elapsed":293084,"subject_id":"91297","group":"Group1","condition":"1_Rep","full_date":"2026-02-26T04:09:23.125Z","date":"2026-02-26","time":"04:09:23","cor_ans":true},{"trial_type":"html-keyboard-response","rt":null,"stimulus":"<p style=\"color: green; font-size: 50px; font-weight: bold;\">Correct</p>","response":null,"trial_index":204,"plugin_version":"2.1.0","time_elapsed":293594,"subject_id":"91297","group":"Group1","condition":"1_Rep","full_date":"2026-02-26T04:09:23.125Z","date":"2026-02-26","time":"04:09:23"},{"correct_response":"l","task":"test_phase","broad_category":"I","image_png":"I_Basalt_02.png","image_id":18,"category_name":"Basalt","category":2,"distinct_rating":1.84,"distinct_type":"Bottom","item_type":"Target","rt":996,"stimulus":"Stimuli_Rocks480/I_Basalt_02.png","response":"a","trial_type":"image-keyboard-response","trial_index":205,"plugin_version":"2.1.0","time_elapsed":294592,"subject_id":"91297","group":"Group1","condition":"1_Rep","full_date":"2026-02-26T04:09:23.125Z","date":"2026-02-26","time":"04:09:23","cor_ans":false},{"trial_type":"html-keyboard-response","rt":null,"stimulus":"<p style=\"color: red; font-size: 50px; font-weight: bold;\">Incorrect</p>","response":null,"trial_index":206,"plugin_version":"2.1.0","time_elapsed":295102,"subject_id":"91297","group":"Group1","condition":"1_Rep","full_date":"2026-02-26T04:09:23.125Z","date":"2026-02-26","time":"04:09:23"},{"correct_response":"a","task":"test_phase","broad_category":"I","image_png":"I_Basalt_08.png","image_id":24,"category_name":"Basalt","category":2,"distinct_rating":2.31,"distinct_type":"Bottom","item_type":"Foil","rt":663,"stimulus":"Stimuli_Rocks480/I_Basalt_08.png","response":"l","trial_type":"image-keyboard-response","trial_index":207,"plugin_version":"2.1.0","time_elapsed":295767,"subject_id":"91297","group":"Group1","condition":"1_Rep","full_date":"2026-02-26T04:09:23.125Z","date":"2026-02-26","time":"04:09:23","cor_ans":false},{"trial_type":"html-keyboard-response","rt":null,"stimulus":"<p style=\"color: red; font-size: 50px; font-weight: bold;\">Incorrect</p>","response":null,"trial_index":208,"plugin_version":"2.1.0","time_elapsed":296279,"subject_id":"91297","group":"Group1","condition":"1_Rep","full_date":"2026-02-26T04:09:23.125Z","date":"2026-02-26","time":"04:09:23"},{"correct_response":"a","task":"test_phase","broad_category":"S","image_png":"S_Sandstone_11.png","image_id":459,"category_name":"Sandstone","category":29,"distinct_rating":1.82,"distinct_type":"Bottom","item_type":"Foil","rt":594,"stimulus":"Stimuli_Rocks480/S_Sandstone_11.png","response":"l","trial_type":"image-keyboard-response","trial_index":209,"plugin_version":"2.1.0","time_elapsed":296875,"subject_id":"91297","group":"Group1","condition":"1_Rep","full_date":"2026-02-26T04:09:23.125Z","date":"2026-02-26","time":"04:09:23","cor_ans":false},{"trial_type":"html-keyboard-response","rt":null,"stimulus":"<p style=\"color: red; font-size: 50px; font-weight: bold;\">Incorrect</p>","response":null,"trial_index":210,"plugin_version":"2.1.0","time_elapsed":297385,"subject_id":"91297","group":"Group1","condition":"1_Rep","full_date":"2026-02-26T04:09:23.125Z","date":"2026-02-26","time":"04:09:23"},{"correct_response":"a","task":"test_phase","broad_category":"M","image_png":"M_Phyllite_13.png","image_id":269,"category_name":"Phyllite","category":17,"distinct_rating":2.8,"distinct_type":"Bottom","item_type":"Foil","rt":688,"stimulus":"Stimuli_Rocks480/M_Phyllite_13.png","response":"l","trial_type":"image-keyboard-response","trial_index":211,"plugin_version":"2.1.0","time_elapsed":298075,"subject_id":"91297","group":"Group1","condition":"1_Rep","full_date":"2026-02-26T04:09:23.125Z","date":"2026-02-26","time":"04:09:23","cor_ans":false},{"trial_type":"html-keyboard-response","rt":null,"stimulus":"<p style=\"color: red; font-size: 50px; font-weight: bold;\">Incorrect</p>","response":null,"trial_index":212,"plugin_version":"2.1.0","time_elapsed":298585,"subject_id":"91297","group":"Group1","condition":"1_Rep","full_date":"2026-02-26T04:09:23.125Z","date":"2026-02-26","time":"04:09:23"},{"correct_response":"a","task":"test_phase","broad_category":"S","image_png":"S_Shale_07.png","image_id":471,"category_name":"Shale","category":30,"distinct_rating":2.73,"distinct_type":"Bottom","item_type":"Foil","rt":929,"stimulus":"Stimuli_Rocks480/S_Shale_07.png","response":"a","trial_type":"image-keyboard-response","trial_index":213,"plugin_version":"2.1.0","time_elapsed":299516,"subject_id":"91297","group":"Group1","condition":"1_Rep","full_date":"2026-02-26T04:09:23.125Z","date":"2026-02-26","time":"04:09:23","cor_ans":true},{"trial_type":"html-keyboard-response","rt":null,"stimulus":"<p style=\"color: green; font-size: 50px; font-weight: bold;\">Correct</p>","response":null,"trial_index":214,"plugin_version":"2.1.0","time_elapsed":300025,"subject_id":"91297","group":"Group1","condition":"1_Rep","full_date":"2026-02-26T04:09:23.125Z","date":"2026-02-26","time":"04:09:23"},{"correct_response":"a","task":"test_phase","broad_category":"M","image_png":"M_Phyllite_02.png","image_id":258,"category_name":"Phyllite","category":17,"distinct_rating":2.89,"distinct_type":"Bottom","item_type":"Foil","rt":1077,"stimulus":"Stimuli_Rocks480/M_Phyllite_02.png","response":"a","trial_type":"image-keyboard-response","trial_index":215,"plugin_version":"2.1.0","time_elapsed":301104,"subject_id":"91297","group":"Group1","condition":"1_Rep","full_date":"2026-02-26T04:09:23.125Z","date":"2026-02-26","time":"04:09:23","cor_ans":true},{"trial_type":"html-keyboard-response","rt":null,"stimulus":"<p style=\"color: green; font-size: 50px; font-weight: bold;\">Correct</p>","response":null,"trial_index":216,"plugin_version":"2.1.0","time_elapsed":301610,"subject_id":"91297","group":"Group1","condition":"1_Rep","full_date":"2026-02-26T04:09:23.125Z","date":"2026-02-26","time":"04:09:23"},{"correct_response":"l","task":"test_phase","broad_category":"I","image_png":"I_Pumice_12.png","image_id":140,"category_name":"Pumice","category":9,"distinct_rating":2.97,"distinct_type":"Bottom","item_type":"Target","rt":963,"stimulus":"Stimuli_Rocks480/I_Pumice_12.png","response":"l","trial_type":"image-keyboard-response","trial_index":217,"plugin_version":"2.1.0","time_elapsed":302589,"subject_id":"91297","group":"Group1","condition":"1_Rep","full_date":"2026-02-26T04:09:23.125Z","date":"2026-02-26","time":"04:09:23","cor_ans":true},{"trial_type":"html-keyboard-response","rt":null,"stimulus":"<p style=\"color: green; font-size: 50px; font-weight: bold;\">Correct</p>","response":null,"trial_index":218,"plugin_version":"2.1.0","time_elapsed":303101,"subject_id":"91297","group":"Group1","condition":"1_Rep","full_date":"2026-02-26T04:09:23.125Z","date":"2026-02-26","time":"04:09:23"},{"correct_response":"l","task":"test_phase","broad_category":"I","image_png":"I_Pegmatite_10.png","image_id":106,"category_name":"Pegmatite","category":7,"distinct_rating":7.66,"distinct_type":"Top","item_type":"Target","rt":1025,"stimulus":"Stimuli_Rocks480/I_Pegmatite_10.png","response":"l","trial_type":"image-keyboard-response","trial_index":219,"plugin_version":"2.1.0","time_elapsed":304128,"subject_id":"91297","group":"Group1","condition":"1_Rep","full_date":"2026-02-26T04:09:23.125Z","date":"2026-02-26","time":"04:09:23","cor_ans":true},{"trial_type":"html-keyboard-response","rt":null,"stimulus":"<p style=\"color: green; font-size: 50px; font-weight: bold;\">Correct</p>","response":null,"trial_index":220,"plugin_version":"2.1.0","time_elapsed":304639,"subject_id":"91297","group":"Group1","condition":"1_Rep","full_date":"2026-02-26T04:09:23.125Z","date":"2026-02-26","time":"04:09:23"},{"correct_response":"a","task":"test_phase","broad_category":"M","image_png":"M_Gneiss_15.png","image_id":207,"category_name":"Gneiss","category":13,"distinct_rating":3.11,"distinct_type":"Bottom","item_type":"Foil","rt":950,"stimulus":"Stimuli_Rocks480/M_Gneiss_15.png","response":"a","trial_type":"image-keyboard-response","trial_index":221,"plugin_version":"2.1.0","time_elapsed":305590,"subject_id":"91297","group":"Group1","condition":"1_Rep","full_date":"2026-02-26T04:09:23.125Z","date":"2026-02-26","time":"04:09:23","cor_ans":true},{"trial_type":"html-keyboard-response","rt":null,"stimulus":"<p style=\"color: green; font-size: 50px; font-weight: bold;\">Correct</p>","response":null,"trial_index":222,"plugin_version":"2.1.0","time_elapsed":306101,"subject_id":"91297","group":"Group1","condition":"1_Rep","full_date":"2026-02-26T04:09:23.125Z","date":"2026-02-26","time":"04:09:23"},{"correct_response":"a","task":"test_phase","broad_category":"S","image_png":"S_Sandstone_08.png","image_id":456,"category_name":"Sandstone","category":29,"distinct_rating":1.5,"distinct_type":"Bottom","item_type":"Foil","rt":1028,"stimulus":"Stimuli_Rocks480/S_Sandstone_08.png","response":"a","trial_type":"image-keyboard-response","trial_index":223,"plugin_version":"2.1.0","time_elapsed":307131,"subject_id":"91297","group":"Group1","condition":"1_Rep","full_date":"2026-02-26T04:09:23.125Z","date":"2026-02-26","time":"04:09:23","cor_ans":true},{"trial_type":"html-keyboard-response","rt":null,"stimulus":"<p style=\"color: green; font-size: 50px; font-weight: bold;\">Correct</p>","response":null,"trial_index":224,"plugin_version":"2.1.0","time_elapsed":307639,"subject_id":"91297","group":"Group1","condition":"1_Rep","full_date":"2026-02-26T04:09:23.125Z","date":"2026-02-26","time":"04:09:23"},{"correct_response":"l","task":"test_phase","broad_category":"M","image_png":"M_Gneiss_13.png",