[{"width":1536,"height":839,"webaudio":true,"browser":"chrome","browser_version":"145.0.0","mobile":false,"os":"Windows 10","fullscreen":true,"vsync_rate":60.72,"webcam":true,"microphone":true,"trial_type":"browser-check","trial_index":0,"plugin_version":"2.1.0","time_elapsed":7513,"subject_id":"90851","group":"Group2","condition":"1_Rep","full_date":"2026-02-23T18:55:24.036Z","date":"2026-02-23","time":"18:55:24"},{"success":true,"timeout":false,"failed_images":[],"failed_audio":[],"failed_video":[],"trial_type":"preload","trial_index":1,"plugin_version":"2.1.0","time_elapsed":9714,"subject_id":"90851","group":"Group2","condition":"1_Rep","full_date":"2026-02-23T18:55:24.036Z","date":"2026-02-23","time":"18:55:24"},{"rt":27459,"url":"SONA_consent_memorability.html","trial_type":"external-html","trial_index":2,"plugin_version":"2.1.0","time_elapsed":37219,"subject_id":"90851","group":"Group2","condition":"1_Rep","full_date":"2026-02-23T18:55:24.036Z","date":"2026-02-23","time":"18:55:24"},{"success":true,"rt":1216,"trial_type":"fullscreen","trial_index":3,"plugin_version":"2.1.0","time_elapsed":39446,"subject_id":"90851","group":"Group2","condition":"1_Rep","full_date":"2026-02-23T18:55:24.036Z","date":"2026-02-23","time":"18:55:24"},{"rt":13434,"stimulus":"<div style=\"max-width: 760px; margin: auto; font-size: 20px; line-height: 1.5;\">\n      <h1 style=\"text-align:center; font-size: 30px;\">Instructions</h1>\n      <p>\n        Welcome to the study on <b>visual memory</b>. This experiment consists of <b>two phases</b>: \n        a <b>study phase</b> and a <b>test phase</b>.\n      </p>\n      <p>\n        In the study phase, you will see a series of rock images along with their category labels.\n        The images will appear one at a time.\n        <b>Your task</b> is to learn the categories to which the rock images belong \n        and to remember each image as accurately as possible.\n      </p> \n      <p>\n        Note that you will see each image only <b>once</b> during the study phase. \n          So, please pay close attention and try to remember each image carefully.\n      </p>\n      <p>\n        After the study phase, <b>your memory will be tested</b>. \n        Additional instructions for the test phase will be provided at that time.\n      </p>\n      <p>\n        If your computer has multiple <b>language settings</b> (e.g., English and another language),\n        please make sure it is set to English before starting.\n      </p>\n      <p>\n        You can track your progress using the <b>completion bar</b> at the top of the screen. \n        Please note that the bar will refresh when the test phase begins \n        to give you an accurate sense of your progress in both phases.\n      </p> \n      <p>\n        Press the button below when you are ready to begin.\n      </p>\n    </div>","response":0,"trial_type":"html-button-response","trial_index":4,"plugin_version":"2.1.0","time_elapsed":52881,"subject_id":"90851","group":"Group2","condition":"1_Rep","full_date":"2026-02-23T18:55:24.036Z","date":"2026-02-23","time":"18:55:24"},{"rt":null,"stimulus":"<p style=\"font-size: 50px; margin: 0; text-align: center;\">+</p>","response":null,"trial_type":"html-keyboard-response","trial_index":5,"plugin_version":"2.1.0","time_elapsed":53890,"subject_id":"90851","group":"Group2","condition":"1_Rep","full_date":"2026-02-23T18:55:24.036Z","date":"2026-02-23","time":"18:55:24"},{"task":"memory_phase","broad_category":"I","image_png":"I_Basalt_13.png","image_id":29,"category_name":"Basalt","category":2,"distinct_rating":2.68,"distinct_type":"Bottom","rt":null,"stimulus":"Stimuli_Rocks480/I_Basalt_13.png","response":null,"trial_type":"image-keyboard-response","trial_index":6,"plugin_version":"2.1.0","time_elapsed":56408,"subject_id":"90851","group":"Group2","condition":"1_Rep","full_date":"2026-02-23T18:55:24.036Z","date":"2026-02-23","time":"18:55:24"},{"rt":null,"stimulus":"<p style=\"font-size: 50px; margin: 0; text-align: center;\">+</p>","response":null,"trial_type":"html-keyboard-response","trial_index":7,"plugin_version":"2.1.0","time_elapsed":57421,"subject_id":"90851","group":"Group2","condition":"1_Rep","full_date":"2026-02-23T18:55:24.036Z","date":"2026-02-23","time":"18:55:24"},{"task":"memory_phase","broad_category":"S","image_png":"S_Rock Salt_13.png","image_id":445,"category_name":"Rock Salt","category":28,"distinct_rating":7.58,"distinct_type":"Top","rt":null,"stimulus":"Stimuli_Rocks480/S_Rock Salt_13.png","response":null,"trial_type":"image-keyboard-response","trial_index":8,"plugin_version":"2.1.0","time_elapsed":59925,"subject_id":"90851","group":"Group2","condition":"1_Rep","full_date":"2026-02-23T18:55:24.036Z","date":"2026-02-23","time":"18:55:24"},{"rt":null,"stimulus":"<p style=\"font-size: 50px; margin: 0; text-align: center;\">+</p>","response":null,"trial_type":"html-keyboard-response","trial_index":9,"plugin_version":"2.1.0","time_elapsed":60941,"subject_id":"90851","group":"Group2","condition":"1_Rep","full_date":"2026-02-23T18:55:24.036Z","date":"2026-02-23","time":"18:55:24"},{"task":"memory_phase","broad_category":"S","image_png":"S_Rock Salt_15.png","image_id":447,"category_name":"Rock Salt","category":28,"distinct_rating":7.79,"distinct_type":"Top","rt":null,"stimulus":"Stimuli_Rocks480/S_Rock Salt_15.png","response":null,"trial_type":"image-keyboard-response","trial_index":10,"plugin_version":"2.1.0","time_elapsed":63454,"subject_id":"90851","group":"Group2","condition":"1_Rep","full_date":"2026-02-23T18:55:24.036Z","date":"2026-02-23","time":"18:55:24"},{"rt":null,"stimulus":"<p style=\"font-size: 50px; margin: 0; text-align: center;\">+</p>","response":null,"trial_type":"html-keyboard-response","trial_index":11,"plugin_version":"2.1.0","time_elapsed":64456,"subject_id":"90851","group":"Group2","condition":"1_Rep","full_date":"2026-02-23T18:55:24.036Z","date":"2026-02-23","time":"18:55:24"},{"task":"memory_phase","broad_category":"I","image_png":"I_Rhyolite_08.png","image_id":152,"category_name":"Rhyolite","category":10,"distinct_rating":1.38,"distinct_type":"Bottom","rt":null,"stimulus":"Stimuli_Rocks480/I_Rhyolite_08.png","response":null,"trial_type":"image-keyboard-response","trial_index":12,"plugin_version":"2.1.0","time_elapsed":66962,"subject_id":"90851","group":"Group2","condition":"1_Rep","full_date":"2026-02-23T18:55:24.036Z","date":"2026-02-23","time":"18:55:24"},{"rt":null,"stimulus":"<p style=\"font-size: 50px; margin: 0; text-align: center;\">+</p>","response":null,"trial_type":"html-keyboard-response","trial_index":13,"plugin_version":"2.1.0","time_elapsed":67978,"subject_id":"90851","group":"Group2","condition":"1_Rep","full_date":"2026-02-23T18:55:24.036Z","date":"2026-02-23","time":"18:55:24"},{"task":"memory_phase","broad_category":"M","image_png":"M_Gneiss_10.png","image_id":202,"category_name":"Gneiss","category":13,"distinct_rating":3.09,"distinct_type":"Bottom","rt":null,"stimulus":"Stimuli_Rocks480/M_Gneiss_10.png","response":null,"trial_type":"image-keyboard-response","trial_index":14,"plugin_version":"2.1.0","time_elapsed":70481,"subject_id":"90851","group":"Group2","condition":"1_Rep","full_date":"2026-02-23T18:55:24.036Z","date":"2026-02-23","time":"18:55:24"},{"rt":null,"stimulus":"<p style=\"font-size: 50px; margin: 0; text-align: center;\">+</p>","response":null,"trial_type":"html-keyboard-response","trial_index":15,"plugin_version":"2.1.0","time_elapsed":71483,"subject_id":"90851","group":"Group2","condition":"1_Rep","full_date":"2026-02-23T18:55:24.036Z","date":"2026-02-23","time":"18:55:24"},{"task":"memory_phase","broad_category":"M","image_png":"M_Slate_10.png","image_id":314,"category_name":"Slate","category":20,"distinct_rating":1.94,"distinct_type":"Bottom","rt":null,"stimulus":"Stimuli_Rocks480/M_Slate_10.png","response":null,"trial_type":"image-keyboard-response","trial_index":16,"plugin_version":"2.1.0","time_elapsed":73992,"subject_id":"90851","group":"Group2","condition":"1_Rep","full_date":"2026-02-23T18:55:24.036Z","date":"2026-02-23","time":"18:55:24"},{"rt":null,"stimulus":"<p style=\"font-size: 50px; margin: 0; text-align: center;\">+</p>","response":null,"trial_type":"html-keyboard-response","trial_index":17,"plugin_version":"2.1.0","time_elapsed":75005,"subject_id":"90851","group":"Group2","condition":"1_Rep","full_date":"2026-02-23T18:55:24.036Z","date":"2026-02-23","time":"18:55:24"},{"task":"memory_phase","broad_category":"I","image_png":"I_Rhyolite_05.png","image_id":149,"category_name":"Rhyolite","category":10,"distinct_rating":3.02,"distinct_type":"Bottom","rt":null,"stimulus":"Stimuli_Rocks480/I_Rhyolite_05.png","response":null,"trial_type":"image-keyboard-response","trial_index":18,"plugin_version":"2.1.0","time_elapsed":77517,"subject_id":"90851","group":"Group2","condition":"1_Rep","full_date":"2026-02-23T18:55:24.036Z","date":"2026-02-23","time":"18:55:24"},{"rt":null,"stimulus":"<p style=\"font-size: 50px; margin: 0; text-align: center;\">+</p>","response":null,"trial_type":"html-keyboard-response","trial_index":19,"plugin_version":"2.1.0","time_elapsed":78520,"subject_id":"90851","group":"Group2","condition":"1_Rep","full_date":"2026-02-23T18:55:24.036Z","date":"2026-02-23","time":"18:55:24"},{"task":"memory_phase","broad_category":"S","image_png":"S_Shale_03.png","image_id":467,"category_name":"Shale","category":30,"distinct_rating":1.95,"distinct_type":"Bottom","rt":null,"stimulus":"Stimuli_Rocks480/S_Shale_03.png","response":null,"trial_type":"image-keyboard-response","trial_index":20,"plugin_version":"2.1.0","time_elapsed":81035,"subject_id":"90851","group":"Group2","condition":"1_Rep","full_date":"2026-02-23T18:55:24.036Z","date":"2026-02-23","time":"18:55:24"},{"rt":null,"stimulus":"<p style=\"font-size: 50px; margin: 0; text-align: center;\">+</p>","response":null,"trial_type":"html-keyboard-response","trial_index":21,"plugin_version":"2.1.0","time_elapsed":82039,"subject_id":"90851","group":"Group2","condition":"1_Rep","full_date":"2026-02-23T18:55:24.036Z","date":"2026-02-23","time":"18:55:24"},{"task":"memory_phase","broad_category":"I","image_png":"I_Basalt_08.png","image_id":24,"category_name":"Basalt","category":2,"distinct_rating":2.31,"distinct_type":"Bottom","rt":null,"stimulus":"Stimuli_Rocks480/I_Basalt_08.png","response":null,"trial_type":"image-keyboard-response","trial_index":22,"plugin_version":"2.1.0","time_elapsed":84541,"subject_id":"90851","group":"Group2","condition":"1_Rep","full_date":"2026-02-23T18:55:24.036Z","date":"2026-02-23","time":"18:55:24"},{"rt":null,"stimulus":"<p style=\"font-size: 50px; margin: 0; text-align: center;\">+</p>","response":null,"trial_type":"html-keyboard-response","trial_index":23,"plugin_version":"2.1.0","time_elapsed":85558,"subject_id":"90851","group":"Group2","condition":"1_Rep","full_date":"2026-02-23T18:55:24.036Z","date":"2026-02-23","time":"18:55:24"},{"task":"memory_phase","broad_category":"S","image_png":"S_Dolomite_07.png","image_id":391,"category_name":"Dolomite","category":25,"distinct_rating":1.73,"distinct_type":"Bottom","rt":null,"stimulus":"Stimuli_Rocks480/S_Dolomite_07.png","response":null,"trial_type":"image-keyboard-response","trial_index":24,"plugin_version":"2.1.0","time_elapsed":88076,"subject_id":"90851","group":"Group2","condition":"1_Rep","full_date":"2026-02-23T18:55:24.036Z","date":"2026-02-23","time":"18:55:24"},{"rt":null,"stimulus":"<p style=\"font-size: 50px; margin: 0; text-align: center;\">+</p>","response":null,"trial_type":"html-keyboard-response","trial_index":25,"plugin_version":"2.1.0","time_elapsed":89079,"subject_id":"90851","group":"Group2","condition":"1_Rep","full_date":"2026-02-23T18:55:24.036Z","date":"2026-02-23","time":"18:55:24"},{"task":"memory_phase","broad_category":"M","image_png":"M_Marble_02.png","image_id":226,"category_name":"Marble","category":15,"distinct_rating":3.2,"distinct_type":"Bottom","rt":null,"stimulus":"Stimuli_Rocks480/M_Marble_02.png","response":null,"trial_type":"image-keyboard-response","trial_index":26,"plugin_version":"2.1.0","time_elapsed":91593,"subject_id":"90851","group":"Group2","condition":"1_Rep","full_date":"2026-02-23T18:55:24.036Z","date":"2026-02-23","time":"18:55:24"},{"rt":null,"stimulus":"<p style=\"font-size: 50px; margin: 0; text-align: center;\">+</p>","response":null,"trial_type":"html-keyboard-response","trial_index":27,"plugin_version":"2.1.0","time_elapsed":92595,"subject_id":"90851","group":"Group2","condition":"1_Rep","full_date":"2026-02-23T18:55:24.036Z","date":"2026-02-23","time":"18:55:24"},{"task":"memory_phase","broad_category":"I","image_png":"I_Diorite_01.png","image_id":33,"category_name":"Diorite","category":3,"distinct_rating":2.97,"distinct_type":"Bottom","rt":null,"stimulus":"Stimuli_Rocks480/I_Diorite_01.png","response":null,"trial_type":"image-keyboard-response","trial_index":28,"plugin_version":"2.1.0","time_elapsed":95107,"subject_id":"90851","group":"Group2","condition":"1_Rep","full_date":"2026-02-23T18:55:24.036Z","date":"2026-02-23","time":"18:55:24"},{"rt":null,"stimulus":"<p style=\"font-size: 50px; margin: 0; text-align: center;\">+</p>","response":null,"trial_type":"html-keyboard-response","trial_index":29,"plugin_version":"2.1.0","time_elapsed":96115,"subject_id":"90851","group":"Group2","condition":"1_Rep","full_date":"2026-02-23T18:55:24.036Z","date":"2026-02-23","time":"18:55:24"},{"task":"memory_phase","broad_category":"M","image_png":"M_Phyllite_05.png","image_id":261,"category_name":"Phyllite","category":17,"distinct_rating":2.14,"distinct_type":"Bottom","rt":null,"stimulus":"Stimuli_Rocks480/M_Phyllite_05.png","response":null,"trial_type":"image-keyboard-response","trial_index":30,"plugin_version":"2.1.0","time_elapsed":98629,"subject_id":"90851","group":"Group2","condition":"1_Rep","full_date":"2026-02-23T18:55:24.036Z","date":"2026-02-23","time":"18:55:24"},{"rt":null,"stimulus":"<p style=\"font-size: 50px; margin: 0; text-align: center;\">+</p>","response":null,"trial_type":"html-keyboard-response","trial_index":31,"plugin_version":"2.1.0","time_elapsed":99633,"subject_id":"90851","group":"Group2","condition":"1_Rep","full_date":"2026-02-23T18:55:24.036Z","date":"2026-02-23","time":"18:55:24"},{"task":"memory_phase","broad_category":"M","image_png":"M_Slate_04.png","image_id":308,"category_name":"Slate","category":20,"distinct_rating":2.2,"distinct_type":"Bottom","rt":null,"stimulus":"Stimuli_Rocks480/M_Slate_04.png","response":null,"trial_type":"image-keyboard-response","trial_index":32,"plugin_version":"2.1.0","time_elapsed":102149,"subject_id":"90851","group":"Group2","condition":"1_Rep","full_date":"2026-02-23T18:55:24.036Z","date":"2026-02-23","time":"18:55:24"},{"rt":null,"stimulus":"<p style=\"font-size: 50px; margin: 0; text-align: center;\">+</p>","response":null,"trial_type":"html-keyboard-response","trial_index":33,"plugin_version":"2.1.0","time_elapsed":103152,"subject_id":"90851","group":"Group2","condition":"1_Rep","full_date":"2026-02-23T18:55:24.036Z","date":"2026-02-23","time":"18:55:24"},{"task":"memory_phase","broad_category":"M","image_png":"M_Phyllite_13.png","image_id":269,"category_name":"Phyllite","category":17,"distinct_rating":2.8,"distinct_type":"Bottom","rt":null,"stimulus":"Stimuli_Rocks480/M_Phyllite_13.png","response":null,"trial_type":"image-keyboard-response","trial_index":34,"plugin_version":"2.1.0","time_elapsed":105663,"subject_id":"90851","group":"Group2","condition":"1_Rep","full_date":"2026-02-23T18:55:24.036Z","date":"2026-02-23","time":"18:55:24"},{"rt":null,"stimulus":"<p style=\"font-size: 50px; margin: 0; text-align: center;\">+</p>","response":null,"trial_type":"html-keyboard-response","trial_index":35,"plugin_version":"2.1.0","time_elapsed":106668,"subject_id":"90851","group":"Group2","condition":"1_Rep","full_date":"2026-02-23T18:55:24.036Z","date":"2026-02-23","time":"18:55:24"},{"task":"memory_phase","broad_category":"S","image_png":"S_Sandstone_08.png","image_id":456,"category_name":"Sandstone","category":29,"distinct_rating":1.5,"distinct_type":"Bottom","rt":null,"stimulus":"Stimuli_Rocks480/S_Sandstone_08.png","response":null,"trial_type":"image-keyboard-response","trial_index":36,"plugin_version":"2.1.0","time_elapsed":109182,"subject_id":"90851","group":"Group2","condition":"1_Rep","full_date":"2026-02-23T18:55:24.036Z","date":"2026-02-23","time":"18:55:24"},{"rt":null,"stimulus":"<p style=\"font-size: 50px; margin: 0; text-align: center;\">+</p>","response":null,"trial_type":"html-keyboard-response","trial_index":37,"plugin_version":"2.1.0","time_elapsed":110191,"subject_id":"90851","group":"Group2","condition":"1_Rep","full_date":"2026-02-23T18:55:24.036Z","date":"2026-02-23","time":"18:55:24"},{"task":"memory_phase","broad_category":"I","image_png":"I_Andesite_03.png","image_id":3,"category_name":"Andesite","category":1,"distinct_rating":3.17,"distinct_type":"Bottom","rt":null,"stimulus":"Stimuli_Rocks480/I_Andesite_03.png","response":null,"trial_type":"image-keyboard-response","trial_index":38,"plugin_version":"2.1.0","time_elapsed":112708,"subject_id":"90851","group":"Group2","condition":"1_Rep","full_date":"2026-02-23T18:55:24.036Z","date":"2026-02-23","time":"18:55:24"},{"rt":null,"stimulus":"<p style=\"font-size: 50px; margin: 0; text-align: center;\">+</p>","response":null,"trial_type":"html-keyboard-response","trial_index":39,"plugin_version":"2.1.0","time_elapsed":113709,"subject_id":"90851","group":"Group2","condition":"1_Rep","full_date":"2026-02-23T18:55:24.036Z","date":"2026-02-23","time":"18:55:24"},{"task":"memory_phase","broad_category":"M","image_png":"M_Marble_14.png","image_id":238,"category_name":"Marble","category":15,"distinct_rating":3.31,"distinct_type":"Bottom","rt":null,"stimulus":"Stimuli_Rocks480/M_Marble_14.png","response":null,"trial_type":"image-keyboard-response","trial_index":40,"plugin_version":"2.1.0","time_elapsed":116216,"subject_id":"90851","group":"Group2","condition":"1_Rep","full_date":"2026-02-23T18:55:24.036Z","date":"2026-02-23","time":"18:55:24"},{"rt":null,"stimulus":"<p style=\"font-size: 50px; margin: 0; text-align: center;\">+</p>","response":null,"trial_type":"html-keyboard-response","trial_index":41,"plugin_version":"2.1.0","time_elapsed":117228,"subject_id":"90851","group":"Group2","condition":"1_Rep","full_date":"2026-02-23T18:55:24.036Z","date":"2026-02-23","time":"18:55:24"},{"task":"memory_phase","broad_category":"I","image_png":"I_Gabbro_14.png","image_id":62,"category_name":"Gabbro","category":4,"distinct_rating":2.95,"distinct_type":"Bottom","rt":null,"stimulus":"Stimuli_Rocks480/I_Gabbro_14.png","response":null,"trial_type":"image-keyboard-response","trial_index":42,"plugin_version":"2.1.0","time_elapsed":119742,"subject_id":"90851","group":"Group2","condition":"1_Rep","full_date":"2026-02-23T18:55:24.036Z","date":"2026-02-23","time":"18:55:24"},{"rt":null,"stimulus":"<p style=\"font-size: 50px; margin: 0; text-align: center;\">+</p>","response":null,"trial_type":"html-keyboard-response","trial_index":43,"plugin_version":"2.1.0","time_elapsed":120748,"subject_id":"90851","group":"Group2","condition":"1_Rep","full_date":"2026-02-23T18:55:24.036Z","date":"2026-02-23","time":"18:55:24"},{"task":"memory_phase","broad_category":"S","image_png":"S_Chert_13.png","image_id":365,"category_name":"Chert","category":23,"distinct_rating":6.57,"distinct_type":"Top","rt":null,"stimulus":"Stimuli_Rocks480/S_Chert_13.png","response":null,"trial_type":"image-keyboard-response","trial_index":44,"plugin_version":"2.1.0","time_elapsed":123263,"subject_id":"90851","group":"Group2","condition":"1_Rep","full_date":"2026-02-23T18:55:24.036Z","date":"2026-02-23","time":"18:55:24"},{"rt":null,"stimulus":"<p style=\"font-size: 50px; margin: 0; text-align: center;\">+</p>","response":null,"trial_type":"html-keyboard-response","trial_index":45,"plugin_version":"2.1.0","time_elapsed":124268,"subject_id":"90851","group":"Group2","condition":"1_Rep","full_date":"2026-02-23T18:55:24.036Z","date":"2026-02-23","time":"18:55:24"},{"task":"memory_phase","broad_category":"I","image_png":"I_Pegmatite_11.png","image_id":107,"category_name":"Pegmatite","category":7,"distinct_rating":7.11,"distinct_type":"Top","rt":null,"stimulus":"Stimuli_Rocks480/I_Pegmatite_11.png","response":null,"trial_type":"image-keyboard-response","trial_index":46,"plugin_version":"2.1.0","time_elapsed":126771,"subject_id":"90851","group":"Group2","condition":"1_Rep","full_date":"2026-02-23T18:55:24.036Z","date":"2026-02-23","time":"18:55:24"},{"rt":null,"stimulus":"<p style=\"font-size: 50px; margin: 0; text-align: center;\">+</p>","response":null,"trial_type":"html-keyboard-response","trial_index":47,"plugin_version":"2.1.0","time_elapsed":127783,"subject_id":"90851","group":"Group2","condition":"1_Rep","full_date":"2026-02-23T18:55:24.036Z","date":"2026-02-23","time":"18:55:24"},{"task":"memory_phase","broad_category":"I","image_png":"I_Basalt_10.png","image_id":26,"category_name":"Basalt","category":2,"distinct_rating":2.76,"distinct_type":"Bottom","rt":null,"stimulus":"Stimuli_Rocks480/I_Basalt_10.png","response":null,"trial_type":"image-keyboard-response","trial_index":48,"plugin_version":"2.1.0","time_elapsed":130297,"subject_id":"90851","group":"Group2","condition":"1_Rep","full_date":"2026-02-23T18:55:24.036Z","date":"2026-02-23","time":"18:55:24"},{"rt":null,"stimulus":"<p style=\"font-size: 50px; margin: 0; text-align: center;\">+</p>","response":null,"trial_type":"html-keyboard-response","trial_index":49,"plugin_version":"2.1.0","time_elapsed":131305,"subject_id":"90851","group":"Group2","condition":"1_Rep","full_date":"2026-02-23T18:55:24.036Z","date":"2026-02-23","time":"18:55:24"},{"task":"memory_phase","broad_category":"S","image_png":"S_Shale_02.png","image_id":466,"category_name":"Shale","category":30,"distinct_rating":2.9,"distinct_type":"Bottom","rt":null,"stimulus":"Stimuli_Rocks480/S_Shale_02.png","response":null,"trial_type":"image-keyboard-response","trial_index":50,"plugin_version":"2.1.0","time_elapsed":133820,"subject_id":"90851","group":"Group2","condition":"1_Rep","full_date":"2026-02-23T18:55:24.036Z","date":"2026-02-23","time":"18:55:24"},{"rt":null,"stimulus":"<p style=\"font-size: 50px; margin: 0; text-align: center;\">+</p>","response":null,"trial_type":"html-keyboard-response","trial_index":51,"plugin_version":"2.1.0","time_elapsed":134823,"subject_id":"90851","group":"Group2","condition":"1_Rep","full_date":"2026-02-23T18:55:24.036Z","date":"2026-02-23","time":"18:55:24"},{"task":"memory_phase","broad_category":"I","image_png":"I_Gabbro_02.png","image_id":50,"category_name":"Gabbro","category":4,"distinct_rating":2.73,"distinct_type":"Bottom","rt":null,"stimulus":"Stimuli_Rocks480/I_Gabbro_02.png","response":null,"trial_type":"image-keyboard-response","trial_index":52,"plugin_version":"2.1.0","time_elapsed":137335,"subject_id":"90851","group":"Group2","condition":"1_Rep","full_date":"2026-02-23T18:55:24.036Z","date":"2026-02-23","time":"18:55:24"},{"rt":null,"stimulus":"<p style=\"font-size: 50px; margin: 0; text-align: center;\">+</p>","response":null,"trial_type":"html-keyboard-response","trial_index":53,"plugin_version":"2.1.0","time_elapsed":138340,"subject_id":"90851","group":"Group2","condition":"1_Rep","full_date":"2026-02-23T18:55:24.036Z","date":"2026-02-23","time":"18:55:24"},{"task":"memory_phase","broad_category":"I","image_png":"I_Diorite_10.png","image_id":42,"category_name":"Diorite","category":3,"distinct_rating":2.84,"distinct_type":"Bottom","rt":null,"stimulus":"Stimuli_Rocks480/I_Diorite_10.png","response":null,"trial_type":"image-keyboard-response","trial_index":54,"plugin_version":"2.1.0","time_elapsed":140853,"subject_id":"90851","group":"Group2","condition":"1_Rep","full_date":"2026-02-23T18:55:24.036Z","date":"2026-02-23","time":"18:55:24"},{"rt":10992,"stimulus":"<p style=\"max-width: 760px; margin: auto; font-size: 35px; line-height: 1.5;\">\n                Press SPACE to continue study phase\n              </p>","response":" ","trial_type":"html-keyboard-response","trial_index":55,"plugin_version":"2.1.0","time_elapsed":151849,"subject_id":"90851","group":"Group2","condition":"1_Rep","full_date":"2026-02-23T18:55:24.036Z","date":"2026-02-23","time":"18:55:24"},{"rt":null,"stimulus":"<p style=\"font-size: 50px; margin: 0; text-align: center;\">+</p>","response":null,"trial_type":"html-keyboard-response","trial_index":56,"plugin_version":"2.1.0","time_elapsed":152860,"subject_id":"90851","group":"Group2","condition":"1_Rep","full_date":"2026-02-23T18:55:24.036Z","date":"2026-02-23","time":"18:55:24"},{"task":"memory_phase","broad_category":"I","image_png":"I_Pumice_14.png","image_id":142,"category_name":"Pumice","category":9,"distinct_rating":3.22,"distinct_type":"Bottom","rt":null,"stimulus":"Stimuli_Rocks480/I_Pumice_14.png","response":null,"trial_type":"image-keyboard-response","trial_index":57,"plugin_version":"2.1.0","time_elapsed":156300,"subject_id":"90851","group":"Group2","condition":"1_Rep","full_date":"2026-02-23T18:55:24.036Z","date":"2026-02-23","time":"18:55:24"},{"rt":null,"stimulus":"<p style=\"font-size: 50px; margin: 0; text-align: center;\">+</p>","response":null,"trial_type":"html-keyboard-response","trial_index":58,"plugin_version":"2.1.0","time_elapsed":158296,"subject_id":"90851","group":"Group2","condition":"1_Rep","full_date":"2026-02-23T18:55:24.036Z","date":"2026-02-23","time":"18:55:24"},{"task":"memory_phase","broad_category":"S","image_png":"S_Dolomite_16.png","image_id":400,"category_name":"Dolomite","category":25,"distinct_rating":1.71,"distinct_type":"Bottom","rt":null,"stimulus":"Stimuli_Rocks480/S_Dolomite_16.png","response":null,"trial_type":"image-keyboard-response","trial_index":59,"plugin_version":"2.1.0","time_elapsed":161291,"subject_id":"90851","group":"Group2","condition":"1_Rep","full_date":"2026-02-23T18:55:24.036Z","date":"2026-02-23","time":"18:55:24"},{"rt":null,"stimulus":"<p style=\"font-size: 50px; margin: 0; text-align: center;\">+</p>","response":null,"trial_type":"html-keyboard-response","trial_index":60,"plugin_version":"2.1.0","time_elapsed":163294,"subject_id":"90851","group":"Group2","condition":"1_Rep","full_date":"2026-02-23T18:55:24.036Z","date":"2026-02-23","time":"18:55:24"},{"task":"memory_phase","broad_category":"I","image_png":"I_Pumice_13.png","image_id":141,"category_name":"Pumice","category":9,"distinct_rating":3.12,"distinct_type":"Bottom","rt":null,"stimulus":"Stimuli_Rocks480/I_Pumice_13.png","response":null,"trial_type":"image-keyboard-response","trial_index":61,"plugin_version":"2.1.0","time_elapsed":165796,"subject_id":"90851","group":"Group2","condition":"1_Rep","full_date":"2026-02-23T18:55:24.036Z","date":"2026-02-23","time":"18:55:24"},{"rt":null,"stimulus":"<p style=\"font-size: 50px; margin: 0; text-align: center;\">+</p>","response":null,"trial_type":"html-keyboard-response","trial_index":62,"plugin_version":"2.1.0","time_elapsed":166808,"subject_id":"90851","group":"Group2","condition":"1_Rep","full_date":"2026-02-23T18:55:24.036Z","date":"2026-02-23","time":"18:55:24"},{"task":"memory_phase","broad_category":"M","image_png":"M_Slate_14.png","image_id":318,"category_name":"Slate","category":20,"distinct_rating":2.58,"distinct_type":"Bottom","rt":null,"stimulus":"Stimuli_Rocks480/M_Slate_14.png","response":null,"trial_type":"image-keyboard-response","trial_index":63,"plugin_version":"2.1.0","time_elapsed":169320,"subject_id":"90851","group":"Group2","condition":"1_Rep","full_date":"2026-02-23T18:55:24.036Z","date":"2026-02-23","time":"18:55:24"},{"rt":null,"stimulus":"<p style=\"font-size: 50px; margin: 0; text-align: center;\">+</p>","response":null,"trial_type":"html-keyboard-response","trial_index":64,"plugin_version":"2.1.0","time_elapsed":170327,"subject_id":"90851","group":"Group2","condition":"1_Rep","full_date":"2026-02-23T18:55:24.036Z","date":"2026-02-23","time":"18:55:24"},{"task":"memory_phase","broad_category":"S","image_png":"S_Sandstone_11.png","image_id":459,"category_name":"Sandstone","category":29,"distinct_rating":1.82,"distinct_type":"Bottom","rt":null,"stimulus":"Stimuli_Rocks480/S_Sandstone_11.png","response":null,"trial_type":"image-keyboard-response","trial_index":65,"plugin_version":"2.1.0","time_elapsed":172839,"subject_id":"90851","group":"Group2","condition":"1_Rep","full_date":"2026-02-23T18:55:24.036Z","date":"2026-02-23","time":"18:55:24"},{"rt":null,"stimulus":"<p style=\"font-size: 50px; margin: 0; text-align: center;\">+</p>","response":null,"trial_type":"html-keyboard-response","trial_index":66,"plugin_version":"2.1.0","time_elapsed":173845,"subject_id":"90851","group":"Group2","condition":"1_Rep","full_date":"2026-02-23T18:55:24.036Z","date":"2026-02-23","time":"18:55:24"},{"task":"memory_phase","broad_category":"I","image_png":"I_Pegmatite_03.png","image_id":99,"category_name":"Pegmatite","category":7,"distinct_rating":7.24,"distinct_type":"Top","rt":null,"stimulus":"Stimuli_Rocks480/I_Pegmatite_03.png","response":null,"trial_type":"image-keyboard-response","trial_index":67,"plugin_version":"2.1.0","time_elapsed":176358,"subject_id":"90851","group":"Group2","condition":"1_Rep","full_date":"2026-02-23T18:55:24.036Z","date":"2026-02-23","time":"18:55:24"},{"rt":null,"stimulus":"<p style=\"font-size: 50px; margin: 0; text-align: center;\">+</p>","response":null,"trial_type":"html-keyboard-response","trial_index":68,"plugin_version":"2.1.0","time_elapsed":177365,"subject_id":"90851","group":"Group2","condition":"1_Rep","full_date":"2026-02-23T18:55:24.036Z","date":"2026-02-23","time":"18:55:24"},{"task":"memory_phase","broad_category":"M","image_png":"M_Gneiss_14.png","image_id":206,"category_name":"Gneiss","category":13,"distinct_rating":3.41,"distinct_type":"Bottom","rt":null,"stimulus":"Stimuli_Rocks480/M_Gneiss_14.png","response":null,"trial_type":"image-keyboard-response","trial_index":69,"plugin_version":"2.1.0","time_elapsed":179875,"subject_id":"90851","group":"Group2","condition":"1_Rep","full_date":"2026-02-23T18:55:24.036Z","date":"2026-02-23","time":"18:55:24"},{"rt":null,"stimulus":"<p style=\"font-size: 50px; margin: 0; text-align: center;\">+</p>","response":null,"trial_type":"html-keyboard-response","trial_index":70,"plugin_version":"2.1.0","time_elapsed":180884,"subject_id":"90851","group":"Group2","condition":"1_Rep","full_date":"2026-02-23T18:55:24.036Z","date":"2026-02-23","time":"18:55:24"},{"task":"memory_phase","broad_category":"S","image_png":"S_Conglomerate_14.png","image_id":382,"category_name":"Conglomerate","category":24,"distinct_rating":6.86,"distinct_type":"Top","rt":null,"stimulus":"Stimuli_Rocks480/S_Conglomerate_14.png","response":null,"trial_type":"image-keyboard-response","trial_index":71,"plugin_version":"2.1.0","time_elapsed":183397,"subject_id":"90851","group":"Group2","condition":"1_Rep","full_date":"2026-02-23T18:55:24.036Z","date":"2026-02-23","time":"18:55:24"},{"rt":null,"stimulus":"<p style=\"font-size: 50px; margin: 0; text-align: center;\">+</p>","response":null,"trial_type":"html-keyboard-response","trial_index":72,"plugin_version":"2.1.0","time_elapsed":184402,"subject_id":"90851","group":"Group2","condition":"1_Rep","full_date":"2026-02-23T18:55:24.036Z","date":"2026-02-23","time":"18:55:24"},{"task":"memory_phase","broad_category":"M","image_png":"M_Quartzite_12.png","image_id":284,"category_name":"Quartzite","category":18,"distinct_rating":1.92,"distinct_type":"Bottom","rt":null,"stimulus":"Stimuli_Rocks480/M_Quartzite_12.png","response":null,"trial_type":"image-keyboard-response","trial_index":73,"plugin_version":"2.1.0","time_elapsed":186915,"subject_id":"90851","group":"Group2","condition":"1_Rep","full_date":"2026-02-23T18:55:24.036Z","date":"2026-02-23","time":"18:55:24"},{"rt":null,"stimulus":"<p style=\"font-size: 50px; margin: 0; text-align: center;\">+</p>","response":null,"trial_type":"html-keyboard-response","trial_index":74,"plugin_version":"2.1.0","time_elapsed":187919,"subject_id":"90851","group":"Group2","condition":"1_Rep","full_date":"2026-02-23T18:55:24.036Z","date":"2026-02-23","time":"18:55:24"},{"task":"memory_phase","broad_category":"M","image_png":"M_Gneiss_15.png","image_id":207,"category_name":"Gneiss","category":13,"distinct_rating":3.11,"distinct_type":"Bottom","rt":null,"stimulus":"Stimuli_Rocks480/M_Gneiss_15.png","response":null,"trial_type":"image-keyboard-response","trial_index":75,"plugin_version":"2.1.0","time_elapsed":190432,"subject_id":"90851","group":"Group2","condition":"1_Rep","full_date":"2026-02-23T18:55:24.036Z","date":"2026-02-23","time":"18:55:24"},{"rt":null,"stimulus":"<p style=\"font-size: 50px; margin: 0; text-align: center;\">+</p>","response":null,"trial_type":"html-keyboard-response","trial_index":76,"plugin_version":"2.1.0","time_elapsed":191438,"subject_id":"90851","group":"Group2","condition":"1_Rep","full_date":"2026-02-23T18:55:24.036Z","date":"2026-02-23","time":"18:55:24"},{"task":"memory_phase","broad_category":"S","image_png":"S_Dolomite_01.png","image_id":385,"category_name":"Dolomite","category":25,"distinct_rating":1.43,"distinct_type":"Bottom","rt":null,"stimulus":"Stimuli_Rocks480/S_Dolomite_01.png","response":null,"trial_type":"image-keyboard-response","trial_index":77,"plugin_version":"2.1.0","time_elapsed":193955,"subject_id":"90851","group":"Group2","condition":"1_Rep","full_date":"2026-02-23T18:55:24.036Z","date":"2026-02-23","time":"18:55:24"},{"rt":null,"stimulus":"<p style=\"font-size: 50px; margin: 0; text-align: center;\">+</p>","response":null,"trial_type":"html-keyboard-response","trial_index":78,"plugin_version":"2.1.0","time_elapsed":194959,"subject_id":"90851","group":"Group2","condition":"1_Rep","full_date":"2026-02-23T18:55:24.036Z","date":"2026-02-23","time":"18:55:24"},{"task":"memory_phase","broad_category":"I","image_png":"I_Diorite_15.png","image_id":47,"category_name":"Diorite","category":3,"distinct_rating":3.05,"distinct_type":"Bottom","rt":null,"stimulus":"Stimuli_Rocks480/I_Diorite_15.png","response":null,"trial_type":"image-keyboard-response","trial_index":79,"plugin_version":"2.1.0","time_elapsed":197476,"subject_id":"90851","group":"Group2","condition":"1_Rep","full_date":"2026-02-23T18:55:24.036Z","date":"2026-02-23","time":"18:55:24"},{"rt":null,"stimulus":"<p style=\"font-size: 50px; margin: 0; text-align: center;\">+</p>","response":null,"trial_type":"html-keyboard-response","trial_index":80,"plugin_version":"2.1.0","time_elapsed":198493,"subject_id":"90851","group":"Group2","condition":"1_Rep","full_date":"2026-02-23T18:55:24.036Z","date":"2026-02-23","time":"18:55:24"},{"task":"memory_phase","broad_category":"I","image_png":"I_Andesite_04.png","image_id":4,"category_name":"Andesite","category":1,"distinct_rating":3.18,"distinct_type":"Bottom","rt":null,"stimulus":"Stimuli_Rocks480/I_Andesite_04.png","response":null,"trial_type":"image-keyboard-response","trial_index":81,"plugin_version":"2.1.0","time_elapsed":201009,"subject_id":"90851","group":"Group2","condition":"1_Rep","full_date":"2026-02-23T18:55:24.036Z","date":"2026-02-23","time":"18:55:24"},{"rt":null,"stimulus":"<p style=\"font-size: 50px; margin: 0; text-align: center;\">+</p>","response":null,"trial_type":"html-keyboard-response","trial_index":82,"plugin_version":"2.1.0","time_elapsed":202024,"subject_id":"90851","group":"Group2","condition":"1_Rep","full_date":"2026-02-23T18:55:24.036Z","date":"2026-02-23","time":"18:55:24"},{"task":"memory_phase","broad_category":"I","image_png":"I_Andesite_09.png","image_id":9,"category_name":"Andesite","category":1,"distinct_rating":2.49,"distinct_type":"Bottom","rt":null,"stimulus":"Stimuli_Rocks480/I_Andesite_09.png","response":null,"trial_type":"image-keyboard-response","trial_index":83,"plugin_version":"2.1.0","time_elapsed":204527,"subject_id":"90851","group":"Group2","condition":"1_Rep","full_date":"2026-02-23T18:55:24.036Z","date":"2026-02-23","time":"18:55:24"},{"rt":null,"stimulus":"<p style=\"font-size: 50px; margin: 0; text-align: center;\">+</p>","response":null,"trial_type":"html-keyboard-response","trial_index":84,"plugin_version":"2.1.0","time_elapsed":205544,"subject_id":"90851","group":"Group2","condition":"1_Rep","full_date":"2026-02-23T18:55:24.036Z","date":"2026-02-23","time":"18:55:24"},{"task":"memory_phase","broad_category":"I","image_png":"I_Gabbro_12.png","image_id":60,"category_name":"Gabbro","category":4,"distinct_rating":2.6,"distinct_type":"Bottom","rt":null,"stimulus":"Stimuli_Rocks480/I_Gabbro_12.png","response":null,"trial_type":"image-keyboard-response","trial_index":85,"plugin_version":"2.1.0","time_elapsed":208046,"subject_id":"90851","group":"Group2","condition":"1_Rep","full_date":"2026-02-23T18:55:24.036Z","date":"2026-02-23","time":"18:55:24"},{"rt":null,"stimulus":"<p style=\"font-size: 50px; margin: 0; text-align: center;\">+</p>","response":null,"trial_type":"html-keyboard-response","trial_index":86,"plugin_version":"2.1.0","time_elapsed":209052,"subject_id":"90851","group":"Group2","condition":"1_Rep","full_date":"2026-02-23T18:55:24.036Z","date":"2026-02-23","time":"18:55:24"},{"task":"memory_phase","broad_category":"I","image_png":"I_Peridotite_13.png","image_id":125,"category_name":"Peridotite","category":8,"distinct_rating":7.28,"distinct_type":"Top","rt":null,"stimulus":"Stimuli_Rocks480/I_Peridotite_13.png","response":null,"trial_type":"image-keyboard-response","trial_index":87,"plugin_version":"2.1.0","time_elapsed":211562,"subject_id":"90851","group":"Group2","condition":"1_Rep","full_date":"2026-02-23T18:55:24.036Z","date":"2026-02-23","time":"18:55:24"},{"rt":null,"stimulus":"<p style=\"font-size: 50px; margin: 0; text-align: center;\">+</p>","response":null,"trial_type":"html-keyboard-response","trial_index":88,"plugin_version":"2.1.0","time_elapsed":212569,"subject_id":"90851","group":"Group2","condition":"1_Rep","full_date":"2026-02-23T18:55:24.036Z","date":"2026-02-23","time":"18:55:24"},{"task":"memory_phase","broad_category":"I","image_png":"I_Pumice_01.png","image_id":129,"category_name":"Pumice","category":9,"distinct_rating":3.25,"distinct_type":"Bottom","rt":null,"stimulus":"Stimuli_Rocks480/I_Pumice_01.png","response":null,"trial_type":"image-keyboard-response","trial_index":89,"plugin_version":"2.1.0","time_elapsed":215084,"subject_id":"90851","group":"Group2","condition":"1_Rep","full_date":"2026-02-23T18:55:24.036Z","date":"2026-02-23","time":"18:55:24"},{"rt":null,"stimulus":"<p style=\"font-size: 50px; margin: 0; text-align: center;\">+</p>","response":null,"trial_type":"html-keyboard-response","trial_index":90,"plugin_version":"2.1.0","time_elapsed":216089,"subject_id":"90851","group":"Group2","condition":"1_Rep","full_date":"2026-02-23T18:55:24.036Z","date":"2026-02-23","time":"18:55:24"},{"task":"memory_phase","broad_category":"M","image_png":"M_Phyllite_02.png","image_id":258,"category_name":"Phyllite","category":17,"distinct_rating":2.89,"distinct_type":"Bottom","rt":null,"stimulus":"Stimuli_Rocks480/M_Phyllite_02.png","response":null,"trial_type":"image-keyboard-response","trial_index":91,"plugin_version":"2.1.0","time_elapsed":218606,"subject_id":"90851","group":"Group2","condition":"1_Rep","full_date":"2026-02-23T18:55:24.036Z","date":"2026-02-23","time":"18:55:24"},{"rt":null,"stimulus":"<p style=\"font-size: 50px; margin: 0; text-align: center;\">+</p>","response":null,"trial_type":"html-keyboard-response","trial_index":92,"plugin_version":"2.1.0","time_elapsed":219608,"subject_id":"90851","group":"Group2","condition":"1_Rep","full_date":"2026-02-23T18:55:24.036Z","date":"2026-02-23","time":"18:55:24"},{"task":"memory_phase","broad_category":"S","image_png":"S_Sandstone_04.png","image_id":452,"category_name":"Sandstone","category":29,"distinct_rating":1.8,"distinct_type":"Bottom","rt":null,"stimulus":"Stimuli_Rocks480/S_Sandstone_04.png","response":null,"trial_type":"image-keyboard-response","trial_index":93,"plugin_version":"2.1.0","time_elapsed":222122,"subject_id":"90851","group":"Group2","condition":"1_Rep","full_date":"2026-02-23T18:55:24.036Z","date":"2026-02-23","time":"18:55:24"},{"rt":null,"stimulus":"<p style=\"font-size: 50px; margin: 0; text-align: center;\">+</p>","response":null,"trial_type":"html-keyboard-response","trial_index":94,"plugin_version":"2.1.0","time_elapsed":223124,"subject_id":"90851","group":"Group2","condition":"1_Rep","full_date":"2026-02-23T18:55:24.036Z","date":"2026-02-23","time":"18:55:24"},{"task":"memory_phase","broad_category":"M","image_png":"M_Marble_03.png","image_id":227,"category_name":"Marble","category":15,"distinct_rating":2.67,"distinct_type":"Bottom","rt":null,"stimulus":"Stimuli_Rocks480/M_Marble_03.png","response":null,"trial_type":"image-keyboard-response","trial_index":95,"plugin_version":"2.1.0","time_elapsed":225637,"subject_id":"90851","group":"Group2","condition":"1_Rep","full_date":"2026-02-23T18:55:24.036Z","date":"2026-02-23","time":"18:55:24"},{"rt":null,"stimulus":"<p style=\"font-size: 50px; margin: 0; text-align: center;\">+</p>","response":null,"trial_type":"html-keyboard-response","trial_index":96,"plugin_version":"2.1.0","time_elapsed":226644,"subject_id":"90851","group":"Group2","condition":"1_Rep","full_date":"2026-02-23T18:55:24.036Z","date":"2026-02-23","time":"18:55:24"},{"task":"memory_phase","broad_category":"S","image_png":"S_Shale_07.png","image_id":471,"category_name":"Shale","category":30,"distinct_rating":2.73,"distinct_type":"Bottom","rt":null,"stimulus":"Stimuli_Rocks480/S_Shale_07.png","response":null,"trial_type":"image-keyboard-response","trial_index":97,"plugin_version":"2.1.0","time_elapsed":229153,"subject_id":"90851","group":"Group2","condition":"1_Rep","full_date":"2026-02-23T18:55:24.036Z","date":"2026-02-23","time":"18:55:24"},{"rt":null,"stimulus":"<p style=\"font-size: 50px; margin: 0; text-align: center;\">+</p>","response":null,"trial_type":"html-keyboard-response","trial_index":98,"plugin_version":"2.1.0","time_elapsed":230164,"subject_id":"90851","group":"Group2","condition":"1_Rep","full_date":"2026-02-23T18:55:24.036Z","date":"2026-02-23","time":"18:55:24"},{"task":"memory_phase","broad_category":"I","image_png":"I_Rhyolite_10.png","image_id":154,"category_name":"Rhyolite","category":10,"distinct_rating":2.88,"distinct_type":"Bottom","rt":null,"stimulus":"Stimuli_Rocks480/I_Rhyolite_10.png","response":null,"trial_type":"image-keyboard-response","trial_index":99,"plugin_version":"2.1.0","time_elapsed":232678,"subject_id":"90851","group":"Group2","condition":"1_Rep","full_date":"2026-02-23T18:55:24.036Z","date":"2026-02-23","time":"18:55:24"},{"rt":null,"stimulus":"<p style=\"font-size: 50px; margin: 0; text-align: center;\">+</p>","response":null,"trial_type":"html-keyboard-response","trial_index":100,"plugin_version":"2.1.0","time_elapsed":233683,"subject_id":"90851","group":"Group2","condition":"1_Rep","full_date":"2026-02-23T18:55:24.036Z","date":"2026-02-23","time":"18:55:24"},{"task":"memory_phase","broad_category":"I","image_png":"I_Obsidian_06.png","image_id":86,"category_name":"Obsidian","category":6,"distinct_rating":8.01,"distinct_type":"Top","rt":null,"stimulus":"Stimuli_Rocks480/I_Obsidian_06.png","response":null,"trial_type":"image-keyboard-response","trial_index":101,"plugin_version":"2.1.0","time_elapsed":236197,"subject_id":"90851","group":"Group2","condition":"1_Rep","full_date":"2026-02-23T18:55:24.036Z","date":"2026-02-23","time":"18:55:24"},{"rt":null,"stimulus":"<p style=\"font-size: 50px; margin: 0; text-align: center;\">+</p>","response":null,"trial_type":"html-keyboard-response","trial_index":102,"plugin_version":"2.1.0","time_elapsed":237200,"subject_id":"90851","group":"Group2","condition":"1_Rep","full_date":"2026-02-23T18:55:24.036Z","date":"2026-02-23","time":"18:55:24"},{"task":"memory_phase","broad_category":"M","image_png":"M_Quartzite_15.png","image_id":287,"category_name":"Quartzite","category":18,"distinct_rating":2.19,"distinct_type":"Bottom","rt":null,"stimulus":"Stimuli_Rocks480/M_Quartzite_15.png","response":null,"trial_type":"image-keyboard-response","trial_index":103,"plugin_version":"2.1.0","time_elapsed":239714,"subject_id":"90851","group":"Group2","condition":"1_Rep","full_date":"2026-02-23T18:55:24.036Z","date":"2026-02-23","time":"18:55:24"},{"rt":null,"stimulus":"<p style=\"font-size: 50px; margin: 0; text-align: center;\">+</p>","response":null,"trial_type":"html-keyboard-response","trial_index":104,"plugin_version":"2.1.0","time_elapsed":240721,"subject_id":"90851","group":"Group2","condition":"1_Rep","full_date":"2026-02-23T18:55:24.036Z","date":"2026-02-23","time":"18:55:24"},{"task":"memory_phase","broad_category":"M","image_png":"M_Quartzite_07.png","image_id":279,"category_name":"Quartzite","category":18,"distinct_rating":1.97,"distinct_type":"Bottom","rt":null,"stimulus":"Stimuli_Rocks480/M_Quartzite_07.png","response":null,"trial_type":"image-keyboard-response","trial_index":105,"plugin_version":"2.1.0","time_elapsed":243236,"subject_id":"90851","group":"Group2","condition":"1_Rep","full_date":"2026-02-23T18:55:24.036Z","date":"2026-02-23","time":"18:55:24"},{"rt":3637,"stimulus":"<div style=\"max-width: 760px; margin: auto; font-size: 20px; line-height: 1.5;\">\n      <h1 style=\"text-align:center; font-size: 30px;\">Instructions for the Test Phase</h1>\n      <p>\n        The study phase is now complete.\n      </p>\n      <p>\n        In the test phase, you will again see a series of rock images. \n        Some will be ones you saw before - during the study phase, while others will be new.  \n        <b>Your task</b> is to decide whether you have seen each image before by pressing the corresponding key on your keyboard:<br><br>\n          <b>A</b> - NO (you did not see this image before)<br>\n          <b>L</b> - YES (you saw this image before)<br><br>\n        The test will proceed at your own pace. You will receive feedback after each response.  \n        Please try to respond <b>as accurately as possible</b>.\n      </p>\n      <p>\n        <b>Reminder:</b> If your computer has multiple language settings (e.g., English and another language),\n        please ensure it is set to English during the test phase.\n      </p>\n      <p>\n        You can track your progress using the <b>completion bar</b> at the top of the screen.  \n        Note that it has been refreshed to reflect your progress during this final phase.\n      </p>\n      <p>\n        Press the button below when you are ready to continue.\n      </p>\n    </div>","response":0,"trial_type":"html-button-response","trial_index":106,"plugin_version":"2.1.0","time_elapsed":246875,"subject_id":"90851","group":"Group2","condition":"1_Rep","full_date":"2026-02-23T18:55:24.036Z","date":"2026-02-23","time":"18:55:24"},{"correct_response":"l","task":"test_phase","broad_category":"M","image_png":"M_Quartzite_12.png","image_id":284,"category_name":"Quartzite","category":18,"distinct_rating":1.92,"distinct_type":"Bottom","item_type":"Target","rt":2681,"stimulus":"Stimuli_Rocks480/M_Quartzite_12.png","response":"a","trial_type":"image-keyboard-response","trial_index":107,"plugin_version":"2.1.0","time_elapsed":249558,"subject_id":"90851","group":"Group2","condition":"1_Rep","full_date":"2026-02-23T18:55:24.036Z","date":"2026-02-23","time":"18:55:24","cor_ans":false},{"trial_type":"html-keyboard-response","rt":null,"stimulus":"<p style=\"color: red; font-size: 50px; font-weight: bold;\">Incorrect</p>","response":null,"trial_index":108,"plugin_version":"2.1.0","time_elapsed":250063,"subject_id":"90851","group":"Group2","condition":"1_Rep","full_date":"2026-02-23T18:55:24.036Z","date":"2026-02-23","time":"18:55:24"},{"correct_response":"a","task":"test_phase","broad_category":"M","image_png":"M_Phyllite_10.png","image_id":266,"category_name":"Phyllite","category":17,"distinct_rating":2.6,"distinct_type":"Bottom","item_type":"Foil","rt":1454,"stimulus":"Stimuli_Rocks480/M_Phyllite_10.png","response":"l","trial_type":"image-keyboard-response","trial_index":109,"plugin_version":"2.1.0","time_elapsed":251518,"subject_id":"90851","group":"Group2","condition":"1_Rep","full_date":"2026-02-23T18:55:24.036Z","date":"2026-02-23","time":"18:55:24","cor_ans":false},{"trial_type":"html-keyboard-response","rt":null,"stimulus":"<p style=\"color: red; font-size: 50px; font-weight: bold;\">Incorrect</p>","response":null,"trial_index":110,"plugin_version":"2.1.0","time_elapsed":252027,"subject_id":"90851","group":"Group2","condition":"1_Rep","full_date":"2026-02-23T18:55:24.036Z","date":"2026-02-23","time":"18:55:24"},{"correct_response":"l","task":"test_phase","broad_category":"I","image_png":"I_Basalt_10.png","image_id":26,"category_name":"Basalt","category":2,"distinct_rating":2.76,"distinct_type":"Bottom","item_type":"Target","rt":1140,"stimulus":"Stimuli_Rocks480/I_Basalt_10.png","response":"l","trial_type":"image-keyboard-response","trial_index":111,"plugin_version":"2.1.0","time_elapsed":253169,"subject_id":"90851","group":"Group2","condition":"1_Rep","full_date":"2026-02-23T18:55:24.036Z","date":"2026-02-23","time":"18:55:24","cor_ans":true},{"trial_type":"html-keyboard-response","rt":null,"stimulus":"<p style=\"color: green; font-size: 50px; font-weight: bold;\">Correct</p>","response":null,"trial_index":112,"plugin_version":"2.1.0","time_elapsed":253679,"subject_id":"90851","group":"Group2","condition":"1_Rep","full_date":"2026-02-23T18:55:24.036Z","date":"2026-02-23","time":"18:55:24"},{"correct_response":"l","task":"test_phase","broad_category":"M","image_png":"M_Phyllite_02.png","image_id":258,"category_name":"Phyllite","category":17,"distinct_rating":2.89,"distinct_type":"Bottom","item_type":"Target","rt":859,"stimulus":"Stimuli_Rocks480/M_Phyllite_02.png","response":"l","trial_type":"image-keyboard-response","trial_index":113,"plugin_version":"2.1.0","time_elapsed":254539,"subject_id":"90851","group":"Group2","condition":"1_Rep","full_date":"2026-02-23T18:55:24.036Z","date":"2026-02-23","time":"18:55:24","cor_ans":true},{"trial_type":"html-keyboard-response","rt":null,"stimulus":"<p style=\"color: green; font-size: 50px; font-weight: bold;\">Correct</p>","response":null,"trial_index":114,"plugin_version":"2.1.0","time_elapsed":255048,"subject_id":"90851","group":"Group2","condition":"1_Rep","full_date":"2026-02-23T18:55:24.036Z","date":"2026-02-23","time":"18:55:24"},{"correct_response":"l","task":"test_phase","broad_category":"I","image_png":"I_Rhyolite_08.png","image_id":152,"category_name":"Rhyolite","category":10,"distinct_rating":1.38,"distinct_type":"Bottom","item_type":"Target","rt":1003,"stimulus":"Stimuli_Rocks480/I_Rhyolite_08.png","response":"l","trial_type":"image-keyboard-response","trial_index":115,"plugin_version":"2.1.0","time_elapsed":256052,"subject_id":"90851","group":"Group2","condition":"1_Rep","full_date":"2026-02-23T18:55:24.036Z","date":"2026-02-23","time":"18:55:24","cor_ans":true},{"trial_type":"html-keyboard-response","rt":null,"stimulus":"<p style=\"color: green; font-size: 50px; font-weight: bold;\">Correct</p>","response":null,"trial_index":116,"plugin_version":"2.1.0","time_elapsed":256564,"subject_id":"90851","group":"Group2","condition":"1_Rep","full_date":"2026-02-23T18:55:24.036Z","date":"2026-02-23","time":"18:55:24"},{"correct_response":"a","task":"test_phase","broad_category":"M","image_png":"M_Marble_16.png","image_id":240,"category_name":"Marble","category":15,"distinct_rating":2.57,"distinct_type":"Bottom","item_type":"Foil","rt":1047,"stimulus":"Stimuli_Rocks480/M_Marble_16.png","response":"l","trial_type":"image-keyboard-response","trial_index":117,"plugin_version":"2.1.0","time_elapsed":257612,"subject_id":"90851","group":"Group2","condition":"1_Rep","full_date":"2026-02-23T18:55:24.036Z","date":"2026-02-23","time":"18:55:24","cor_ans":false},{"trial_type":"html-keyboard-response","rt":null,"stimulus":"<p style=\"color: red; font-size: 50px; font-weight: bold;\">Incorrect</p>","response":null,"trial_index":118,"plugin_version":"2.1.0","time_elapsed":258114,"subject_id":"90851","group":"Group2","condition":"1_Rep","full_date":"2026-02-23T18:55:24.036Z","date":"2026-02-23","time":"18:55:24"},{"correct_response":"l","task":"test_phase","broad_category":"S","image_png":"S_Shale_07.png","image_id":471,"category_name":"Shale","category":30,"distinct_rating":2.73,"distinct_type":"Bottom","item_type":"Target","rt":1568,"stimulus":"Stimuli_Rocks480/S_Shale_07.png","response":"l","trial_type":"image-keyboard-response","trial_index":119,"plugin_version":"2.1.0","time_elapsed":259684,"subject_id":"90851","group":"Group2","condition":"1_Rep","full_date":"2026-02-23T18:55:24.036Z","date":"2026-02-23","time":"18:55:24","cor_ans":true},{"trial_type":"html-keyboard-response","rt":null,"stimulus":"<p style=\"color: green; font-size: 50px; font-weight: bold;\">Correct</p>","response":null,"trial_index":120,"plugin_version":"2.1.0","time_elapsed":260185,"subject_id":"90851","group":"Group2","condition":"1_Rep","full_date":"2026-02-23T18:55:24.036Z","date":"2026-02-23","time":"18:55:24"},{"correct_response":"l","task":"test_phase","broad_category":"M","image_png":"M_Marble_14.png","image_id":238,"category_name":"Marble","category":15,"distinct_rating":3.31,"distinct_type":"Bottom","item_type":"Target","rt":913,"stimulus":"Stimuli_Rocks480/M_Marble_14.png","response":"l","trial_type":"image-keyboard-response","trial_index":121,"plugin_version":"2.1.0","time_elapsed":261100,"subject_id":"90851","group":"Group2","condition":"1_Rep","full_date":"2026-02-23T18:55:24.036Z","date":"2026-02-23","time":"18:55:24","cor_ans":true},{"trial_type":"html-keyboard-response","rt":null,"stimulus":"<p style=\"color: green; font-size: 50px; font-weight: bold;\">Correct</p>","response":null,"trial_index":122,"plugin_version":"2.1.0","time_elapsed":261601,"subject_id":"90851","group":"Group2","condition":"1_Rep","full_date":"2026-02-23T18:55:24.036Z","date":"2026-02-23","time":"18:55:24"},{"correct_response":"l","task":"test_phase","broad_category":"I","image_png":"I_Andesite_03.png","image_id":3,"category_name":"Andesite","category":1,"distinct_rating":3.17,"distinct_type":"Bottom","item_type":"Target","rt":1339,"stimulus":"Stimuli_Rocks480/I_Andesite_03.png","response":"a","trial_type":"image-keyboard-response","trial_index":123,"plugin_version":"2.1.0","time_elapsed":262942,"subject_id":"90851","group":"Group2","condition":"1_Rep","full_date":"2026-02-23T18:55:24.036Z","date":"2026-02-23","time":"18:55:24","cor_ans":false},{"trial_type":"html-keyboard-response","rt":null,"stimulus":"<p style=\"color: red; font-size: 50px; font-weight: bold;\">Incorrect</p>","response":null,"trial_index":124,"plugin_version":"2.1.0","time_elapsed":263450,"subject_id":"90851","group":"Group2","condition":"1_Rep","full_date":"2026-02-23T18:55:24.036Z","date":"2026-02-23","time":"18:55:24"},{"correct_response":"a","task":"test_phase","broad_category":"S","image_png":"S_Rock Salt_01.png","image_id":433,"category_name":"Rock Salt","category":28,"distinct_rating":7.18,"distinct_type":"Top","item_type":"Foil","rt":869,"stimulus":"Stimuli_Rocks480/S_Rock Salt_01.png","response":"a","trial_type":"image-keyboard-response","trial_index":125,"plugin_version":"2.1.0","time_elapsed":264320,"subject_id":"90851","group":"Group2","condition":"1_Rep","full_date":"2026-02-23T18:55:24.036Z","date":"2026-02-23","time":"18:55:24","cor_ans":true},{"trial_type":"html-keyboard-response","rt":null,"stimulus":"<p style=\"color: green; font-size: 50px; font-weight: bold;\">Correct</p>","response":null,"trial_index":126,"plugin_version":"2.1.0","time_elapsed":264831,"subject_id":"90851","group":"Group2","condition":"1_Rep","full_date":"2026-02-23T18:55:24.036Z","date":"2026-02-23","time":"18:55:24"},{"correct_response":"a","task":"test_phase","broad_category":"I","image_png":"I_Diorite_05.png","image_id":37,"category_name":"Diorite","category":3,"distinct_rating":3.08,"distinct_type":"Bottom","item_type":"Foil","rt":1327,"stimulus":"Stimuli_Rocks480/I_Diorite_05.png","response":"l","trial_type":"image-keyboard-response","trial_index":127,"plugin_version":"2.1.0","time_elapsed":266159,"subject_id":"90851","group":"Group2","condition":"1_Rep","full_date":"2026-02-23T18:55:24.036Z","date":"2026-02-23","time":"18:55:24","cor_ans":false},{"trial_type":"html-keyboard-response","rt":null,"stimulus":"<p style=\"color: red; font-size: 50px; font-weight: bold;\">Incorrect</p>","response":null,"trial_index":128,"plugin_version":"2.1.0","time_elapsed":266672,"subject_id":"90851","group":"Group2","condition":"1_Rep","full_date":"2026-02-23T18:55:24.036Z","date":"2026-02-23","time":"18:55:24"},{"correct_response":"a","task":"test_phase","broad_category":"S","image_png":"S_Sandstone_03.png","image_id":451,"category_name":"Sandstone","category":29,"distinct_rating":1.86,"distinct_type":"Bottom","item_type":"Foil","rt":895,"stimulus":"Stimuli_Rocks480/S_Sandstone_03.png","response":"l","trial_type":"image-keyboard-response","trial_index":129,"plugin_version":"2.1.0","time_elapsed":267569,"subject_id":"90851","group":"Group2","condition":"1_Rep","full_date":"2026-02-23T18:55:24.036Z","date":"2026-02-23","time":"18:55:24","cor_ans":false},{"trial_type":"html-keyboard-response","rt":null,"stimulus":"<p style=\"color: red; font-size: 50px; font-weight: bold;\">Incorrect</p>","response":null,"trial_index":130,"plugin_version":"2.1.0","time_elapsed":268072,"subject_id":"90851","group":"Group2","condition":"1_Rep","full_date":"2026-02-23T18:55:24.036Z","date":"2026-02-23","time":"18:55:24"},{"correct_response":"a","task":"test_phase","broad_category":"I","image_png":"I_Pumice_11.png","image_id":139,"category_name":"Pumice","category":9,"distinct_rating":1.74,"distinct_type":"Bottom","item_type":"Foil","rt":1762,"stimulus":"Stimuli_Rocks480/I_Pumice_11.png","response":"a","trial_type":"image-keyboard-response","trial_index":131,"plugin_version":"2.1.0","time_elapsed":269835,"subject_id":"90851","group":"Group2","condition":"1_Rep","full_date":"2026-02-23T18:55:24.036Z","date":"2026-02-23","time":"18:55:24","cor_ans":true},{"trial_type":"html-keyboard-response","rt":null,"stimulus":"<p style=\"color: green; font-size: 50px; font-weight: bold;\">Correct</p>","response":null,"trial_index":132,"plugin_version":"2.1.0","time_elapsed":270352,"subject_id":"90851","group":"Group2","condition":"1_Rep","full_date":"2026-02-23T18:55:24.036Z","date":"2026-02-23","time":"18:55:24"},{"correct_response":"l","task":"test_phase","broad_category":"I","image_png":"I_Gabbro_02.png","image_id":50,"category_name":"Gabbro","category":4,"distinct_rating":2.73,"distinct_type":"Bottom","item_type":"Target","rt":2087,"stimulus":"Stimuli_Rocks480/I_Gabbro_02.png","response":"a","trial_type":"image-keyboard-response","trial_index":133,"plugin_version":"2.1.0","time_elapsed":272439,"subject_id":"90851","group":"Group2","condition":"1_Rep","full_date":"2026-02-23T18:55:24.036Z","date":"2026-02-23","time":"18:55:24","cor_ans":false},{"trial_type":"html-keyboard-response","rt":null,"stimulus":"<p style=\"color: red; font-size: 50px; font-weight: bold;\">Incorrect</p>","response":null,"trial_index":134,"plugin_version":"2.1.0","time_elapsed":272943,"subject_id":"90851","group":"Group2","condition":"1_Rep","full_date":"2026-02-23T18:55:24.036Z","date":"2026-02-23","time":"18:55:24"},{"correct_response":"a","task":"test_phase","broad_category":"S","image_png":"S_Shale_08.png","image_id":472,"category_name":"Shale","category":30,"distinct_rating":2.55,"distinct_type":"Bottom","item_type":"Foil","rt":1075,"stimulus":"Stimuli_Rocks480/S_Shale_08.png","response":"a","trial_type":"image-keyboard-response","trial_index":135,"plugin_version":"2.1.0","time_elapsed":274019,"subject_id":"90851","group":"Group2","condition":"1_Rep","full_date":"2026-02-23T18:55:24.036Z","date":"2026-02-23","time":"18:55:24","cor_ans":true},{"trial_type":"html-keyboard-response","rt":null,"stimulus":"<p style=\"color: green; font-size: 50px; font-weight: bold;\">Correct</p>","response":null,"trial_index":136,"plugin_version":"2.1.0","time_elapsed":274526,"subject_id":"90851","group":"Group2","condition":"1_Rep","full_date":"2026-02-23T18:55:24.036Z","date":"2026-02-23","time":"18:55:24"},{"correct_response":"l","task":"test_phase","broad_category":"S","image_png":"S_Sandstone_08.png","image_id":456,"category_name":"Sandstone","category":29,"distinct_rating":1.5,"distinct_type":"Bottom","item_type":"Target","rt":1105,"stimulus":"Stimuli_Rocks480/S_Sandstone_08.png","response":"l","trial_type":"image-keyboard-response","trial_index":137,"plugin_version":"2.1.0","time_elapsed":275632,"subject_id":"90851","group":"Group2","condition":"1_Rep","full_date":"2026-02-23T18:55:24.036Z","date":"2026-02-23","time":"18:55:24","cor_ans":true},{"trial_type":"html-keyboard-response","rt":null,"stimulus":"<p style=\"color: green; font-size: 50px; font-weight: bold;\">Correct</p>","response":null,"trial_index":138,"plugin_version":"2.1.0","time_elapsed":276142,"subject_id":"90851","group":"Group2","condition":"1_Rep","full_date":"2026-02-23T18:55:24.036Z","date":"2026-02-23","time":"18:55:24"},{"correct_response":"l","task":"test_phase","broad_category":"I","image_png":"I_Pegmatite_03.png","image_id":99,"category_name":"Pegmatite","category":7,"distinct_rating":7.24,"distinct_type":"Top","item_type":"Target","rt":868,"stimulus":"Stimuli_Rocks480/I_Pegmatite_03.png","response":"a","trial_type":"image-keyboard-response","trial_index":139,"plugin_version":"2.1.0","time_elapsed":277012,"subject_id":"90851","group":"Group2","condition":"1_Rep","full_date":"2026-02-23T18:55:24.036Z","date":"2026-02-23","time":"18:55:24","cor_ans":false},{"trial_type":"html-keyboard-response","rt":null,"stimulus":"<p style=\"color: red; font-size: 50px; font-weight: bold;\">Incorrect</p>","response":null,"trial_index":140,"plugin_version":"2.1.0","time_elapsed":277526,"subject_id":"90851","group":"Group2","condition":"1_Rep","full_date":"2026-02-23T18:55:24.036Z","date":"2026-02-23","time":"18:55:24"},{"correct_response":"a","task":"test_phase","broad_category":"I","image_png":"I_Andesite_06.png","image_id":6,"category_name":"Andesite","category":1,"distinct_rating":3.17,"distinct_type":"Bottom","item_type":"Foil","rt":1895,"stimulus":"Stimuli_Rocks480/I_Andesite_06.png","response":"a","trial_type":"image-keyboard-response","trial_index":141,"plugin_version":"2.1.0","time_elapsed":279423,"subject_id":"90851","group":"Group2","condition":"1_Rep","full_date":"2026-02-23T18:55:24.036Z","date":"2026-02-23","time":"18:55:24","cor_ans":true},{"trial_type":"html-keyboard-response","rt":null,"stimulus":"<p style=\"color: green; font-size: 50px; font-weight: bold;\">Correct</p>","response":null,"trial_index":142,"plugin_version":"2.1.0","time_elapsed":279927,"subject_id":"90851","group":"Group2","condition":"1_Rep","full_date":"2026-02-23T18:55:24.036Z","date":"2026-02-23","time":"18:55:24"},{"correct_response":"a","task":"test_phase","broad_category":"I","image_png":"I_Rhyolite_16.png","image_id":160,"category_name":"Rhyolite","category":10,"distinct_rating":2.19,"distinct_type":"Bottom","item_type":"Foil","rt":1214,"stimulus":"Stimuli_Rocks480/I_Rhyolite_16.png","response":"l","trial_type":"image-keyboard-response","trial_index":143,"plugin_version":"2.1.0","time_elapsed":281142,"subject_id":"90851","group":"Group2","condition":"1_Rep","full_date":"2026-02-23T18:55:24.036Z","date":"2026-02-23","time":"18:55:24","cor_ans":false},{"trial_type":"html-keyboard-response","rt":null,"stimulus":"<p style=\"color: red; font-size: 50px; font-weight: bold;\">Incorrect</p>","response":null,"trial_index":144,"plugin_version":"2.1.0","time_elapsed":281647,"subject_id":"90851","group":"Group2","condition":"1_Rep","full_date":"2026-02-23T18:55:24.036Z","date":"2026-02-23","time":"18:55:24"},{"correct_response":"l","task":"test_phase","broad_category":"I","image_png":"I_Rhyolite_10.png","image_id":154,"category_name":"Rhyolite","category":10,"distinct_rating":2.88,"distinct_type":"Bottom","item_type":"Target","rt":1051,"stimulus":"Stimuli_Rocks480/I_Rhyolite_10.png","response":"a","trial_type":"image-keyboard-response","trial_index":145,"plugin_version":"2.1.0","time_elapsed":282698,"subject_id":"90851","group":"Group2","condition":"1_Rep","full_date":"2026-02-23T18:55:24.036Z","date":"2026-02-23","time":"18:55:24","cor_ans":false},{"trial_type":"html-keyboard-response","rt":null,"stimulus":"<p style=\"color: red; font-size: 50px; font-weight: bold;\">Incorrect</p>","response":null,"trial_index":146,"plugin_version":"2.1.0","time_elapsed":283212,"subject_id":"90851","group":"Group2","condition":"1_Rep","full_date":"2026-02-23T18:55:24.036Z","date":"2026-02-23","time":"18:55:24"},{"correct_response":"l","task":"test_phase","broad_category":"M","image_png":"M_Quartzite_07.png","image_id":279,"category_name":"Quartzite","category":18,"distinct_rating":1.97,"distinct_type":"Bottom","item_type":"Target","rt":705,"stimulus":"Stimuli_Rocks480/M_Quartzite_07.png","response":"l","trial_type":"image-keyboard-response","trial_index":147,"plugin_version":"2.1.0","time_elapsed":283918,"subject_id":"90851","group":"Group2","condition":"1_Rep","full_date":"2026-02-23T18:55:24.036Z","date":"2026-02-23","time":"18:55:24","cor_ans":true},{"trial_type":"html-keyboard-response","rt":null,"stimulus":"<p style=\"color: green; font-size: 50px; font-weight: bold;\">Correct</p>","response":null,"trial_index":148,"plugin_version":"2.1.0","time_elapsed":284432,"subject_id":"90851","group":"Group2","condition":"1_Rep","full_date":"2026-02-23T18:55:24.036Z","date":"2026-02-23","time":"18:55:24"},{"correct_response":"a","task":"test_phase","broad_category":"M","image_png":"M_Marble_04.png","image_id":228,"category_name":"Marble","category":15,"distinct_rating":3.15,"distinct_type":"Bottom","item_type":"Foil","rt":723,"stimulus":"Stimuli_Rocks480/M_Marble_04.png","response":"l","trial_type":"image-keyboard-response","trial_index":149,"plugin_version":"2.1.0","time_elapsed":285156,"subject_id":"90851","group":"Group2","condition":"1_Rep","full_date":"2026-02-23T18:55:24.036Z","date":"2026-02-23","time":"18:55:24","cor_ans":false},{"trial_type":"html-keyboard-response","rt":null,"stimulus":"<p style=\"color: red; font-size: 50px; font-weight: bold;\">Incorrect</p>","response":null,"trial_index":150,"plugin_version":"2.1.0","time_elapsed":285665,"subject_id":"90851","group":"Group2","condition":"1_Rep","full_date":"2026-02-23T18:55:24.036Z","date":"2026-02-23","time":"18:55:24"},{"correct_response":"a","task":"test_phase","broad_category":"S","image_png":"S_Sandstone_16.png","image_id":464,"category_name":"Sandstone","category":29,"distinct_rating":1.93,"distinct_type":"Bottom","item_type":"Foil","rt":1099,"stimulus":"Stimuli_Rocks480/S_Sandstone_16.png","response":"l","trial_type":"image-keyboard-response","trial_index":151,"plugin_version":"2.1.0","time_elapsed":286766,"subject_id":"90851","group":"Group2","condition":"1_Rep","full_date":"2026-02-23T18:55:24.036Z","date":"2026-02-23","time":"18:55:24","cor_ans":false},{"trial_type":"html-keyboard-response","rt":null,"stimulus":"<p style=\"color: red; font-size: 50px; font-weight: bold;\">Incorrect</p>","response":null,"trial_index":152,"plugin_version":"2.1.0","time_elapsed":287283,"subject_id":"90851","group":"Group2","condition":"1_Rep","full_date":"2026-02-23T18:55:24.036Z","date":"2026-02-23","time":"18:55:24"},{"correct_response":"l","task":"test_phase","broad_category":"I","image_png":"I_Gabbro_14.png","image_id":62,"category_name":"Gabbro","category":4,"distinct_rating":2.95,"distinct_type":"Bottom","item_type":"Target","rt":664,"stimulus":"Stimuli_Rocks480/I_Gabbro_14.png","response":"a","trial_type":"image-keyboard-response","trial_index":153,"plugin_version":"2.1.0","time_elapsed":287949,"subject_id":"90851","group":"Group2","condition":"1_Rep","full_date":"2026-02-23T18:55:24.036Z","date":"2026-02-23","time":"18:55:24","cor_ans":false},{"trial_type":"html-keyboard-response","rt":null,"stimulus":"<p style=\"color: red; font-size: 50px; font-weight: bold;\">Incorrect</p>","response":null,"trial_index":154,"plugin_version":"2.1.0","time_elapsed":288451,"subject_id":"90851","group":"Group2","condition":"1_Rep","full_date":"2026-02-23T18:55:24.036Z","date":"2026-02-23","time":"18:55:24"},{"correct_response":"a","task":"test_phase","broad_category":"M","image_png":"M_Quartzite_13.png","image_id":285,"category_name":"Quartzite","category":18,"distinct_rating":2.27,"distinct_type":"Bottom","item_type":"Foil","rt":1139,"stimulus":"Stimuli_Rocks480/M_Quartzite_13.png","response":"l","trial_type":"image-keyboard-response","trial_index":155,"plugin_version":"2.1.0","time_elapsed":289590,"subject_id":"90851","group":"Group2","condition":"1_Rep","full_date":"2026-02-23T18:55:24.036Z","date":"2026-02-23","time":"18:55:24","cor_ans":false},{"trial_type":"html-keyboard-response","rt":null,"stimulus":"<p style=\"color: red; font-size: 50px; font-weight: bold;\">Incorrect</p>","response":null,"trial_index":156,"plugin_version":"2.1.0","time_elapsed":290102,"subject_id":"90851","group":"Group2","condition":"1_Rep","full_date":"2026-02-23T18:55:24.036Z","date":"2026-02-23","time":"18:55:24"},{"correct_response":"l","task":"test_phase","broad_category":"M","image_png":"M_Marble_03.png","image_id":227,"category_name":"Marble","category":15,"distinct_rating":2.67,"distinct_type":"Bottom","item_type":"Target","rt":761,"stimulus":"Stimuli_Rocks480/M_Marble_03.png","response":"l","trial_type":"image-keyboard-response","trial_index":157,"plugin_version":"2.1.0","time_elapsed":290864,"subject_id":"90851","group":"Group2","condition":"1_Rep","full_date":"2026-02-23T18:55:24.036Z","date":"2026-02-23","time":"18:55:24","cor_ans":true},{"trial_type":"html-keyboard-response","rt":null,"stimulus":"<p style=\"color: green; font-size: 50px; font-weight: bold;\">Correct</p>","response":null,"trial_index":158,"plugin_version":"2.1.0","time_elapsed":291369,"subject_id":"90851","group":"Group2","condition":"1_Rep","full_date":"2026-02-23T18:55:24.036Z","date":"2026-02-23","time":"18:55:24"},{"correct_response":"a","task":"test_phase","broad_category":"M","image_png":"M_Slate_11.png","image_id":315,"category_name":"Slate","category":20,"distinct_rating":2.75,"distinct_type":"Bottom","item_type":"Foil","rt":1475,"stimulus":"Stimuli_Rocks480/M_Slate_11.png","response":"l","trial_type":"image-keyboard-response","trial_index":159,"plugin_version":"2.1.0","time_elapsed":292845,"subject_id":"90851","group":"Group2","condition":"1_Rep","full_date":"2026-02-23T18:55:24.036Z","date":"2026-02-23","time":"18:55:24","cor_ans":false},{"trial_type":"html-keyboard-response","rt":null,"stimulus":"<p style=\"color: red; font-size: 50px; font-weight: bold;\">Incorrect</p>","response":null,"trial_index":160,"plugin_version":"2.1.0","time_elapsed":293354,"subject_id":"90851","group":"Group2","condition":"1_Rep","full_date":"2026-02-23T18:55:24.036Z","date":"2026-02-23","time":"18:55:24"},{"correct_response":"l","task":"test_phase","broad_category":"M","image_png":"M_Phyllite_05.png","image_id":261,"category_name":"Phyllite","category":17,"distinct_rating":2.14,"distinct_type":"Bottom","item_type":"Target","rt":872,"stimulus":"Stimuli_Rocks480/M_Phyllite_05.png","response":"l","trial_type":"image-keyboard-response","trial_index":161,"plugin_version":"2.1.0","time_elapsed":294228,"subject_id":"90851","group":"Group2","condition":"1_Rep","full_date":"2026-02-23T18:55:24.036Z","date":"2026-02-23","time":"18:55:24","cor_ans":true},{"trial_type":"html-keyboard-response","rt":null,"stimulus":"<p style=\"color: green; font-size: 50px; font-weight: bold;\">Correct</p>","response":null,"trial_index":162,"plugin_version":"2.1.0","time_elapsed":294740,"subject_id":"90851","group":"Group2","condition":"1_Rep","full_date":"2026-02-23T18:55:24.036Z","date":"2026-02-23","time":"18:55:24"},{"correct_response":"a","task":"test_phase","broad_category":"M","image_png":"M_Quartzite_08.png","image_id":280,"category_name":"Quartzite","category":18,"distinct_rating":2.15,"distinct_type":"Bottom","item_type":"Foil","rt":871,"stimulus":"Stimuli_Rocks480/M_Quartzite_08.png","response":"l","trial_type":"image-keyboard-response","trial_index":163,"plugin_version":"2.1.0","time_elapsed":295611,"subject_id":"90851","group":"Group2","condition":"1_Rep","full_date":"2026-02-23T18:55:24.036Z","date":"2026-02-23","time":"18:55:24","cor_ans":false},{"trial_type":"html-keyboard-response","rt":null,"stimulus":"<p style=\"color: red; font-size: 50px; font-weight: bold;\">Incorrect</p>","response":null,"trial_index":164,"plugin_version":"2.1.0","time_elapsed":296121,"subject_id":"90851","group":"Group2","condition":"1_Rep","full_date":"2026-02-23T18:55:24.036Z","date":"2026-02-23","time":"18:55:24"},{"correct_response":"a","task":"test_phase","broad_category":"I","image_png":"I_Basalt_01.png","image_id":17,"category_name":"Basalt","category":2,"distinct_rating":1.92,"distinct_type":"Bottom","item_type":"Foil","rt":510,"stimulus":"Stimuli_Rocks480/I_Basalt_01.png","response":"a","trial_type":"image-keyboard-response","trial_index":165,"plugin_version":"2.1.0","time_elapsed":296632,"subject_id":"90851","group":"Group2","condition":"1_Rep","full_date":"2026-02-23T18:55:24.036Z","date":"2026-02-23","time":"18:55:24","cor_ans":true},{"trial_type":"html-keyboard-response","rt":null,"stimulus":"<p style=\"color: green; font-size: 50px; font-weight: bold;\">Correct</p>","response":null,"trial_index":166,"plugin_version":"2.1.0","time_elapsed":297139,"subject_id":"90851","group":"Group2","condition":"1_Rep","full_date":"2026-02-23T18:55:24.036Z","date":"2026-02-23","time":"18:55:24"},{"correct_response":"l","task":"test_phase","broad_category":"M","image_png":"M_Gneiss_14.png","image_id":206,"category_name":"Gneiss","category":13,"distinct_rating":3.41,"distinct_type":"Bottom","item_type":"Target","rt":1438,"stimulus":"Stimuli_Rocks480/M_Gneiss_14.png","response":"l","trial_type":"image-keyboard-response","trial_index":167,"plugin_version":"2.1.0","time_elapsed":298578,"subject_id":"90851","group":"Group2","condition":"1_Rep","full_date":"2026-02-23T18:55:24.036Z","date":"2026-02-23","time":"18:55:24","cor_ans":true},{"trial_type":"html-keyboard-response","rt":null,"stimulus":"<p style=\"color: green; font-size: 50px; font-weight: bold;\">Correct</p>","response":null,"trial_index":168,"plugin_version":"2.1.0","time_elapsed":299092,"subject_id":"90851","group":"Group2","condition":"1_Rep","full_date":"2026-02-23T18:55:24.036Z","date":"2026-02-23","time":"18:55:24"},{"correct_response":"a","task":"test_phase","broad_category":"M","image_png":"M_Marble_06.png","image_id":230,"category_name":"Marble","category":15,"distinct_rating":3.4,"distinct_type":"Bottom","item_type":"Foil","rt":606,"stimulus":"Stimuli_Rocks480/M_Marble_06.png","response":"l","trial_type":"image-keyboard-response","trial_index":169,"plugin_version":"2.1.0","time_elapsed":299699,"subject_id":"90851","group":"Group2","condition":"1_Rep","full_date":"2026-02-23T18:55:24.036Z","date":"2026-02-23","time":"18:55:24","cor_ans":false},{"trial_type":"html-keyboard-response","rt":null,"stimulus":"<p style=\"color: red; font-size: 50px; font-weight: bold;\">Incorrect</p>","response":null,"trial_index":170,"plugin_version":"2.1.0","time_elapsed":300209,"subject_id":"90851","group":"Group2","condition":"1_Rep","full_date":"2026-02-23T18:55:24.036Z","date":"2026-02-23","time":"18:55:24"},{"correct_response":"l","task":"test_phase","broad_category":"M","image_png":"M_Slate_14.png","image_id":318,"category_name":"Slate","category":20,"distinct_rating":2.58,"distinct_type":"Bottom","item_type":"Target","rt":552,"stimulus":"Stimuli_Rocks480/M_Slate_14.png","response":"a","trial_type":"image-keyboard-response","trial_index":171,"plugin_version":"2.1.0","time_elapsed":300762,"subject_id":"90851","group":"Group2","condition":"1_Rep","full_date":"2026-02-23T18:55:24.036Z","date":"2026-02-23","time":"18:55:24","cor_ans":false},{"trial_type":"html-keyboard-response","rt":null,"stimulus":"<p style=\"color: red; font-size: 50px; font-weight: bold;\">Incorrect</p>","response":null,"trial_index":172,"plugin_version":"2.1.0","time_elapsed":301274,"subject_id":"90851","group":"Group2","condition":"1_Rep","full_date":"2026-02-23T18:55:24.036Z","date":"2026-02-23","time":"18:55:24"},{"correct_response":"a","task":"test_phase","broad_category":"I","image_png":"I_Diorite_03.png","image_id":35,"category_name":"Diorite","category":3,"distinct_rating":3.14,"distinct_type":"Bottom","item_type":"Foil","rt":470,"stimulus":"Stimuli_Rocks480/I_Diorite_03.png","response":"l","trial_type":"image-keyboard-response","trial_index":173,"plugin_version":"2.1.0","time_elapsed":301745,"subject_id":"90851","group":"Group2","condition":"1_Rep","full_date":"2026-02-23T18:55:24.036Z","date":"2026-02-23","time":"18:55:24","cor_ans":false},{"trial_type":"html-keyboard-response","rt":null,"stimulus":"<p style=\"color: red; font-size: 50px; font-weight: bold;\">Incorrect</p>","response":null,"trial_index":174,"plugin_version":"2.1.0","time_elapsed":302261,"subject_id":"90851","group":"Group2","condition":"1_Rep","full_date":"2026-02-23T18:55:24.036Z","date":"2026-02-23","time":"18:55:24"},{"correct_response":"l","task":"test_phase","broad_category":"I","image_png":"I_Andesite_04.png","image_id":4,"category_name":"Andesite","category":1,"distinct_rating":3.18,"distinct_type":"Bottom","item_type":"Target","rt":474,"stimulus":"Stimuli_Rocks480/I_Andesite_04.png","response":"a","trial_type":"image-keyboard-response","trial_index":175,"plugin_version":"2.1.0","time_elapsed":302737,"subject_id":"90851","group":"Group2","condition":"1_Rep","full_date":"2026-02-23T18:55:24.036Z","date":"2026-02-23","time":"18:55:24","cor_ans":false},{"trial_type":"html-keyboard-response","rt":null,"stimulus":"<p style=\"color: red; font-size: 50px; font-weight: bold;\">Incorrect</p>","response":null,"trial_index":176,"plugin_version":"2.1.0","time_elapsed":303244,"subject_id":"90851","group":"Group2","condition":"1_Rep","full_date":"2026-02-23T18:55:24.036Z","date":"2026-02-23","time":"18:55:24"},{"correct_response":"l","task":"test_phase","broad_category":"M","image_png":"M_Slate_10.png","image_id":314,"category_name":"Slate","category":20,"distinct_rating":1.94,"distinct_type":"Bottom","item_type":"Target","rt":1727,"stimulus":"Stimuli_Rocks480/M_Slate_10.png","response":"l","trial_type":"image-keyboard-response","trial_index":177,"plugin_version":"2.1.0","time_elapsed":304973,"subject_id":"90851","group":"Group2","condition":"1_Rep","full_date":"2026-02-23T18:55:24.036Z","date":"2026-02-23","time":"18:55:24","cor_ans":true},{"trial_type":"html-keyboard-response","rt":null,"stimulus":"<p style=\"color: green; font-size: 50px; font-weight: bold;\">Correct</p>","response":null,"trial_index":178,"plugin_version":"2.1.0","time_elapsed":305478,"subject_id":"90851","group":"Group2","condition":"1_Rep","full_date":"2026-02-23T18:55:24.036Z","date":"2026-02-23","time":"18:55:24"},{"correct_response":"l","task":"test_phase","broad_category":"M","image_png":"M_Phyllite_13.png","image_id":269,"category_name":"Phyllite","category":17,"distinct_rating":2.8,"distinct_type":"Bottom","item_type":"Target","rt":713,"stimulus":"Stimuli_Rocks480/M_Phyllite_13.png","response":"l","trial_type":"image-keyboard-response","trial_index":179,"plugin_version":"2.1.0","time_elapsed":306192,"subject_id":"90851","group":"Group2","condition":"1_Rep","full_date":"2026-02-23T18:55:24.036Z","date":"2026-02-23","time":"18:55:24","cor_ans":true},{"trial_type":"html-keyboard-response","rt":null,"stimulus":"<p style=\"color: green; font-size: 50px; font-weight: bold;\">Correct</p>","response":null,"trial_index":180,"plugin_version":"2.1.0","time_elapsed":306696,"subject_id":"90851","group":"Group2","condition":"1_Rep","full_date":"2026-02-23T18:55:24.036Z","date":"2026-02-23","time":"18:55:24"},{"correct_response":"l","task":"test_phase","broad_category":"M","image_png":"M_Gneiss_15.png","image_id":207,"category_name":"Gneiss","category":13,"distinct_rating":3.11,"distinct_type":"Bottom","item_type":"Target","rt":603,"stimulus":"Stimuli_Rocks480/M_Gneiss_15.png","response":"l","trial_type":"image-keyboard-response","trial_index":181,"plugin_version":"2.1.0","time_elapsed":307300,"subject_id":"90851","group":"Group2","condition":"1_Rep","full_date":"2026-02-23T18:55:24.036Z","date":"2026-02-23","time":"18:55:24","cor_ans":true},{"trial_type":"html-keyboard-response","rt":null,"stimulus":"<p style=\"color: green; font-size: 50px; font-weight: bold;\">Correct</p>","response":null,"trial_index":182,"plugin_version":"2.1.0","time_elapsed":307814,"subject_id":"90851","group":"Group2","condition":"1_Rep","full_date":"2026-02-23T18:55:24.036Z","date":"2026-02-23","time":"18:55:24"},{"correct_response":"a","task":"test_phase","broad_category":"I","image_png":"I_Obsidian_05.png","image_id":85,"category_name":"Obsidian","category":6,"distinct_rating":7.32,"distinct_type":"Top","item_type":"Foil","rt":1343,"stimulus":"Stimuli_Rocks480/I_Obsidian_05.png","response":"a","trial_type":"image-keyboard-response","trial_index":183,"plugin_version":"2.1.0","time_elapsed":309158,"subject_id":"90851","group":"Group2","condition":"1_Rep","full_date":"2026-02-23T18:55:24.036Z","date":"2026-02-23","time":"18:55:24","cor_ans":true},{"trial_type":"html-keyboard-response","rt":null,"stimulus":"<p style=\"color: green; font-size: 50px; font-weight: bold;\">Correct</p>","response":null,"trial_index":184,"plugin_version":"2.1.0","time_elapsed":309663,"subject_id":"90851","group":"Group2","condition":"1_Rep","full_date":"2026-02-23T18:55:24.036Z","date":"2026-02-23","time":"18:55:24"},{"correct_response":"a","task":"test_phase","broad_category":"M","image_png":"M_Slate_15.png","image_id":319,"category_name":"Slate","category":20,"distinct_rating":2.13,"distinct_type":"Bottom","item_type":"Foil","rt":1015,"stimulus":"Stimuli_Rocks480/M_Slate_15.png","response":"l","trial_type":"image-keyboard-response","trial_index":185,"plugin_version":"2.1.0","time_elapsed":310679,"subject_id":"90851","group":"Group2","condition":"1_Rep","full_date":"2026-02-23T18:55:24.036Z","date":"2026-02-23","time":"18:55:24","cor_ans":false},{"trial_type":"html-keyboard-response","rt":null,"stimulus":"<p style=\"color: red; font-size: 50px; font-weight: bold;\">Incorrect</p>","response":null,"trial_index":186,"plugin_version":"2.1.0","time_elapsed":311191,"subject_id":"90851","group":"Group2","condition":"1_Rep","full_date":"2026-02-23T18:55:24.036Z","date":"2026-02-23","time":"18:55:24"},{"correct_response":"a","task":"test_phase","broad_category":"I","image_png":"I_Gabbro_08.png","image_id":56,"category_name":"Gabbro","category":4,"distinct_rating":3.02,"distinct_type":"Bottom","item_type":"Foil","rt":846,"stimulus":"Stimuli_Rocks480/I_Gabbro_08.png","response":"a","trial_type":"image-keyboard-response","trial_index":187,"plugin_version":"2.1.0","time_elapsed":312038,"subject_id":"90851","group":"Group2","condition":"1_Rep","full_date":"2026-02-23T18:55:24.036Z","date":"2026-02-23","time":"18:55:24","cor_ans":true},{"trial_type":"html-keyboard-response","rt":null,"stimulus":"<p style=\"color: green; font-size: 50px; font-weight: bold;\">Correct</p>","response":null,"trial_index":188,"plugin_version":"2.1.0","time_elapsed":312547,"subject_id":"90851","group":"Group2","condition":"1_Rep","full_date":"2026-02-23T18:55:24.036Z","date":"2026-02-23","time":"18:55:24"},{"correct_response":"a","task":"test_phase","broad_category":"S","image_png":"S_Sandstone_15.png","image_id":463,"category_name":"Sandstone","category":29,"distinct_rating":2,"distinct_type":"Bottom","item_type":"Foil","rt":738,"stimulus":"Stimuli_Rocks480/S_Sandstone_15.png","response":"a","trial_type":"image-keyboard-response","trial_index":189,"plugin_version":"2.1.0","time_elapsed":313287,"subject_id":"90851","group":"Group2","condition":"1_Rep","full_date":"2026-02-23T18:55:24.036Z","date":"2026-02-23","time":"18:55:24","cor_ans":true},{"trial_type":"html-keyboard-response","rt":null,"stimulus":"<p style=\"color: green; font-size: 50px; font-weight: bold;\">Correct</p>","response":null,"trial_index":190,"plugin_version":"2.1.0","time_elapsed":313800,"subject_id":"90851","group":"Group2","condition":"1_Rep","full_date":"2026-02-23T18:55:24.036Z","date":"2026-02-23","time":"18:55:24"},{"correct_response":"l","task":"test_phase","broad_category":"S","image_png":"S_Shale_03.png","image_id":467,"category_name":"Shale","category":30,"distinct_rating":1.95,"distinct_type":"Bottom","item_type":"Target","rt":457,"stimulus":"Stimuli_Rocks480/S_Shale_03.png","response":"l","trial_type":"image-keyboard-response","trial_index":191,"plugin_version":"2.1.0","time_elapsed":314258,"subject_id":"90851","group":"Group2","condition":"1_Rep","full_date":"2026-02-23T18:55:24.036Z","date":"2026-02-23","time":"18:55:24","cor_ans":true},{"trial_type":"html-keyboard-response","rt":null,"stimulus":"<p style=\"color: green; font-size: 50px; font-weight: bold;\">Correct</p>","response":null,"trial_index":192,"plugin_version":"2.1.0","time_elapsed":314767,"subject_id":"90851","group":"Group2","condition":"1_Rep","full_date":"2026-02-23T18:55:24.036Z","date":"2026-02-23","time":"18:55:24"},{"correct_response":"l","task":"test_phase","broad_category":"S","image_png":"S_Rock Salt_15.png","image_id":447,"category_name":"Rock Salt","category":28,"distinct_rating":7.79,"distinct_type":"Top","item_type":"Target","rt":1136,"stimulus":"Stimuli_Rocks480/S_Rock Salt_15.png","response":"a","trial_type":"image-keyboard-response","trial_index":193,"plugin_version":"2.1.0","time_elapsed":315904,"subject_id":"90851","group":"Group2","condition":"1_Rep","full_date":"2026-02-23T18:55:24.036Z","date":"2026-02-23","time":"18:55:24","cor_ans":false},{"trial_type":"html-keyboard-response","rt":null,"stimulus":"<p style=\"color: red; font-size: 50px; font-weight: bold;\">Incorrect</p>","response":null,"trial_index":194,"plugin_version":"2.1.0","time_elapsed":316418,"subject_id":"90851","group":"Group2","condition":"1_Rep","full_date":"2026-02-23T18:55:24.036Z","date":"2026-02-23","time":"18:55:24"},{"correct_response":"l","task":"test_phase","broad_category":"I","image_png":"I_Rhyolite_05.png","image_id":149,"category_name":"Rhyolite","category":10,"distinct_rating":3.02,"distinct_type":"Bottom","item_type":"Target","rt":563,"stimulus":"Stimuli_Rocks480/I_Rhyolite_05.png","response":"l","trial_type":"image-keyboard-response","trial_index":195,"plugin_version":"2.1.0","time_elapsed":316982,"subject_id":"90851","group":"Group2","condition":"1_Rep","full_date":"2026-02-23T18:55:24.036Z","date":"2026-02-23","time":"18:55:24","cor_ans":true},{"trial_type":"html-keyboard-response","rt":null,"stimulus":"<p style=\"color: green; font-size: 50px; font-weight: bold;\">Correct</p>","response":null,"trial_index":196,"plugin_version":"2.1.0","time_elapsed":317486,"subject_id":"90851","group":"Group2","condition":"1_Rep","full_date":"2026-02-23T18:55:24.036Z","date":"2026-02-23","time":"18:55:24"},{"correct_response":"a","task":"test_phase","broad_category":"S","image_png":"S_Dolomite_12.png","image_id":396,"category_name":"Dolomite","category":25,"distinct_rating":1.85,"distinct_type":"Bottom","item_type":"Foil","rt":672,"stimulus":"Stimuli_Rocks480/S_Dolomite_12.png","response":"l","trial_type":"image-keyboard-response","trial_index":197,"plugin_version":"2.1.0","time_elapsed":318159,"subject_id":"90851","group":"Group2","condition":"1_Rep","full_date":"2026-02-23T18:55:24.036Z","date":"2026-02-23","time":"18:55:24","cor_ans":false},{"trial_type":"html-keyboard-response","rt":null,"stimulus":"<p style=\"color: red; font-size: 50px; font-weight: bold;\">Incorrect</p>","response":null,"trial_index":198,"plugin_version":"2.1.0","time_elapsed":318668,"subject_id":"90851","group":"Group2","condition":"1_Rep","full_date":"2026-02-23T18:55:24.036Z","date":"2026-02-23","time":"18:55:24"},{"correct_response":"l","task":"test_phase","broad_category":"I","image_png":"I_Andesite_09.png","image_id":9,"category_name":"Andesite","category":1,"distinct_rating":2.49,"distinct_type":"Bottom","item_type":"Target","rt":427,"stimulus":"Stimuli_Rocks480/I_Andesite_09.png","response":"a","trial_type":"image-keyboard-response","trial_index":199,"plugin_version":"2.1.0","time_elapsed":319096,"subject_id":"90851","group":"Group2","condition":"1_Rep","full_date":"2026-02-23T18:55:24.036Z","date":"2026-02-23","time":"18:55:24","cor_ans":false},{"trial_type":"html-keyboard-response","rt":null,"stimulus":"<p style=\"color: red; font-size: 50px; font-weight: bold;\">Incorrect</p>","response":null,"trial_index":200,"plugin_version":"2.1.0","time_elapsed":319604,"subject_id":"90851","group":"Group2","condition":"1_Rep","full_date":"2026-02-23T18:55:24.036Z","date":"2026-02-23","time":"18:55:24"},{"correct_response":"a","task":"test_phase","broad_category":"I","image_png":"I_Andesite_10.png","image_id":10,"category_name":"Andesite","category":1,"distinct_rating":3.15,"distinct_type":"Bottom","item_type":"Foil","rt":264,"stimulus":"Stimuli_Rocks480/I_Andesite_10.png","response":"l","trial_type":"image-keyboard-response","trial_index":201,"plugin_version":"2.1.0","time_elapsed":319870,"subject_id":"90851","group":"Group2","condition":"1_Rep","full_date":"2026-02-23T18:55:24.036Z","date":"2026-02-23","time":"18:55:24","cor_ans":false},{"trial_type":"html-keyboard-response","rt":null,"stimulus":"<p style=\"color: red; font-size: 50px; font-weight: bold;\">Incorrect</p>","response":null,"trial_index":202,"plugin_version":"2.1.0","time_elapsed":320385,"subject_id":"90851","group":"Group2","condition":"1_Rep","full_date":"2026-02-23T18:55:24.036Z","date":"2026-02-23","time":"18:55:24"},{"correct_response":"a","task":"test_phase","broad_category":"S","image_png":"S_Chert_10.png","image_id":362,"category_name":"Chert","category":23,"distinct_rating":7.17,"distinct_type":"Top","item_type":"Foil","rt":1265,"stimulus":"Stimuli_Rocks480/S_Chert_10.png","response":"a","trial_type":"image-keyboard-response","trial_index":203,"plugin_version":"2.1.0","time_elapsed":321651,"subject_id":"90851","group":"Group2","condition":"1_Rep","full_date":"2026-02-23T18:55:24.036Z","date":"2026-02-23","time":"18:55:24","cor_ans":true},{"trial_type":"html-keyboard-response","rt":null,"stimulus":"<p style=\"color: green; font-size: 50px; font-weight: bold;\">Correct</p>","response":null,"trial_index":204,"plugin_version":"2.1.0","time_elapsed":322156,"subject_id":"90851","group":"Group2","condition":"1_Rep","full_date":"2026-02-23T18:55:24.036Z","date":"2026-02-23","time":"18:55:24"},{"correct_response":"l","task":"test_phase","broad_category":"M","image_png":"M_Marble_02.png","image_id":226,"category_name":"Marble","category":15,"distinct_rating":3.2,"distinct_type":"Bottom","item_type":"Target","rt":924,"stimulus":"Stimuli_Rocks480/M_Marble_02.png","response":"l","trial_type":"image-keyboard-response","trial_index":205,"plugin_version":"2.1.0","time_elapsed":323081,"subject_id":"90851","group":"Group2","condition":"1_Rep","full_date":"2026-02-23T18:55:24.036Z","date":"2026-02-23","time":"18:55:24","cor_ans":true},{"trial_type":"html-keyboard-response","rt":null,"stimulus":"<p style=\"color: green; font-size: 50px; font-weight: bold;\">Correct</p>","response":null,"trial_index":206,"plugin_version":"2.1.0","time_elapsed":323590,"subject_id":"90851","group":"Group2","condition":"1_Rep","full_date":"2026-02-23T18:55:24.036Z","date":"2026-02-23","time":"18:55:24"},{"correct_response":"a","task":"test_phase","broad_category":"S","image_png":"S_Conglomerate_05.png","image_id":373,"category_name":"Conglomerate","category":24,"distinct_rating":7.32,"distinct_type":"Top","item_type":"Foil","rt":794,"stimulus":"Stimuli_Rocks480/S_Conglomerate_05.png","response":"a","trial_type":"image-keyboard-response","trial_index":207,"plugin_version":"2.1.0","time_elapsed":324386,"subject_id":"90851","group":"Group2","condition":"1_Rep","full_date":"2026-02-23T18:55:24.036Z","date":"2026-02-23","time":"18:55:24","cor_ans":true},{"trial_type":"html-keyboard-response","rt":null,"stimulus":"<p style=\"color: green; font-size: 50px; font-weight: bold;\">Correct</p>","response":null,"trial_index":208,"plugin_version":"2.1.0","time_elapsed":324888,"subject_id":"90851","group":"Group2","condition":"1_Rep","full_date":"2026-02-23T18:55:24.036Z","date":"2026-02-23","time":"18:55:24"},{"correct_response":"l","task":"test_phase","broad_category":"M","image_png":"M_Slate_04.png","image_id":308,"category_name":"Slate","category":20,"distinct_rating":2.2,"distinct_type":"Bottom","item_type":"Target","rt":1704,"stimulus":"Stimuli_Rocks480/M_Slate_04.png","response":"l","trial_type":"image-keyboard-response","trial_index":209,"plugin_version":"2.1.0","time_elapsed":326593,"subject_id":"90851","group":"Group2","condition":"1_Rep","full_date":"2026-02-23T18:55:24.036Z","date":"2026-02-23","time":"18:55:24","cor_ans":true},{"trial_type":"html-keyboard-response","rt":null,"stimulus":"<p style=\"color: green; font-size: 50px; font-weight: bold;\">Correct</p>","response":null,"trial_index":210,"plugin_version":"2.1.0","time_elapsed":327108,"subject_id":"90851","group":"Group2","condition":"1_Rep","full_date":"2026-02-23T18:55:24.036Z","date":"2026-02-23","time":"18:55:24"},{"correct_response":"a","task":"test_phase","broad_category":"S","image_png":"S_Dolomite_13.png","image_id":397,"category_name":"Dolomite","category":25,"distinct_rating":1.77,"distinct_type":"Bottom","item_type":"Foil","rt":704,"stimulus":"Stimuli_Rocks480/S_Dolomite_13.png","response":"l","trial_type":"image-keyboard-response","trial_index":211,"plugin_version":"2.1.0","time_elapsed":327813,"subject_id":"90851","group":"Group2","condition":"1_Rep","full_date":"2026-02-23T18:55:24.036Z","date":"2026-02-23","time":"18:55:24","cor_ans":false},{"trial_type":"html-keyboard-response","rt":null,"stimulus":"<p style=\"color: red; font-size: 50px; font-weight: bold;\">Incorrect</p>","response":null,"trial_index":212,"plugin_version":"2.1.0","time_elapsed":328326,"subject_id":"90851","group":"Group2","condition":"1_Rep","full_date":"2026-02-23T18:55:24.036Z","date":"2026-02-23","time":"18:55:24"},{"correct_response":"a","task":"test_phase","broad_category":"I","image_png":"I_Basalt_02.png","image_id":18,"category_name":"Basalt","category":2,"distinct_rating":1.84,"distinct_type":"Bottom","item_type":"Foil","rt":611,"stimulus":"Stimuli_Rocks480/I_Basalt_02.png","response":"a","trial_type":"image-keyboard-response","trial_index":213,"plugin_version":"2.1.0","time_elapsed":328939,"subject_id":"90851","group":"Group2","condition":"1_Rep","full_date":"2026-02-23T18:55:24.036Z","date":"2026-02-23","time":"18:55:24","cor_ans":true},{"trial_type":"html-keyboard-response","rt":null,"stimulus":"<p style=\"color: green; font-size: 50px; font-weight: bold;\">Correct</p>","response":null,"trial_index":214,"plugin_version":"2.1.0","time_elapsed":329444,"subject_id":"90851","group":"Group2","condition":"1_Rep","full_date":"2026-02-23T18:55:24.036Z","date":"2026-02-23","time":"18:55:24"},{"correct_response":"l","task":"test_phase","broad_category":"S","image_png":"S_Dolomite_07.png","image_id":391,"category_name":"Dolomite","category":25,"distinct_rating":1.73,"distinct_type":"Bottom","item_type":"Target","rt":628,"stimulus":"Stimuli_Rocks480/S_Dolomite_07.png","response":"a","trial_type":"image-keyboard-response","trial_index":215,"plugin_version":"2.1.0","time_elapsed":330073,"subject_id":"90851","group":"Group2","condition":"1_Rep","full_date":"2026-02-23T18:55:24.036Z","date":"2026-02-23","time":"18:55:24","cor_ans":false},{"trial_type":"html-keyboard-response","rt":null,"stimulus":"<p style=\"color: red; font-size: 50px; font-weight: bold;\">Incorrect</p>","response":null,"trial_index":216,"plugin_version":"2.1.0","time_elapsed":330577,"subject_id":"90851","group":"Group2","condition":"1_Rep","full_date":"2026-02-23T18:55:24.036Z","date":"2026-02-23","time":"18:55:24"},{"correct_response":"l","task":"test_phase","broad_category":"I","image_png":"I_Pumice_01.png","image_id":129,"category_name":"Pumice","category":9,"distinct_rating":3.25,"distinct_type":"Bottom","item_type":"Target","rt":377,"stimulus":"Stimuli_Rocks480/I_Pumice_01.png","response":"l","trial_type":"image-keyboard-response","trial_index":217,"plugin_version":"2.1.0","time_elapsed":330955,"subject_id":"90851","group":"Group2","condition":"1_Rep","full_date":"2026-02-23T18:55:24.036Z","date":"2026-02-23","time":"18:55:24","cor_ans":true},{"trial_type":"html-keyboard-response","rt":null,"stimulus":"<p style=\"color: green; font-size: 50px; font-weight: bold;\">Correct</p>","response":null,"trial_index":218,"plugin_version":"2.1.0","time_elapsed":331459,"subject_id":"90851","group":"Group2","condition":"1_Rep","full_date":"2026-02-23T18:55:24.036Z","date":"2026-02-23","time":"18:55:24"},{"correct_response":"l","task":"test_phase","broad_category":"S","image_png":"S_Shale_02.png","image_id":466,"category_name":"Shale","category":30,"distinct_rating":2.9,"distinct_type":"Bottom","item_type":"Target","rt":417,"stimulus":"Stimuli_Rocks480/S_Shale_02.png","response":"l","trial_type":"image-keyboard-response","trial_index":219,"plugin_version":"2.1.0","time_elapsed":331877,"subject_id":"90851","group":"Group2","condition":"1_Rep","full_date":"2026-02-23T18:55:24.036Z","date":"2026-02-23","time":"18:55:24","cor_ans":true},{"trial_type":"html-keyboard-response","rt":null,"stimulus":"<p style=\"color: green; font-size: 50px; font-weight: bold;\">Correct</p>","response":null,"trial_index":220,"plugin_version":"2.1.0","time_elapsed":332378,"subject_id":"90851","group":"Group2","condition":"1_Rep","full_date":"2026-02-23T18:55:24.036Z","date":"2026-02-23","time":"18:55:24"},{"correct_response":"l","task":"test_phase","broad_category":"I","image_png":"I_Peridotite_13.png","image_id":125,"category_name":"Peridotite","category":8,"distinct_rating":7.28,"distinct_type":"Top","item_type":"Target","rt":512,"stimulus":"Stimuli_Rocks480/I_Peridotite_13.png","response":"l","trial_type":"image-keyboard-response","trial_index":221,"plugin_version":"2.1.0","time_elapsed":332891,"subject_id":"90851","group":"Group2","condition":"1_Rep","full_date":"2026-02-23T18:55:24.036Z","date":"2026-02-23","time":"18:55:24","cor_ans":true},{"trial_type":"html-keyboard-response","rt":null,"stimulus":"<p style=\"color: green; font-size: 50px; font-weight: bold;\">Correct</p>","response":null,"trial_index":222,"plugin_version":"2.1.0","time_elapsed":333396,"subject_id":"90851","group":"Group2","condition":"1_Rep","full_date":"2026-02-23T18:55:24.036Z","date":"2026-02-23","time":"18:55:24"},{"correct_response":"a","task":"test_phase","broad_category":"I","image_png":"I_Gabbro_16.png","image_id":64,"category_name":"Gabbro","category":4,"distinct_rating":2.52,"distinct_type":"Bottom","item_type":"Foil","rt":451,"stimulus":"Stimuli_Rocks480/I_Gabbro_16.png","response":"l","trial_type":"image-keyboard-response","trial_index":223,"plugin_version":"2.1.0","time_elapsed":333848,"subject_id":"90851","group":"Group2","condition":"1_Rep","full_date":"2026-02-23T18:55:24.036Z","date":"2026-02-23","time":"18:55:24","cor_ans":false},{"trial_type":"html-keyboard-response","rt":null,"stimulus":"<p style=\"color: red; font-size: 50px; font-weight: bold;\">Incorrect</p>","response":null,"trial_index":224,"plugin_version":"2.1.0","time_elapsed":334362,"subject_id":"90851","group":"Group2","condition":"1_Rep","full_date":"2026-02-23T18:55:24.036Z","date":"2026-02-23","time":"18:55:24"},{"correct_response":"a","task":"test_phase","broad_category":"I","