[{"width":1470,"height":833,"webaudio":true,"browser":"safari","browser_version":"26.1.0","mobile":false,"os":"Mac OS","fullscreen":true,"vsync_rate":59.52,"webcam":true,"microphone":true,"trial_type":"browser-check","trial_index":0,"plugin_version":"2.1.0","time_elapsed":1017,"subject_id":"90861","group":"Group1","condition":"1_Rep","full_date":"2026-01-24T19:51:52.448Z","date":"2026-01-24","time":"19:51:52"},{"success":true,"timeout":false,"failed_images":[],"failed_audio":[],"failed_video":[],"trial_type":"preload","trial_index":1,"plugin_version":"2.1.0","time_elapsed":25369,"subject_id":"90861","group":"Group1","condition":"1_Rep","full_date":"2026-01-24T19:51:52.448Z","date":"2026-01-24","time":"19:51:52"},{"rt":18903,"url":"SONA_consent_memorability.html","trial_type":"external-html","trial_index":2,"plugin_version":"2.1.0","time_elapsed":44335,"subject_id":"90861","group":"Group1","condition":"1_Rep","full_date":"2026-01-24T19:51:52.448Z","date":"2026-01-24","time":"19:51:52"},{"success":true,"rt":1381,"trial_type":"fullscreen","trial_index":3,"plugin_version":"2.1.0","time_elapsed":46720,"subject_id":"90861","group":"Group1","condition":"1_Rep","full_date":"2026-01-24T19:51:52.448Z","date":"2026-01-24","time":"19:51:52"},{"rt":12444,"stimulus":"<div style=\"max-width: 760px; margin: auto; font-size: 20px; line-height: 1.5;\">\n      <h1 style=\"text-align:center; font-size: 30px;\">Instructions</h1>\n      <p>\n        Welcome to the study on <b>visual memory</b>. This experiment consists of <b>two phases</b>: \n        a <b>study phase</b> and a <b>test phase</b>.\n      </p>\n      <p>\n        In the study phase, you will see a series of rock images along with their category labels.\n        The images will appear one at a time.\n        <b>Your task</b> is to learn the categories to which the rock images belong \n        and to remember each image as accurately as possible.\n      </p> \n      <p>\n        Note that you will see each image only <b>once</b> during the study phase. \n          So, please pay close attention and try to remember each image carefully.\n      </p>\n      <p>\n        After the study phase, <b>your memory will be tested</b>. \n        Additional instructions for the test phase will be provided at that time.\n      </p>\n      <p>\n        If your computer has multiple <b>language settings</b> (e.g., English and another language),\n        please make sure it is set to English before starting.\n      </p>\n      <p>\n        You can track your progress using the <b>completion bar</b> at the top of the screen. \n        Please note that the bar will refresh when the test phase begins \n        to give you an accurate sense of your progress in both phases.\n      </p> \n      <p>\n        Press the button below when you are ready to begin.\n      </p>\n    </div>","response":0,"trial_type":"html-button-response","trial_index":4,"plugin_version":"2.1.0","time_elapsed":59166,"subject_id":"90861","group":"Group1","condition":"1_Rep","full_date":"2026-01-24T19:51:52.448Z","date":"2026-01-24","time":"19:51:52"},{"rt":null,"stimulus":"<p style=\"font-size: 50px; margin: 0; text-align: center;\">+</p>","response":null,"trial_type":"html-keyboard-response","trial_index":5,"plugin_version":"2.1.0","time_elapsed":60169,"subject_id":"90861","group":"Group1","condition":"1_Rep","full_date":"2026-01-24T19:51:52.448Z","date":"2026-01-24","time":"19:51:52"},{"task":"memory_phase","broad_category":"S","image_png":"S_Dolomite_12.png","image_id":396,"category_name":"Dolomite","category":25,"distinct_rating":1.85,"distinct_type":"Bottom","rt":null,"stimulus":"Stimuli_Rocks480/S_Dolomite_12.png","response":null,"trial_type":"image-keyboard-response","trial_index":6,"plugin_version":"2.1.0","time_elapsed":62685,"subject_id":"90861","group":"Group1","condition":"1_Rep","full_date":"2026-01-24T19:51:52.448Z","date":"2026-01-24","time":"19:51:52"},{"rt":null,"stimulus":"<p style=\"font-size: 50px; margin: 0; text-align: center;\">+</p>","response":null,"trial_type":"html-keyboard-response","trial_index":7,"plugin_version":"2.1.0","time_elapsed":63688,"subject_id":"90861","group":"Group1","condition":"1_Rep","full_date":"2026-01-24T19:51:52.448Z","date":"2026-01-24","time":"19:51:52"},{"task":"memory_phase","broad_category":"I","image_png":"I_Andesite_10.png","image_id":10,"category_name":"Andesite","category":1,"distinct_rating":3.15,"distinct_type":"Bottom","rt":null,"stimulus":"Stimuli_Rocks480/I_Andesite_10.png","response":null,"trial_type":"image-keyboard-response","trial_index":8,"plugin_version":"2.1.0","time_elapsed":66199,"subject_id":"90861","group":"Group1","condition":"1_Rep","full_date":"2026-01-24T19:51:52.448Z","date":"2026-01-24","time":"19:51:52"},{"rt":null,"stimulus":"<p style=\"font-size: 50px; margin: 0; text-align: center;\">+</p>","response":null,"trial_type":"html-keyboard-response","trial_index":9,"plugin_version":"2.1.0","time_elapsed":67202,"subject_id":"90861","group":"Group1","condition":"1_Rep","full_date":"2026-01-24T19:51:52.448Z","date":"2026-01-24","time":"19:51:52"},{"task":"memory_phase","broad_category":"M","image_png":"M_Gneiss_06.png","image_id":198,"category_name":"Gneiss","category":13,"distinct_rating":2.65,"distinct_type":"Bottom","rt":null,"stimulus":"Stimuli_Rocks480/M_Gneiss_06.png","response":null,"trial_type":"image-keyboard-response","trial_index":10,"plugin_version":"2.1.0","time_elapsed":69718,"subject_id":"90861","group":"Group1","condition":"1_Rep","full_date":"2026-01-24T19:51:52.448Z","date":"2026-01-24","time":"19:51:52"},{"rt":null,"stimulus":"<p style=\"font-size: 50px; margin: 0; text-align: center;\">+</p>","response":null,"trial_type":"html-keyboard-response","trial_index":11,"plugin_version":"2.1.0","time_elapsed":70720,"subject_id":"90861","group":"Group1","condition":"1_Rep","full_date":"2026-01-24T19:51:52.448Z","date":"2026-01-24","time":"19:51:52"},{"task":"memory_phase","broad_category":"I","image_png":"I_Rhyolite_16.png","image_id":160,"category_name":"Rhyolite","category":10,"distinct_rating":2.19,"distinct_type":"Bottom","rt":null,"stimulus":"Stimuli_Rocks480/I_Rhyolite_16.png","response":null,"trial_type":"image-keyboard-response","trial_index":12,"plugin_version":"2.1.0","time_elapsed":73239,"subject_id":"90861","group":"Group1","condition":"1_Rep","full_date":"2026-01-24T19:51:52.448Z","date":"2026-01-24","time":"19:51:52"},{"rt":null,"stimulus":"<p style=\"font-size: 50px; margin: 0; text-align: center;\">+</p>","response":null,"trial_type":"html-keyboard-response","trial_index":13,"plugin_version":"2.1.0","time_elapsed":74242,"subject_id":"90861","group":"Group1","condition":"1_Rep","full_date":"2026-01-24T19:51:52.448Z","date":"2026-01-24","time":"19:51:52"},{"task":"memory_phase","broad_category":"S","image_png":"S_Chert_10.png","image_id":362,"category_name":"Chert","category":23,"distinct_rating":7.17,"distinct_type":"Top","rt":null,"stimulus":"Stimuli_Rocks480/S_Chert_10.png","response":null,"trial_type":"image-keyboard-response","trial_index":14,"plugin_version":"2.1.0","time_elapsed":76757,"subject_id":"90861","group":"Group1","condition":"1_Rep","full_date":"2026-01-24T19:51:52.448Z","date":"2026-01-24","time":"19:51:52"},{"rt":null,"stimulus":"<p style=\"font-size: 50px; margin: 0; text-align: center;\">+</p>","response":null,"trial_type":"html-keyboard-response","trial_index":15,"plugin_version":"2.1.0","time_elapsed":77759,"subject_id":"90861","group":"Group1","condition":"1_Rep","full_date":"2026-01-24T19:51:52.448Z","date":"2026-01-24","time":"19:51:52"},{"task":"memory_phase","broad_category":"S","image_png":"S_Shale_01.png","image_id":465,"category_name":"Shale","category":30,"distinct_rating":2.7,"distinct_type":"Bottom","rt":null,"stimulus":"Stimuli_Rocks480/S_Shale_01.png","response":null,"trial_type":"image-keyboard-response","trial_index":16,"plugin_version":"2.1.0","time_elapsed":80273,"subject_id":"90861","group":"Group1","condition":"1_Rep","full_date":"2026-01-24T19:51:52.448Z","date":"2026-01-24","time":"19:51:52"},{"rt":null,"stimulus":"<p style=\"font-size: 50px; margin: 0; text-align: center;\">+</p>","response":null,"trial_type":"html-keyboard-response","trial_index":17,"plugin_version":"2.1.0","time_elapsed":81276,"subject_id":"90861","group":"Group1","condition":"1_Rep","full_date":"2026-01-24T19:51:52.448Z","date":"2026-01-24","time":"19:51:52"},{"task":"memory_phase","broad_category":"M","image_png":"M_Marble_04.png","image_id":228,"category_name":"Marble","category":15,"distinct_rating":3.15,"distinct_type":"Bottom","rt":null,"stimulus":"Stimuli_Rocks480/M_Marble_04.png","response":null,"trial_type":"image-keyboard-response","trial_index":18,"plugin_version":"2.1.0","time_elapsed":83791,"subject_id":"90861","group":"Group1","condition":"1_Rep","full_date":"2026-01-24T19:51:52.448Z","date":"2026-01-24","time":"19:51:52"},{"rt":null,"stimulus":"<p style=\"font-size: 50px; margin: 0; text-align: center;\">+</p>","response":null,"trial_type":"html-keyboard-response","trial_index":19,"plugin_version":"2.1.0","time_elapsed":84793,"subject_id":"90861","group":"Group1","condition":"1_Rep","full_date":"2026-01-24T19:51:52.448Z","date":"2026-01-24","time":"19:51:52"},{"task":"memory_phase","broad_category":"S","image_png":"S_Shale_12.png","image_id":476,"category_name":"Shale","category":30,"distinct_rating":2.48,"distinct_type":"Bottom","rt":null,"stimulus":"Stimuli_Rocks480/S_Shale_12.png","response":null,"trial_type":"image-keyboard-response","trial_index":20,"plugin_version":"2.1.0","time_elapsed":87310,"subject_id":"90861","group":"Group1","condition":"1_Rep","full_date":"2026-01-24T19:51:52.448Z","date":"2026-01-24","time":"19:51:52"},{"rt":null,"stimulus":"<p style=\"font-size: 50px; margin: 0; text-align: center;\">+</p>","response":null,"trial_type":"html-keyboard-response","trial_index":21,"plugin_version":"2.1.0","time_elapsed":88312,"subject_id":"90861","group":"Group1","condition":"1_Rep","full_date":"2026-01-24T19:51:52.448Z","date":"2026-01-24","time":"19:51:52"},{"task":"memory_phase","broad_category":"I","image_png":"I_Rhyolite_14.png","image_id":158,"category_name":"Rhyolite","category":10,"distinct_rating":2.59,"distinct_type":"Bottom","rt":null,"stimulus":"Stimuli_Rocks480/I_Rhyolite_14.png","response":null,"trial_type":"image-keyboard-response","trial_index":22,"plugin_version":"2.1.0","time_elapsed":90826,"subject_id":"90861","group":"Group1","condition":"1_Rep","full_date":"2026-01-24T19:51:52.448Z","date":"2026-01-24","time":"19:51:52"},{"rt":null,"stimulus":"<p style=\"font-size: 50px; margin: 0; text-align: center;\">+</p>","response":null,"trial_type":"html-keyboard-response","trial_index":23,"plugin_version":"2.1.0","time_elapsed":91828,"subject_id":"90861","group":"Group1","condition":"1_Rep","full_date":"2026-01-24T19:51:52.448Z","date":"2026-01-24","time":"19:51:52"},{"task":"memory_phase","broad_category":"M","image_png":"M_Slate_03.png","image_id":307,"category_name":"Slate","category":20,"distinct_rating":1.87,"distinct_type":"Bottom","rt":null,"stimulus":"Stimuli_Rocks480/M_Slate_03.png","response":null,"trial_type":"image-keyboard-response","trial_index":24,"plugin_version":"2.1.0","time_elapsed":94344,"subject_id":"90861","group":"Group1","condition":"1_Rep","full_date":"2026-01-24T19:51:52.448Z","date":"2026-01-24","time":"19:51:52"},{"rt":null,"stimulus":"<p style=\"font-size: 50px; margin: 0; text-align: center;\">+</p>","response":null,"trial_type":"html-keyboard-response","trial_index":25,"plugin_version":"2.1.0","time_elapsed":95346,"subject_id":"90861","group":"Group1","condition":"1_Rep","full_date":"2026-01-24T19:51:52.448Z","date":"2026-01-24","time":"19:51:52"},{"task":"memory_phase","broad_category":"I","image_png":"I_Pegmatite_10.png","image_id":106,"category_name":"Pegmatite","category":7,"distinct_rating":7.66,"distinct_type":"Top","rt":null,"stimulus":"Stimuli_Rocks480/I_Pegmatite_10.png","response":null,"trial_type":"image-keyboard-response","trial_index":26,"plugin_version":"2.1.0","time_elapsed":97863,"subject_id":"90861","group":"Group1","condition":"1_Rep","full_date":"2026-01-24T19:51:52.448Z","date":"2026-01-24","time":"19:51:52"},{"rt":null,"stimulus":"<p style=\"font-size: 50px; margin: 0; text-align: center;\">+</p>","response":null,"trial_type":"html-keyboard-response","trial_index":27,"plugin_version":"2.1.0","time_elapsed":98865,"subject_id":"90861","group":"Group1","condition":"1_Rep","full_date":"2026-01-24T19:51:52.448Z","date":"2026-01-24","time":"19:51:52"},{"task":"memory_phase","broad_category":"I","image_png":"I_Rhyolite_11.png","image_id":155,"category_name":"Rhyolite","category":10,"distinct_rating":1.73,"distinct_type":"Bottom","rt":null,"stimulus":"Stimuli_Rocks480/I_Rhyolite_11.png","response":null,"trial_type":"image-keyboard-response","trial_index":28,"plugin_version":"2.1.0","time_elapsed":101378,"subject_id":"90861","group":"Group1","condition":"1_Rep","full_date":"2026-01-24T19:51:52.448Z","date":"2026-01-24","time":"19:51:52"},{"rt":null,"stimulus":"<p style=\"font-size: 50px; margin: 0; text-align: center;\">+</p>","response":null,"trial_type":"html-keyboard-response","trial_index":29,"plugin_version":"2.1.0","time_elapsed":102381,"subject_id":"90861","group":"Group1","condition":"1_Rep","full_date":"2026-01-24T19:51:52.448Z","date":"2026-01-24","time":"19:51:52"},{"task":"memory_phase","broad_category":"S","image_png":"S_Shale_08.png","image_id":472,"category_name":"Shale","category":30,"distinct_rating":2.55,"distinct_type":"Bottom","rt":null,"stimulus":"Stimuli_Rocks480/S_Shale_08.png","response":null,"trial_type":"image-keyboard-response","trial_index":30,"plugin_version":"2.1.0","time_elapsed":104898,"subject_id":"90861","group":"Group1","condition":"1_Rep","full_date":"2026-01-24T19:51:52.448Z","date":"2026-01-24","time":"19:51:52"},{"rt":null,"stimulus":"<p style=\"font-size: 50px; margin: 0; text-align: center;\">+</p>","response":null,"trial_type":"html-keyboard-response","trial_index":31,"plugin_version":"2.1.0","time_elapsed":105900,"subject_id":"90861","group":"Group1","condition":"1_Rep","full_date":"2026-01-24T19:51:52.448Z","date":"2026-01-24","time":"19:51:52"},{"task":"memory_phase","broad_category":"S","image_png":"S_Sandstone_15.png","image_id":463,"category_name":"Sandstone","category":29,"distinct_rating":2,"distinct_type":"Bottom","rt":null,"stimulus":"Stimuli_Rocks480/S_Sandstone_15.png","response":null,"trial_type":"image-keyboard-response","trial_index":32,"plugin_version":"2.1.0","time_elapsed":108419,"subject_id":"90861","group":"Group1","condition":"1_Rep","full_date":"2026-01-24T19:51:52.448Z","date":"2026-01-24","time":"19:51:52"},{"rt":null,"stimulus":"<p style=\"font-size: 50px; margin: 0; text-align: center;\">+</p>","response":null,"trial_type":"html-keyboard-response","trial_index":33,"plugin_version":"2.1.0","time_elapsed":109421,"subject_id":"90861","group":"Group1","condition":"1_Rep","full_date":"2026-01-24T19:51:52.448Z","date":"2026-01-24","time":"19:51:52"},{"task":"memory_phase","broad_category":"I","image_png":"I_Gabbro_16.png","image_id":64,"category_name":"Gabbro","category":4,"distinct_rating":2.52,"distinct_type":"Bottom","rt":null,"stimulus":"Stimuli_Rocks480/I_Gabbro_16.png","response":null,"trial_type":"image-keyboard-response","trial_index":34,"plugin_version":"2.1.0","time_elapsed":111936,"subject_id":"90861","group":"Group1","condition":"1_Rep","full_date":"2026-01-24T19:51:52.448Z","date":"2026-01-24","time":"19:51:52"},{"rt":null,"stimulus":"<p style=\"font-size: 50px; margin: 0; text-align: center;\">+</p>","response":null,"trial_type":"html-keyboard-response","trial_index":35,"plugin_version":"2.1.0","time_elapsed":112938,"subject_id":"90861","group":"Group1","condition":"1_Rep","full_date":"2026-01-24T19:51:52.448Z","date":"2026-01-24","time":"19:51:52"},{"task":"memory_phase","broad_category":"S","image_png":"S_Dolomite_13.png","image_id":397,"category_name":"Dolomite","category":25,"distinct_rating":1.77,"distinct_type":"Bottom","rt":null,"stimulus":"Stimuli_Rocks480/S_Dolomite_13.png","response":null,"trial_type":"image-keyboard-response","trial_index":36,"plugin_version":"2.1.0","time_elapsed":115454,"subject_id":"90861","group":"Group1","condition":"1_Rep","full_date":"2026-01-24T19:51:52.448Z","date":"2026-01-24","time":"19:51:52"},{"rt":null,"stimulus":"<p style=\"font-size: 50px; margin: 0; text-align: center;\">+</p>","response":null,"trial_type":"html-keyboard-response","trial_index":37,"plugin_version":"2.1.0","time_elapsed":116456,"subject_id":"90861","group":"Group1","condition":"1_Rep","full_date":"2026-01-24T19:51:52.448Z","date":"2026-01-24","time":"19:51:52"},{"task":"memory_phase","broad_category":"S","image_png":"S_Breccia_11.png","image_id":347,"category_name":"Breccia","category":22,"distinct_rating":6.7,"distinct_type":"Top","rt":null,"stimulus":"Stimuli_Rocks480/S_Breccia_11.png","response":null,"trial_type":"image-keyboard-response","trial_index":38,"plugin_version":"2.1.0","time_elapsed":118978,"subject_id":"90861","group":"Group1","condition":"1_Rep","full_date":"2026-01-24T19:51:52.448Z","date":"2026-01-24","time":"19:51:52"},{"rt":null,"stimulus":"<p style=\"font-size: 50px; margin: 0; text-align: center;\">+</p>","response":null,"trial_type":"html-keyboard-response","trial_index":39,"plugin_version":"2.1.0","time_elapsed":119981,"subject_id":"90861","group":"Group1","condition":"1_Rep","full_date":"2026-01-24T19:51:52.448Z","date":"2026-01-24","time":"19:51:52"},{"task":"memory_phase","broad_category":"M","image_png":"M_Slate_11.png","image_id":315,"category_name":"Slate","category":20,"distinct_rating":2.75,"distinct_type":"Bottom","rt":null,"stimulus":"Stimuli_Rocks480/M_Slate_11.png","response":null,"trial_type":"image-keyboard-response","trial_index":40,"plugin_version":"2.1.0","time_elapsed":122493,"subject_id":"90861","group":"Group1","condition":"1_Rep","full_date":"2026-01-24T19:51:52.448Z","date":"2026-01-24","time":"19:51:52"},{"rt":null,"stimulus":"<p style=\"font-size: 50px; margin: 0; text-align: center;\">+</p>","response":null,"trial_type":"html-keyboard-response","trial_index":41,"plugin_version":"2.1.0","time_elapsed":123495,"subject_id":"90861","group":"Group1","condition":"1_Rep","full_date":"2026-01-24T19:51:52.448Z","date":"2026-01-24","time":"19:51:52"},{"task":"memory_phase","broad_category":"I","image_png":"I_Andesite_06.png","image_id":6,"category_name":"Andesite","category":1,"distinct_rating":3.17,"distinct_type":"Bottom","rt":null,"stimulus":"Stimuli_Rocks480/I_Andesite_06.png","response":null,"trial_type":"image-keyboard-response","trial_index":42,"plugin_version":"2.1.0","time_elapsed":126010,"subject_id":"90861","group":"Group1","condition":"1_Rep","full_date":"2026-01-24T19:51:52.448Z","date":"2026-01-24","time":"19:51:52"},{"rt":null,"stimulus":"<p style=\"font-size: 50px; margin: 0; text-align: center;\">+</p>","response":null,"trial_type":"html-keyboard-response","trial_index":43,"plugin_version":"2.1.0","time_elapsed":127013,"subject_id":"90861","group":"Group1","condition":"1_Rep","full_date":"2026-01-24T19:51:52.448Z","date":"2026-01-24","time":"19:51:52"},{"task":"memory_phase","broad_category":"M","image_png":"M_Slate_15.png","image_id":319,"category_name":"Slate","category":20,"distinct_rating":2.13,"distinct_type":"Bottom","rt":null,"stimulus":"Stimuli_Rocks480/M_Slate_15.png","response":null,"trial_type":"image-keyboard-response","trial_index":44,"plugin_version":"2.1.0","time_elapsed":129526,"subject_id":"90861","group":"Group1","condition":"1_Rep","full_date":"2026-01-24T19:51:52.448Z","date":"2026-01-24","time":"19:51:52"},{"rt":null,"stimulus":"<p style=\"font-size: 50px; margin: 0; text-align: center;\">+</p>","response":null,"trial_type":"html-keyboard-response","trial_index":45,"plugin_version":"2.1.0","time_elapsed":130528,"subject_id":"90861","group":"Group1","condition":"1_Rep","full_date":"2026-01-24T19:51:52.448Z","date":"2026-01-24","time":"19:51:52"},{"task":"memory_phase","broad_category":"M","image_png":"M_Marble_16.png","image_id":240,"category_name":"Marble","category":15,"distinct_rating":2.57,"distinct_type":"Bottom","rt":null,"stimulus":"Stimuli_Rocks480/M_Marble_16.png","response":null,"trial_type":"image-keyboard-response","trial_index":46,"plugin_version":"2.1.0","time_elapsed":133044,"subject_id":"90861","group":"Group1","condition":"1_Rep","full_date":"2026-01-24T19:51:52.448Z","date":"2026-01-24","time":"19:51:52"},{"rt":null,"stimulus":"<p style=\"font-size: 50px; margin: 0; text-align: center;\">+</p>","response":null,"trial_type":"html-keyboard-response","trial_index":47,"plugin_version":"2.1.0","time_elapsed":134046,"subject_id":"90861","group":"Group1","condition":"1_Rep","full_date":"2026-01-24T19:51:52.448Z","date":"2026-01-24","time":"19:51:52"},{"task":"memory_phase","broad_category":"M","image_png":"M_Marble_06.png","image_id":230,"category_name":"Marble","category":15,"distinct_rating":3.4,"distinct_type":"Bottom","rt":null,"stimulus":"Stimuli_Rocks480/M_Marble_06.png","response":null,"trial_type":"image-keyboard-response","trial_index":48,"plugin_version":"2.1.0","time_elapsed":136561,"subject_id":"90861","group":"Group1","condition":"1_Rep","full_date":"2026-01-24T19:51:52.448Z","date":"2026-01-24","time":"19:51:52"},{"rt":null,"stimulus":"<p style=\"font-size: 50px; margin: 0; text-align: center;\">+</p>","response":null,"trial_type":"html-keyboard-response","trial_index":49,"plugin_version":"2.1.0","time_elapsed":137563,"subject_id":"90861","group":"Group1","condition":"1_Rep","full_date":"2026-01-24T19:51:52.448Z","date":"2026-01-24","time":"19:51:52"},{"task":"memory_phase","broad_category":"M","image_png":"M_Phyllite_10.png","image_id":266,"category_name":"Phyllite","category":17,"distinct_rating":2.6,"distinct_type":"Bottom","rt":null,"stimulus":"Stimuli_Rocks480/M_Phyllite_10.png","response":null,"trial_type":"image-keyboard-response","trial_index":50,"plugin_version":"2.1.0","time_elapsed":140078,"subject_id":"90861","group":"Group1","condition":"1_Rep","full_date":"2026-01-24T19:51:52.448Z","date":"2026-01-24","time":"19:51:52"},{"rt":null,"stimulus":"<p style=\"font-size: 50px; margin: 0; text-align: center;\">+</p>","response":null,"trial_type":"html-keyboard-response","trial_index":51,"plugin_version":"2.1.0","time_elapsed":141080,"subject_id":"90861","group":"Group1","condition":"1_Rep","full_date":"2026-01-24T19:51:52.448Z","date":"2026-01-24","time":"19:51:52"},{"task":"memory_phase","broad_category":"S","image_png":"S_Dolomite_14.png","image_id":398,"category_name":"Dolomite","category":25,"distinct_rating":1.43,"distinct_type":"Bottom","rt":null,"stimulus":"Stimuli_Rocks480/S_Dolomite_14.png","response":null,"trial_type":"image-keyboard-response","trial_index":52,"plugin_version":"2.1.0","time_elapsed":143596,"subject_id":"90861","group":"Group1","condition":"1_Rep","full_date":"2026-01-24T19:51:52.448Z","date":"2026-01-24","time":"19:51:52"},{"rt":null,"stimulus":"<p style=\"font-size: 50px; margin: 0; text-align: center;\">+</p>","response":null,"trial_type":"html-keyboard-response","trial_index":53,"plugin_version":"2.1.0","time_elapsed":144598,"subject_id":"90861","group":"Group1","condition":"1_Rep","full_date":"2026-01-24T19:51:52.448Z","date":"2026-01-24","time":"19:51:52"},{"task":"memory_phase","broad_category":"M","image_png":"M_Quartzite_08.png","image_id":280,"category_name":"Quartzite","category":18,"distinct_rating":2.15,"distinct_type":"Bottom","rt":null,"stimulus":"Stimuli_Rocks480/M_Quartzite_08.png","response":null,"trial_type":"image-keyboard-response","trial_index":54,"plugin_version":"2.1.0","time_elapsed":147112,"subject_id":"90861","group":"Group1","condition":"1_Rep","full_date":"2026-01-24T19:51:52.448Z","date":"2026-01-24","time":"19:51:52"},{"rt":2153,"stimulus":"<p style=\"max-width: 760px; margin: auto; font-size: 35px; line-height: 1.5;\">\n                Press SPACE to continue study phase\n              </p>","response":" ","trial_type":"html-keyboard-response","trial_index":55,"plugin_version":"2.1.0","time_elapsed":149267,"subject_id":"90861","group":"Group1","condition":"1_Rep","full_date":"2026-01-24T19:51:52.448Z","date":"2026-01-24","time":"19:51:52"},{"rt":null,"stimulus":"<p style=\"font-size: 50px; margin: 0; text-align: center;\">+</p>","response":null,"trial_type":"html-keyboard-response","trial_index":56,"plugin_version":"2.1.0","time_elapsed":150270,"subject_id":"90861","group":"Group1","condition":"1_Rep","full_date":"2026-01-24T19:51:52.448Z","date":"2026-01-24","time":"19:51:52"},{"task":"memory_phase","broad_category":"I","image_png":"I_Pegmatite_16.png","image_id":112,"category_name":"Pegmatite","category":7,"distinct_rating":7.03,"distinct_type":"Top","rt":null,"stimulus":"Stimuli_Rocks480/I_Pegmatite_16.png","response":null,"trial_type":"image-keyboard-response","trial_index":57,"plugin_version":"2.1.0","time_elapsed":152787,"subject_id":"90861","group":"Group1","condition":"1_Rep","full_date":"2026-01-24T19:51:52.448Z","date":"2026-01-24","time":"19:51:52"},{"rt":null,"stimulus":"<p style=\"font-size: 50px; margin: 0; text-align: center;\">+</p>","response":null,"trial_type":"html-keyboard-response","trial_index":58,"plugin_version":"2.1.0","time_elapsed":153789,"subject_id":"90861","group":"Group1","condition":"1_Rep","full_date":"2026-01-24T19:51:52.448Z","date":"2026-01-24","time":"19:51:52"},{"task":"memory_phase","broad_category":"S","image_png":"S_Rock Salt_01.png","image_id":433,"category_name":"Rock Salt","category":28,"distinct_rating":7.18,"distinct_type":"Top","rt":null,"stimulus":"Stimuli_Rocks480/S_Rock Salt_01.png","response":null,"trial_type":"image-keyboard-response","trial_index":59,"plugin_version":"2.1.0","time_elapsed":156306,"subject_id":"90861","group":"Group1","condition":"1_Rep","full_date":"2026-01-24T19:51:52.448Z","date":"2026-01-24","time":"19:51:52"},{"rt":null,"stimulus":"<p style=\"font-size: 50px; margin: 0; text-align: center;\">+</p>","response":null,"trial_type":"html-keyboard-response","trial_index":60,"plugin_version":"2.1.0","time_elapsed":157308,"subject_id":"90861","group":"Group1","condition":"1_Rep","full_date":"2026-01-24T19:51:52.448Z","date":"2026-01-24","time":"19:51:52"},{"task":"memory_phase","broad_category":"S","image_png":"S_Conglomerate_05.png","image_id":373,"category_name":"Conglomerate","category":24,"distinct_rating":7.32,"distinct_type":"Top","rt":null,"stimulus":"Stimuli_Rocks480/S_Conglomerate_05.png","response":null,"trial_type":"image-keyboard-response","trial_index":61,"plugin_version":"2.1.0","time_elapsed":159826,"subject_id":"90861","group":"Group1","condition":"1_Rep","full_date":"2026-01-24T19:51:52.448Z","date":"2026-01-24","time":"19:51:52"},{"rt":null,"stimulus":"<p style=\"font-size: 50px; margin: 0; text-align: center;\">+</p>","response":null,"trial_type":"html-keyboard-response","trial_index":62,"plugin_version":"2.1.0","time_elapsed":160829,"subject_id":"90861","group":"Group1","condition":"1_Rep","full_date":"2026-01-24T19:51:52.448Z","date":"2026-01-24","time":"19:51:52"},{"task":"memory_phase","broad_category":"M","image_png":"M_Phyllite_03.png","image_id":259,"category_name":"Phyllite","category":17,"distinct_rating":2.5,"distinct_type":"Bottom","rt":null,"stimulus":"Stimuli_Rocks480/M_Phyllite_03.png","response":null,"trial_type":"image-keyboard-response","trial_index":63,"plugin_version":"2.1.0","time_elapsed":163344,"subject_id":"90861","group":"Group1","condition":"1_Rep","full_date":"2026-01-24T19:51:52.448Z","date":"2026-01-24","time":"19:51:52"},{"rt":null,"stimulus":"<p style=\"font-size: 50px; margin: 0; text-align: center;\">+</p>","response":null,"trial_type":"html-keyboard-response","trial_index":64,"plugin_version":"2.1.0","time_elapsed":164346,"subject_id":"90861","group":"Group1","condition":"1_Rep","full_date":"2026-01-24T19:51:52.448Z","date":"2026-01-24","time":"19:51:52"},{"task":"memory_phase","broad_category":"I","image_png":"I_Gabbro_11.png","image_id":59,"category_name":"Gabbro","category":4,"distinct_rating":1.99,"distinct_type":"Bottom","rt":null,"stimulus":"Stimuli_Rocks480/I_Gabbro_11.png","response":null,"trial_type":"image-keyboard-response","trial_index":65,"plugin_version":"2.1.0","time_elapsed":166860,"subject_id":"90861","group":"Group1","condition":"1_Rep","full_date":"2026-01-24T19:51:52.448Z","date":"2026-01-24","time":"19:51:52"},{"rt":null,"stimulus":"<p style=\"font-size: 50px; margin: 0; text-align: center;\">+</p>","response":null,"trial_type":"html-keyboard-response","trial_index":66,"plugin_version":"2.1.0","time_elapsed":167862,"subject_id":"90861","group":"Group1","condition":"1_Rep","full_date":"2026-01-24T19:51:52.448Z","date":"2026-01-24","time":"19:51:52"},{"task":"memory_phase","broad_category":"I","image_png":"I_Basalt_02.png","image_id":18,"category_name":"Basalt","category":2,"distinct_rating":1.84,"distinct_type":"Bottom","rt":null,"stimulus":"Stimuli_Rocks480/I_Basalt_02.png","response":null,"trial_type":"image-keyboard-response","trial_index":67,"plugin_version":"2.1.0","time_elapsed":170379,"subject_id":"90861","group":"Group1","condition":"1_Rep","full_date":"2026-01-24T19:51:52.448Z","date":"2026-01-24","time":"19:51:52"},{"rt":null,"stimulus":"<p style=\"font-size: 50px; margin: 0; text-align: center;\">+</p>","response":null,"trial_type":"html-keyboard-response","trial_index":68,"plugin_version":"2.1.0","time_elapsed":171381,"subject_id":"90861","group":"Group1","condition":"1_Rep","full_date":"2026-01-24T19:51:52.448Z","date":"2026-01-24","time":"19:51:52"},{"task":"memory_phase","broad_category":"I","image_png":"I_Gabbro_08.png","image_id":56,"category_name":"Gabbro","category":4,"distinct_rating":3.02,"distinct_type":"Bottom","rt":null,"stimulus":"Stimuli_Rocks480/I_Gabbro_08.png","response":null,"trial_type":"image-keyboard-response","trial_index":69,"plugin_version":"2.1.0","time_elapsed":173896,"subject_id":"90861","group":"Group1","condition":"1_Rep","full_date":"2026-01-24T19:51:52.448Z","date":"2026-01-24","time":"19:51:52"},{"rt":null,"stimulus":"<p style=\"font-size: 50px; margin: 0; text-align: center;\">+</p>","response":null,"trial_type":"html-keyboard-response","trial_index":70,"plugin_version":"2.1.0","time_elapsed":174898,"subject_id":"90861","group":"Group1","condition":"1_Rep","full_date":"2026-01-24T19:51:52.448Z","date":"2026-01-24","time":"19:51:52"},{"task":"memory_phase","broad_category":"I","image_png":"I_Pumice_08.png","image_id":136,"category_name":"Pumice","category":9,"distinct_rating":3.1,"distinct_type":"Bottom","rt":null,"stimulus":"Stimuli_Rocks480/I_Pumice_08.png","response":null,"trial_type":"image-keyboard-response","trial_index":71,"plugin_version":"2.1.0","time_elapsed":177414,"subject_id":"90861","group":"Group1","condition":"1_Rep","full_date":"2026-01-24T19:51:52.448Z","date":"2026-01-24","time":"19:51:52"},{"rt":null,"stimulus":"<p style=\"font-size: 50px; margin: 0; text-align: center;\">+</p>","response":null,"trial_type":"html-keyboard-response","trial_index":72,"plugin_version":"2.1.0","time_elapsed":178416,"subject_id":"90861","group":"Group1","condition":"1_Rep","full_date":"2026-01-24T19:51:52.448Z","date":"2026-01-24","time":"19:51:52"},{"task":"memory_phase","broad_category":"M","image_png":"M_Gneiss_05.png","image_id":197,"category_name":"Gneiss","category":13,"distinct_rating":2.97,"distinct_type":"Bottom","rt":null,"stimulus":"Stimuli_Rocks480/M_Gneiss_05.png","response":null,"trial_type":"image-keyboard-response","trial_index":73,"plugin_version":"2.1.0","time_elapsed":180937,"subject_id":"90861","group":"Group1","condition":"1_Rep","full_date":"2026-01-24T19:51:52.448Z","date":"2026-01-24","time":"19:51:52"},{"rt":null,"stimulus":"<p style=\"font-size: 50px; margin: 0; text-align: center;\">+</p>","response":null,"trial_type":"html-keyboard-response","trial_index":74,"plugin_version":"2.1.0","time_elapsed":181940,"subject_id":"90861","group":"Group1","condition":"1_Rep","full_date":"2026-01-24T19:51:52.448Z","date":"2026-01-24","time":"19:51:52"},{"task":"memory_phase","broad_category":"S","image_png":"S_Sandstone_16.png","image_id":464,"category_name":"Sandstone","category":29,"distinct_rating":1.93,"distinct_type":"Bottom","rt":null,"stimulus":"Stimuli_Rocks480/S_Sandstone_16.png","response":null,"trial_type":"image-keyboard-response","trial_index":75,"plugin_version":"2.1.0","time_elapsed":184453,"subject_id":"90861","group":"Group1","condition":"1_Rep","full_date":"2026-01-24T19:51:52.448Z","date":"2026-01-24","time":"19:51:52"},{"rt":null,"stimulus":"<p style=\"font-size: 50px; margin: 0; text-align: center;\">+</p>","response":null,"trial_type":"html-keyboard-response","trial_index":76,"plugin_version":"2.1.0","time_elapsed":185455,"subject_id":"90861","group":"Group1","condition":"1_Rep","full_date":"2026-01-24T19:51:52.448Z","date":"2026-01-24","time":"19:51:52"},{"task":"memory_phase","broad_category":"M","image_png":"M_Phyllite_07.png","image_id":263,"category_name":"Phyllite","category":17,"distinct_rating":2.59,"distinct_type":"Bottom","rt":null,"stimulus":"Stimuli_Rocks480/M_Phyllite_07.png","response":null,"trial_type":"image-keyboard-response","trial_index":77,"plugin_version":"2.1.0","time_elapsed":187968,"subject_id":"90861","group":"Group1","condition":"1_Rep","full_date":"2026-01-24T19:51:52.448Z","date":"2026-01-24","time":"19:51:52"},{"rt":null,"stimulus":"<p style=\"font-size: 50px; margin: 0; text-align: center;\">+</p>","response":null,"trial_type":"html-keyboard-response","trial_index":78,"plugin_version":"2.1.0","time_elapsed":188970,"subject_id":"90861","group":"Group1","condition":"1_Rep","full_date":"2026-01-24T19:51:52.448Z","date":"2026-01-24","time":"19:51:52"},{"task":"memory_phase","broad_category":"I","image_png":"I_Basalt_09.png","image_id":25,"category_name":"Basalt","category":2,"distinct_rating":1.89,"distinct_type":"Bottom","rt":null,"stimulus":"Stimuli_Rocks480/I_Basalt_09.png","response":null,"trial_type":"image-keyboard-response","trial_index":79,"plugin_version":"2.1.0","time_elapsed":191485,"subject_id":"90861","group":"Group1","condition":"1_Rep","full_date":"2026-01-24T19:51:52.448Z","date":"2026-01-24","time":"19:51:52"},{"rt":null,"stimulus":"<p style=\"font-size: 50px; margin: 0; text-align: center;\">+</p>","response":null,"trial_type":"html-keyboard-response","trial_index":80,"plugin_version":"2.1.0","time_elapsed":192487,"subject_id":"90861","group":"Group1","condition":"1_Rep","full_date":"2026-01-24T19:51:52.448Z","date":"2026-01-24","time":"19:51:52"},{"task":"memory_phase","broad_category":"I","image_png":"I_Obsidian_05.png","image_id":85,"category_name":"Obsidian","category":6,"distinct_rating":7.32,"distinct_type":"Top","rt":null,"stimulus":"Stimuli_Rocks480/I_Obsidian_05.png","response":null,"trial_type":"image-keyboard-response","trial_index":81,"plugin_version":"2.1.0","time_elapsed":195004,"subject_id":"90861","group":"Group1","condition":"1_Rep","full_date":"2026-01-24T19:51:52.448Z","date":"2026-01-24","time":"19:51:52"},{"rt":null,"stimulus":"<p style=\"font-size: 50px; margin: 0; text-align: center;\">+</p>","response":null,"trial_type":"html-keyboard-response","trial_index":82,"plugin_version":"2.1.0","time_elapsed":196006,"subject_id":"90861","group":"Group1","condition":"1_Rep","full_date":"2026-01-24T19:51:52.448Z","date":"2026-01-24","time":"19:51:52"},{"task":"memory_phase","broad_category":"I","image_png":"I_Diorite_05.png","image_id":37,"category_name":"Diorite","category":3,"distinct_rating":3.08,"distinct_type":"Bottom","rt":null,"stimulus":"Stimuli_Rocks480/I_Diorite_05.png","response":null,"trial_type":"image-keyboard-response","trial_index":83,"plugin_version":"2.1.0","time_elapsed":198522,"subject_id":"90861","group":"Group1","condition":"1_Rep","full_date":"2026-01-24T19:51:52.448Z","date":"2026-01-24","time":"19:51:52"},{"rt":null,"stimulus":"<p style=\"font-size: 50px; margin: 0; text-align: center;\">+</p>","response":null,"trial_type":"html-keyboard-response","trial_index":84,"plugin_version":"2.1.0","time_elapsed":199524,"subject_id":"90861","group":"Group1","condition":"1_Rep","full_date":"2026-01-24T19:51:52.448Z","date":"2026-01-24","time":"19:51:52"},{"task":"memory_phase","broad_category":"I","image_png":"I_Diorite_04.png","image_id":36,"category_name":"Diorite","category":3,"distinct_rating":2.98,"distinct_type":"Bottom","rt":null,"stimulus":"Stimuli_Rocks480/I_Diorite_04.png","response":null,"trial_type":"image-keyboard-response","trial_index":85,"plugin_version":"2.1.0","time_elapsed":202041,"subject_id":"90861","group":"Group1","condition":"1_Rep","full_date":"2026-01-24T19:51:52.448Z","date":"2026-01-24","time":"19:51:52"},{"rt":null,"stimulus":"<p style=\"font-size: 50px; margin: 0; text-align: center;\">+</p>","response":null,"trial_type":"html-keyboard-response","trial_index":86,"plugin_version":"2.1.0","time_elapsed":203044,"subject_id":"90861","group":"Group1","condition":"1_Rep","full_date":"2026-01-24T19:51:52.448Z","date":"2026-01-24","time":"19:51:52"},{"task":"memory_phase","broad_category":"I","image_png":"I_Pumice_12.png","image_id":140,"category_name":"Pumice","category":9,"distinct_rating":2.97,"distinct_type":"Bottom","rt":null,"stimulus":"Stimuli_Rocks480/I_Pumice_12.png","response":null,"trial_type":"image-keyboard-response","trial_index":87,"plugin_version":"2.1.0","time_elapsed":205558,"subject_id":"90861","group":"Group1","condition":"1_Rep","full_date":"2026-01-24T19:51:52.448Z","date":"2026-01-24","time":"19:51:52"},{"rt":null,"stimulus":"<p style=\"font-size: 50px; margin: 0; text-align: center;\">+</p>","response":null,"trial_type":"html-keyboard-response","trial_index":88,"plugin_version":"2.1.0","time_elapsed":206561,"subject_id":"90861","group":"Group1","condition":"1_Rep","full_date":"2026-01-24T19:51:52.448Z","date":"2026-01-24","time":"19:51:52"},{"task":"memory_phase","broad_category":"M","image_png":"M_Quartzite_13.png","image_id":285,"category_name":"Quartzite","category":18,"distinct_rating":2.27,"distinct_type":"Bottom","rt":null,"stimulus":"Stimuli_Rocks480/M_Quartzite_13.png","response":null,"trial_type":"image-keyboard-response","trial_index":89,"plugin_version":"2.1.0","time_elapsed":209076,"subject_id":"90861","group":"Group1","condition":"1_Rep","full_date":"2026-01-24T19:51:52.448Z","date":"2026-01-24","time":"19:51:52"},{"rt":null,"stimulus":"<p style=\"font-size: 50px; margin: 0; text-align: center;\">+</p>","response":null,"trial_type":"html-keyboard-response","trial_index":90,"plugin_version":"2.1.0","time_elapsed":210078,"subject_id":"90861","group":"Group1","condition":"1_Rep","full_date":"2026-01-24T19:51:52.448Z","date":"2026-01-24","time":"19:51:52"},{"task":"memory_phase","broad_category":"I","image_png":"I_Diorite_03.png","image_id":35,"category_name":"Diorite","category":3,"distinct_rating":3.14,"distinct_type":"Bottom","rt":null,"stimulus":"Stimuli_Rocks480/I_Diorite_03.png","response":null,"trial_type":"image-keyboard-response","trial_index":91,"plugin_version":"2.1.0","time_elapsed":212597,"subject_id":"90861","group":"Group1","condition":"1_Rep","full_date":"2026-01-24T19:51:52.448Z","date":"2026-01-24","time":"19:51:52"},{"rt":null,"stimulus":"<p style=\"font-size: 50px; margin: 0; text-align: center;\">+</p>","response":null,"trial_type":"html-keyboard-response","trial_index":92,"plugin_version":"2.1.0","time_elapsed":213599,"subject_id":"90861","group":"Group1","condition":"1_Rep","full_date":"2026-01-24T19:51:52.448Z","date":"2026-01-24","time":"19:51:52"},{"task":"memory_phase","broad_category":"I","image_png":"I_Pumice_11.png","image_id":139,"category_name":"Pumice","category":9,"distinct_rating":1.74,"distinct_type":"Bottom","rt":null,"stimulus":"Stimuli_Rocks480/I_Pumice_11.png","response":null,"trial_type":"image-keyboard-response","trial_index":93,"plugin_version":"2.1.0","time_elapsed":216111,"subject_id":"90861","group":"Group1","condition":"1_Rep","full_date":"2026-01-24T19:51:52.448Z","date":"2026-01-24","time":"19:51:52"},{"rt":null,"stimulus":"<p style=\"font-size: 50px; margin: 0; text-align: center;\">+</p>","response":null,"trial_type":"html-keyboard-response","trial_index":94,"plugin_version":"2.1.0","time_elapsed":217114,"subject_id":"90861","group":"Group1","condition":"1_Rep","full_date":"2026-01-24T19:51:52.448Z","date":"2026-01-24","time":"19:51:52"},{"task":"memory_phase","broad_category":"I","image_png":"I_Basalt_01.png","image_id":17,"category_name":"Basalt","category":2,"distinct_rating":1.92,"distinct_type":"Bottom","rt":null,"stimulus":"Stimuli_Rocks480/I_Basalt_01.png","response":null,"trial_type":"image-keyboard-response","trial_index":95,"plugin_version":"2.1.0","time_elapsed":219632,"subject_id":"90861","group":"Group1","condition":"1_Rep","full_date":"2026-01-24T19:51:52.448Z","date":"2026-01-24","time":"19:51:52"},{"rt":null,"stimulus":"<p style=\"font-size: 50px; margin: 0; text-align: center;\">+</p>","response":null,"trial_type":"html-keyboard-response","trial_index":96,"plugin_version":"2.1.0","time_elapsed":220634,"subject_id":"90861","group":"Group1","condition":"1_Rep","full_date":"2026-01-24T19:51:52.448Z","date":"2026-01-24","time":"19:51:52"},{"task":"memory_phase","broad_category":"M","image_png":"M_Quartzite_05.png","image_id":277,"category_name":"Quartzite","category":18,"distinct_rating":2.23,"distinct_type":"Bottom","rt":null,"stimulus":"Stimuli_Rocks480/M_Quartzite_05.png","response":null,"trial_type":"image-keyboard-response","trial_index":97,"plugin_version":"2.1.0","time_elapsed":223150,"subject_id":"90861","group":"Group1","condition":"1_Rep","full_date":"2026-01-24T19:51:52.448Z","date":"2026-01-24","time":"19:51:52"},{"rt":null,"stimulus":"<p style=\"font-size: 50px; margin: 0; text-align: center;\">+</p>","response":null,"trial_type":"html-keyboard-response","trial_index":98,"plugin_version":"2.1.0","time_elapsed":224152,"subject_id":"90861","group":"Group1","condition":"1_Rep","full_date":"2026-01-24T19:51:52.448Z","date":"2026-01-24","time":"19:51:52"},{"task":"memory_phase","broad_category":"M","image_png":"M_Gneiss_13.png","image_id":205,"category_name":"Gneiss","category":13,"distinct_rating":3.26,"distinct_type":"Bottom","rt":null,"stimulus":"Stimuli_Rocks480/M_Gneiss_13.png","response":null,"trial_type":"image-keyboard-response","trial_index":99,"plugin_version":"2.1.0","time_elapsed":226666,"subject_id":"90861","group":"Group1","condition":"1_Rep","full_date":"2026-01-24T19:51:52.448Z","date":"2026-01-24","time":"19:51:52"},{"rt":null,"stimulus":"<p style=\"font-size: 50px; margin: 0; text-align: center;\">+</p>","response":null,"trial_type":"html-keyboard-response","trial_index":100,"plugin_version":"2.1.0","time_elapsed":227668,"subject_id":"90861","group":"Group1","condition":"1_Rep","full_date":"2026-01-24T19:51:52.448Z","date":"2026-01-24","time":"19:51:52"},{"task":"memory_phase","broad_category":"I","image_png":"I_Andesite_08.png","image_id":8,"category_name":"Andesite","category":1,"distinct_rating":1.95,"distinct_type":"Bottom","rt":null,"stimulus":"Stimuli_Rocks480/I_Andesite_08.png","response":null,"trial_type":"image-keyboard-response","trial_index":101,"plugin_version":"2.1.0","time_elapsed":230184,"subject_id":"90861","group":"Group1","condition":"1_Rep","full_date":"2026-01-24T19:51:52.448Z","date":"2026-01-24","time":"19:51:52"},{"rt":null,"stimulus":"<p style=\"font-size: 50px; margin: 0; text-align: center;\">+</p>","response":null,"trial_type":"html-keyboard-response","trial_index":102,"plugin_version":"2.1.0","time_elapsed":231187,"subject_id":"90861","group":"Group1","condition":"1_Rep","full_date":"2026-01-24T19:51:52.448Z","date":"2026-01-24","time":"19:51:52"},{"task":"memory_phase","broad_category":"S","image_png":"S_Rock Gypsum_04.png","image_id":420,"category_name":"Rock Gypsum","category":27,"distinct_rating":7.61,"distinct_type":"Top","rt":null,"stimulus":"Stimuli_Rocks480/S_Rock Gypsum_04.png","response":null,"trial_type":"image-keyboard-response","trial_index":103,"plugin_version":"2.1.0","time_elapsed":233701,"subject_id":"90861","group":"Group1","condition":"1_Rep","full_date":"2026-01-24T19:51:52.448Z","date":"2026-01-24","time":"19:51:52"},{"rt":null,"stimulus":"<p style=\"font-size: 50px; margin: 0; text-align: center;\">+</p>","response":null,"trial_type":"html-keyboard-response","trial_index":104,"plugin_version":"2.1.0","time_elapsed":234704,"subject_id":"90861","group":"Group1","condition":"1_Rep","full_date":"2026-01-24T19:51:52.448Z","date":"2026-01-24","time":"19:51:52"},{"task":"memory_phase","broad_category":"S","image_png":"S_Sandstone_03.png","image_id":451,"category_name":"Sandstone","category":29,"distinct_rating":1.86,"distinct_type":"Bottom","rt":null,"stimulus":"Stimuli_Rocks480/S_Sandstone_03.png","response":null,"trial_type":"image-keyboard-response","trial_index":105,"plugin_version":"2.1.0","time_elapsed":237220,"subject_id":"90861","group":"Group1","condition":"1_Rep","full_date":"2026-01-24T19:51:52.448Z","date":"2026-01-24","time":"19:51:52"},{"rt":13109,"stimulus":"<div style=\"max-width: 760px; margin: auto; font-size: 20px; line-height: 1.5;\">\n      <h1 style=\"text-align:center; font-size: 30px;\">Instructions for the Test Phase</h1>\n      <p>\n        The study phase is now complete.\n      </p>\n      <p>\n        In the test phase, you will again see a series of rock images. \n        Some will be ones you saw before - during the study phase, while others will be new.  \n        <b>Your task</b> is to decide whether you have seen each image before by pressing the corresponding key on your keyboard:<br><br>\n          <b>A</b> - NO (you did not see this image before)<br>\n          <b>L</b> - YES (you saw this image before)<br><br>\n        The test will proceed at your own pace. You will receive feedback after each response.  \n        Please try to respond <b>as accurately as possible</b>.\n      </p>\n      <p>\n        <b>Reminder:</b> If your computer has multiple language settings (e.g., English and another language),\n        please ensure it is set to English during the test phase.\n      </p>\n      <p>\n        You can track your progress using the <b>completion bar</b> at the top of the screen.  \n        Note that it has been refreshed to reflect your progress during this final phase.\n      </p>\n      <p>\n        Press the button below when you are ready to continue.\n      </p>\n    </div>","response":0,"trial_type":"html-button-response","trial_index":106,"plugin_version":"2.1.0","time_elapsed":250332,"subject_id":"90861","group":"Group1","condition":"1_Rep","full_date":"2026-01-24T19:51:52.448Z","date":"2026-01-24","time":"19:51:52"},{"correct_response":"a","task":"test_phase","broad_category":"I","image_png":"I_Pegmatite_03.png","image_id":99,"category_name":"Pegmatite","category":7,"distinct_rating":7.24,"distinct_type":"Top","item_type":"Foil","rt":6981,"stimulus":"Stimuli_Rocks480/I_Pegmatite_03.png","response":"a","trial_type":"image-keyboard-response","trial_index":107,"plugin_version":"2.1.0","time_elapsed":257326,"subject_id":"90861","group":"Group1","condition":"1_Rep","full_date":"2026-01-24T19:51:52.448Z","date":"2026-01-24","time":"19:51:52","cor_ans":true},{"trial_type":"html-keyboard-response","rt":null,"stimulus":"<p style=\"color: green; font-size: 50px; font-weight: bold;\">Correct</p>","response":null,"trial_index":108,"plugin_version":"2.1.0","time_elapsed":257829,"subject_id":"90861","group":"Group1","condition":"1_Rep","full_date":"2026-01-24T19:51:52.448Z","date":"2026-01-24","time":"19:51:52"},{"correct_response":"l","task":"test_phase","broad_category":"I","image_png":"I_Andesite_06.png","image_id":6,"category_name":"Andesite","category":1,"distinct_rating":3.17,"distinct_type":"Bottom","item_type":"Target","rt":1666,"stimulus":"Stimuli_Rocks480/I_Andesite_06.png","response":"l","trial_type":"image-keyboard-response","trial_index":109,"plugin_version":"2.1.0","time_elapsed":259509,"subject_id":"90861","group":"Group1","condition":"1_Rep","full_date":"2026-01-24T19:51:52.448Z","date":"2026-01-24","time":"19:51:52","cor_ans":true},{"trial_type":"html-keyboard-response","rt":null,"stimulus":"<p style=\"color: green; font-size: 50px; font-weight: bold;\">Correct</p>","response":null,"trial_index":110,"plugin_version":"2.1.0","time_elapsed":260011,"subject_id":"90861","group":"Group1","condition":"1_Rep","full_date":"2026-01-24T19:51:52.448Z","date":"2026-01-24","time":"19:51:52"},{"correct_response":"a","task":"test_phase","broad_category":"M","image_png":"M_Slate_04.png","image_id":308,"category_name":"Slate","category":20,"distinct_rating":2.2,"distinct_type":"Bottom","item_type":"Foil","rt":1311,"stimulus":"Stimuli_Rocks480/M_Slate_04.png","response":"l","trial_type":"image-keyboard-response","trial_index":111,"plugin_version":"2.1.0","time_elapsed":261333,"subject_id":"90861","group":"Group1","condition":"1_Rep","full_date":"2026-01-24T19:51:52.448Z","date":"2026-01-24","time":"19:51:52","cor_ans":false},{"trial_type":"html-keyboard-response","rt":null,"stimulus":"<p style=\"color: red; font-size: 50px; font-weight: bold;\">Incorrect</p>","response":null,"trial_index":112,"plugin_version":"2.1.0","time_elapsed":261836,"subject_id":"90861","group":"Group1","condition":"1_Rep","full_date":"2026-01-24T19:51:52.448Z","date":"2026-01-24","time":"19:51:52"},{"correct_response":"l","task":"test_phase","broad_category":"I","image_png":"I_Rhyolite_14.png","image_id":158,"category_name":"Rhyolite","category":10,"distinct_rating":2.59,"distinct_type":"Bottom","item_type":"Target","rt":2313,"stimulus":"Stimuli_Rocks480/I_Rhyolite_14.png","response":"a","trial_type":"image-keyboard-response","trial_index":113,"plugin_version":"2.1.0","time_elapsed":264161,"subject_id":"90861","group":"Group1","condition":"1_Rep","full_date":"2026-01-24T19:51:52.448Z","date":"2026-01-24","time":"19:51:52","cor_ans":false},{"trial_type":"html-keyboard-response","rt":null,"stimulus":"<p style=\"color: red; font-size: 50px; font-weight: bold;\">Incorrect</p>","response":null,"trial_index":114,"plugin_version":"2.1.0","time_elapsed":264663,"subject_id":"90861","group":"Group1","condition":"1_Rep","full_date":"2026-01-24T19:51:52.448Z","date":"2026-01-24","time":"19:51:52"},{"correct_response":"l","task":"test_phase","broad_category":"I","image_png":"I_Gabbro_16.png","image_id":64,"category_name":"Gabbro","category":4,"distinct_rating":2.52,"distinct_type":"Bottom","item_type":"Target","rt":2073,"stimulus":"Stimuli_Rocks480/I_Gabbro_16.png","response":"l","trial_type":"image-keyboard-response","trial_index":115,"plugin_version":"2.1.0","time_elapsed":266748,"subject_id":"90861","group":"Group1","condition":"1_Rep","full_date":"2026-01-24T19:51:52.448Z","date":"2026-01-24","time":"19:51:52","cor_ans":true},{"trial_type":"html-keyboard-response","rt":null,"stimulus":"<p style=\"color: green; font-size: 50px; font-weight: bold;\">Correct</p>","response":null,"trial_index":116,"plugin_version":"2.1.0","time_elapsed":267251,"subject_id":"90861","group":"Group1","condition":"1_Rep","full_date":"2026-01-24T19:51:52.448Z","date":"2026-01-24","time":"19:51:52"},{"correct_response":"a","task":"test_phase","broad_category":"S","image_png":"S_Dolomite_16.png","image_id":400,"category_name":"Dolomite","category":25,"distinct_rating":1.71,"distinct_type":"Bottom","item_type":"Foil","rt":3560,"stimulus":"Stimuli_Rocks480/S_Dolomite_16.png","response":"l","trial_type":"image-keyboard-response","trial_index":117,"plugin_version":"2.1.0","time_elapsed":270824,"subject_id":"90861","group":"Group1","condition":"1_Rep","full_date":"2026-01-24T19:51:52.448Z","date":"2026-01-24","time":"19:51:52","cor_ans":false},{"trial_type":"html-keyboard-response","rt":null,"stimulus":"<p style=\"color: red; font-size: 50px; font-weight: bold;\">Incorrect</p>","response":null,"trial_index":118,"plugin_version":"2.1.0","time_elapsed":271326,"subject_id":"90861","group":"Group1","condition":"1_Rep","full_date":"2026-01-24T19:51:52.448Z","date":"2026-01-24","time":"19:51:52"},{"correct_response":"a","task":"test_phase","broad_category":"S","image_png":"S_Dolomite_01.png","image_id":385,"category_name":"Dolomite","category":25,"distinct_rating":1.43,"distinct_type":"Bottom","item_type":"Foil","rt":2685,"stimulus":"Stimuli_Rocks480/S_Dolomite_01.png","response":"a","trial_type":"image-keyboard-response","trial_index":119,"plugin_version":"2.1.0","time_elapsed":274028,"subject_id":"90861","group":"Group1","condition":"1_Rep","full_date":"2026-01-24T19:51:52.448Z","date":"2026-01-24","time":"19:51:52","cor_ans":true},{"trial_type":"html-keyboard-response","rt":null,"stimulus":"<p style=\"color: green; font-size: 50px; font-weight: bold;\">Correct</p>","response":null,"trial_index":120,"plugin_version":"2.1.0","time_elapsed":274530,"subject_id":"90861","group":"Group1","condition":"1_Rep","full_date":"2026-01-24T19:51:52.448Z","date":"2026-01-24","time":"19:51:52"},{"correct_response":"l","task":"test_phase","broad_category":"I","image_png":"I_Diorite_05.png","image_id":37,"category_name":"Diorite","category":3,"distinct_rating":3.08,"distinct_type":"Bottom","item_type":"Target","rt":1211,"stimulus":"Stimuli_Rocks480/I_Diorite_05.png","response":"l","trial_type":"image-keyboard-response","trial_index":121,"plugin_version":"2.1.0","time_elapsed":275755,"subject_id":"90861","group":"Group1","condition":"1_Rep","full_date":"2026-01-24T19:51:52.448Z","date":"2026-01-24","time":"19:51:52","cor_ans":true},{"trial_type":"html-keyboard-response","rt":null,"stimulus":"<p style=\"color: green; font-size: 50px; font-weight: bold;\">Correct</p>","response":null,"trial_index":122,"plugin_version":"2.1.0","time_elapsed":276257,"subject_id":"90861","group":"Group1","condition":"1_Rep","full_date":"2026-01-24T19:51:52.448Z","date":"2026-01-24","time":"19:51:52"},{"correct_response":"l","task":"test_phase","broad_category":"M","image_png":"M_Slate_15.png","image_id":319,"category_name":"Slate","category":20,"distinct_rating":2.13,"distinct_type":"Bottom","item_type":"Target","rt":772,"stimulus":"Stimuli_Rocks480/M_Slate_15.png","response":"l","trial_type":"image-keyboard-response","trial_index":123,"plugin_version":"2.1.0","time_elapsed":277041,"subject_id":"90861","group":"Group1","condition":"1_Rep","full_date":"2026-01-24T19:51:52.448Z","date":"2026-01-24","time":"19:51:52","cor_ans":true},{"trial_type":"html-keyboard-response","rt":null,"stimulus":"<p style=\"color: green; font-size: 50px; font-weight: bold;\">Correct</p>","response":null,"trial_index":124,"plugin_version":"2.1.0","time_elapsed":277543,"subject_id":"90861","group":"Group1","condition":"1_Rep","full_date":"2026-01-24T19:51:52.448Z","date":"2026-01-24","time":"19:51:52"},{"correct_response":"l","task":"test_phase","broad_category":"S","image_png":"S_Breccia_11.png","image_id":347,"category_name":"Breccia","category":22,"distinct_rating":6.7,"distinct_type":"Top","item_type":"Target","rt":791,"stimulus":"Stimuli_Rocks480/S_Breccia_11.png","response":"l","trial_type":"image-keyboard-response","trial_index":125,"plugin_version":"2.1.0","time_elapsed":278355,"subject_id":"90861","group":"Group1","condition":"1_Rep","full_date":"2026-01-24T19:51:52.448Z","date":"2026-01-24","time":"19:51:52","cor_ans":true},{"trial_type":"html-keyboard-response","rt":null,"stimulus":"<p style=\"color: green; font-size: 50px; font-weight: bold;\">Correct</p>","response":null,"trial_index":126,"plugin_version":"2.1.0","time_elapsed":278857,"subject_id":"90861","group":"Group1","condition":"1_Rep","full_date":"2026-01-24T19:51:52.448Z","date":"2026-01-24","time":"19:51:52"},{"correct_response":"a","task":"test_phase","broad_category":"I","image_png":"I_Gabbro_14.png","image_id":62,"category_name":"Gabbro","category":4,"distinct_rating":2.95,"distinct_type":"Bottom","item_type":"Foil","rt":1474,"stimulus":"Stimuli_Rocks480/I_Gabbro_14.png","response":"a","trial_type":"image-keyboard-response","trial_index":127,"plugin_version":"2.1.0","time_elapsed":280347,"subject_id":"90861","group":"Group1","condition":"1_Rep","full_date":"2026-01-24T19:51:52.448Z","date":"2026-01-24","time":"19:51:52","cor_ans":true},{"trial_type":"html-keyboard-response","rt":null,"stimulus":"<p style=\"color: green; font-size: 50px; font-weight: bold;\">Correct</p>","response":null,"trial_index":128,"plugin_version":"2.1.0","time_elapsed":280850,"subject_id":"90861","group":"Group1","condition":"1_Rep","full_date":"2026-01-24T19:51:52.448Z","date":"2026-01-24","time":"19:51:52"},{"correct_response":"l","task":"test_phase","broad_category":"M","image_png":"M_Phyllite_03.png","image_id":259,"category_name":"Phyllite","category":17,"distinct_rating":2.5,"distinct_type":"Bottom","item_type":"Target","rt":960,"stimulus":"Stimuli_Rocks480/M_Phyllite_03.png","response":"a","trial_type":"image-keyboard-response","trial_index":129,"plugin_version":"2.1.0","time_elapsed":281824,"subject_id":"90861","group":"Group1","condition":"1_Rep","full_date":"2026-01-24T19:51:52.448Z","date":"2026-01-24","time":"19:51:52","cor_ans":false},{"trial_type":"html-keyboard-response","rt":null,"stimulus":"<p style=\"color: red; font-size: 50px; font-weight: bold;\">Incorrect</p>","response":null,"trial_index":130,"plugin_version":"2.1.0","time_elapsed":282326,"subject_id":"90861","group":"Group1","condition":"1_Rep","full_date":"2026-01-24T19:51:52.448Z","date":"2026-01-24","time":"19:51:52"},{"correct_response":"l","task":"test_phase","broad_category":"I","image_png":"I_Rhyolite_11.png","image_id":155,"category_name":"Rhyolite","category":10,"distinct_rating":1.73,"distinct_type":"Bottom","item_type":"Target","rt":812,"stimulus":"Stimuli_Rocks480/I_Rhyolite_11.png","response":"l","trial_type":"image-keyboard-response","trial_index":131,"plugin_version":"2.1.0","time_elapsed":283156,"subject_id":"90861","group":"Group1","condition":"1_Rep","full_date":"2026-01-24T19:51:52.448Z","date":"2026-01-24","time":"19:51:52","cor_ans":true},{"trial_type":"html-keyboard-response","rt":null,"stimulus":"<p style=\"color: green; font-size: 50px; font-weight: bold;\">Correct</p>","response":null,"trial_index":132,"plugin_version":"2.1.0","time_elapsed":283658,"subject_id":"90861","group":"Group1","condition":"1_Rep","full_date":"2026-01-24T19:51:52.448Z","date":"2026-01-24","time":"19:51:52"},{"correct_response":"a","task":"test_phase","broad_category":"S","image_png":"S_Conglomerate_14.png","image_id":382,"category_name":"Conglomerate","category":24,"distinct_rating":6.86,"distinct_type":"Top","item_type":"Foil","rt":1014,"stimulus":"Stimuli_Rocks480/S_Conglomerate_14.png","response":"a","trial_type":"image-keyboard-response","trial_index":133,"plugin_version":"2.1.0","time_elapsed":284686,"subject_id":"90861","group":"Group1","condition":"1_Rep","full_date":"2026-01-24T19:51:52.448Z","date":"2026-01-24","time":"19:51:52","cor_ans":true},{"trial_type":"html-keyboard-response","rt":null,"stimulus":"<p style=\"color: green; font-size: 50px; font-weight: bold;\">Correct</p>","response":null,"trial_index":134,"plugin_version":"2.1.0","time_elapsed":285188,"subject_id":"90861","group":"Group1","condition":"1_Rep","full_date":"2026-01-24T19:51:52.448Z","date":"2026-01-24","time":"19:51:52"},{"correct_response":"l","task":"test_phase","broad_category":"I","image_png":"I_Pumice_08.png","image_id":136,"category_name":"Pumice","category":9,"distinct_rating":3.1,"distinct_type":"Bottom","item_type":"Target","rt":914,"stimulus":"Stimuli_Rocks480/I_Pumice_08.png","response":"a","trial_type":"image-keyboard-response","trial_index":135,"plugin_version":"2.1.0","time_elapsed":286117,"subject_id":"90861","group":"Group1","condition":"1_Rep","full_date":"2026-01-24T19:51:52.448Z","date":"2026-01-24","time":"19:51:52","cor_ans":false},{"trial_type":"html-keyboard-response","rt":null,"stimulus":"<p style=\"color: red; font-size: 50px; font-weight: bold;\">Incorrect</p>","response":null,"trial_index":136,"plugin_version":"2.1.0","time_elapsed":286618,"subject_id":"90861","group":"Group1","condition":"1_Rep","full_date":"2026-01-24T19:51:52.448Z","date":"2026-01-24","time":"19:51:52"},{"correct_response":"l","task":"test_phase","broad_category":"I","image_png":"I_Gabbro_08.png","image_id":56,"category_name":"Gabbro","category":4,"distinct_rating":3.02,"distinct_type":"Bottom","item_type":"Target","rt":2023,"stimulus":"Stimuli_Rocks480/I_Gabbro_08.png","response":"l","trial_type":"image-keyboard-response","trial_index":137,"plugin_version":"2.1.0","time_elapsed":288653,"subject_id":"90861","group":"Group1","condition":"1_Rep","full_date":"2026-01-24T19:51:52.448Z","date":"2026-01-24","time":"19:51:52","cor_ans":true},{"trial_type":"html-keyboard-response","rt":null,"stimulus":"<p style=\"color: green; font-size: 50px; font-weight: bold;\">Correct</p>","response":null,"trial_index":138,"plugin_version":"2.1.0","time_elapsed":289155,"subject_id":"90861","group":"Group1","condition":"1_Rep","full_date":"2026-01-24T19:51:52.448Z","date":"2026-01-24","time":"19:51:52"},{"correct_response":"a","task":"test_phase","broad_category":"I","image_png":"I_Peridotite_13.png","image_id":125,"category_name":"Peridotite","category":8,"distinct_rating":7.28,"distinct_type":"Top","item_type":"Foil","rt":1046,"stimulus":"Stimuli_Rocks480/I_Peridotite_13.png","response":"a","trial_type":"image-keyboard-response","trial_index":139,"plugin_version":"2.1.0","time_elapsed":290221,"subject_id":"90861","group":"Group1","condition":"1_Rep","full_date":"2026-01-24T19:51:52.448Z","date":"2026-01-24","time":"19:51:52","cor_ans":true},{"trial_type":"html-keyboard-response","rt":null,"stimulus":"<p style=\"color: green; font-size: 50px; font-weight: bold;\">Correct</p>","response":null,"trial_index":140,"plugin_version":"2.1.0","time_elapsed":290723,"subject_id":"90861","group":"Group1","condition":"1_Rep","full_date":"2026-01-24T19:51:52.448Z","date":"2026-01-24","time":"19:51:52"},{"correct_response":"l","task":"test_phase","broad_category":"I","image_png":"I_Pegmatite_16.png","image_id":112,"category_name":"Pegmatite","category":7,"distinct_rating":7.03,"distinct_type":"Top","item_type":"Target","rt":1186,"stimulus":"Stimuli_Rocks480/I_Pegmatite_16.png","response":"l","trial_type":"image-keyboard-response","trial_index":141,"plugin_version":"2.1.0","time_elapsed":291923,"subject_id":"90861","group":"Group1","condition":"1_Rep","full_date":"2026-01-24T19:51:52.448Z","date":"2026-01-24","time":"19:51:52","cor_ans":true},{"trial_type":"html-keyboard-response","rt":null,"stimulus":"<p style=\"color: green; font-size: 50px; font-weight: bold;\">Correct</p>","response":null,"trial_index":142,"plugin_version":"2.1.0","time_elapsed":292425,"subject_id":"90861","group":"Group1","condition":"1_Rep","full_date":"2026-01-24T19:51:52.448Z","date":"2026-01-24","time":"19:51:52"},{"correct_response":"l","task":"test_phase","broad_category":"M","image_png":"M_Phyllite_10.png","image_id":266,"category_name":"Phyllite","category":17,"distinct_rating":2.6,"distinct_type":"Bottom","item_type":"Target","rt":1078,"stimulus":"Stimuli_Rocks480/M_Phyllite_10.png","response":"a","trial_type":"image-keyboard-response","trial_index":143,"plugin_version":"2.1.0","time_elapsed":293516,"subject_id":"90861","group":"Group1","condition":"1_Rep","full_date":"2026-01-24T19:51:52.448Z","date":"2026-01-24","time":"19:51:52","cor_ans":false},{"trial_type":"html-keyboard-response","rt":null,"stimulus":"<p style=\"color: red; font-size: 50px; font-weight: bold;\">Incorrect</p>","response":null,"trial_index":144,"plugin_version":"2.1.0","time_elapsed":294018,"subject_id":"90861","group":"Group1","condition":"1_Rep","full_date":"2026-01-24T19:51:52.448Z","date":"2026-01-24","time":"19:51:52"},{"correct_response":"l","task":"test_phase","broad_category":"M","image_png":"M_Quartzite_13.png","image_id":285,"category_name":"Quartzite","category":18,"distinct_rating":2.27,"distinct_type":"Bottom","item_type":"Target","rt":960,"stimulus":"Stimuli_Rocks480/M_Quartzite_13.png","response":"l","trial_type":"image-keyboard-response","trial_index":145,"plugin_version":"2.1.0","time_elapsed":294991,"subject_id":"90861","group":"Group1","condition":"1_Rep","full_date":"2026-01-24T19:51:52.448Z","date":"2026-01-24","time":"19:51:52","cor_ans":true},{"trial_type":"html-keyboard-response","rt":null,"stimulus":"<p style=\"color: green; font-size: 50px; font-weight: bold;\">Correct</p>","response":null,"trial_index":146,"plugin_version":"2.1.0","time_elapsed":295494,"subject_id":"90861","group":"Group1","condition":"1_Rep","full_date":"2026-01-24T19:51:52.448Z","date":"2026-01-24","time":"19:51:52"},{"correct_response":"a","task":"test_phase","broad_category":"M","image_png":"M_Gneiss_14.png","image_id":206,"category_name":"Gneiss","category":13,"distinct_rating":3.41,"distinct_type":"Bottom","item_type":"Foil","rt":1356,"stimulus":"Stimuli_Rocks480/M_Gneiss_14.png","response":"l","trial_type":"image-keyboard-response","trial_index":147,"plugin_version":"2.1.0","time_elapsed":296864,"subject_id":"90861","group":"Group1","condition":"1_Rep","full_date":"2026-01-24T19:51:52.448Z","date":"2026-01-24","time":"19:51:52","cor_ans":false},{"trial_type":"html-keyboard-response","rt":null,"stimulus":"<p style=\"color: red; font-size: 50px; font-weight: bold;\">Incorrect</p>","response":null,"trial_index":148,"plugin_version":"2.1.0","time_elapsed":297367,"subject_id":"90861","group":"Group1","condition":"1_Rep","full_date":"2026-01-24T19:51:52.448Z","date":"2026-01-24","time":"19:51:52"},{"correct_response":"l","task":"test_phase","broad_category":"M","image_png":"M_Quartzite_08.png","image_id":280,"category_name":"Quartzite","category":18,"distinct_rating":2.15,"distinct_type":"Bottom","item_type":"Target","rt":559,"stimulus":"Stimuli_Rocks480/M_Quartzite_08.png","response":"l","trial_type":"image-keyboard-response","trial_index":149,"plugin_version":"2.1.0","time_elapsed":297940,"subject_id":"90861","group":"Group1","condition":"1_Rep","full_date":"2026-01-24T19:51:52.448Z","date":"2026-01-24","time":"19:51:52","cor_ans":true},{"trial_type":"html-keyboard-response","rt":null,"stimulus":"<p style=\"color: green; font-size: 50px; font-weight: bold;\">Correct</p>","response":null,"trial_index":150,"plugin_version":"2.1.0","time_elapsed":298442,"subject_id":"90861","group":"Group1","condition":"1_Rep","full_date":"2026-01-24T19:51:52.448Z","date":"2026-01-24","time":"19:51:52"},{"correct_response":"l","task":"test_phase","broad_category":"I","image_png":"I_Basalt_02.png","image_id":18,"category_name":"Basalt","category":2,"distinct_rating":1.84,"distinct_type":"Bottom","item_type":"Target","rt":711,"stimulus":"Stimuli_Rocks480/I_Basalt_02.png","response":"l","trial_type":"image-keyboard-response","trial_index":151,"plugin_version":"2.1.0","time_elapsed":299167,"subject_id":"90861","group":"Group1","condition":"1_Rep","full_date":"2026-01-24T19:51:52.448Z","date":"2026-01-24","time":"19:51:52","cor_ans":true},{"trial_type":"html-keyboard-response","rt":null,"stimulus":"<p style=\"color: green; font-size: 50px; font-weight: bold;\">Correct</p>","response":null,"trial_index":152,"plugin_version":"2.1.0","time_elapsed":299670,"subject_id":"90861","group":"Group1","condition":"1_Rep","full_date":"2026-01-24T19:51:52.448Z","date":"2026-01-24","time":"19:51:52"},{"correct_response":"a","task":"test_phase","broad_category":"S","image_png":"S_Rock Salt_13.png","image_id":445,"category_name":"Rock Salt","category":28,"distinct_rating":7.58,"distinct_type":"Top","item_type":"Foil","rt":728,"stimulus":"Stimuli_Rocks480/S_Rock Salt_13.png","response":"a","trial_type":"image-keyboard-response","trial_index":153,"plugin_version":"2.1.0","time_elapsed":300414,"subject_id":"90861","group":"Group1","condition":"1_Rep","full_date":"2026-01-24T19:51:52.448Z","date":"2026-01-24","time":"19:51:52","cor_ans":true},{"trial_type":"html-keyboard-response","rt":null,"stimulus":"<p style=\"color: green; font-size: 50px; font-weight: bold;\">Correct</p>","response":null,"trial_index":154,"plugin_version":"2.1.0","time_elapsed":300916,"subject_id":"90861","group":"Group1","condition":"1_Rep","full_date":"2026-01-24T19:51:52.448Z","date":"2026-01-24","time":"19:51:52"},{"correct_response":"a","task":"test_phase","broad_category":"S","image_png":"S_Sandstone_11.png","image_id":459,"category_name":"Sandstone","category":29,"distinct_rating":1.82,"distinct_type":"Bottom","item_type":"Foil","rt":2454,"stimulus":"Stimuli_Rocks480/S_Sandstone_11.png","response":"l","trial_type":"image-keyboard-response","trial_index":155,"plugin_version":"2.1.0","time_elapsed":303387,"subject_id":"90861","group":"Group1","condition":"1_Rep","full_date":"2026-01-24T19:51:52.448Z","date":"2026-01-24","time":"19:51:52","cor_ans":false},{"trial_type":"html-keyboard-response","rt":null,"stimulus":"<p style=\"color: red; font-size: 50px; font-weight: bold;\">Incorrect</p>","response":null,"trial_index":156,"plugin_version":"2.1.0","time_elapsed":303890,"subject_id":"90861","group":"Group1","condition":"1_Rep","full_date":"2026-01-24T19:51:52.448Z","date":"2026-01-24","time":"19:51:52"},{"correct_response":"l","task":"test_phase","broad_category":"M","image_png":"M_Phyllite_07.png","image_id":263,"category_name":"Phyllite","category":17,"distinct_rating":2.59,"distinct_type":"Bottom","item_type":"Target","rt":829,"stimulus":"Stimuli_Rocks480/M_Phyllite_07.png","response":"l","trial_type":"image-keyboard-response","trial_index":157,"plugin_version":"2.1.0","time_elapsed":304728,"subject_id":"90861","group":"Group1","condition":"1_Rep","full_date":"2026-01-24T19:51:52.448Z","date":"2026-01-24","time":"19:51:52","cor_ans":true},{"trial_type":"html-keyboard-response","rt":null,"stimulus":"<p style=\"color: green; font-size: 50px; font-weight: bold;\">Correct</p>","response":null,"trial_index":158,"plugin_version":"2.1.0","time_elapsed":305231,"subject_id":"90861","group":"Group1","condition":"1_Rep","full_date":"2026-01-24T19:51:52.448Z","date":"2026-01-24","time":"19:51:52"},{"correct_response":"l","task":"test_phase","broad_category":"S","image_png":"S_Sandstone_03.png","image_id":451,"category_name":"Sandstone","category":29,"distinct_rating":1.86,"distinct_type":"Bottom","item_type":"Target","rt":702,"stimulus":"Stimuli_Rocks480/S_Sandstone_03.png","response":"l","trial_type":"image-keyboard-response","trial_index":159,"plugin_version":"2.1.0","time_elapsed":305948,"subject_id":"90861","group":"Group1","condition":"1_Rep","full_date":"2026-01-24T19:51:52.448Z","date":"2026-01-24","time":"19:51:52","cor_ans":true},{"trial_type":"html-keyboard-response","rt":null,"stimulus":"<p style=\"color: green; font-size: 50px; font-weight: bold;\">Correct</p>","response":null,"trial_index":160,"plugin_version":"2.1.0","time_elapsed":306450,"subject_id":"90861","group":"Group1","condition":"1_Rep","full_date":"2026-01-24T19:51:52.448Z","date":"2026-01-24","time":"19:51:52"},{"correct_response":"a","task":"test_phase","broad_category":"M","image_png":"M_Quartzite_15.png","image_id":287,"category_name":"Quartzite","category":18,"distinct_rating":2.19,"distinct_type":"Bottom","item_type":"Foil","rt":588,"stimulus":"Stimuli_Rocks480/M_Quartzite_15.png","response":"l","trial_type":"image-keyboard-response","trial_index":161,"plugin_version":"2.1.0","time_elapsed":307055,"subject_id":"90861","group":"Group1","condition":"1_Rep","full_date":"2026-01-24T19:51:52.448Z","date":"2026-01-24","time":"19:51:52","cor_ans":false},{"trial_type":"html-keyboard-response","rt":null,"stimulus":"<p style=\"color: red; font-size: 50px; font-weight: bold;\">Incorrect</p>","response":null,"trial_index":162,"plugin_version":"2.1.0","time_elapsed":307558,"subject_id":"90861","group":"Group1","condition":"1_Rep","full_date":"2026-01-24T19:51:52.448Z","date":"2026-01-24","time":"19:51:52"},{"correct_response":"a","task":"test_phase","broad_category":"S","image_png":"S_Sandstone_04.png","image_id":452,"category_name":"Sandstone","category":29,"distinct_rating":1.8,"distinct_type":"Bottom","item_type":"Foil","rt":1352,"stimulus":"Stimuli_Rocks480/S_Sandstone_04.png","response":"l","trial_type":"image-keyboard-response","trial_index":163,"plugin_version":"2.1.0","time_elapsed":308923,"subject_id":"90861","group":"Group1","condition":"1_Rep","full_date":"2026-01-24T19:51:52.448Z","date":"2026-01-24","time":"19:51:52","cor_ans":false},{"trial_type":"html-keyboard-response","rt":null,"stimulus":"<p style=\"color: red; font-size: 50px; font-weight: bold;\">Incorrect</p>","response":null,"trial_index":164,"plugin_version":"2.1.0","time_elapsed":309425,"subject_id":"90861","group":"Group1","condition":"1_Rep","full_date":"2026-01-24T19:51:52.448Z","date":"2026-01-24","time":"19:51:52"},{"correct_response":"l","task":"test_phase","broad_category":"M","image_png":"M_Marble_04.png","image_id":228,"category_name":"Marble","category":15,"distinct_rating":3.15,"distinct_type":"Bottom","item_type":"Target","rt":2636,"stimulus":"Stimuli_Rocks480/M_Marble_04.png","response":"l","trial_type":"image-keyboard-response","trial_index":165,"plugin_version":"2.1.0","time_elapsed":312075,"subject_id":"90861","group":"Group1","condition":"1_Rep","full_date":"2026-01-24T19:51:52.448Z","date":"2026-01-24","time":"19:51:52","cor_ans":true},{"trial_type":"html-keyboard-response","rt":null,"stimulus":"<p style=\"color: green; font-size: 50px; font-weight: bold;\">Correct</p>","response":null,"trial_index":166,"plugin_version":"2.1.0","time_elapsed":312577,"subject_id":"90861","group":"Group1","condition":"1_Rep","full_date":"2026-01-24T19:51:52.448Z","date":"2026-01-24","time":"19:51:52"},{"correct_response":"a","task":"test_phase","broad_category":"I","image_png":"I_Diorite_15.png","image_id":47,"category_name":"Diorite","category":3,"distinct_rating":3.05,"distinct_type":"Bottom","item_type":"Foil","rt":806,"stimulus":"Stimuli_Rocks480/I_Diorite_15.png","response":"l","trial_type":"image-keyboard-response","trial_index":167,"plugin_version":"2.1.0","time_elapsed":313396,"subject_id":"90861","group":"Group1","condition":"1_Rep","full_date":"2026-01-24T19:51:52.448Z","date":"2026-01-24","time":"19:51:52","cor_ans":false},{"trial_type":"html-keyboard-response","rt":null,"stimulus":"<p style=\"color: red; font-size: 50px; font-weight: bold;\">Incorrect</p>","response":null,"trial_index":168,"plugin_version":"2.1.0","time_elapsed":313898,"subject_id":"90861","group":"Group1","condition":"1_Rep","full_date":"2026-01-24T19:51:52.448Z","date":"2026-01-24","time":"19:51:52"},{"correct_response":"l","task":"test_phase","broad_category":"M","image_png":"M_Marble_06.png","image_id":230,"category_name":"Marble","category":15,"distinct_rating":3.4,"distinct_type":"Bottom","item_type":"Target","rt":896,"stimulus":"Stimuli_Rocks480/M_Marble_06.png","response":"l","trial_type":"image-keyboard-response","trial_index":169,"plugin_version":"2.1.0","time_elapsed":314808,"subject_id":"90861","group":"Group1","condition":"1_Rep","full_date":"2026-01-24T19:51:52.448Z","date":"2026-01-24","time":"19:51:52","cor_ans":true},{"trial_type":"html-keyboard-response","rt":null,"stimulus":"<p style=\"color: green; font-size: 50px; font-weight: bold;\">Correct</p>","response":null,"trial_index":170,"plugin_version":"2.1.0","time_elapsed":315310,"subject_id":"90861","group":"Group1","condition":"1_Rep","full_date":"2026-01-24T19:51:52.448Z","date":"2026-01-24","time":"19:51:52"},{"correct_response":"a","task":"test_phase","broad_category":"M","image_png":"M_Quartzite_07.png","image_id":279,"category_name":"Quartzite","category":18,"distinct_rating":1.97,"distinct_type":"Bottom","item_type":"Foil","rt":1326,"stimulus":"Stimuli_Rocks480/M_Quartzite_07.png","response":"a","trial_type":"image-keyboard-response","trial_index":171,"plugin_version":"2.1.0","time_elapsed":316652,"subject_id":"90861","group":"Group1","condition":"1_Rep","full_date":"2026-01-24T19:51:52.448Z","date":"2026-01-24","time":"19:51:52","cor_ans":true},{"trial_type":"html-keyboard-response","rt":null,"stimulus":"<p style=\"color: green; font-size: 50px; font-weight: bold;\">Correct</p>","response":null,"trial_index":172,"plugin_version":"2.1.0","time_elapsed":317154,"subject_id":"90861","group":"Group1","condition":"1_Rep","full_date":"2026-01-24T19:51:52.448Z","date":"2026-01-24","time":"19:51:52"},{"correct_response":"a","task":"test_phase","broad_category":"S","image_png":"S_Sandstone_08.png","image_id":456,"category_name":"Sandstone","category":29,"distinct_rating":1.5,"distinct_type":"Bottom","item_type":"Foil","rt":1668,"stimulus":"Stimuli_Rocks480/S_Sandstone_08.png","response":"a","trial_type":"image-keyboard-response","trial_index":173,"plugin_version":"2.1.0","time_elapsed":318836,"subject_id":"90861","group":"Group1","condition":"1_Rep","full_date":"2026-01-24T19:51:52.448Z","date":"2026-01-24","time":"19:51:52","cor_ans":true},{"trial_type":"html-keyboard-response","rt":null,"stimulus":"<p style=\"color: green; font-size: 50px; font-weight: bold;\">Correct</p>","response":null,"trial_index":174,"plugin_version":"2.1.0","time_elapsed":319339,"subject_id":"90861","group":"Group1","condition":"1_Rep","full_date":"2026-01-24T19:51:52.448Z","date":"2026-01-24","time":"19:51:52"},{"correct_response":"a","task":"test_phase","broad_category":"I","image_png":"I_Obsidian_06.png","image_id":86,"category_name":"Obsidian","category":6,"distinct_rating":8.01,"distinct_type":"Top","item_type":"Foil","rt":698,"stimulus":"Stimuli_Rocks480/I_Obsidian_06.png","response":"a","trial_type":"image-keyboard-response","trial_index":175,"plugin_version":"2.1.0","time_elapsed":320053,"subject_id":"90861","group":"Group1","condition":"1_Rep","full_date":"2026-01-24T19:51:52.448Z","date":"2026-01-24","time":"19:51:52","cor_ans":true},{"trial_type":"html-keyboard-response","rt":null,"stimulus":"<p style=\"color: green; font-size: 50px; font-weight: bold;\">Correct</p>","response":null,"trial_index":176,"plugin_version":"2.1.0","time_elapsed":320554,"subject_id":"90861","group":"Group1","condition":"1_Rep","full_date":"2026-01-24T19:51:52.448Z","date":"2026-01-24","time":"19:51:52"},{"correct_response":"l","task":"test_phase","broad_category":"S","image_png":"S_Shale_08.png","image_id":472,"category_name":"Shale","category":30,"distinct_rating":2.55,"distinct_type":"Bottom","item_type":"Target","rt":1025,"stimulus":"Stimuli_Rocks480/S_Shale_08.png","response":"l","trial_type":"image-keyboard-response","trial_index":177,"plugin_version":"2.1.0","time_elapsed":321594,"subject_id":"90861","group":"Group1","condition":"1_Rep","full_date":"2026-01-24T19:51:52.448Z","date":"2026-01-24","time":"19:51:52","cor_ans":true},{"trial_type":"html-keyboard-response","rt":null,"stimulus":"<p style=\"color: green; font-size: 50px; font-weight: bold;\">Correct</p>","response":null,"trial_index":178,"plugin_version":"2.1.0","time_elapsed":322096,"subject_id":"90861","group":"Group1","condition":"1_Rep","full_date":"2026-01-24T19:51:52.448Z","date":"2026-01-24","time":"19:51:52"},{"correct_response":"a","task":"test_phase","broad_category":"I","image_png":"I_Andesite_03.png","image_id":3,"category_name":"Andesite","category":1,"distinct_rating":3.17,"distinct_type":"Bottom","item_type":"Foil","rt":2690,"stimulus":"Stimuli_Rocks480/I_Andesite_03.png","response":"a","trial_type":"image-keyboard-response","trial_index":179,"plugin_version":"2.1.0","time_elapsed":324799,"subject_id":"90861","group":"Group1","condition":"1_Rep","full_date":"2026-01-24T19:51:52.448Z","date":"2026-01-24","time":"19:51:52","cor_ans":true},{"trial_type":"html-keyboard-response","rt":null,"stimulus":"<p style=\"color: green; font-size: 50px; font-weight: bold;\">Correct</p>","response":null,"trial_index":180,"plugin_version":"2.1.0","time_elapsed":325300,"subject_id":"90861","group":"Group1","condition":"1_Rep","full_date":"2026-01-24T19:51:52.448Z","date":"2026-01-24","time":"19:51:52"},{"correct_response":"a","task":"test_phase","broad_category":"I","image_png":"I_Rhyolite_05.png","image_id":149,"category_name":"Rhyolite","category":10,"distinct_rating":3.02,"distinct_type":"Bottom","item_type":"Foil","rt":1163,"stimulus":"Stimuli_Rocks480/I_Rhyolite_05.png","response":"l","trial_type":"image-keyboard-response","trial_index":181,"plugin_version":"2.1.0","time_elapsed":326482,"subject_id":"90861","group":"Group1","condition":"1_Rep","full_date":"2026-01-24T19:51:52.448Z","date":"2026-01-24","time":"19:51:52","cor_ans":false},{"trial_type":"html-keyboard-response","rt":null,"stimulus":"<p style=\"color: red; font-size: 50px; font-weight: bold;\">Incorrect</p>","response":null,"trial_index":182,"plugin_version":"2.1.0","time_elapsed":326984,"subject_id":"90861","group":"Group1","condition":"1_Rep","full_date":"2026-01-24T19:51:52.448Z","date":"2026-01-24","time":"19:51:52"},{"correct_response":"a","task":"test_phase","broad_category":"M","image_png":"M_Marble_02.png","image_id":226,"category_name":"Marble","category":15,"distinct_rating":3.2,"distinct_type":"Bottom","item_type":"Foil","rt":1808,"stimulus":"Stimuli_Rocks480/M_Marble_02.png","response":"a","trial_type":"image-keyboard-response","trial_index":183,"plugin_version":"2.1.0","time_elapsed":328803,"subject_id":"90861","group":"Group1","condition":"1_Rep","full_date":"2026-01-24T19:51:52.448Z","date":"2026-01-24","time":"19:51:52","cor_ans":true},{"trial_type":"html-keyboard-response","rt":null,"stimulus":"<p style=\"color: green; font-size: 50px; font-weight: bold;\">Correct</p>","response":null,"trial_index":184,"plugin_version":"2.1.0","time_elapsed":329306,"subject_id":"90861","group":"Group1","condition":"1_Rep","full_date":"2026-01-24T19:51:52.448Z","date":"2026-01-24","time":"19:51:52"},{"correct_response":"l","task":"test_phase","broad_category":"M","image_png":"M_Slate_03.png","image_id":307,"category_name":"Slate","category":20,"distinct_rating":1.87,"distinct_type":"Bottom","item_type":"Target","rt":784,"stimulus":"Stimuli_Rocks480/M_Slate_03.png","response":"l","trial_type":"image-keyboard-response","trial_index":185,"plugin_version":"2.1.0","time_elapsed":330108,"subject_id":"90861","group":"Group1","condition":"1_Rep","full_date":"2026-01-24T19:51:52.448Z","date":"2026-01-24","time":"19:51:52","cor_ans":true},{"trial_type":"html-keyboard-response","rt":null,"stimulus":"<p style=\"color: green; font-size: 50px; font-weight: bold;\">Correct</p>","response":null,"trial_index":186,"plugin_version":"2.1.0","time_elapsed":330610,"subject_id":"90861","group":"Group1","condition":"1_Rep","full_date":"2026-01-24T19:51:52.448Z","date":"2026-01-24","time":"19:51:52"},{"correct_response":"a","task":"test_phase","broad_category":"M","image_png":"M_Slate_14.png","image_id":318,"category_name":"Slate","category":20,"distinct_rating":2.58,"distinct_type":"Bottom","item_type":"Foil","rt":763,"stimulus":"Stimuli_Rocks480/M_Slate_14.png","response":"l","trial_type":"image-keyboard-response","trial_index":187,"plugin_version":"2.1.0","time_elapsed":331383,"subject_id":"90861","group":"Group1","condition":"1_Rep","full_date":"2026-01-24T19:51:52.448Z","date":"2026-01-24","time":"19:51:52","cor_ans":false},{"trial_type":"html-keyboard-response","rt":null,"stimulus":"<p style=\"color: red; font-size: 50px; font-weight: bold;\">Incorrect</p>","response":null,"trial_index":188,"plugin_version":"2.1.0","time_elapsed":331885,"subject_id":"90861","group":"Group1","condition":"1_Rep","full_date":"2026-01-24T19:51:52.448Z","date":"2026-01-24","time":"19:51:52"},{"correct_response":"l","task":"test_phase","broad_category":"S","image_png":"S_Rock Salt_01.png","image_id":433,"category_name":"Rock Salt","category":28,"distinct_rating":7.18,"distinct_type":"Top","item_type":"Target","rt":1337,"stimulus":"Stimuli_Rocks480/S_Rock Salt_01.png","response":"l","trial_type":"image-keyboard-response","trial_index":189,"plugin_version":"2.1.0","time_elapsed":333239,"subject_id":"90861","group":"Group1","condition":"1_Rep","full_date":"2026-01-24T19:51:52.448Z","date":"2026-01-24","time":"19:51:52","cor_ans":true},{"trial_type":"html-keyboard-response","rt":null,"stimulus":"<p style=\"color: green; font-size: 50px; font-weight: bold;\">Correct</p>","response":null,"trial_index":190,"plugin_version":"2.1.0","time_elapsed":333741,"subject_id":"90861","group":"Group1","condition":"1_Rep","full_date":"2026-01-24T19:51:52.448Z","date":"2026-01-24","time":"19:51:52"},{"correct_response":"a","task":"test_phase","broad_category":"M","image_png":"M_Marble_14.png","image_id":238,"category_name":"Marble","category":15,"distinct_rating":3.31,"distinct_type":"Bottom","item_type":"Foil","rt":1733,"stimulus":"Stimuli_Rocks480/M_Marble_14.png","response":"a","trial_type":"image-keyboard-response","trial_index":191,"plugin_version":"2.1.0","time_elapsed":335487,"subject_id":"90861","group":"Group1","condition":"1_Rep","full_date":"2026-01-24T19:51:52.448Z","date":"2026-01-24","time":"19:51:52","cor_ans":true},{"trial_type":"html-keyboard-response","rt":null,"stimulus":"<p style=\"color: green; font-size: 50px; font-weight: bold;\">Correct</p>","response":null,"trial_index":192,"plugin_version":"2.1.0","time_elapsed":335989,"subject_id":"90861","group":"Group1","condition":"1_Rep","full_date":"2026-01-24T19:51:52.448Z","date":"2026-01-24","time":"19:51:52"},{"correct_response":"a","task":"test_phase","broad_category":"I","image_png":"I_Andesite_04.png","image_id":4,"category_name":"Andesite","category":1,"distinct_rating":3.18,"distinct_type":"Bottom","item_type":"Foil","rt":2365,"stimulus":"Stimuli_Rocks480/I_Andesite_04.png","response":"l","trial_type":"image-keyboard-response","trial_index":193,"plugin_version":"2.1.0","time_elapsed":338368,"subject_id":"90861","group":"Group1","condition":"1_Rep","full_date":"2026-01-24T19:51:52.448Z","date":"2026-01-24","time":"19:51:52","cor_ans":false},{"trial_type":"html-keyboard-response","rt":null,"stimulus":"<p style=\"color: red; font-size: 50px; font-weight: bold;\">Incorrect</p>","response":null,"trial_index":194,"plugin_version":"2.1.0","time_elapsed":338870,"subject_id":"90861","group":"Group1","condition":"1_Rep","full_date":"2026-01-24T19:51:52.448Z","date":"2026-01-24","time":"19:51:52"},{"correct_response":"l","task":"test_phase","broad_category":"M","image_png":"M_Gneiss_05.png","image_id":197,"category_name":"Gneiss","category":13,"distinct_rating":2.97,"distinct_type":"Bottom","item_type":"Target","rt":1446,"stimulus":"Stimuli_Rocks480/M_Gneiss_05.png","response":"l","trial_type":"image-keyboard-response","trial_index":195,"plugin_version":"2.1.0","time_elapsed":340335,"subject_id":"90861","group":"Group1","condition":"1_Rep","full_date":"2026-01-24T19:51:52.448Z","date":"2026-01-24","time":"19:51:52","cor_ans":true},{"trial_type":"html-keyboard-response","rt":null,"stimulus":"<p style=\"color: green; font-size: 50px; font-weight: bold;\">Correct</p>","response":null,"trial_index":196,"plugin_version":"2.1.0","time_elapsed":340837,"subject_id":"90861","group":"Group1","condition":"1_Rep","full_date":"2026-01-24T19:51:52.448Z","date":"2026-01-24","time":"19:51:52"},{"correct_response":"a","task":"test_phase","broad_category":"M","image_png":"M_Phyllite_02.png","image_id":258,"category_name":"Phyllite","category":17,"distinct_rating":2.89,"distinct_type":"Bottom","item_type":"Foil","rt":1998,"stimulus":"Stimuli_Rocks480/M_Phyllite_02.png","response":"a","trial_type":"image-keyboard-response","trial_index":197,"plugin_version":"2.1.0","time_elapsed":342850,"subject_id":"90861","group":"Group1","condition":"1_Rep","full_date":"2026-01-24T19:51:52.448Z","date":"2026-01-24","time":"19:51:52","cor_ans":true},{"trial_type":"html-keyboard-response","rt":null,"stimulus":"<p style=\"color: green; font-size: 50px; font-weight: bold;\">Correct</p>","response":null,"trial_index":198,"plugin_version":"2.1.0","time_elapsed":343353,"subject_id":"90861","group":"Group1","condition":"1_Rep","full_date":"2026-01-24T19:51:52.448Z","date":"2026-01-24","time":"19:51:52"},{"correct_response":"a","task":"test_phase","broad_category":"I","image_png":"I_Rhyolite_10.png","image_id":154,"category_name":"Rhyolite","category":10,"distinct_rating":2.88,"distinct_type":"Bottom","item_type":"Foil","rt":731,"stimulus":"Stimuli_Rocks480/I_Rhyolite_10.png","response":"l","trial_type":"image-keyboard-response","trial_index":199,"plugin_version":"2.1.0","time_elapsed":344103,"subject_id":"90861","group":"Group1","condition":"1_Rep","full_date":"2026-01-24T19:51:52.448Z","date":"2026-01-24","time":"19:51:52","cor_ans":false},{"trial_type":"html-keyboard-response","rt":null,"stimulus":"<p style=\"color: red; font-size: 50px; font-weight: bold;\">Incorrect</p>","response":null,"trial_index":200,"plugin_version":"2.1.0","time_elapsed":344605,"subject_id":"90861","group":"Group1","condition":"1_Rep","full_date":"2026-01-24T19:51:52.448Z","date":"2026-01-24","time":"19:51:52"},{"correct_response":"l","task":"test_phase","broad_category":"S","image_png":"S_Sandstone_15.png","image_id":463,"category_name":"Sandstone","category":29,"distinct_rating":2,"distinct_type":"Bottom","item_type":"Target","rt":806,"stimulus":"Stimuli_Rocks480/S_Sandstone_15.png","response":"l","trial_type":"image-keyboard-response","trial_index":201,"plugin_version":"2.1.0","time_elapsed":345428,"subject_id":"90861","group":"Group1","condition":"1_Rep","full_date":"2026-01-24T19:51:52.448Z","date":"2026-01-24","time":"19:51:52","cor_ans":true},{"trial_type":"html-keyboard-response","rt":null,"stimulus":"<p style=\"color: green; font-size: 50px; font-weight: bold;\">Correct</p>","response":null,"trial_index":202,"plugin_version":"2.1.0","time_elapsed":345930,"subject_id":"90861","group":"Group1","condition":"1_Rep","full_date":"2026-01-24T19:51:52.448Z","date":"2026-01-24","time":"19:51:52"},{"correct_response":"l","task":"test_phase","broad_category":"M","image_png":"M_Gneiss_13.png","image_id":205,"category_name":"Gneiss","category":13,"distinct_rating":3.26,"distinct_type":"Bottom","item_type":"Target","rt":1952,"stimulus":"Stimuli_Rocks480/M_Gneiss_13.png","response":"a","trial_type":"image-keyboard-response","trial_index":203,"plugin_version":"2.1.0","time_elapsed":347894,"subject_id":"90861","group":"Group1","condition":"1_Rep","full_date":"2026-01-24T19:51:52.448Z","date":"2026-01-24","time":"19:51:52","cor_ans":false},{"trial_type":"html-keyboard-response","rt":null,"stimulus":"<p style=\"color: red; font-size: 50px; font-weight: bold;\">Incorrect</p>","response":null,"trial_index":204,"plugin_version":"2.1.0","time_elapsed":348396,"subject_id":"90861","group":"Group1","condition":"1_Rep","full_date":"2026-01-24T19:51:52.448Z","date":"2026-01-24","time":"19:51:52"},{"correct_response":"l","task":"test_phase","broad_category":"S","image_png":"S_Conglomerate_05.png","image_id":373,"category_name":"Conglomerate","category":24,"distinct_rating":7.32,"distinct_type":"Top","item_type":"Target","rt":734,"stimulus":"Stimuli_Rocks480/S_Conglomerate_05.png","response":"l","trial_type":"image-keyboard-response","trial_index":205,"plugin_version":"2.1.0","time_elapsed":349146,"subject_id":"90861","group":"Group1","condition":"1_Rep","full_date":"2026-01-24T19:51:52.448Z","date":"2026-01-24","time":"19:51:52","cor_ans":true},{"trial_type":"html-keyboard-response","rt":null,"stimulus":"<p style=\"color: green; font-size: 50px; font-weight: bold;\">Correct</p>","response":null,"trial_index":206,"plugin_version":"2.1.0","time_elapsed":349648,"subject_id":"90861","group":"Group1","condition":"1_Rep","full_date":"2026-01-24T19:51:52.448Z","date":"2026-01-24","time":"19:51:52"},{"correct_response":"l","task":"test_phase","broad_category":"I","image_png":"I_Basalt_01.png","image_id":17,"category_name":"Basalt","category":2,"distinct_rating":1.92,"distinct_type":"Bottom","item_type":"Target","rt":792,"stimulus":"Stimuli_Rocks480/I_Basalt_01.png","response":"l","trial_type":"image-keyboard-response","trial_index":207,"plugin_version":"2.1.0","time_elapsed":350457,"subject_id":"90861","group":"Group1","condition":"1_Rep","full_date":"2026-01-24T19:51:52.448Z","date":"2026-01-24","time":"19:51:52","cor_ans":true},{"trial_type":"html-keyboard-response","rt":null,"stimulus":"<p style=\"color: green; font-size: 50px; font-weight: bold;\">Correct</p>","response":null,"trial_index":208,"plugin_version":"2.1.0","time_elapsed":350958,"subject_id":"90861","group":"Group1","condition":"1_Rep","full_date":"2026-01-24T19:51:52.448Z","date":"2026-01-24","time":"19:51:52"},{"correct_response":"l","task":"test_phase","broad_category":"S","image_png":"S_Dolomite_13.png","image_id":397,"category_name":"Dolomite","category":25,"distinct_rating":1.77,"distinct_type":"Bottom","item_type":"Target","rt":750,"stimulus":"Stimuli_Rocks480/S_Dolomite_13.png","response":"l","trial_type":"image-keyboard-response","trial_index":209,"plugin_version":"2.1.0","time_elapsed":351723,"subject_id":"90861","group":"Group1","condition":"1_Rep","full_date":"2026-01-24T19:51:52.448Z","date":"2026-01-24","time":"19:51:52","cor_ans":true},{"trial_type":"html-keyboard-response","rt":null,"stimulus":"<p style=\"color: green; font-size: 50px; font-weight: bold;\">Correct</p>","response":null,"trial_index":210,"plugin_version":"2.1.0","time_elapsed":352225,"subject_id":"90861","group":"Group1","condition":"1_Rep","full_date":"2026-01-24T19:51:52.448Z","date":"2026-01-24","time":"19:51:52"},{"correct_response":"a","task":"test_phase","broad_category":"M","image_png":"M_Slate_10.png","image_id":314,"category_name":"Slate","category":20,"distinct_rating":1.94,"distinct_type":"Bottom","item_type":"Foil","rt":1324,"stimulus":"Stimuli_Rocks480/M_Slate_10.png","response":"l","trial_type":"image-keyboard-response","trial_index":211,"plugin_version":"2.1.0","time_elapsed":353560,"subject_id":"90861","group":"Group1","condition":"1_Rep","full_date":"2026-01-24T19:51:52.448Z","date":"2026-01-24","time":"19:51:52","cor_ans":false},{"trial_type":"html-keyboard-response","rt":null,"stimulus":"<p style=\"color: red; font-size: 50px; font-weight: bold;\">Incorrect</p>","response":null,"trial_index":212,"plugin_version":"2.1.0","time_elapsed":354062,"subject_id":"90861","group":"Group1","condition":"1_Rep","full_date":"2026-01-24T19:51:52.448Z","date":"2026-01-24","time":"19:51:52"},{"correct_response":"l","task":"test_phase","broad_category":"I","image_png":"I_Andesite_10.png","image_id":10,"category_name":"Andesite","category":1,"distinct_rating":3.15,"distinct_type":"Bottom","item_type":"Target","rt":1018,"stimulus":"Stimuli_Rocks480/I_Andesite_10.png","response":"l","trial_type":"image-keyboard-response","trial_index":213,"plugin_version":"2.1.0","time_elapsed":355092,"subject_id":"90861","group":"Group1","condition":"1_Rep","full_date":"2026-01-24T19:51:52.448Z","date":"2026-01-24","time":"19:51:52","cor_ans":true},{"trial_type":"html-keyboard-response","rt":null,"stimulus":"<p style=\"color: green; font-size: 50px; font-weight: bold;\">Correct</p>","response":null,"trial_index":214,"plugin_version":"2.1.0","time_elapsed":355595,"subject_id":"90861","group":"Group1","condition":"1_Rep","full_date":"2026-01-24T19:51:52.448Z","date":"2026-01-24","time":"19:51:52"},{"correct_response":"a","task":"test_phase","broad_category":"M","image_png":"M_Quartzite_12.png","image_id":284,"category_name":"Quartzite","category":18,"distinct_rating":1.92,"distinct_type":"Bottom","item_type":"Foil","rt":1001,"stimulus":"Stimuli_Rocks480/M_Quartzite_12.png","response":"a","trial_type":"image-keyboard-response","trial_index":215,"plugin_version":"2.1.0","time_elapsed":356611,"subject_id":"90861","group":"Group1","condition":"1_Rep","full_date":"2026-01-24T19:51:52.448Z","date":"2026-01-24","time":"19:51:52","cor_ans":true},{"trial_type":"html-keyboard-response","rt":null,"stimulus":"<p style=\"color: green; font-size: 50px; font-weight: bold;\">Correct</p>","response":null,"trial_index":216,"plugin_version":"2.1.0","time_elapsed":357114,"subject_id":"90861","group":"Group1","condition":"1_Rep","full_date":"2026-01-24T19:51:52.448Z","date":"2026-01-24","time":"19:51:52"},{"correct_response":"l","task":"test_phase","broad_category":"S","image_png":"S_Dolomite_14.png","image_id":398,"category_name":"Dolomite","category":25,"distinct_rating":1.43,"distinct_type":"Bottom","item_type":"Target","rt":1111,"stimulus":"Stimuli_Rocks480/S_Dolomite_14.png","response":"l","trial_type":"image-keyboard-response","trial_index":217,"plugin_version":"2.1.0","time_elapsed":358239,"subject_id":"90861","group":"Group1","condition":"1_Rep","full_date":"2026-01-24T19:51:52.448Z","date":"2026-01-24","time":"19:51:52","cor_ans":true},{"trial_type":"html-keyboard-response","rt":null,"stimulus":"<p style=\"color: green; font-size: 50px; font-weight: bold;\">Correct</p>","response":null,"trial_index":218,"plugin_version":"2.1.0","time_elapsed":358741,"subject_id":"90861","group":"Group1","condition":"1_Rep","full_date":"2026-01-24T19:51:52.448Z","date":"2026-01-24","time":"19:51:52"},{"correct_response":"a","task":"test_phase","broad_category":"I","image_png":"I_Basalt_13.png","image_id":29,"category_name":"Basalt","category":2,"distinct_rating":2.68,"distinct_type":"Bottom","item_type":"Foil","rt":1056,"stimulus":"Stimuli_Rocks480/I_Basalt_13.png","response":"l","trial_type":"image-keyboard-response","trial_index":219,"plugin_version":"2.1.0","time_elapsed":359811,"subject_id":"90861","group":"Group1","condition":"1_Rep","full_date":"2026-01-24T19:51:52.448Z","date":"2026-01-24","time":"19:51:52","cor_ans":false},{"trial_type":"html-keyboard-response","rt":null,"stimulus":"<p style=\"color: red; font-size: 50px; font-weight: bold;\">Incorrect</p>","response":null,"trial_index":220,"plugin_version":"2.1.0","time_elapsed":360313,"subject_id":"90861","group":"Group1","condition":"1_Rep","full_date":"2026-01-24T19:51:52.448Z","date":"2026-01-24","time":"19:51:52"},{"correct_response":"a","task":"test_phase","broad_category":"I","image_png":"I_Diorite_10.png","image_id":42,"category_name":"Diorite","category":3,"distinct_rating":2.84,"distinct_type":"Bottom","item_type":"Foil","rt":670,"stimulus":"Stimuli_Rocks480/I_Diorite_10.png","response":"l","trial_type":"image-keyboard-response","trial_index":221,"plugin_version":"2.1.0","time_elapsed":360997,"subject_id":"90861","group":"Group1","condition":"1_Rep","full_date":"2026-01-24T19:51:52.448Z","date":"2026-01-24","time":"19:51:52","cor_ans":false},{"trial_type":"html-keyboard-response","rt":null,"stimulus":"<p style=\"color: red; font-size: 50px; font-weight: bold;\">Incorrect</p>","response":null,"trial_index":222,"plugin_version":"2.1.0","time_elapsed":361499,"subject_id":"90861","group":"Group1","condition":"1_Rep","full_date":"2026-01-24T19:51:52.448Z","date":"2026-01-24","time":"19:51:52"},{"correct_response":"l","task":"test_phase","broad_category":"I","image_png":"I_Diorite_04.png","image_id":36,"category_name":"Diorite","category":3,"distinct_rating":2.98,"distinct_type":"Bottom","item_type":"Target","rt":872,"stimulus":"Stimuli_Rocks480/I_Diorite_04.png","response":"l","trial_type":"image-keyboard-response","trial_index":223,"plugin_version":"2.1.0","time_elapsed":362385,"subject_id":"90861","group":"Group1","condition":"1_Rep","full_date":"2026-01-24T19:51:52.448Z","date":"2026-01-24","time":"19:51:52","cor_ans":true},{"trial_type":"html-keyboard-response","rt":null,"stimulus":"<p style=\"color: green; font-size: 50px; font-weight: bold;\">Correct</p>","response":null,"trial_index":224,"plugin_version":"2.1.0","time_elapsed":362888,"subject_id":"90861","group":"Group1","condition":"1_Rep","full_date":"2026-01-24T19:51:52.448Z","date":"2026-01-24","time":"19:51:52"},{"correc