[{"width":1132,"height":958,"webaudio":true,"browser":"chrome","browser_version":"144.0.0","mobile":false,"os":"Mac OS","fullscreen":true,"vsync_rate":120.92,"webcam":true,"microphone":true,"trial_type":"browser-check","trial_index":0,"plugin_version":"2.1.0","time_elapsed":502,"subject_id":"90639","group":"Group1","condition":"3_Rep","full_date":"2026-02-05T02:13:14.733Z","date":"2026-02-05","time":"02:13:14"},{"success":true,"timeout":false,"failed_images":[],"failed_audio":[],"failed_video":[],"trial_type":"preload","trial_index":1,"plugin_version":"2.1.0","time_elapsed":3504,"subject_id":"90639","group":"Group1","condition":"3_Rep","full_date":"2026-02-05T02:13:14.733Z","date":"2026-02-05","time":"02:13:14"},{"rt":5640,"url":"SONA_consent_memorability.html","trial_type":"external-html","trial_index":2,"plugin_version":"2.1.0","time_elapsed":9275,"subject_id":"90639","group":"Group1","condition":"3_Rep","full_date":"2026-02-05T02:13:14.733Z","date":"2026-02-05","time":"02:13:14"},{"success":true,"rt":1193,"trial_type":"fullscreen","trial_index":3,"plugin_version":"2.1.0","time_elapsed":11472,"subject_id":"90639","group":"Group1","condition":"3_Rep","full_date":"2026-02-05T02:13:14.733Z","date":"2026-02-05","time":"02:13:14"},{"rt":2671,"stimulus":"<div style=\"max-width: 760px; margin: auto; font-size: 20px; line-height: 1.5;\">\n      <h1 style=\"text-align:center; font-size: 30px;\">Instructions</h1>\n      <p>\n        Welcome to the study on <b>visual memory</b>. This experiment consists of <b>two phases</b>: \n        a <b>study phase</b> and a <b>test phase</b>.\n      </p>\n      <p>\n        In the study phase, you will see a series of rock images along with their category labels.\n        The images will appear one at a time.\n        <b>Your task</b> is to learn the categories to which the rock images belong \n        and to remember each image as accurately as possible.\n      </p> \n      <p>\n        Note that we will repeat the study phase <b>3 times</b>, \n             so you will have multiple opportunities to see and remember each image.\n      </p>\n      <p>\n        After the study phase, <b>your memory will be tested</b>. \n        Additional instructions for the test phase will be provided at that time.\n      </p>\n      <p>\n        If your computer has multiple <b>language settings</b> (e.g., English and another language),\n        please make sure it is set to English before starting.\n      </p>\n      <p>\n        You can track your progress using the <b>completion bar</b> at the top of the screen. \n        Please note that the bar will refresh when the test phase begins \n        to give you an accurate sense of your progress in both phases.\n      </p> \n      <p>\n        Press the button below when you are ready to begin.\n      </p>\n    </div>","response":0,"trial_type":"html-button-response","trial_index":4,"plugin_version":"2.1.0","time_elapsed":14146,"subject_id":"90639","group":"Group1","condition":"3_Rep","full_date":"2026-02-05T02:13:14.733Z","date":"2026-02-05","time":"02:13:14"},{"rt":null,"stimulus":"<p style=\"font-size: 50px; margin: 0; text-align: center;\">+</p>","response":null,"trial_type":"html-keyboard-response","trial_index":5,"plugin_version":"2.1.0","time_elapsed":15150,"subject_id":"90639","group":"Group1","condition":"3_Rep","full_date":"2026-02-05T02:13:14.733Z","date":"2026-02-05","time":"02:13:14"},{"task":"memory_phase","broad_category":"I","image_png":"I_Pegmatite_16.png","image_id":112,"category_name":"Pegmatite","category":7,"distinct_rating":7.03,"distinct_type":"Top","rt":null,"stimulus":"Stimuli_Rocks480/I_Pegmatite_16.png","response":null,"trial_type":"image-keyboard-response","trial_index":6,"plugin_version":"2.1.0","time_elapsed":17656,"subject_id":"90639","group":"Group1","condition":"3_Rep","full_date":"2026-02-05T02:13:14.733Z","date":"2026-02-05","time":"02:13:14"},{"rt":null,"stimulus":"<p style=\"font-size: 50px; margin: 0; text-align: center;\">+</p>","response":null,"trial_type":"html-keyboard-response","trial_index":7,"plugin_version":"2.1.0","time_elapsed":18658,"subject_id":"90639","group":"Group1","condition":"3_Rep","full_date":"2026-02-05T02:13:14.733Z","date":"2026-02-05","time":"02:13:14"},{"task":"memory_phase","broad_category":"M","image_png":"M_Quartzite_05.png","image_id":277,"category_name":"Quartzite","category":18,"distinct_rating":2.23,"distinct_type":"Bottom","rt":null,"stimulus":"Stimuli_Rocks480/M_Quartzite_05.png","response":null,"trial_type":"image-keyboard-response","trial_index":8,"plugin_version":"2.1.0","time_elapsed":21162,"subject_id":"90639","group":"Group1","condition":"3_Rep","full_date":"2026-02-05T02:13:14.733Z","date":"2026-02-05","time":"02:13:14"},{"rt":null,"stimulus":"<p style=\"font-size: 50px; margin: 0; text-align: center;\">+</p>","response":null,"trial_type":"html-keyboard-response","trial_index":9,"plugin_version":"2.1.0","time_elapsed":22165,"subject_id":"90639","group":"Group1","condition":"3_Rep","full_date":"2026-02-05T02:13:14.733Z","date":"2026-02-05","time":"02:13:14"},{"task":"memory_phase","broad_category":"M","image_png":"M_Gneiss_13.png","image_id":205,"category_name":"Gneiss","category":13,"distinct_rating":3.26,"distinct_type":"Bottom","rt":null,"stimulus":"Stimuli_Rocks480/M_Gneiss_13.png","response":null,"trial_type":"image-keyboard-response","trial_index":10,"plugin_version":"2.1.0","time_elapsed":24669,"subject_id":"90639","group":"Group1","condition":"3_Rep","full_date":"2026-02-05T02:13:14.733Z","date":"2026-02-05","time":"02:13:14"},{"rt":null,"stimulus":"<p style=\"font-size: 50px; margin: 0; text-align: center;\">+</p>","response":null,"trial_type":"html-keyboard-response","trial_index":11,"plugin_version":"2.1.0","time_elapsed":25672,"subject_id":"90639","group":"Group1","condition":"3_Rep","full_date":"2026-02-05T02:13:14.733Z","date":"2026-02-05","time":"02:13:14"},{"task":"memory_phase","broad_category":"S","image_png":"S_Shale_01.png","image_id":465,"category_name":"Shale","category":30,"distinct_rating":2.7,"distinct_type":"Bottom","rt":null,"stimulus":"Stimuli_Rocks480/S_Shale_01.png","response":null,"trial_type":"image-keyboard-response","trial_index":12,"plugin_version":"2.1.0","time_elapsed":28176,"subject_id":"90639","group":"Group1","condition":"3_Rep","full_date":"2026-02-05T02:13:14.733Z","date":"2026-02-05","time":"02:13:14"},{"rt":null,"stimulus":"<p style=\"font-size: 50px; margin: 0; text-align: center;\">+</p>","response":null,"trial_type":"html-keyboard-response","trial_index":13,"plugin_version":"2.1.0","time_elapsed":29178,"subject_id":"90639","group":"Group1","condition":"3_Rep","full_date":"2026-02-05T02:13:14.733Z","date":"2026-02-05","time":"02:13:14"},{"task":"memory_phase","broad_category":"M","image_png":"M_Gneiss_06.png","image_id":198,"category_name":"Gneiss","category":13,"distinct_rating":2.65,"distinct_type":"Bottom","rt":null,"stimulus":"Stimuli_Rocks480/M_Gneiss_06.png","response":null,"trial_type":"image-keyboard-response","trial_index":14,"plugin_version":"2.1.0","time_elapsed":31682,"subject_id":"90639","group":"Group1","condition":"3_Rep","full_date":"2026-02-05T02:13:14.733Z","date":"2026-02-05","time":"02:13:14"},{"rt":null,"stimulus":"<p style=\"font-size: 50px; margin: 0; text-align: center;\">+</p>","response":null,"trial_type":"html-keyboard-response","trial_index":15,"plugin_version":"2.1.0","time_elapsed":32686,"subject_id":"90639","group":"Group1","condition":"3_Rep","full_date":"2026-02-05T02:13:14.733Z","date":"2026-02-05","time":"02:13:14"},{"task":"memory_phase","broad_category":"M","image_png":"M_Gneiss_05.png","image_id":197,"category_name":"Gneiss","category":13,"distinct_rating":2.97,"distinct_type":"Bottom","rt":null,"stimulus":"Stimuli_Rocks480/M_Gneiss_05.png","response":null,"trial_type":"image-keyboard-response","trial_index":16,"plugin_version":"2.1.0","time_elapsed":35190,"subject_id":"90639","group":"Group1","condition":"3_Rep","full_date":"2026-02-05T02:13:14.733Z","date":"2026-02-05","time":"02:13:14"},{"rt":null,"stimulus":"<p style=\"font-size: 50px; margin: 0; text-align: center;\">+</p>","response":null,"trial_type":"html-keyboard-response","trial_index":17,"plugin_version":"2.1.0","time_elapsed":36192,"subject_id":"90639","group":"Group1","condition":"3_Rep","full_date":"2026-02-05T02:13:14.733Z","date":"2026-02-05","time":"02:13:14"},{"task":"memory_phase","broad_category":"M","image_png":"M_Marble_04.png","image_id":228,"category_name":"Marble","category":15,"distinct_rating":3.15,"distinct_type":"Bottom","rt":null,"stimulus":"Stimuli_Rocks480/M_Marble_04.png","response":null,"trial_type":"image-keyboard-response","trial_index":18,"plugin_version":"2.1.0","time_elapsed":38696,"subject_id":"90639","group":"Group1","condition":"3_Rep","full_date":"2026-02-05T02:13:14.733Z","date":"2026-02-05","time":"02:13:14"},{"rt":null,"stimulus":"<p style=\"font-size: 50px; margin: 0; text-align: center;\">+</p>","response":null,"trial_type":"html-keyboard-response","trial_index":19,"plugin_version":"2.1.0","time_elapsed":39699,"subject_id":"90639","group":"Group1","condition":"3_Rep","full_date":"2026-02-05T02:13:14.733Z","date":"2026-02-05","time":"02:13:14"},{"task":"memory_phase","broad_category":"M","image_png":"M_Slate_15.png","image_id":319,"category_name":"Slate","category":20,"distinct_rating":2.13,"distinct_type":"Bottom","rt":null,"stimulus":"Stimuli_Rocks480/M_Slate_15.png","response":null,"trial_type":"image-keyboard-response","trial_index":20,"plugin_version":"2.1.0","time_elapsed":42202,"subject_id":"90639","group":"Group1","condition":"3_Rep","full_date":"2026-02-05T02:13:14.733Z","date":"2026-02-05","time":"02:13:14"},{"rt":null,"stimulus":"<p style=\"font-size: 50px; margin: 0; text-align: center;\">+</p>","response":null,"trial_type":"html-keyboard-response","trial_index":21,"plugin_version":"2.1.0","time_elapsed":43205,"subject_id":"90639","group":"Group1","condition":"3_Rep","full_date":"2026-02-05T02:13:14.733Z","date":"2026-02-05","time":"02:13:14"},{"task":"memory_phase","broad_category":"S","image_png":"S_Conglomerate_05.png","image_id":373,"category_name":"Conglomerate","category":24,"distinct_rating":7.32,"distinct_type":"Top","rt":null,"stimulus":"Stimuli_Rocks480/S_Conglomerate_05.png","response":null,"trial_type":"image-keyboard-response","trial_index":22,"plugin_version":"2.1.0","time_elapsed":45709,"subject_id":"90639","group":"Group1","condition":"3_Rep","full_date":"2026-02-05T02:13:14.733Z","date":"2026-02-05","time":"02:13:14"},{"rt":null,"stimulus":"<p style=\"font-size: 50px; margin: 0; text-align: center;\">+</p>","response":null,"trial_type":"html-keyboard-response","trial_index":23,"plugin_version":"2.1.0","time_elapsed":46712,"subject_id":"90639","group":"Group1","condition":"3_Rep","full_date":"2026-02-05T02:13:14.733Z","date":"2026-02-05","time":"02:13:14"},{"task":"memory_phase","broad_category":"M","image_png":"M_Quartzite_08.png","image_id":280,"category_name":"Quartzite","category":18,"distinct_rating":2.15,"distinct_type":"Bottom","rt":null,"stimulus":"Stimuli_Rocks480/M_Quartzite_08.png","response":null,"trial_type":"image-keyboard-response","trial_index":24,"plugin_version":"2.1.0","time_elapsed":49216,"subject_id":"90639","group":"Group1","condition":"3_Rep","full_date":"2026-02-05T02:13:14.733Z","date":"2026-02-05","time":"02:13:14"},{"rt":null,"stimulus":"<p style=\"font-size: 50px; margin: 0; text-align: center;\">+</p>","response":null,"trial_type":"html-keyboard-response","trial_index":25,"plugin_version":"2.1.0","time_elapsed":50218,"subject_id":"90639","group":"Group1","condition":"3_Rep","full_date":"2026-02-05T02:13:14.733Z","date":"2026-02-05","time":"02:13:14"},{"task":"memory_phase","broad_category":"M","image_png":"M_Marble_06.png","image_id":230,"category_name":"Marble","category":15,"distinct_rating":3.4,"distinct_type":"Bottom","rt":null,"stimulus":"Stimuli_Rocks480/M_Marble_06.png","response":null,"trial_type":"image-keyboard-response","trial_index":26,"plugin_version":"2.1.0","time_elapsed":52722,"subject_id":"90639","group":"Group1","condition":"3_Rep","full_date":"2026-02-05T02:13:14.733Z","date":"2026-02-05","time":"02:13:14"},{"rt":null,"stimulus":"<p style=\"font-size: 50px; margin: 0; text-align: center;\">+</p>","response":null,"trial_type":"html-keyboard-response","trial_index":27,"plugin_version":"2.1.0","time_elapsed":53725,"subject_id":"90639","group":"Group1","condition":"3_Rep","full_date":"2026-02-05T02:13:14.733Z","date":"2026-02-05","time":"02:13:14"},{"task":"memory_phase","broad_category":"I","image_png":"I_Gabbro_16.png","image_id":64,"category_name":"Gabbro","category":4,"distinct_rating":2.52,"distinct_type":"Bottom","rt":null,"stimulus":"Stimuli_Rocks480/I_Gabbro_16.png","response":null,"trial_type":"image-keyboard-response","trial_index":28,"plugin_version":"2.1.0","time_elapsed":56228,"subject_id":"90639","group":"Group1","condition":"3_Rep","full_date":"2026-02-05T02:13:14.733Z","date":"2026-02-05","time":"02:13:14"},{"rt":null,"stimulus":"<p style=\"font-size: 50px; margin: 0; text-align: center;\">+</p>","response":null,"trial_type":"html-keyboard-response","trial_index":29,"plugin_version":"2.1.0","time_elapsed":57230,"subject_id":"90639","group":"Group1","condition":"3_Rep","full_date":"2026-02-05T02:13:14.733Z","date":"2026-02-05","time":"02:13:14"},{"task":"memory_phase","broad_category":"I","image_png":"I_Rhyolite_14.png","image_id":158,"category_name":"Rhyolite","category":10,"distinct_rating":2.59,"distinct_type":"Bottom","rt":null,"stimulus":"Stimuli_Rocks480/I_Rhyolite_14.png","response":null,"trial_type":"image-keyboard-response","trial_index":30,"plugin_version":"2.1.0","time_elapsed":59734,"subject_id":"90639","group":"Group1","condition":"3_Rep","full_date":"2026-02-05T02:13:14.733Z","date":"2026-02-05","time":"02:13:14"},{"rt":null,"stimulus":"<p style=\"font-size: 50px; margin: 0; text-align: center;\">+</p>","response":null,"trial_type":"html-keyboard-response","trial_index":31,"plugin_version":"2.1.0","time_elapsed":60737,"subject_id":"90639","group":"Group1","condition":"3_Rep","full_date":"2026-02-05T02:13:14.733Z","date":"2026-02-05","time":"02:13:14"},{"task":"memory_phase","broad_category":"I","image_png":"I_Diorite_04.png","image_id":36,"category_name":"Diorite","category":3,"distinct_rating":2.98,"distinct_type":"Bottom","rt":null,"stimulus":"Stimuli_Rocks480/I_Diorite_04.png","response":null,"trial_type":"image-keyboard-response","trial_index":32,"plugin_version":"2.1.0","time_elapsed":63241,"subject_id":"90639","group":"Group1","condition":"3_Rep","full_date":"2026-02-05T02:13:14.733Z","date":"2026-02-05","time":"02:13:14"},{"rt":null,"stimulus":"<p style=\"font-size: 50px; margin: 0; text-align: center;\">+</p>","response":null,"trial_type":"html-keyboard-response","trial_index":33,"plugin_version":"2.1.0","time_elapsed":64244,"subject_id":"90639","group":"Group1","condition":"3_Rep","full_date":"2026-02-05T02:13:14.733Z","date":"2026-02-05","time":"02:13:14"},{"task":"memory_phase","broad_category":"I","image_png":"I_Andesite_10.png","image_id":10,"category_name":"Andesite","category":1,"distinct_rating":3.15,"distinct_type":"Bottom","rt":null,"stimulus":"Stimuli_Rocks480/I_Andesite_10.png","response":null,"trial_type":"image-keyboard-response","trial_index":34,"plugin_version":"2.1.0","time_elapsed":66747,"subject_id":"90639","group":"Group1","condition":"3_Rep","full_date":"2026-02-05T02:13:14.733Z","date":"2026-02-05","time":"02:13:14"},{"rt":null,"stimulus":"<p style=\"font-size: 50px; margin: 0; text-align: center;\">+</p>","response":null,"trial_type":"html-keyboard-response","trial_index":35,"plugin_version":"2.1.0","time_elapsed":67749,"subject_id":"90639","group":"Group1","condition":"3_Rep","full_date":"2026-02-05T02:13:14.733Z","date":"2026-02-05","time":"02:13:14"},{"task":"memory_phase","broad_category":"I","image_png":"I_Andesite_08.png","image_id":8,"category_name":"Andesite","category":1,"distinct_rating":1.95,"distinct_type":"Bottom","rt":null,"stimulus":"Stimuli_Rocks480/I_Andesite_08.png","response":null,"trial_type":"image-keyboard-response","trial_index":36,"plugin_version":"2.1.0","time_elapsed":70253,"subject_id":"90639","group":"Group1","condition":"3_Rep","full_date":"2026-02-05T02:13:14.733Z","date":"2026-02-05","time":"02:13:14"},{"rt":null,"stimulus":"<p style=\"font-size: 50px; margin: 0; text-align: center;\">+</p>","response":null,"trial_type":"html-keyboard-response","trial_index":37,"plugin_version":"2.1.0","time_elapsed":71255,"subject_id":"90639","group":"Group1","condition":"3_Rep","full_date":"2026-02-05T02:13:14.733Z","date":"2026-02-05","time":"02:13:14"},{"task":"memory_phase","broad_category":"S","image_png":"S_Chert_10.png","image_id":362,"category_name":"Chert","category":23,"distinct_rating":7.17,"distinct_type":"Top","rt":null,"stimulus":"Stimuli_Rocks480/S_Chert_10.png","response":null,"trial_type":"image-keyboard-response","trial_index":38,"plugin_version":"2.1.0","time_elapsed":73759,"subject_id":"90639","group":"Group1","condition":"3_Rep","full_date":"2026-02-05T02:13:14.733Z","date":"2026-02-05","time":"02:13:14"},{"rt":null,"stimulus":"<p style=\"font-size: 50px; margin: 0; text-align: center;\">+</p>","response":null,"trial_type":"html-keyboard-response","trial_index":39,"plugin_version":"2.1.0","time_elapsed":74762,"subject_id":"90639","group":"Group1","condition":"3_Rep","full_date":"2026-02-05T02:13:14.733Z","date":"2026-02-05","time":"02:13:14"},{"task":"memory_phase","broad_category":"S","image_png":"S_Shale_12.png","image_id":476,"category_name":"Shale","category":30,"distinct_rating":2.48,"distinct_type":"Bottom","rt":null,"stimulus":"Stimuli_Rocks480/S_Shale_12.png","response":null,"trial_type":"image-keyboard-response","trial_index":40,"plugin_version":"2.1.0","time_elapsed":77266,"subject_id":"90639","group":"Group1","condition":"3_Rep","full_date":"2026-02-05T02:13:14.733Z","date":"2026-02-05","time":"02:13:14"},{"rt":null,"stimulus":"<p style=\"font-size: 50px; margin: 0; text-align: center;\">+</p>","response":null,"trial_type":"html-keyboard-response","trial_index":41,"plugin_version":"2.1.0","time_elapsed":78268,"subject_id":"90639","group":"Group1","condition":"3_Rep","full_date":"2026-02-05T02:13:14.733Z","date":"2026-02-05","time":"02:13:14"},{"task":"memory_phase","broad_category":"I","image_png":"I_Basalt_09.png","image_id":25,"category_name":"Basalt","category":2,"distinct_rating":1.89,"distinct_type":"Bottom","rt":null,"stimulus":"Stimuli_Rocks480/I_Basalt_09.png","response":null,"trial_type":"image-keyboard-response","trial_index":42,"plugin_version":"2.1.0","time_elapsed":80772,"subject_id":"90639","group":"Group1","condition":"3_Rep","full_date":"2026-02-05T02:13:14.733Z","date":"2026-02-05","time":"02:13:14"},{"rt":null,"stimulus":"<p style=\"font-size: 50px; margin: 0; text-align: center;\">+</p>","response":null,"trial_type":"html-keyboard-response","trial_index":43,"plugin_version":"2.1.0","time_elapsed":81775,"subject_id":"90639","group":"Group1","condition":"3_Rep","full_date":"2026-02-05T02:13:14.733Z","date":"2026-02-05","time":"02:13:14"},{"task":"memory_phase","broad_category":"I","image_png":"I_Obsidian_05.png","image_id":85,"category_name":"Obsidian","category":6,"distinct_rating":7.32,"distinct_type":"Top","rt":null,"stimulus":"Stimuli_Rocks480/I_Obsidian_05.png","response":null,"trial_type":"image-keyboard-response","trial_index":44,"plugin_version":"2.1.0","time_elapsed":84278,"subject_id":"90639","group":"Group1","condition":"3_Rep","full_date":"2026-02-05T02:13:14.733Z","date":"2026-02-05","time":"02:13:14"},{"rt":null,"stimulus":"<p style=\"font-size: 50px; margin: 0; text-align: center;\">+</p>","response":null,"trial_type":"html-keyboard-response","trial_index":45,"plugin_version":"2.1.0","time_elapsed":85281,"subject_id":"90639","group":"Group1","condition":"3_Rep","full_date":"2026-02-05T02:13:14.733Z","date":"2026-02-05","time":"02:13:14"},{"task":"memory_phase","broad_category":"I","image_png":"I_Basalt_02.png","image_id":18,"category_name":"Basalt","category":2,"distinct_rating":1.84,"distinct_type":"Bottom","rt":null,"stimulus":"Stimuli_Rocks480/I_Basalt_02.png","response":null,"trial_type":"image-keyboard-response","trial_index":46,"plugin_version":"2.1.0","time_elapsed":87785,"subject_id":"90639","group":"Group1","condition":"3_Rep","full_date":"2026-02-05T02:13:14.733Z","date":"2026-02-05","time":"02:13:14"},{"rt":null,"stimulus":"<p style=\"font-size: 50px; margin: 0; text-align: center;\">+</p>","response":null,"trial_type":"html-keyboard-response","trial_index":47,"plugin_version":"2.1.0","time_elapsed":88787,"subject_id":"90639","group":"Group1","condition":"3_Rep","full_date":"2026-02-05T02:13:14.733Z","date":"2026-02-05","time":"02:13:14"},{"task":"memory_phase","broad_category":"I","image_png":"I_Pumice_08.png","image_id":136,"category_name":"Pumice","category":9,"distinct_rating":3.1,"distinct_type":"Bottom","rt":null,"stimulus":"Stimuli_Rocks480/I_Pumice_08.png","response":null,"trial_type":"image-keyboard-response","trial_index":48,"plugin_version":"2.1.0","time_elapsed":91290,"subject_id":"90639","group":"Group1","condition":"3_Rep","full_date":"2026-02-05T02:13:14.733Z","date":"2026-02-05","time":"02:13:14"},{"rt":null,"stimulus":"<p style=\"font-size: 50px; margin: 0; text-align: center;\">+</p>","response":null,"trial_type":"html-keyboard-response","trial_index":49,"plugin_version":"2.1.0","time_elapsed":92293,"subject_id":"90639","group":"Group1","condition":"3_Rep","full_date":"2026-02-05T02:13:14.733Z","date":"2026-02-05","time":"02:13:14"},{"task":"memory_phase","broad_category":"I","image_png":"I_Pumice_12.png","image_id":140,"category_name":"Pumice","category":9,"distinct_rating":2.97,"distinct_type":"Bottom","rt":null,"stimulus":"Stimuli_Rocks480/I_Pumice_12.png","response":null,"trial_type":"image-keyboard-response","trial_index":50,"plugin_version":"2.1.0","time_elapsed":94796,"subject_id":"90639","group":"Group1","condition":"3_Rep","full_date":"2026-02-05T02:13:14.733Z","date":"2026-02-05","time":"02:13:14"},{"rt":null,"stimulus":"<p style=\"font-size: 50px; margin: 0; text-align: center;\">+</p>","response":null,"trial_type":"html-keyboard-response","trial_index":51,"plugin_version":"2.1.0","time_elapsed":95798,"subject_id":"90639","group":"Group1","condition":"3_Rep","full_date":"2026-02-05T02:13:14.733Z","date":"2026-02-05","time":"02:13:14"},{"task":"memory_phase","broad_category":"I","image_png":"I_Pumice_11.png","image_id":139,"category_name":"Pumice","category":9,"distinct_rating":1.74,"distinct_type":"Bottom","rt":null,"stimulus":"Stimuli_Rocks480/I_Pumice_11.png","response":null,"trial_type":"image-keyboard-response","trial_index":52,"plugin_version":"2.1.0","time_elapsed":98302,"subject_id":"90639","group":"Group1","condition":"3_Rep","full_date":"2026-02-05T02:13:14.733Z","date":"2026-02-05","time":"02:13:14"},{"rt":null,"stimulus":"<p style=\"font-size: 50px; margin: 0; text-align: center;\">+</p>","response":null,"trial_type":"html-keyboard-response","trial_index":53,"plugin_version":"2.1.0","time_elapsed":99304,"subject_id":"90639","group":"Group1","condition":"3_Rep","full_date":"2026-02-05T02:13:14.733Z","date":"2026-02-05","time":"02:13:14"},{"task":"memory_phase","broad_category":"M","image_png":"M_Quartzite_13.png","image_id":285,"category_name":"Quartzite","category":18,"distinct_rating":2.27,"distinct_type":"Bottom","rt":null,"stimulus":"Stimuli_Rocks480/M_Quartzite_13.png","response":null,"trial_type":"image-keyboard-response","trial_index":54,"plugin_version":"2.1.0","time_elapsed":101808,"subject_id":"90639","group":"Group1","condition":"3_Rep","full_date":"2026-02-05T02:13:14.733Z","date":"2026-02-05","time":"02:13:14"},{"rt":12078,"stimulus":"<p style=\"max-width: 760px; margin: auto; font-size: 35px; line-height: 1.5;\">\n                Press SPACE to continue study phase\n              </p>","response":" ","trial_type":"html-keyboard-response","trial_index":55,"plugin_version":"2.1.0","time_elapsed":113888,"subject_id":"90639","group":"Group1","condition":"3_Rep","full_date":"2026-02-05T02:13:14.733Z","date":"2026-02-05","time":"02:13:14"},{"rt":null,"stimulus":"<p style=\"font-size: 50px; margin: 0; text-align: center;\">+</p>","response":null,"trial_type":"html-keyboard-response","trial_index":56,"plugin_version":"2.1.0","time_elapsed":114891,"subject_id":"90639","group":"Group1","condition":"3_Rep","full_date":"2026-02-05T02:13:14.733Z","date":"2026-02-05","time":"02:13:14"},{"task":"memory_phase","broad_category":"I","image_png":"I_Basalt_01.png","image_id":17,"category_name":"Basalt","category":2,"distinct_rating":1.92,"distinct_type":"Bottom","rt":null,"stimulus":"Stimuli_Rocks480/I_Basalt_01.png","response":null,"trial_type":"image-keyboard-response","trial_index":57,"plugin_version":"2.1.0","time_elapsed":117395,"subject_id":"90639","group":"Group1","condition":"3_Rep","full_date":"2026-02-05T02:13:14.733Z","date":"2026-02-05","time":"02:13:14"},{"rt":null,"stimulus":"<p style=\"font-size: 50px; margin: 0; text-align: center;\">+</p>","response":null,"trial_type":"html-keyboard-response","trial_index":58,"plugin_version":"2.1.0","time_elapsed":118397,"subject_id":"90639","group":"Group1","condition":"3_Rep","full_date":"2026-02-05T02:13:14.733Z","date":"2026-02-05","time":"02:13:14"},{"task":"memory_phase","broad_category":"S","image_png":"S_Shale_08.png","image_id":472,"category_name":"Shale","category":30,"distinct_rating":2.55,"distinct_type":"Bottom","rt":null,"stimulus":"Stimuli_Rocks480/S_Shale_08.png","response":null,"trial_type":"image-keyboard-response","trial_index":59,"plugin_version":"2.1.0","time_elapsed":120900,"subject_id":"90639","group":"Group1","condition":"3_Rep","full_date":"2026-02-05T02:13:14.733Z","date":"2026-02-05","time":"02:13:14"},{"rt":null,"stimulus":"<p style=\"font-size: 50px; margin: 0; text-align: center;\">+</p>","response":null,"trial_type":"html-keyboard-response","trial_index":60,"plugin_version":"2.1.0","time_elapsed":121903,"subject_id":"90639","group":"Group1","condition":"3_Rep","full_date":"2026-02-05T02:13:14.733Z","date":"2026-02-05","time":"02:13:14"},{"task":"memory_phase","broad_category":"M","image_png":"M_Slate_11.png","image_id":315,"category_name":"Slate","category":20,"distinct_rating":2.75,"distinct_type":"Bottom","rt":null,"stimulus":"Stimuli_Rocks480/M_Slate_11.png","response":null,"trial_type":"image-keyboard-response","trial_index":61,"plugin_version":"2.1.0","time_elapsed":124406,"subject_id":"90639","group":"Group1","condition":"3_Rep","full_date":"2026-02-05T02:13:14.733Z","date":"2026-02-05","time":"02:13:14"},{"rt":null,"stimulus":"<p style=\"font-size: 50px; margin: 0; text-align: center;\">+</p>","response":null,"trial_type":"html-keyboard-response","trial_index":62,"plugin_version":"2.1.0","time_elapsed":125410,"subject_id":"90639","group":"Group1","condition":"3_Rep","full_date":"2026-02-05T02:13:14.733Z","date":"2026-02-05","time":"02:13:14"},{"task":"memory_phase","broad_category":"I","image_png":"I_Diorite_05.png","image_id":37,"category_name":"Diorite","category":3,"distinct_rating":3.08,"distinct_type":"Bottom","rt":null,"stimulus":"Stimuli_Rocks480/I_Diorite_05.png","response":null,"trial_type":"image-keyboard-response","trial_index":63,"plugin_version":"2.1.0","time_elapsed":127912,"subject_id":"90639","group":"Group1","condition":"3_Rep","full_date":"2026-02-05T02:13:14.733Z","date":"2026-02-05","time":"02:13:14"},{"rt":null,"stimulus":"<p style=\"font-size: 50px; margin: 0; text-align: center;\">+</p>","response":null,"trial_type":"html-keyboard-response","trial_index":64,"plugin_version":"2.1.0","time_elapsed":128915,"subject_id":"90639","group":"Group1","condition":"3_Rep","full_date":"2026-02-05T02:13:14.733Z","date":"2026-02-05","time":"02:13:14"},{"task":"memory_phase","broad_category":"S","image_png":"S_Dolomite_14.png","image_id":398,"category_name":"Dolomite","category":25,"distinct_rating":1.43,"distinct_type":"Bottom","rt":null,"stimulus":"Stimuli_Rocks480/S_Dolomite_14.png","response":null,"trial_type":"image-keyboard-response","trial_index":65,"plugin_version":"2.1.0","time_elapsed":131419,"subject_id":"90639","group":"Group1","condition":"3_Rep","full_date":"2026-02-05T02:13:14.733Z","date":"2026-02-05","time":"02:13:14"},{"rt":null,"stimulus":"<p style=\"font-size: 50px; margin: 0; text-align: center;\">+</p>","response":null,"trial_type":"html-keyboard-response","trial_index":66,"plugin_version":"2.1.0","time_elapsed":132422,"subject_id":"90639","group":"Group1","condition":"3_Rep","full_date":"2026-02-05T02:13:14.733Z","date":"2026-02-05","time":"02:13:14"},{"task":"memory_phase","broad_category":"M","image_png":"M_Phyllite_10.png","image_id":266,"category_name":"Phyllite","category":17,"distinct_rating":2.6,"distinct_type":"Bottom","rt":null,"stimulus":"Stimuli_Rocks480/M_Phyllite_10.png","response":null,"trial_type":"image-keyboard-response","trial_index":67,"plugin_version":"2.1.0","time_elapsed":134925,"subject_id":"90639","group":"Group1","condition":"3_Rep","full_date":"2026-02-05T02:13:14.733Z","date":"2026-02-05","time":"02:13:14"},{"rt":null,"stimulus":"<p style=\"font-size: 50px; margin: 0; text-align: center;\">+</p>","response":null,"trial_type":"html-keyboard-response","trial_index":68,"plugin_version":"2.1.0","time_elapsed":135927,"subject_id":"90639","group":"Group1","condition":"3_Rep","full_date":"2026-02-05T02:13:14.733Z","date":"2026-02-05","time":"02:13:14"},{"task":"memory_phase","broad_category":"I","image_png":"I_Rhyolite_16.png","image_id":160,"category_name":"Rhyolite","category":10,"distinct_rating":2.19,"distinct_type":"Bottom","rt":null,"stimulus":"Stimuli_Rocks480/I_Rhyolite_16.png","response":null,"trial_type":"image-keyboard-response","trial_index":69,"plugin_version":"2.1.0","time_elapsed":138431,"subject_id":"90639","group":"Group1","condition":"3_Rep","full_date":"2026-02-05T02:13:14.733Z","date":"2026-02-05","time":"02:13:14"},{"rt":null,"stimulus":"<p style=\"font-size: 50px; margin: 0; text-align: center;\">+</p>","response":null,"trial_type":"html-keyboard-response","trial_index":70,"plugin_version":"2.1.0","time_elapsed":139434,"subject_id":"90639","group":"Group1","condition":"3_Rep","full_date":"2026-02-05T02:13:14.733Z","date":"2026-02-05","time":"02:13:14"},{"task":"memory_phase","broad_category":"S","image_png":"S_Dolomite_13.png","image_id":397,"category_name":"Dolomite","category":25,"distinct_rating":1.77,"distinct_type":"Bottom","rt":null,"stimulus":"Stimuli_Rocks480/S_Dolomite_13.png","response":null,"trial_type":"image-keyboard-response","trial_index":71,"plugin_version":"2.1.0","time_elapsed":141937,"subject_id":"90639","group":"Group1","condition":"3_Rep","full_date":"2026-02-05T02:13:14.733Z","date":"2026-02-05","time":"02:13:14"},{"rt":null,"stimulus":"<p style=\"font-size: 50px; margin: 0; text-align: center;\">+</p>","response":null,"trial_type":"html-keyboard-response","trial_index":72,"plugin_version":"2.1.0","time_elapsed":142939,"subject_id":"90639","group":"Group1","condition":"3_Rep","full_date":"2026-02-05T02:13:14.733Z","date":"2026-02-05","time":"02:13:14"},{"task":"memory_phase","broad_category":"M","image_png":"M_Phyllite_03.png","image_id":259,"category_name":"Phyllite","category":17,"distinct_rating":2.5,"distinct_type":"Bottom","rt":null,"stimulus":"Stimuli_Rocks480/M_Phyllite_03.png","response":null,"trial_type":"image-keyboard-response","trial_index":73,"plugin_version":"2.1.0","time_elapsed":145443,"subject_id":"90639","group":"Group1","condition":"3_Rep","full_date":"2026-02-05T02:13:14.733Z","date":"2026-02-05","time":"02:13:14"},{"rt":null,"stimulus":"<p style=\"font-size: 50px; margin: 0; text-align: center;\">+</p>","response":null,"trial_type":"html-keyboard-response","trial_index":74,"plugin_version":"2.1.0","time_elapsed":146445,"subject_id":"90639","group":"Group1","condition":"3_Rep","full_date":"2026-02-05T02:13:14.733Z","date":"2026-02-05","time":"02:13:14"},{"task":"memory_phase","broad_category":"S","image_png":"S_Rock Salt_01.png","image_id":433,"category_name":"Rock Salt","category":28,"distinct_rating":7.18,"distinct_type":"Top","rt":null,"stimulus":"Stimuli_Rocks480/S_Rock Salt_01.png","response":null,"trial_type":"image-keyboard-response","trial_index":75,"plugin_version":"2.1.0","time_elapsed":148949,"subject_id":"90639","group":"Group1","condition":"3_Rep","full_date":"2026-02-05T02:13:14.733Z","date":"2026-02-05","time":"02:13:14"},{"rt":null,"stimulus":"<p style=\"font-size: 50px; margin: 0; text-align: center;\">+</p>","response":null,"trial_type":"html-keyboard-response","trial_index":76,"plugin_version":"2.1.0","time_elapsed":149951,"subject_id":"90639","group":"Group1","condition":"3_Rep","full_date":"2026-02-05T02:13:14.733Z","date":"2026-02-05","time":"02:13:14"},{"task":"memory_phase","broad_category":"I","image_png":"I_Gabbro_11.png","image_id":59,"category_name":"Gabbro","category":4,"distinct_rating":1.99,"distinct_type":"Bottom","rt":null,"stimulus":"Stimuli_Rocks480/I_Gabbro_11.png","response":null,"trial_type":"image-keyboard-response","trial_index":77,"plugin_version":"2.1.0","time_elapsed":152454,"subject_id":"90639","group":"Group1","condition":"3_Rep","full_date":"2026-02-05T02:13:14.733Z","date":"2026-02-05","time":"02:13:14"},{"rt":null,"stimulus":"<p style=\"font-size: 50px; margin: 0; text-align: center;\">+</p>","response":null,"trial_type":"html-keyboard-response","trial_index":78,"plugin_version":"2.1.0","time_elapsed":153456,"subject_id":"90639","group":"Group1","condition":"3_Rep","full_date":"2026-02-05T02:13:14.733Z","date":"2026-02-05","time":"02:13:14"},{"task":"memory_phase","broad_category":"I","image_png":"I_Rhyolite_11.png","image_id":155,"category_name":"Rhyolite","category":10,"distinct_rating":1.73,"distinct_type":"Bottom","rt":null,"stimulus":"Stimuli_Rocks480/I_Rhyolite_11.png","response":null,"trial_type":"image-keyboard-response","trial_index":79,"plugin_version":"2.1.0","time_elapsed":155959,"subject_id":"90639","group":"Group1","condition":"3_Rep","full_date":"2026-02-05T02:13:14.733Z","date":"2026-02-05","time":"02:13:14"},{"rt":null,"stimulus":"<p style=\"font-size: 50px; margin: 0; text-align: center;\">+</p>","response":null,"trial_type":"html-keyboard-response","trial_index":80,"plugin_version":"2.1.0","time_elapsed":156960,"subject_id":"90639","group":"Group1","condition":"3_Rep","full_date":"2026-02-05T02:13:14.733Z","date":"2026-02-05","time":"02:13:14"},{"task":"memory_phase","broad_category":"M","image_png":"M_Phyllite_07.png","image_id":263,"category_name":"Phyllite","category":17,"distinct_rating":2.59,"distinct_type":"Bottom","rt":null,"stimulus":"Stimuli_Rocks480/M_Phyllite_07.png","response":null,"trial_type":"image-keyboard-response","trial_index":81,"plugin_version":"2.1.0","time_elapsed":159464,"subject_id":"90639","group":"Group1","condition":"3_Rep","full_date":"2026-02-05T02:13:14.733Z","date":"2026-02-05","time":"02:13:14"},{"rt":null,"stimulus":"<p style=\"font-size: 50px; margin: 0; text-align: center;\">+</p>","response":null,"trial_type":"html-keyboard-response","trial_index":82,"plugin_version":"2.1.0","time_elapsed":160466,"subject_id":"90639","group":"Group1","condition":"3_Rep","full_date":"2026-02-05T02:13:14.733Z","date":"2026-02-05","time":"02:13:14"},{"task":"memory_phase","broad_category":"M","image_png":"M_Marble_16.png","image_id":240,"category_name":"Marble","category":15,"distinct_rating":2.57,"distinct_type":"Bottom","rt":null,"stimulus":"Stimuli_Rocks480/M_Marble_16.png","response":null,"trial_type":"image-keyboard-response","trial_index":83,"plugin_version":"2.1.0","time_elapsed":163085,"subject_id":"90639","group":"Group1","condition":"3_Rep","full_date":"2026-02-05T02:13:14.733Z","date":"2026-02-05","time":"02:13:14"},{"rt":null,"stimulus":"<p style=\"font-size: 50px; margin: 0; text-align: center;\">+</p>","response":null,"trial_type":"html-keyboard-response","trial_index":84,"plugin_version":"2.1.0","time_elapsed":164087,"subject_id":"90639","group":"Group1","condition":"3_Rep","full_date":"2026-02-05T02:13:14.733Z","date":"2026-02-05","time":"02:13:14"},{"task":"memory_phase","broad_category":"I","image_png":"I_Pegmatite_10.png","image_id":106,"category_name":"Pegmatite","category":7,"distinct_rating":7.66,"distinct_type":"Top","rt":null,"stimulus":"Stimuli_Rocks480/I_Pegmatite_10.png","response":null,"trial_type":"image-keyboard-response","trial_index":85,"plugin_version":"2.1.0","time_elapsed":166590,"subject_id":"90639","group":"Group1","condition":"3_Rep","full_date":"2026-02-05T02:13:14.733Z","date":"2026-02-05","time":"02:13:14"},{"rt":null,"stimulus":"<p style=\"font-size: 50px; margin: 0; text-align: center;\">+</p>","response":null,"trial_type":"html-keyboard-response","trial_index":86,"plugin_version":"2.1.0","time_elapsed":167592,"subject_id":"90639","group":"Group1","condition":"3_Rep","full_date":"2026-02-05T02:13:14.733Z","date":"2026-02-05","time":"02:13:14"},{"task":"memory_phase","broad_category":"I","image_png":"I_Gabbro_08.png","image_id":56,"category_name":"Gabbro","category":4,"distinct_rating":3.02,"distinct_type":"Bottom","rt":null,"stimulus":"Stimuli_Rocks480/I_Gabbro_08.png","response":null,"trial_type":"image-keyboard-response","trial_index":87,"plugin_version":"2.1.0","time_elapsed":170095,"subject_id":"90639","group":"Group1","condition":"3_Rep","full_date":"2026-02-05T02:13:14.733Z","date":"2026-02-05","time":"02:13:14"},{"rt":null,"stimulus":"<p style=\"font-size: 50px; margin: 0; text-align: center;\">+</p>","response":null,"trial_type":"html-keyboard-response","trial_index":88,"plugin_version":"2.1.0","time_elapsed":171097,"subject_id":"90639","group":"Group1","condition":"3_Rep","full_date":"2026-02-05T02:13:14.733Z","date":"2026-02-05","time":"02:13:14"},{"task":"memory_phase","broad_category":"M","image_png":"M_Slate_03.png","image_id":307,"category_name":"Slate","category":20,"distinct_rating":1.87,"distinct_type":"Bottom","rt":null,"stimulus":"Stimuli_Rocks480/M_Slate_03.png","response":null,"trial_type":"image-keyboard-response","trial_index":89,"plugin_version":"2.1.0","time_elapsed":173600,"subject_id":"90639","group":"Group1","condition":"3_Rep","full_date":"2026-02-05T02:13:14.733Z","date":"2026-02-05","time":"02:13:14"},{"rt":null,"stimulus":"<p style=\"font-size: 50px; margin: 0; text-align: center;\">+</p>","response":null,"trial_type":"html-keyboard-response","trial_index":90,"plugin_version":"2.1.0","time_elapsed":174603,"subject_id":"90639","group":"Group1","condition":"3_Rep","full_date":"2026-02-05T02:13:14.733Z","date":"2026-02-05","time":"02:13:14"},{"task":"memory_phase","broad_category":"S","image_png":"S_Rock Gypsum_04.png","image_id":420,"category_name":"Rock Gypsum","category":27,"distinct_rating":7.61,"distinct_type":"Top","rt":null,"stimulus":"Stimuli_Rocks480/S_Rock Gypsum_04.png","response":null,"trial_type":"image-keyboard-response","trial_index":91,"plugin_version":"2.1.0","time_elapsed":177106,"subject_id":"90639","group":"Group1","condition":"3_Rep","full_date":"2026-02-05T02:13:14.733Z","date":"2026-02-05","time":"02:13:14"},{"rt":null,"stimulus":"<p style=\"font-size: 50px; margin: 0; text-align: center;\">+</p>","response":null,"trial_type":"html-keyboard-response","trial_index":92,"plugin_version":"2.1.0","time_elapsed":178108,"subject_id":"90639","group":"Group1","condition":"3_Rep","full_date":"2026-02-05T02:13:14.733Z","date":"2026-02-05","time":"02:13:14"},{"task":"memory_phase","broad_category":"I","image_png":"I_Andesite_06.png","image_id":6,"category_name":"Andesite","category":1,"distinct_rating":3.17,"distinct_type":"Bottom","rt":null,"stimulus":"Stimuli_Rocks480/I_Andesite_06.png","response":null,"trial_type":"image-keyboard-response","trial_index":93,"plugin_version":"2.1.0","time_elapsed":180612,"subject_id":"90639","group":"Group1","condition":"3_Rep","full_date":"2026-02-05T02:13:14.733Z","date":"2026-02-05","time":"02:13:14"},{"rt":null,"stimulus":"<p style=\"font-size: 50px; margin: 0; text-align: center;\">+</p>","response":null,"trial_type":"html-keyboard-response","trial_index":94,"plugin_version":"2.1.0","time_elapsed":181614,"subject_id":"90639","group":"Group1","condition":"3_Rep","full_date":"2026-02-05T02:13:14.733Z","date":"2026-02-05","time":"02:13:14"},{"task":"memory_phase","broad_category":"S","image_png":"S_Sandstone_03.png","image_id":451,"category_name":"Sandstone","category":29,"distinct_rating":1.86,"distinct_type":"Bottom","rt":null,"stimulus":"Stimuli_Rocks480/S_Sandstone_03.png","response":null,"trial_type":"image-keyboard-response","trial_index":95,"plugin_version":"2.1.0","time_elapsed":184118,"subject_id":"90639","group":"Group1","condition":"3_Rep","full_date":"2026-02-05T02:13:14.733Z","date":"2026-02-05","time":"02:13:14"},{"rt":null,"stimulus":"<p style=\"font-size: 50px; margin: 0; text-align: center;\">+</p>","response":null,"trial_type":"html-keyboard-response","trial_index":96,"plugin_version":"2.1.0","time_elapsed":185120,"subject_id":"90639","group":"Group1","condition":"3_Rep","full_date":"2026-02-05T02:13:14.733Z","date":"2026-02-05","time":"02:13:14"},{"task":"memory_phase","broad_category":"S","image_png":"S_Sandstone_15.png","image_id":463,"category_name":"Sandstone","category":29,"distinct_rating":2,"distinct_type":"Bottom","rt":null,"stimulus":"Stimuli_Rocks480/S_Sandstone_15.png","response":null,"trial_type":"image-keyboard-response","trial_index":97,"plugin_version":"2.1.0","time_elapsed":187623,"subject_id":"90639","group":"Group1","condition":"3_Rep","full_date":"2026-02-05T02:13:14.733Z","date":"2026-02-05","time":"02:13:14"},{"rt":null,"stimulus":"<p style=\"font-size: 50px; margin: 0; text-align: center;\">+</p>","response":null,"trial_type":"html-keyboard-response","trial_index":98,"plugin_version":"2.1.0","time_elapsed":188625,"subject_id":"90639","group":"Group1","condition":"3_Rep","full_date":"2026-02-05T02:13:14.733Z","date":"2026-02-05","time":"02:13:14"},{"task":"memory_phase","broad_category":"I","image_png":"I_Diorite_03.png","image_id":35,"category_name":"Diorite","category":3,"distinct_rating":3.14,"distinct_type":"Bottom","rt":null,"stimulus":"Stimuli_Rocks480/I_Diorite_03.png","response":null,"trial_type":"image-keyboard-response","trial_index":99,"plugin_version":"2.1.0","time_elapsed":191129,"subject_id":"90639","group":"Group1","condition":"3_Rep","full_date":"2026-02-05T02:13:14.733Z","date":"2026-02-05","time":"02:13:14"},{"rt":null,"stimulus":"<p style=\"font-size: 50px; margin: 0; text-align: center;\">+</p>","response":null,"trial_type":"html-keyboard-response","trial_index":100,"plugin_version":"2.1.0","time_elapsed":192131,"subject_id":"90639","group":"Group1","condition":"3_Rep","full_date":"2026-02-05T02:13:14.733Z","date":"2026-02-05","time":"02:13:14"},{"task":"memory_phase","broad_category":"S","image_png":"S_Sandstone_16.png","image_id":464,"category_name":"Sandstone","category":29,"distinct_rating":1.93,"distinct_type":"Bottom","rt":null,"stimulus":"Stimuli_Rocks480/S_Sandstone_16.png","response":null,"trial_type":"image-keyboard-response","trial_index":101,"plugin_version":"2.1.0","time_elapsed":194634,"subject_id":"90639","group":"Group1","condition":"3_Rep","full_date":"2026-02-05T02:13:14.733Z","date":"2026-02-05","time":"02:13:14"},{"rt":null,"stimulus":"<p style=\"font-size: 50px; margin: 0; text-align: center;\">+</p>","response":null,"trial_type":"html-keyboard-response","trial_index":102,"plugin_version":"2.1.0","time_elapsed":195635,"subject_id":"90639","group":"Group1","condition":"3_Rep","full_date":"2026-02-05T02:13:14.733Z","date":"2026-02-05","time":"02:13:14"},{"task":"memory_phase","broad_category":"S","image_png":"S_Breccia_11.png","image_id":347,"category_name":"Breccia","category":22,"distinct_rating":6.7,"distinct_type":"Top","rt":null,"stimulus":"Stimuli_Rocks480/S_Breccia_11.png","response":null,"trial_type":"image-keyboard-response","trial_index":103,"plugin_version":"2.1.0","time_elapsed":198139,"subject_id":"90639","group":"Group1","condition":"3_Rep","full_date":"2026-02-05T02:13:14.733Z","date":"2026-02-05","time":"02:13:14"},{"rt":null,"stimulus":"<p style=\"font-size: 50px; margin: 0; text-align: center;\">+</p>","response":null,"trial_type":"html-keyboard-response","trial_index":104,"plugin_version":"2.1.0","time_elapsed":199141,"subject_id":"90639","group":"Group1","condition":"3_Rep","full_date":"2026-02-05T02:13:14.733Z","date":"2026-02-05","time":"02:13:14"},{"task":"memory_phase","broad_category":"S","image_png":"S_Dolomite_12.png","image_id":396,"category_name":"Dolomite","category":25,"distinct_rating":1.85,"distinct_type":"Bottom","rt":null,"stimulus":"Stimuli_Rocks480/S_Dolomite_12.png","response":null,"trial_type":"image-keyboard-response","trial_index":105,"plugin_version":"2.1.0","time_elapsed":201644,"subject_id":"90639","group":"Group1","condition":"3_Rep","full_date":"2026-02-05T02:13:14.733Z","date":"2026-02-05","time":"02:13:14"},{"rt":11259,"stimulus":"<p style=\"max-width: 760px; margin: auto; font-size: 35px; line-height: 1.5;\">\n                You have completed 1 study phase. \n                Now, we'll show you all the images again 2 more times.\n                <br><br>Press SPACE to continue\n              </p>","response":" ","trial_type":"html-keyboard-response","trial_index":106,"plugin_version":"2.1.0","time_elapsed":212904,"subject_id":"90639","group":"Group1","condition":"3_Rep","full_date":"2026-02-05T02:13:14.733Z","date":"2026-02-05","time":"02:13:14"},{"rt":null,"stimulus":"<p style=\"font-size: 50px; margin: 0; text-align: center;\">+</p>","response":null,"trial_type":"html-keyboard-response","trial_index":107,"plugin_version":"2.1.0","time_elapsed":213906,"subject_id":"90639","group":"Group1","condition":"3_Rep","full_date":"2026-02-05T02:13:14.733Z","date":"2026-02-05","time":"02:13:14"},{"task":"memory_phase","broad_category":"M","image_png":"M_Phyllite_10.png","image_id":266,"category_name":"Phyllite","category":17,"distinct_rating":2.6,"distinct_type":"Bottom","rt":null,"stimulus":"Stimuli_Rocks480/M_Phyllite_10.png","response":null,"trial_type":"image-keyboard-response","trial_index":108,"plugin_version":"2.1.0","time_elapsed":216410,"subject_id":"90639","group":"Group1","condition":"3_Rep","full_date":"2026-02-05T02:13:14.733Z","date":"2026-02-05","time":"02:13:14"},{"rt":null,"stimulus":"<p style=\"font-size: 50px; margin: 0; text-align: center;\">+</p>","response":null,"trial_type":"html-keyboard-response","trial_index":109,"plugin_version":"2.1.0","time_elapsed":217413,"subject_id":"90639","group":"Group1","condition":"3_Rep","full_date":"2026-02-05T02:13:14.733Z","date":"2026-02-05","time":"02:13:14"},{"task":"memory_phase","broad_category":"I","image_png":"I_Pegmatite_16.png","image_id":112,"category_name":"Pegmatite","category":7,"distinct_rating":7.03,"distinct_type":"Top","rt":null,"stimulus":"Stimuli_Rocks480/I_Pegmatite_16.png","response":null,"trial_type":"image-keyboard-response","trial_index":110,"plugin_version":"2.1.0","time_elapsed":219916,"subject_id":"90639","group":"Group1","condition":"3_Rep","full_date":"2026-02-05T02:13:14.733Z","date":"2026-02-05","time":"02:13:14"},{"rt":null,"stimulus":"<p style=\"font-size: 50px; margin: 0; text-align: center;\">+</p>","response":null,"trial_type":"html-keyboard-response","trial_index":111,"plugin_version":"2.1.0","time_elapsed":220919,"subject_id":"90639","group":"Group1","condition":"3_Rep","full_date":"2026-02-05T02:13:14.733Z","date":"2026-02-05","time":"02:13:14"},{"task":"memory_phase","broad_category":"I","image_png":"I_Diorite_04.png","image_id":36,"category_name":"Diorite","category":3,"distinct_rating":2.98,"distinct_type":"Bottom","rt":null,"stimulus":"Stimuli_Rocks480/I_Diorite_04.png","response":null,"trial_type":"image-keyboard-response","trial_index":112,"plugin_version":"2.1.0","time_elapsed":223421,"subject_id":"90639","group":"Group1","condition":"3_Rep","full_date":"2026-02-05T02:13:14.733Z","date":"2026-02-05","time":"02:13:14"},{"rt":null,"stimulus":"<p style=\"font-size: 50px; margin: 0; text-align: center;\">+</p>","response":null,"trial_type":"html-keyboard-response","trial_index":113,"plugin_version":"2.1.0","time_elapsed":224424,"subject_id":"90639","group":"Group1","condition":"3_Rep","full_date":"2026-02-05T02:13:14.733Z","date":"2026-02-05","time":"02:13:14"},{"task":"memory_phase","broad_category":"I","image_png":"I_Gabbro_16.png","image_id":64,"category_name":"Gabbro","category":4,"distinct_rating":2.52,"distinct_type":"Bottom","rt":null,"stimulus":"Stimuli_Rocks480/I_Gabbro_16.png","response":null,"trial_type":"image-keyboard-response","trial_index":114,"plugin_version":"2.1.0","time_elapsed":226927,"subject_id":"90639","group":"Group1","condition":"3_Rep","full_date":"2026-02-05T02:13:14.733Z","date":"2026-02-05","time":"02:13:14"},{"rt":null,"stimulus":"<p style=\"font-size: 50px; margin: 0; text-align: center;\">+</p>","response":null,"trial_type":"html-keyboard-response","trial_index":115,"plugin_version":"2.1.0","time_elapsed":227929,"subject_id":"90639","group":"Group1","condition":"3_Rep","full_date":"2026-02-05T02:13:14.733Z","date":"2026-02-05","time":"02:13:14"},{"task":"memory_phase","broad_category":"S","image_png":"S_Rock Salt_01.png","image_id":433,"category_name":"Rock Salt","category":28,"distinct_rating":7.18,"distinct_type":"Top","rt":null,"stimulus":"Stimuli_Rocks480/S_Rock Salt_01.png","response":null,"trial_type":"image-keyboard-response","trial_index":116,"plugin_version":"2.1.0","time_elapsed":230432,"subject_id":"90639","group":"Group1","condition":"3_Rep","full_date":"2026-02-05T02:13:14.733Z","date":"2026-02-05","time":"02:13:14"},{"rt":null,"stimulus":"<p style=\"font-size: 50px; margin: 0; text-align: center;\">+</p>","response":null,"trial_type":"html-keyboard-response","trial_index":117,"plugin_version":"2.1.0","time_elapsed":231435,"subject_id":"90639","group":"Group1","condition":"3_Rep","full_date":"2026-02-05T02:13:14.733Z","date":"2026-02-05","time":"02:13:14"},{"task":"memory_phase","broad_category":"M","image_png":"M_Quartzite_08.png","image_id":280,"category_name":"Quartzite","category":18,"distinct_rating":2.15,"distinct_type":"Bottom","rt":null,"stimulus":"Stimuli_Rocks480/M_Quartzite_08.png","response":null,"trial_type":"image-keyboard-response","trial_index":118,"plugin_version":"2.1.0","time_elapsed":233938,"subject_id":"90639","group":"Group1","condition":"3_Rep","full_date":"2026-02-05T02:13:14.733Z","date":"2026-02-05","time":"02:13:14"},{"rt":null,"stimulus":"<p style=\"font-size: 50px; margin: 0; text-align: center;\">+</p>","response":null,"trial_type":"html-keyboard-response","trial_index":119,"plugin_version":"2.1.0","time_elapsed":234941,"subject_id":"90639","group":"Group1","condition":"3_Rep","full_date":"2026-02-05T02:13:14.733Z","date":"2026-02-05","time":"02:13:14"},{"task":"memory_phase","broad_category":"I","image_png":"I_Rhyolite_16.png","image_id":160,"category_name":"Rhyolite","category":10,"distinct_rating":2.19,"distinct_type":"Bottom","rt":null,"stimulus":"Stimuli_Rocks480/I_Rhyolite_16.png","response":null,"trial_type":"image-keyboard-response","trial_index":120,"plugin_version":"2.1.0","time_elapsed":237444,"subject_id":"90639","group":"Group1","condition":"3_Rep","full_date":"2026-02-05T02:13:14.733Z","date":"2026-02-05","time":"02:13:14"},{"rt":null,"stimulus":"<p style=\"font-size: 50px; margin: 0; text-align: center;\">+</p>","response":null,"trial_type":"html-keyboard-response","trial_index":121,"plugin_version":"2.1.0","time_elapsed":238446,"subject_id":"90639","group":"Group1","condition":"3_Rep","full_date":"2026-02-05T02:13:14.733Z","date":"2026-02-05","time":"02:13:14"},{"task":"memory_phase","broad_category":"I","image_png":"I_Andesite_06.png","image_id":6,"category_name":"Andesite","category":1,"distinct_rating":3.17,"distinct_type":"Bottom","rt":null,"stimulus":"Stimuli_Rocks480/I_Andesite_06.png","response":null,"trial_type":"image-keyboard-response","trial_index":122,"plugin_version":"2.1.0","time_elapsed":240949,"subject_id":"90639","group":"Group1","condition":"3_Rep","full_date":"2026-02-05T02:13:14.733Z","date":"2026-02-05","time":"02:13:14"},{"rt":null,"stimulus":"<p style=\"font-size: 50px; margin: 0; text-align: center;\">+</p>","response":null,"trial_type":"html-keyboard-response","trial_index":123,"plugin_version":"2.1.0","time_elapsed":241952,"subject_id":"90639","group":"Group1","condition":"3_Rep","full_date":"2026-02-05T02:13:14.733Z","date":"2026-02-05","time":"02:13:14"},{"task":"memory_phase","broad_category":"M","image_png":"M_Quartzite_05.png","image_id":277,"category_name":"Quartzite","category":18,"distinct_rating":2.23,"distinct_type":"Bottom","rt":null,"stimulus":"Stimuli_Rocks480/M_Quartzite_05.png","response":null,"trial_type":"image-keyboard-response","trial_index":124,"plugin_version":"2.1.0","time_elapsed":244456,"subject_id":"90639","group":"Group1","condition":"3_Rep","full_date":"2026-02-05T02:13:14.733Z","date":"2026-02-05","time":"02:13:14"},{"rt":null,"stimulus":"<p style=\"font-size: 50px; margin: 0; text-align: center;\">+</p>","response":null,"trial_type":"html-keyboard-response","trial_index":125,"plugin_version":"2.1.0","time_elapsed":245459,"subject_id":"90639","group":"Group1","condition":"3_Rep","full_date":"2026-02-05T02:13:14.733Z","date":"2026-02-05","time":"02:13:14"},{"task":"memory_phase","broad_category":"S","image_png":"S_Sandstone_03.png","image_id":451,"category_name":"Sandstone","category":29,"distinct_rating":1.86,"distinct_type":"Bottom","rt":null,"stimulus":"Stimuli_Rocks480/S_Sandstone_03.png","response":null,"trial_type":"image-keyboard-response","trial_index":126,"plugin_version":"2.1.0","time_elapsed":247963,"subject_id":"90639","group":"Group1","condition":"3_Rep","full_date":"2026-02-05T02:13:14.733Z","date":"2026-02-05","time":"02:13:14"},{"rt":null,"stimulus":"<p style=\"font-size: 50px; margin: 0; text-align: center;\">+</p>","response":null,"trial_type":"html-keyboard-response","trial_index":127,"plugin_version":"2.1.0","time_elapsed":248966,"subject_id":"90639","group":"Group1","condition":"3_Rep","full_date":"2026-02-05T02:13:14.733Z","date":"2026-02-05","time":"02:13:14"},{"task":"memory_phase","broad_category":"I","image_png":"I_Obsidian_05.png","image_id":85,"category_name":"Obsidian","category":6,"distinct_rating":7.32,"distinct_type":"Top","rt":null,"stimulus":"Stimuli_Rocks480/I_Obsidian_05.png","response":null,"trial_type":"image-keyboard-response","trial_index":128,"plugin_version":"2.1.0","time_elapsed":251469,"subject_id":"90639","group":"Group1","condition":"3_Rep","full_date":"2026-02-05T02:13:14.733Z","date":"2026-02-05","time":"02:13:14"},{"rt":null,"stimulus":"<p style=\"font-size: 50px; margin: 0; text-align: center;\">+</p>","response":null,"trial_type":"html-keyboard-response","trial_index":129,"plugin_version":"2.1.0","time_elapsed":252472,"subject_id":"90639","group":"Group1","condition":"3_Rep","full_date":"2026-02-05T02:13:14.733Z","date":"2026-02-05","time":"02:13:14"},{"task":"memory_phase","broad_category":"I","image_png":"I_Andesite_10.png","image_id":10,"category_name":"Andesite","category":1,"distinct_rating":3.15,"distinct_type":"Bottom","rt":null,"stimulus":"Stimuli_Rocks480/I_Andesite_10.png","response":null,"trial_type":"image-keyboard-response","trial_index":130,"plugin_version":"2.1.0","time_elapsed":254975,"subject_id":"90639","group":"Group1","condition":"3_Rep","full_date":"2026-02-05T02:13:14.733Z","date":"2026-02-05","time":"02:13:14"},{"rt":null,"stimulus":"<p style=\"font-size: 50px; margin: 0; text-align: center;\">+</p>","response":null,"trial_type":"html-keyboard-response","trial_index":131,"plugin_version":"2.1.0","time_elapsed":255978,"subject_id":"90639","group":"Group1","condition":"3_Rep","full_date":"2026-02-05T02:13:14.733Z","date":"2026-02-05","time":"02:13:14"},{"task":"memory_phase","broad_category":"I","image_png":"I_Pumice_12.png","image_id":140,"category_name":"Pumice","category":9,"distinct_rating":2.97,"distinct_type":"Bottom","rt":null,"stimulus":"Stimuli_Rocks480/I_Pumice_12.png","response":null,"trial_type":"image-keyboard-response","trial_index":132,"plugin_version":"2.1.0","time_elapsed":258482,"subject_id":"90639","group":"Group1","condition":"3_Rep","full_date":"2026-02-05T02:13:14.733Z","date":"2026-02-05","time":"02:13:14"},{"rt":null,"stimulus":"<p style=\"font-size: 50px; margin: 0; text-align: center;\">+</p>","response":null,"trial_type":"html-keyboard-response","trial_index":133,"plugin_version":"2.1.0","time_elapsed":259484,"subject_id":"90639","group":"Group1","condition":"3_Rep","full_date":"2026-02-05T02:13:14.733Z","date":"2026-02-05","time":"02:13:14"},{"task":"memory_phase","broad_category":"I","image_png":"I_Gabbro_11.png","image_id":59,"category_name":"Gabbro","category":4,"distinct_rating":1.99,"distinct_type":"Bottom","rt":null,"stimulus":"Stimuli_Rocks480/I_Gabbro_11.png","response":null,"trial_type":"image-keyboard-response","trial_index":134,"plugin_version":"2.1.0","time_elapsed":261987,"subject_id":"90639","group":"Group1","condition":"3_Rep","full_date":"2026-02-05T02:13:14.733Z","date":"2026-02-05","time":"02:13:14"},{"rt":null,"stimulus":"<p style=\"font-size: 50px; margin: 0; text-align: center;\">+</p>","response":null,"trial_type":"html-keyboard-response","trial_index":135,"plugin_version":"2.1.0","time_elapsed":262989,"subject_id":"90639","group":"Group1","condition":"3_Rep","full_date":"2026-02-05T02:13:14.733Z","date":"2026-02-05","time":"02:13:14"},{"task":"memory_phase","broad_category":"I","image_png":"I_Pumice_11.png","image_id":139,"category_name":"Pumice","category":9,"distinct_rating":1.74,"distinct_type":"Bottom","rt":null,"stimulus":"Stimuli_Rocks480/I_Pumice_11.png","response":null,"trial_type":"image-keyboard-response","trial_index":136,"plugin_version":"2.1.0","time_elapsed":265492,"subject_id":"90639","group":"Group1","condition":"3_Rep","full_date":"2026-02-05T02:13:14.733Z","date":"2026-02-05","time":"02:13:14"},{"rt":null,"stimulus":"<p style=\"font-size: 50px; margin: 0; text-align: center;\">+</p>","response":null,"trial_type":"html-keyboard-response","trial_index":137,"plugin_version":"2.1.0","time_elapsed":266495,"subject_id":"90639","group":"Group1","condition":"3_Rep","full_date":"2026-02-05T02:13:14.733Z","date":"2026-02-05","time":"02:13:14"},{"task":"memory_phase","broad_category":"M","image_png":"M_Marble_06.png","image_id":230,"category_name":"Marble","category":15,"distinct_rating":3.4,"distinct_type":"Bottom","rt":null,"stimulus":"Stimuli_Rocks480/M_Marble_06.png","response":null,"trial_type":"image-keyboard-response","trial_index":138,"plugin_version":"2.1.0","time_elapsed":268997,"subject_id":"90639","group":"Group1","condition":"3_Rep","full_date":"2026-02-05T02:13:14.733Z","date":"2026-02-05","time":"02:13:14"},{"rt":null,"stimulus":"<p style=\"font-size: 50px; margin: 0; text-align: center;\">+</p>","response":null,"trial_type":"html-keyboard-response","trial_index":139,"plugin_version":"2.1.0","time_elapsed":270000,"subject_id":"90639","group":"Group1","condition":"3_Rep","full_date":"2026-02-05T02:13:14.733Z","date":"2026-02-05","time":"02:13:14"},{"task":"memory_phase","broad_category":"M","image_png":"M_Slate_11.png","image_id":315,"category_name":"Slate","category":20,"distinct_rating":2.75,"distinct_type":"Bottom","rt":null,"stimulus":"Stimuli_Rocks480/M_Slate_11.png","response":null,"trial_type":"image-keyboard-response","trial_index":140,"plugin_version":"2.1.0","time_elapsed":272503,"subject_id":"90639","group":"Group1","condition":"3_Rep","full_date":"2026-02-05T02:13:14.733Z","date":"2026-02-05","time":"02:13:14"},{"rt":null,"stimulus":"<p style=\"font-size: 50px; margin: 0; text-align: center;\">+</p>","response":null,"trial_type":"html-keyboard-response","trial_index":141,"plugin_version":"2.1.0","time_elapsed":273506,"subject_id":"90639","group":"Group1","condition":"3_Rep","full_date":"2026-02-05T02:13:14.733Z","date":"2026-02-05","time":"02:13:14"},{"task":"memory_phase","broad_category":"I","image_png":"I_Andesite_08.png","image_id":8,"category_name":"Andesite","category":1,"distinct_rating":1.95,"distinct_type":"Bottom","rt":null,"stimulus":"Stimuli_Rocks480/I_Andesite_08.png","response":null,"trial_type":"image-keyboard-response","trial_index":142,"plugin_version":"2.1.0","time_elapsed":276009,"subject_id":"90639","group":"Group1","condition":"3_Rep","full_date":"2026-02-05T02:13:14.733Z","date":"2026-02-05","time":"02:13:14"},{"rt":null,"stimulus":"<p style=\"font-size: 50px; margin: 0; text-align: center;\">+</p>","response":null,"trial_type":"html-keyboard-response","trial_index":143,"plugin_version":"2.1.0","time_elapsed":277011,"subject_id":"90639","group":"Group1","condition":"3_Rep","full_date":"2026-02-05T02:13:14.733Z","date":"2026-02-05","time":"02:13:14"},{"task":"memory_phase","broad_category":"S","image_png":"S_Shale_01.png","image_id":465,"category_name":"Shale","category":30,"distinct_rating":2.7,"distinct_type":"Bottom","rt":null,"stimulus":"Stimuli_Rocks480/S_Shale_01.png","response":null,"trial_type":"image-keyboard-response","trial_index":144,"plugin_version":"2.1.0","time_elapsed":279515,"subject_id":"90639","group":"Group1","condition":"3_Rep","full_date":"2026-02-05T02:13:14.733Z","date":"2026-02-05","time":"02:13:14"},{"rt":null,"stimulus":"<p style=\"font-size: 50px; margin: 0; text-align: center;\">+</p>","response":null,"trial_type":"html-keyboard-response","trial_index":145,"plugin_version":"2.1.0","time_elapsed":280517,"subject_id":"90639","group":"Group1","condition":"3_Rep","full_date":"2026-02-05T02:13:14.733Z","date":"2026-02-05","time":"02:13:14"},{"task":"memory_phase","broad_category":"S","image_png":"S_Dolomite_13.png","image_id":397,"category_name":"Dolomite","category":25,"distinct_rating":1.77,"distinct_type":"Bottom","rt":null,"stimulus":"Stimuli_Rocks480/S_Dolomite_13.png","response":null,"trial_type":"image-keyboard-response","trial_index":146,"plugin_version":"2.1.0","time_elapsed":283020,"subject_id":"90639","group":"Group1","condition":"3_Rep","full_date":"2026-02-05T02:13:14.733Z","date":"2026-02-05","time":"02:13:14"},{"rt":null,"stimulus":"<p style=\"font-size: 50px; margin: 0; text-align: center;\">+</p>","response":null,"trial_type":"html-keyboard-response","trial_index":147,"plugin_version":"2.1.0","time_elapsed":284023,"subject_id":"90639","group":"Group1","condition":"3_Rep","full_date":"2026-02-05T02:13:14.733Z","date":"2026-02-05","time":"02:13:14"},{"task":"memory_phase","broad_category":"I","image_png":"I_Rhyolite_11.png","image_id":155,"category_name":"Rhyolite","category":10,"distinct_rating":1.73,"distinct_type":"Bottom","rt":null,"stimulus":"Stimuli_Rocks480/I_Rhyolite_11.png","response":null,"trial_type":"image-keyboard-response","trial_index":148,"plugin_version":"2.1.0","time_elapsed":286526,"subject_id":"90639","group":"Group1","condition":"3_Rep","full_date":"2026-02-05T02:13:14.733Z","date":"2026-02-05","time":"02:13:14"},{"rt":null,"stimulus":"<p style=\"font-size: 50px; margin: 0; text-align: center;\">+</p>","response":null,"trial_type":"html-keyboard-response","trial_index":149,"plugin_version":"2.1.0","time_elapsed":287528,"subject_id":"90639","group":"Group1","condition":"3_Rep","full_date":"2026-02-05T02:13:14.733Z","date":"2026-02-05","time":"02:13:14"},{"task":"memory_phase","broad_category":"M","image_png":"M_Marble_04.png","image_id":228,"category_name":"Marble","category":15,"distinct_rating":3.15,"distinct_type":"Bottom","rt":null,"stimulus":"Stimuli_Rocks480/M_Marble_04.png","response":null,"trial_type":"image-keyboard-response","trial_index":150,"plugin_version":"2.1.0","time_elapsed":290031,"subject_id":"90639","group":"Group1","condition":"3_Rep","full_date":"2026-02-05T02:13:14.733Z","date":"2026-02-05","time":"02:13:14"},{"rt":null,"stimulus":"<p style=\"font-size: 50px; margin: 0; text-align: center;\">+</p>","response":null,"trial_type":"html-keyboard-response","trial_index":151,"plugin_version":"2.1.0","time_elapsed":291032,"subject_id":"90639","group":"Group1","condition":"3_Rep","full_date":"2026-02-05T02:13:14.733Z","date":"2026-02-05","time":"02:13:14"},{"task":"memory_phase","broad_category":"S","image_png":"S_Dolomite_14.png","image_id":398,"category_name":"Dolomite","category":25,"distinct_rating":1.43,"distinct_type":"Bottom","rt":null,"stimulus":"Stimuli_Rocks480/S_Dolomite_14.png","response":null,"trial_type":"image-keyboard-response","trial_index":152,"plugin_version":"2.1.0","time_elapsed":293535,"subject_id":"90639","group":"Group1","condition":"3_Rep","full_date":"2026-02-05T02:13:14.733Z","date":"2026-02-05","time":"02:13:14"},{"rt":null,"stimulus":"<p style=\"font-size: 50px; margin: 0; text-align: center;\">+</p>","response":null,"trial_type":"html-keyboard-response","trial_index":153,"plugin_version":"2.1.0","time_elapsed":294536,"subject_id":"90639","group":"Group1","condition":"3_Rep","full_date":"2026-02-05T02:13:14.733Z","date":"2026-02-05","time":"02:13:14"},{"task":"memory_phase","broad_category":"I","image_png":"I_Basalt_02.png","image_id":18,"category_name":"Basalt","category":2,"distinct_rating":1.84,"distinct_type":"Bottom","rt":null,"stimulus":"Stimuli_Rocks480/I_Basalt_02.png","response":null,"trial_type":"image-keyboard-response","trial_index":154,"plugin_version":"2.1.0","time_elapsed":297039,"subject_id":"90639","group":"Group1","condition":"3_Rep","full_date":"2026-02-05T02:13:14.733Z","date":"2026-02-05","time":"02:13:14"},{"rt":null,"stimulus":"<p style=\"font-size: 50px; margin: 0; text-align: center;\">+</p>","response":null,"trial_type":"html-keyboard-response","trial_index":155,"plugin_version":"2.1.0","time_elapsed":298042,"subject_id":"90639","group":"Group1","condition":"3_Rep","full_date":"2026-02-05T02:13:14.733Z","date":"2026-02-05","time":"02:13:14"},{"task":"memory_phase","broad_category":"S","image_png":"S_Conglomerate_05.png","image_id":373,"category_name":"Conglomerate","category":24,"distinct_rating":7.32,"distinct_type":"Top","rt":null,"stimulus":"Stimuli_Rocks480/S_Conglomerate_05.png","response":null,"trial_type":"image-keyboard-response","trial_index":156,"plugin_version":"2.1.0","time_elapsed":300546,"subject_id":"90639","group":"Group1","condition":"3_Rep","full_date":"2026-02-05T02:13:14.733Z","date":"2026-02-05","time":"02:13:14"},{"rt":3359,"stimulus":"<p style=\"max-width: 760px; margin: auto; font-size: 35px; line-height: 1.5;\">\n                Press SPACE to continue study phase\n              </p>","response":" ","trial_type":"html-keyboard-response","trial_index":157,"plugin_version":"2.1.0","time_elapsed":303905,"subject_id":"90639","group":"Group1","condition":"3_Rep","full_date":"2026-02-05T02:13:14.733Z","date":"2026-02-05","time":"02:13:14"},{"rt":null,"stimulus":"<p style=\"font-size: 50px; margin: 0; text-align: center;\">+</p>","response":null,"trial_type":"html-keyboard-response","trial_index":158,"plugin_version":"2.1.0","time_elapsed":304907,"subject_id":"90639","group":"Group1","condition":"3_Rep","full_date":"2026-02-05T02:13:14.733Z","date":"2026-02-05","time":"02:13:14"},{"task":"memory_phase","broad_category":"I","image_png":"I_Diorite_05.png","image_id":37,"category_name":"Diorite","category":3,"distinct_rating":3.08,"distinct_type":"Bottom","rt":null,"stimulus":"Stimuli_Rocks480/I_Diorite_05.png","response":null,"trial_type":"image-keyboard-response","trial_index":159,"plugin_version":"2.1.0","time_elapsed":307410,"subject_id":"90639","group":"Group1","condition":"3_Rep","full_date":"2026-02-05T02:13:14.733Z","date":"2026-02-05","time":"02:13:14"},{"rt":null,"stimulus":"<p style=\"font-size: 50px; margin: 0; text-align: center;\">+</p>","response":null,"trial_type":"html-keyboard-response","trial_index":160,"plugin_version":"2.1.0","time_elapsed":308411,"subject_id":"90639","group":"Group1","condition":"3_Rep","full_date":"2026-02-05T02:13:14.733Z","date":"2026-02-05","time":"02:13:14"},{"task":"memory_phase","broad_category":"S","image_png":"S_Chert_10.png","image_id":362,"category_name":"Chert","category":23,"distinct_rating":7.17,"distinct_type":"Top","rt":null,"stimulus":"Stimuli_Rocks480/S_Chert_10.png","response":null,"trial_type":"image-keyboard-response","trial_index":161,"plugin_version":"2.1.0","time_elapsed":310914,"subject_id":"90639","group":"Group1","condition":"3_Rep","full_date":"2026-02-05T02:13:14.733Z","date":"2026-02-05","time":"02:13:14"},{"rt":null,"stimulus":"<p style=\"font-size: 50px; margin: 0; text-align: center;\">+</p>","response":null,"trial_type":"html-keyboard-response","trial_index":162,"plugin_version":"2.1.0","time_elapsed":311916,"subject_id":"90639","group":"Group1","condition":"3_Rep","full_date":"2026-02-05T02:13:14.733Z","date":"2026-02-05","time":"02:13:14"},{"task":"memory_phase","broad_category":"I","image_png":"I_Diorite_03.png","image_id":35,"category_name":"Diorite","category":3,"distinct_rating":3.14,"distinct_type":"Bottom","rt":null,"stimulus":"Stimuli_Rocks480/I_Diorite_03.png","response":null,"trial_type":"image-keyboard-response","trial_index":163,"plugin_version":"2.1.0","time_elapsed":314419,"subject_id":"90639","group":"Group1","condition":"3_Rep","full_date":"2026-02-05T02:13:14.733Z","date":"2026-02-05","time":"02:13:14"},{"rt":null,"stimulus":"<p style=\"font-size: 50px; margin: 0; text-align: center;\">+</p>","response":null,"trial_type":"html-keyboard-response","trial_index":164,"plugin_version":"2.1.0","time_elapsed":315421,"subject_id":"90639","group":"Group1","condition":"3_Rep","full_date":"2026-02-05T02:13:14.733Z","date":"2026-02-05","time":"02:13:14"},{"task":"memory_phase","broad_category":"M","image_png":"M_Quartzite_13.png","image_id":285,"category_name":"Quartzite","category":18,"distinct_rating":2.27,"distinct_type":"Bottom","rt":null,"stimulus":"Stimuli_Rocks480/M_Quartzite_13.png","response":null,"trial_type":"image-keyboard-response","trial_index":165,"plugin_version":"2.1.0","time_elapsed":317925,"subject_id":"90639","group":"Group1","condition":"3_Rep","full_date":"2026-02-05T02:13:14.733Z","date":"2026-02-05","time":"02:13:14"},{"rt":null,"stimulus":"<p style=\"font-size: 50px; margin: 0; text-align: center;\">+</p>","response":null,"trial_type":"html-keyboard-response","trial_index":166,"plugin_version":"2.1.0","time_elapsed":318928,"subject_id":"90639","group":"Group1","condition":"3_Rep","full_date":"2026-02-05T02:13:14.733Z","date":"2026-02-05","time":"02:13:14"},{"task":"memory_phase","broad_category":"M","image_png":"M_Gneiss_06.png","image_id":198,"category_name":"Gneiss","category":13,"distinct_rating":2.65,"distinct_type":"Bottom","rt":null,"stimulus":"Stimuli_Rocks480/M_Gneiss_06.png","response":null,"trial_type":"image-keyboard-response","trial_index":167,"plugin_version":"2.1.0","time_elapsed":321432,"subject_id":"90639","group":"Group1","condition":"3_Rep","full_date":"2026-02-05T02:13:14.733Z","date":"2026-02-05","time":"02:13:14"},{"rt":null,"stimulus":"<p style=\"font-size: 50px; margin: 0; text-align: center;\">+</p>","response":null,"trial_type":"html-keyboard-response","trial_index":168,"plugin_version":"2.1.0","time_elapsed":322434,"subject_id":"90639","group":"Group1","condition":"3_Rep","full_date":"2026-02-05T02:13:14.733Z","date":"2026-02-05","time":"02:13:14"},{"task":"memory_phase","broad_category":"I","image_png":"I_Pumice_08.png","image_id":136,"category_name":"Pumice","category":9,"distinct_rating":3.1,"distinct_type":"Bottom","rt":null,"stimulus":"Stimuli_Rocks480/I_Pumice_08.png","response":null,"trial_type":"image-keyboard-response","trial_index":169,"plugin_version":"2.1.0","time_elapsed":324938,"subject_id":"90639","group":"Group1","condition":"3_Rep","full_date":"2026-02-05T02:13:14.733Z","date":"2026-02-05","time":"02:13:14"},{"rt":null,"stimulus":"<p style=\"font-size: 50px; margin: 0; text-align: center;\">+</p>","response":null,"trial_type":"html-keyboard-response","trial_index":170,"plugin_version":"2.1.0","time_elapsed":325941,"subject_id":"90639","group":"Group1","condition":"3_Rep","full_date":"2026-02-05T02:13:14.733Z","date":"2026-02-05","time":"02:13:14"},{"task":"memory_phase","broad_category":"S","image_png":"S_Dolomite_12.png","image_id":396,"category_name":"Dolomite","category":25,"distinct_rating":1.85,"distinct_type":"Bottom","rt":null,"stimulus":"Stimuli_Rocks480/S_Dolomite_12.png","response":null,"trial_type":"image-keyboard-response","trial_index":171,"plugin_version":"2.1.0","time_elapsed":328445,"subject_id":"90639","group":"Group1","condition":"3_Rep","full_date":"2026-02-05T02:13:14.733Z","date":"2026-02-05","time":"02:13:14"},{"rt":null,"stimulus":"<p style=\"font-size: 50px; margin: 0; text-align: center;\">+</p>","response":null,"trial_type":"html-keyboard-response","trial_index":172,"plugin_version":"2.1.0","time_elapsed":329447,"subject_id":"90639","group":"Group1","condition":"3_Rep","full_date":"2026-02-05T02:13:14.733Z","date":"2026-02-05","time":"02:13:14"},{"task":"memory_phase","broad_category":"S","image_png":"S_Breccia_11.png","image_id":347,"category_name":"Breccia","category":22,"distinct_rating":6.7,"distinct_type":"Top","rt":null,"stimulus":"Stimuli_Rocks480/S_Breccia_11.png","response":null,"trial_type":"image-keyboard-response","trial_index":173,"plugin_version":"2.1.0","time_elapsed":331951,"subject_id":"90639","group":"Group1","condition":"3_Rep","full_date":"2026-02-05T02:13:14.733Z","date":"2026-02-05","time":"02:13:14"},{"rt":null,"stimulus":"<p style=\"font-size: 50px; margin: 0; text-align: center;\">+</p>","response":null,"trial_type":"html-keyboard-response","trial_index":174,"plugin_version":"2.1.0","time_elapsed":332954,"subject_id":"90639","group":"Group1","condition":"3_Rep","full_date":"2026-02-05T02:13:14.733Z","date":"2026-02-05","time":"02:13:14"},{"task":"memory_phase","broad_category":"I","image_png":"I_Basalt_09.png","image_id":25,"category_name":"Basalt","category":2,"distinct_rating":1.89,"distinct_type":"Bottom","rt":null,"stimulus":"Stimuli_Rocks480/I_Basalt_09.png","response":null,"trial_type":"image-keyboard-response","trial_index":175,"plugin_version":"2.1.0","time_elapsed":335456,"subject_id":"90639","group":"Group1","condition":"3_Rep","full_date":"2026-02-05T02:13:14.733Z","date":"2026-02-05","time":"02:13:14"},{"rt":null,"stimulus":"<p style=\"font-size: 50px; margin: 0; text-align: center;\">+</p>","response":null,"trial_type":"html-keyboard-response","trial_index":176,"plugin_version":"2.1.0","time_elapsed":336459,"subject_id":"90639","group":"Group1","condition":"3_Rep","full_date":"2026-02-05T02:13:14.733Z","date":"2026-02-05","time":"02:13:14"},{"task":"memory_phase","broad_category":"M","image_png":"M_Gneiss_13.png","image_id":205,"category_name":"Gneiss","category":13,"distinct_rating":3.26,"distinct_type":"Bottom","rt":null,"stimulus":"Stimuli_Rocks480/M_Gneiss_13.png","response":null,"trial_type":"image-keyboard-response","trial_index":177,"plugin_version":"2.1.0","time_elapsed":338962,"subject_id":"90639","group":"Group1","condition":"3_Rep","full_date":"2026-02-05T02:13:14.733Z","date":"2026-02-05","time":"02:13:14"},{"rt":null,"stimulus":"<p style=\"font-size: 50px; margin: 0; text-align: center;\">+</p>","response":null,"trial_type":"html-keyboard-response","trial_index":178,"plugin_version":"2.1.0","time_elapsed":339965,"subject_id":"90639","group":"Group1","condition":"3_Rep","full_date":"2026-02-05T02:13:14.733Z","date":"2026-02-05","time":"02:13:14"},{"task":"memory_phase","broad_category":"M","image_png":"M_Phyllite_03.png","image_id":259,"category_name":"Phyllite","category":17,"distinct_rating":2.5,"distinct_type":"Bottom","rt":null,"stimulus":"Stimuli_Rocks480/M_Phyllite_03.png","response":null,"trial_type":"image-keyboard-response","trial_index":179,"plugin_version":"2.1.0","time_elapsed":342467,"subject_id":"90639","group":"Group1","condition":"3_Rep","full_date":"2026-02-05T02:13:14.733Z","date":"2026-02-05","time":"02:13:14"},{"rt":null,"stimulus":"<p style=\"font-size: 50px; margin: 0; text-align: center;\">+</p>","response":null,"trial_type":"html-keyboard-response","trial_index":180,"plugin_version":"2.1.0","time_elapsed":343470,"subject_id":"90639","group":"Group1","condition":"3_Rep","full_date":"2026-02-05T02:13:14.733Z","date":"2026-02-05","time":"02:13:14"},{"task":"memory_phase","broad_category":"I","image_png":"I_Gabbro_08.png","image_id":56,"category_name":"Gabbro","category":4,"distinct_rating":3.02,"distinct_type":"Bottom","rt":null,"stimulus":"Stimuli_Rocks480/I_Gabbro_08.png","response":null,"trial_type":"image-keyboard-response","trial_index":181,"plugin_version":"2.1.0","time_elapsed":345972,"subject_id":"90639","group":"Group1","condition":"3_Rep","full_date":"2026-02-05T02:13:14.733Z","date":"2026-02-05","time":"02:13:14"},{"rt":null,"stimulus":"<p style=\"font-size: 50px; margin: 0; text-align: center;\">+</p>","response":null,"trial_type":"html-keyboard-response","trial_index":182,"plugin_version":"2.1.0","time_elapsed":346974,"subject_id":"90639","group":"Group1","condition":"3_Rep","full_date":"2026-02-05T02:13:14.733Z","date":"2026-02-05","time":"02:13:14"},{"task":"memory_phase","broad_category":"S","image_png":"S_Sandstone_16.png","image_id":464,"category_name":"Sandstone","category":29,"distinct_rating":1.93,"distinct_type":"Bottom","rt":null,"stimulus":"Stimuli_Rocks480/S_Sandstone_16.png","response":null,"trial_type":"image-keyboard-response","trial_index":183,"plugin_version":"2.1.0","time_elapsed":349477,"subject_id":"90639","group":"Group1","condition":"3_Rep","full_date":"2026-02-05T02:13:14.733Z","date":"2026-02-05","time":"02:13:14"},{"rt":null,"stimulus":"<p style=\"font-size: 50px; margin: 0; text-align: center;\">+</p>","response":null,"trial_type":"html-keyboard-response","trial_index":184,"plugin_version":"2.1.0","time_elapsed":350480,"subject_id":"90639","group":"Group1","condition":"3_Rep","full_date":"2026-02-05T02:13:14.733Z","date":"2026-02-05","time":"02:13:14"},{"task":"memory_phase","broad_category":"S","image_png":"S_Sandstone_15.png","image_id":463,"category_name":"Sandstone","category":29,"distinct_rating":2,"distinct_type":"Bottom","rt":null,"stimulus":"Stimuli_Rocks480/S_Sandstone_15.png","response":null,"trial_type":"image-keyboard-response","trial_index":185,"plugin_version":"2.1.0","time_elapsed":352983,"subject_id":"90639","group":"Group1","condition":"3_Rep","full_date":"2026-02-05T02:13:14.733Z","date":"2026-02-05","time":"02:13:14"},{"rt":null,"stimulus":"<p style=\"font-size: 50px; margin: 0; text-align: center;\">+</p>","response":null,"trial_type":"html-keyboard-response","trial_index":186,"plugin_version":"2.1.0","time_elapsed":353986,"subject_id":"90639","group":"Group1","condition":"3_Rep","full_date":"2026-02-05T02:13:14.733Z","date":"2026-02-05","time":"02:13:14"},{"task":"memory_phase","broad_category":"I","image_png":"I_Rhyolite_14.png","image_id":158,"category_name":"Rhyolite","category":10,"distinct_rating":2.59,"distinct_type":"Bottom","rt":null,"stimulus":"Stimuli_Rocks480/I_Rhyolite_14.png","response":null,"trial_type":"image-keyboard-response","trial_index":187,"plugin_version":"2.1.0","time_elapsed":356489,"subject_id":"90639","group":"Group1","condition":"3_Rep","full_date":"2026-02-05T02:13:14.733Z","date":"2026-02-05","time":"02:13:14"},{"rt":null,"stimulus":"<p style=\"font-size: 50px; margin: 0; text-align: center;\">+</p>","response":null,"trial_type":"html-keyboard-response","trial_index":188,"plugin_version":"2.1.0","time_elapsed":357491,"subject_id":"90639","group":"Group1","condition":"3_Rep","full_date":"2026-02-05T02:13:14.733Z","date":"2026-02-05","time":"02:13:14"},{"task":"memory_phase","broad_category":"M","image_png":"M_Gneiss_05.png","image_id":197,"category_name":"Gneiss","category":13,"distinct_rating":2.97,"distinct_type":"Bottom","rt":null,"stimulus":"Stimuli_Rocks480/M_Gneiss_05.png","response":null,"trial_type":"image-keyboard-response","trial_index":189,"plugin_version":"2.1.0","time_elapsed":359995,"subject_id":"90639","group":"Group1","condition":"3_Rep","full_date":"2026-02-05T02:13:14.733Z","date":"2026-02-05","time":"02:13:14"},{"rt":null,"stimulus":"<p style=\"font-size: 50px; margin: 0; text-align: center;\">+</p>","response":null,"trial_type":"html-keyboard-response","trial_index":190,"plugin_version":"2.1.0","time_elapsed":360997,"subject_id":"90639","group":"Group1","condition":"3_Rep","full_date":"2026-02-05T02:13:14.733Z","date":"2026-02-05","time":"02:13:14"},{"task":"memory_phase","broad_category":"I","image_png":"I_Pegmatite_10.png","image_id":106,"category_name":"Pegmatite","category":7,"distinct_rating":7.66,"distinct_type":"Top","rt":null,"stimulus":"Stimuli_Rocks480/I_Pegmatite_10.png","response":null,"trial_type":"image-keyboard-response","trial_index":191,"plugin_version":"2.1.0","time_elapsed":363500,"subject_id":"90639","group":"Group1","condition":"3_Rep","full_date":"2026-02-05T02:13:14.733Z","date":"2026-02-05","time":"02:13:14"},{"rt":null,"stimulus":"<p style=\"font-size: 50px; margin: 0; text-align: center;\">+</p>","response":null,"trial_type":"html-keyboard-response","trial_index":192,"plugin_version":"2.1.0","time_elapsed":364502,"subject_id":"90639","group":"Group1","condition":"3_Rep","full_date":"2026-02-05T02:13:14.733Z","date":"2026-02-05","time":"02:13:14"},{"task":"memory_phase","broad_category":"M","image_png":"M_Phyllite_07.png","image_id":263,"category_name":"Phyllite","category":17,"distinct_rating":2.59,"distinct_type":"Bottom","rt":null,"stimulus":"Stimuli_Rocks480/M_Phyllite_07.png","response":null,"trial_type":"image-keyboard-response","trial_index":193,"plugin_version":"2.1.0","time_elapsed":367004,"subject_id":"90639","group":"Group1","condition":"3_Rep","full_date":"2026-02-05T02:13:14.733Z","date":"2026-02-05","time":"02:13:14"},{"rt":null,"stimulus":"<p style=\"font-size: 50px; margin: 0; text-align: center;\">+</p>","response":null,"trial_type":"html-keyboard-response","trial_index":194,"plugin_version":"2.1.0","time_elapsed":368006,"subject_id":"90639","group":"Group1","condition":"3_Rep","full_date":"2026-02-05T02:13:14.733Z","date":"2026-02-05","time":"02:13:14"},{"task":"memory_phase","broad_category":"M","image_png":"M_Marble_16.png","image_id":240,"category_name":"Marble","category":15,"distinct_rating":2.57,"distinct_type":"Bottom","rt":null,"stimulus":"Stimuli_Rocks480/M_Marble_16.png","response":null,"trial_type":"image-keyboard-response","trial_index":195,"plugin_version":"2.1.0","time_elapsed":370510,"subject_id":"90639","group":"Group1","condition":"3_Rep","full_date":"2026-02-05T02:13:14.733Z","date":"2026-02-05","time":"02:13:14"},{"rt":null,"stimulus":"<p style=\"font-size: 50px; margin: 0; text-align: center;\">+</p>","response":null,"trial_type":"html-keyboard-response","trial_index":196,"plugin_version":"2.1.0","time_elapsed":371512,"subject_id":"90639","group":"Group1","condition":"3_Rep","full_date":"2026-02-05T02:13:14.733Z","date":"2026-02-05","time":"02:13:14"},{"task":"memory_phase","broad_category":"M","image_png":"M_Slate_15.png","image_id":319,"category_name":"Slate","category":20,"distinct_rating":2.13,"distinct_type":"Bottom","rt":null,"stimulus":"Stimuli_Rocks480/M_Slate_15.png","response":null,"trial_type":"image-keyboard-response","trial_index":197,"plugin_version":"2.1.0","time_elapsed":374015,"subject_id":"90639","group":"Group1","condition":"3_Rep","full_date":"2026-02-05T02:13:14.733Z","date":"2026-02-05","time":"02:13:14"},{"rt":null,"stimulus":"<p style=\"font-size: 50px; margin: 0; text-align: center;\">+</p>","response":null,"trial_type":"html-keyboard-response","trial_index":198,"plugin_version":"2.1.0","time_elapsed":375017,"subject_id":"90639","group":"Group1","condition":"3_Rep","full_date":"2026-02-05T02:13:14.733Z","date":"2026-02-05","time":"02:13:14"},{"task":"memory_phase","broad_category":"S","image_png":"S_Shale_08.png","image_id":472,"category_name":"Shale","category":30,"distinct_rating":2.55,"distinct_type":"Bottom","rt":null,"stimulus":"Stimuli_Rocks480/S_Shale_08.png","response":null,"trial_type":"image-keyboard-response","trial_index":199,"plugin_version":"2.1.0","time_elapsed":377521,"subject_id":"90639","group":"Group1","condition":"3_Rep","full_date":"2026-02-05T02:13:14.733Z","date":"2026-02-05","time":"02:13:14"},{"rt":null,"stimulus":"<p style=\"font-size: 50px; margin: 0; text-align: center;\">+</p>","response":null,"trial_type":"html-keyboard-response","trial_index":200,"plugin_version":"2.1.0","time_elapsed":378523,"subject_id":"90639","group":"Group1","condition":"3_Rep","full_date":"2026-02-05T02:13:14.733Z","date":"2026-02-05","time":"02:13:14"},{"task":"memory_phase","broad_category":"S","image_png":"S_Rock Gypsum_04.png","image_id":420,"category_name":"Rock Gypsum","category":27,"distinct_rating":7.61,"distinct_type":"Top","rt":null,"stimulus":"Stimuli_Rocks480/S_Rock Gypsum_04.png","response":null,"trial_type":"image-keyboard-response","trial_index":201,"plugin_version":"2.1.0","time_elapsed":381027,"subject_id":"90639","group":"Group1","condition":"3_Rep","full_date":"2026-02-05T02:13:14.733Z","date":"2026-02-05","time":"02:13:14"},{"rt":null,"stimulus":"<p style=\"font-size: 50px; margin: 0; text-align: center;\">+</p>","response":null,"trial_type":"html-keyboard-response","trial_index":202,"plugin_version":"2.1.0","time_elapsed":382028,"subject_id":"90639","group":"Group1","condition":"3_Rep","full_date":"2026-02-05T02:13:14.733Z","date":"2026-02-05","time":"02:13:14"},{"task":"memory_phase","broad_category":"M","image_png":"M_Slate_03.png","image_id":307,"category_name":"Slate","category":20,"distinct_rating":1.87,"distinct_type":"Bottom","rt":null,"stimulus":"Stimuli_Rocks480/M_Slate_03.png","response":null,"trial_type":"image-keyboard-response","trial_index":203,"plugin_version":"2.1.0","time_elapsed":384531,"subject_id":"90639","group":"Group1","condition":"3_Rep","full_date":"2026-02-05T02:13:14.733Z","date":"2026-02-05","time":"02:13:14"},{"rt":null,"stimulus":"<p style=\"font-size: 50px; margin: 0; text-align: center;\">+</p>","response":null,"trial_type":"html-keyboard-response","trial_index":204,"plugin_version":"2.1.0","time_elapsed":385533,"subject_id":"90639","group":"Group1","condition":"3_Rep","full_date":"2026-02-05T02:13:14.733Z","date":"2026-02-05","time":"02:13:14"},{"task":"memory_phase","broad_category":"S","image_png":"S_Shale_12.png","image_id":476,"category_name":"Shale","category":30,"distinct_rating":2.48,"distinct_type":"Bottom","rt":null,"stimulus":"Stimuli_Rocks480/S_Shale_12.png","response":null,"trial_type":"image-keyboard-response","trial_index":205,"plugin_version":"2.1.0","time_elapsed":388035,"subject_id":"90639","group":"Group1","condition":"3_Rep","full_date":"2026-02-05T02:13:14.733Z","date":"2026-02-05","time":"02:13:14"},{"rt":null,"stimulus":"<p style=\"font-size: 50px; margin: 0; text-align: center;\">+</p>","response":null,"trial_type":"html-keyboard-response","trial_index":206,"plugin_version":"2.1.0","time_elapsed":389037,"subject_id":"90639","group":"Group1","condition":"3_Rep","full_date":"2026-02-05T02:13:14.733Z","date":"2026-02-05","time":"02:13:14"},{"task":"memory_phase","broad_category":"I","image_png":"I_Basalt_01.png","image_id":17,"category_name":"Basalt","category":2,"distinct_rating":1.92,"distinct_type":"Bottom","rt":null,"stimulus":"Stimuli_Rocks480/I_Basalt_01.png","response":null,"trial_type":"image-keyboard-response","trial_index":207,"plugin_version":"2.1.0","time_elapsed":391539,"subject_id":"90639","group":"Group1","condition":"3_Rep","full_date":"2026-02-05T02:13:14.733Z","date":"2026-02-05","time":"02:13:14"},{"rt":25952,"stimulus":"<p style=\"max-width: 760px; margin: auto; font-size: 35px; line-height: 1.5;\">\n                You have completed 2 study phases. \n                Now, we'll show you all the images again 1 more time.\n                <br><br>Press SPACE to continue\n              </p>","response":" ","trial_type":"html-keyboard-response","trial_index":208,"plugin_version":"2.1.0","time_elapsed":417491,"subject_id":"90639","group":"Group1","condition":"3_Rep","full_date":"2026-02-05T02:13:14.733Z","date":"2026-02-05","time":"02:13:14"},{"rt":null,"stimulus":"<p style=\"font-size: 50px; margin: 0; text-align: center;\">+</p>","response":null,"trial_type":"html-keyboard-response","trial_index":209,"plugin_version":"2.1.0","time_elapsed":418493,"subject_id":"90639","group":"Group1","condition":"3_Rep","full_date":"2026-02-05T02:13:14.733Z","date":"2026-02-05","time":"02:13:14"},{"task":"memory_phase","broad_category":"I","image_png":"I_Obsidian_05.png","image_id":85,"category_name":"Obsidian","category":6,"distinct_rating":7.32,"distinct_type":"Top","rt":null,"stimulus":"Stimuli_Rocks480/I_Obsidian_05.png","response":null,"trial_type":"image-keyboard-response","trial_index":210,"plugin_version":"2.1.0","time_elapsed":420996,"subject_id":"90639","group":"Group1","condition":"3_Rep","full_date":"2026-02-05T02:13:14.733Z","date":"2026-02-05","time":"02:13:14"},{"rt":null,"stimulus":"<p style=\"font-size: 50px; margin: 0; text-align: center;\">+</p>","response":null,"trial_type":"html-keyboard-response","trial_index":211,"plugin_version":"2.1.0","time_elapsed":421999,"subject_id":"90639","group":"Group1","condition":"3_Rep","full_date":"2026-02-05T02:13:14.733Z","date":"2026-02-05","time":"02:13:14"},{"task":"memory_phase","broad_category":"I","image_png":"I_Rhyolite_16.png","image_id":160,"category_name":"Rhyolite","category":10,"distinct_rating":2.19,"distinct_type":"Bottom","rt":null,"stimulus":"Stimuli_Rocks480/I_Rhyolite_16.png","response":null,"trial_type":"image-keyboard-response","trial_index":212,"plugin_version":"2.1.0","time_elapsed":424502,"subject_id":"90639","group":"Group1","condition":"3_Rep","full_date":"2026-02-05T02:13:14.733Z","date":"2026-02-05","time":"02:13:14"},{"rt":null,"stimulus":"<p style=\"font-size: 50px; margin: 0; text-align: center;\">+</p>","response":null,"trial_type":"html-keyboard-response","trial_index":213,"plugin_version":"2.1.0","time_elapsed":425504,"subject_id":"90639","group":"Group1","condition":"3_Rep","full_date":"2026-02-05T02:13:14.733Z","date":"2026-02-05","time":"02:13:14"},{"task":"memory_phase","broad_category":"S","image_png":"S_Conglomerate_05.png","image_id":373,"category_name":"Conglomerate","category":24,"distinct_rating":7.32,"distinct_type":"Top","rt":null,"stimulus":"Stimuli_Rocks480/S_Conglomerate_05.png","response":null,"trial_type":"image-keyboard-response","trial_index":214,"plugin_version":"2.1.0","time_elapsed":428008,"subject_id":"90639","group":"Group1","condition":"3_Rep","full_date":"2026-02-05T02:13:14.733Z","date":"2026-02-05","time":"02:13:14"},{"rt":null,"stimulus":"<p style=\"font-size: 50px; margin: 0; text-align: center;\">+</p>","response":null,"trial_type":"html-keyboard-response","trial_index":215,"plugin_version":"2.1.0","time_elapsed":429011,"subject_id":"90639","group":"Group1","condition":"3_Rep","full_date":"2026-02-05T02:13:14.733Z","date":"2026-02-05","time":"02:13:14"},{"task":"memory_phase","broad_category":"S","image_png":"S_Chert_10.png","image_id":362,"category_name":"Chert","category":23,"distinct_rating":7.17,"distinct_type":"Top","rt":null,"stimulus":"Stimuli_Rocks480/S_Chert_10.png","response":null,"trial_type":"image-keyboard-response","trial_index":216,"plugin_version":"2.1.0","time_elapsed":431514,"subject_id":"90639","group":"Group1","condition":"3_Rep","full_date":"2026-02-05T02:13:14.733Z","date":"2026-02-05","time":"02:13:14"},{"rt":null,"stimulus":"<p style=\"font-size: 50px; margin: 0; text-align: center;\">+</p>","response":null,"trial_type":"html-keyboard-response","trial_index":217,"plugin_version":"2.1.0","time_elapsed":432517,"subject_id":"90639","group":"Group1","condition":"3_Rep","full_date":"2026-02-05T02:13:14.733Z","date":"2026-02-05","time":"02:13:14"},{"task":"memory_phase","broad_category":"I","image_png":"I_Diorite_05.png","image_id":37,"category_name":"Diorite","category":3,"distinct_rating":3.08,"distinct_type":"Bottom","rt":null,"stimulus":"Stimuli_Rocks480/I_Diorite_05.png","response":null,"trial_type":"image-keyboard-response","trial_index":218,"plugin_version":"2.1.0","time_elapsed":435020,"subject_id":"90639","group":"Group1","condition":"3_Rep","full_date":"2026-02-05T02:13:14.733Z","date":"2026-02-05","time":"02:13:14"},{"rt":null,"stimulus":"<p style=\"font-size: 50px; margin: 0; text-align: center;\">+</p>","response":null,"trial_type":"html-keyboard-response","trial_index":219,"plugin_version":"2.1.0","time_elapsed":436022,"subject_id":"90639","group":"Group1","condition":"3_Rep","full_date":"2026-02-05T02:13:14.733Z","date":"2026-02-05","time":"02:13:14"},{"task":"memory_phase","broad_category":"I","image_png":"I_Basalt_01.png","image_id":17,"category_name":"Basalt","category":2,"distinct_rating":1.92,"distinct_type":"Bottom","rt":null,"stimulus":"Stimuli_Rocks480/I_Basalt_01.png","response":null,"trial_type":"image-keyboard-response","trial_index":220,"plugin_version":"2.1.0","time_elapsed":438525,"subject_id":"90639","group":"Group1","condition":"3_Rep","full_date":"2026-02-05T02:13:14.733Z","date":"2026-02-05","time":"02:13:14"},{"rt":null,"stimulus":"<p style=\"font-size: 50px; margin: 0; text-align: center;\">+</p>","response":null,"trial_type":"html-keyboard-response","trial_index":221,"plugin_version":"2.1.0","time_elapsed":439527,"subject_id":"90639","group":"Group1","condition":"3_Rep","full_date":"2026-02-05T02:13:14.733Z","date":"2026-02-05","time":"02:13:14"},{"task":"memory_phase","broad_category":"M","image_png":"M_Quartzite_13.png","image_id":285,"category_name":"Quartzite","category":18,"distinct_rating":2.27,"distinct_type":"Bottom","rt":null,"stimulus":"Stimuli_Rocks480/M_Quartzite_13.png","response":null,"trial_type":"image-keyboard-response","trial_index":222,"plugin_version":"2.1.0","time_elapsed":442030,"subject_id":"90639","group":"Group1","condition":"3_Rep","full_date":"2026-02-05T02:13:14.733Z","date":"2026-02-05","time":"02:13:14"},{"rt":null,"stimulus":"<p style=\"font-size: 50px; margin: 0; text-align: center;\">+</p>","response":null,"trial_type":"html-keyboard-response","trial_index":223,"plugin_version":"2.1.0","time_elapsed":443033,"subject_id":"90639","group":"Group1","condition":"3_Rep","full_date":"2026-02-05T02:13:14.733Z","date":"2026-02-05","time":"02:13:14"},{"task":"memory_phase","broad_category":"I","image_png":"I_Diorite_03.png","image_id":35,"category_name":"Diorite","category":3,"distinct_rating":3.14,"distinct_type":"Bottom","rt":null,"stimulus":"Stimuli_Rocks480/I_Diorite_03.png","response":null,"trial_type":"image-keyboard-response","trial_index":224,"plugin_version":"2.1.0","time_elapsed":445537,"subject_id":"90639","group":"Group1","condition":"3_Rep","full_date":"2026-02-05T02:13:14.733Z","date":"2026-02-05","time":"02:13:14"},{"rt":null,"stimulus":"<p style=\"font-size: 50px; margin: 0; text-align: center;\">+</p>","response":null,"trial_type":"html-keyboard-response","trial_index":225,"plugin_version":"2.1.0","time_elapsed":446539,"subject_id":"90639","group":"Group1","condition":"3_Rep","full_date":"2026-02-05T02:13:14.733Z","date":"2026-02-05","time":"02:13:14"},{"task":"memory_phase","broad_category":"S","image_png":"S_Rock Gypsum_04.png","image_id":420,"category_name":"Rock Gypsum","category":27,"distinct_rating":7.61,"distinct_type":"Top","rt":null,"stimulus":"Stimuli_Rocks480/S_Rock Gypsum_04.png","response":null,"trial_type":"image-keyboard-response","trial_index":226,"plugin_version":"2.1.0","time_elapsed":449042,"subject_id":"90639","group":"Group1","condition":"3_Rep","full_date":"2026-02-05T02:13:14.733Z","date":"2026-02-05","time":"02:13:14"},{"rt":null,"stimulus":"<p style=\"font-size: 50px; margin: 0; text-align: center;\">+</p>","response":null,"trial_type":"html-keyboard-response","trial_index":227,"plugin_version":"2.1.0","time_elapsed":450045,"subject_id":"90639","group":"Group1","condition":"3_Rep","full_date":"2026-02-05T02:13:14.733Z","date":"2026-02-05","time":"02:13:14"},{"task":"memory_phase","broad_category":"S","image_png":"S_Shale_01.png","image_id":465,"category_name":"Shale","category":30,"distinct_rating":2.7,"distinct_type":"Bottom","rt":null,"stimulus":"Stimuli_Rocks480/S_Shale_01.png","response":null,"trial_type":"image-keyboard-response","trial_index":228,"plugin_version":"2.1.0","time_elapsed":452549,"subject_id":"90639","group":"Group1","condition":"3_Rep","full_date":"2026-02-05T02:13:14.733Z","date":"2026-02-05","time":"02:13:14"},{"rt":null,"stimulus":"<p style=\"font-size: 50px; margin: 0; text-align: center;\">+</p>","response":null,"trial_type":"html-keyboard-response","trial_index":229,"plugin_version":"2.1.0","time_elapsed":453551,"subject_id":"90639","group":"Group1","condition":"3_Rep","full_date":"2026-02-05T02:13:14.733Z","date":"2026-02-05","time":"02:13:14"},{"task":"memory_phase","broad_category":"M","image_png":"M_Slate_11.png","image_id":315,"category_name":"Slate","category":20,"distinct_rating":2.75,"distinct_type":"Bottom","rt":null,"stimulus":"Stimuli_Rocks480/M_Slate_11.png","response":null,"trial_type":"image-keyboard-response","trial_index":230,"plugin_version":"2.1.0","time_elapsed":456053,"subject_id":"90639","group":"Group1","condition":"3_Rep","full_date":"2026-02-05T02:13:14.733Z","date":"2026-02-05","time":"02:13:14"},{"rt":null,"stimulus":"<p style=\"font-size: 50px; margin: 0; text-align: center;\">+</p>","response":null,"trial_type":"html-keyboard-response","trial_index":231,"plugin_version":"2.1.0","time_elapsed":457056,"subject_id":"90639","group":"Group1","condition":"3_Rep","full_date":"2026-02-05T02:13:14.733Z","date":"2026-02-05","time":"02:13:14"},{"task":"memory_phase","broad_category":"I","image_png":"I_Andesite_10.png","image_id":10,"category_name":"Andesite","category":1,"distinct_rating":3.15,"distinct_type":"Bottom","rt":null,"stimulus":"Stimuli_Rocks480/I_Andesite_10.png","response":null,"trial_type":"image-keyboard-response","trial_index":232,"plugin_version":"2.1.0","time_elapsed":459558,"subject_id":"90639","group":"Group1","condition":"3_Rep","full_date":"2026-02-05T02:13:14.733Z","date":"2026-02-05","time":"02:13:14"},{"rt":null,"stimulus":"<p style=\"font-size: 50px; margin: 0; text-align: center;\">+</p>","response":null,"trial_type":"html-keyboard-response","trial_index":233,"plugin_version":"2.1.0","time_elapsed":460561,"subject_id":"90639","group":"Group1","condition":"3_Rep","full_date":"2026-02-05T02:13:14.733Z","date":"2026-02-05","time":"02:13:14"},{"task":"memory_phase","broad_category":"I","image_png":"I_Basalt_02.png","image_id":18,"category_name":"Basalt","category":2,"distinct_rating":1.84,"distinct_type":"Bottom","rt":null,"stimulus":"Stimuli_Rocks480/I_Basalt_02.png","response":null,"trial_type":"image-keyboard-response","trial_index":234,"plugin_version":"2.1.0","time_elapsed":463065,"subject_id":"90639","group":"Group1","condition":"3_Rep","full_date":"2026-02-05T02:13:14.733Z","date":"2026-02-05","time":"02:13:14"},{"rt":null,"stimulus":"<p style=\"font-size: 50px; margin: 0; text-align: center;\">+</p>","response":null,"trial_type":"html-keyboard-response","trial_index":235,"plugin_version":"2.1.0","time_elapsed":464066,"subject_id":"90639","group":"Group1","condition":"3_Rep","full_date":"2026-02-05T02:13:14.733Z","date":"2026-02-05","time":"02:13:14"},{"task":"memory_phase","broad_category":"M","image_png":"M_Quartzite_05.png","image_id":277,"category_name":"Quartzite","category":18,"distinct_rating":2.23,"distinct_type":"Bottom","rt":null,"stimulus":"Stimuli_Rocks480/M_Quartzite_05.png","re