[{"width":1470,"height":798,"webaudio":true,"browser":"chrome","browser_version":"144.0.0","mobile":false,"os":"Mac OS","fullscreen":true,"vsync_rate":59.99,"webcam":true,"microphone":true,"trial_type":"browser-check","trial_index":0,"plugin_version":"2.1.0","time_elapsed":1013,"subject_id":"91352","group":"Group1","condition":"1_Rep","full_date":"2026-02-24T22:16:51.247Z","date":"2026-02-24","time":"22:16:51"},{"success":true,"timeout":false,"failed_images":[],"failed_audio":[],"failed_video":[],"trial_type":"preload","trial_index":1,"plugin_version":"2.1.0","time_elapsed":2793,"subject_id":"91352","group":"Group1","condition":"1_Rep","full_date":"2026-02-24T22:16:51.247Z","date":"2026-02-24","time":"22:16:51"},{"rt":45819,"url":"SONA_consent_memorability.html","trial_type":"external-html","trial_index":2,"plugin_version":"2.1.0","time_elapsed":48671,"subject_id":"91352","group":"Group1","condition":"1_Rep","full_date":"2026-02-24T22:16:51.247Z","date":"2026-02-24","time":"22:16:51"},{"success":true,"rt":2319,"trial_type":"fullscreen","trial_index":3,"plugin_version":"2.1.0","time_elapsed":51995,"subject_id":"91352","group":"Group1","condition":"1_Rep","full_date":"2026-02-24T22:16:51.247Z","date":"2026-02-24","time":"22:16:51"},{"rt":34936,"stimulus":"<div style=\"max-width: 760px; margin: auto; font-size: 20px; line-height: 1.5;\">\n      <h1 style=\"text-align:center; font-size: 30px;\">Instructions</h1>\n      <p>\n        Welcome to the study on <b>visual memory</b>. This experiment consists of <b>two phases</b>: \n        a <b>study phase</b> and a <b>test phase</b>.\n      </p>\n      <p>\n        In the study phase, you will see a series of rock images along with their category labels.\n        The images will appear one at a time.\n        <b>Your task</b> is to learn the categories to which the rock images belong \n        and to remember each image as accurately as possible.\n      </p> \n      <p>\n        Note that you will see each image only <b>once</b> during the study phase. \n          So, please pay close attention and try to remember each image carefully.\n      </p>\n      <p>\n        After the study phase, <b>your memory will be tested</b>. \n        Additional instructions for the test phase will be provided at that time.\n      </p>\n      <p>\n        If your computer has multiple <b>language settings</b> (e.g., English and another language),\n        please make sure it is set to English before starting.\n      </p>\n      <p>\n        You can track your progress using the <b>completion bar</b> at the top of the screen. \n        Please note that the bar will refresh when the test phase begins \n        to give you an accurate sense of your progress in both phases.\n      </p> \n      <p>\n        Press the button below when you are ready to begin.\n      </p>\n    </div>","response":0,"trial_type":"html-button-response","trial_index":4,"plugin_version":"2.1.0","time_elapsed":86934,"subject_id":"91352","group":"Group1","condition":"1_Rep","full_date":"2026-02-24T22:16:51.247Z","date":"2026-02-24","time":"22:16:51"},{"rt":null,"stimulus":"<p style=\"font-size: 50px; margin: 0; text-align: center;\">+</p>","response":null,"trial_type":"html-keyboard-response","trial_index":5,"plugin_version":"2.1.0","time_elapsed":87938,"subject_id":"91352","group":"Group1","condition":"1_Rep","full_date":"2026-02-24T22:16:51.247Z","date":"2026-02-24","time":"22:16:51"},{"task":"memory_phase","broad_category":"I","image_png":"I_Rhyolite_14.png","image_id":158,"category_name":"Rhyolite","category":10,"distinct_rating":2.59,"distinct_type":"Bottom","rt":null,"stimulus":"Stimuli_Rocks480/I_Rhyolite_14.png","response":null,"trial_type":"image-keyboard-response","trial_index":6,"plugin_version":"2.1.0","time_elapsed":90445,"subject_id":"91352","group":"Group1","condition":"1_Rep","full_date":"2026-02-24T22:16:51.247Z","date":"2026-02-24","time":"22:16:51"},{"rt":null,"stimulus":"<p style=\"font-size: 50px; margin: 0; text-align: center;\">+</p>","response":null,"trial_type":"html-keyboard-response","trial_index":7,"plugin_version":"2.1.0","time_elapsed":91448,"subject_id":"91352","group":"Group1","condition":"1_Rep","full_date":"2026-02-24T22:16:51.247Z","date":"2026-02-24","time":"22:16:51"},{"task":"memory_phase","broad_category":"I","image_png":"I_Pumice_11.png","image_id":139,"category_name":"Pumice","category":9,"distinct_rating":1.74,"distinct_type":"Bottom","rt":null,"stimulus":"Stimuli_Rocks480/I_Pumice_11.png","response":null,"trial_type":"image-keyboard-response","trial_index":8,"plugin_version":"2.1.0","time_elapsed":93953,"subject_id":"91352","group":"Group1","condition":"1_Rep","full_date":"2026-02-24T22:16:51.247Z","date":"2026-02-24","time":"22:16:51"},{"rt":null,"stimulus":"<p style=\"font-size: 50px; margin: 0; text-align: center;\">+</p>","response":null,"trial_type":"html-keyboard-response","trial_index":9,"plugin_version":"2.1.0","time_elapsed":94957,"subject_id":"91352","group":"Group1","condition":"1_Rep","full_date":"2026-02-24T22:16:51.247Z","date":"2026-02-24","time":"22:16:51"},{"task":"memory_phase","broad_category":"S","image_png":"S_Rock Salt_01.png","image_id":433,"category_name":"Rock Salt","category":28,"distinct_rating":7.18,"distinct_type":"Top","rt":null,"stimulus":"Stimuli_Rocks480/S_Rock Salt_01.png","response":null,"trial_type":"image-keyboard-response","trial_index":10,"plugin_version":"2.1.0","time_elapsed":97461,"subject_id":"91352","group":"Group1","condition":"1_Rep","full_date":"2026-02-24T22:16:51.247Z","date":"2026-02-24","time":"22:16:51"},{"rt":null,"stimulus":"<p style=\"font-size: 50px; margin: 0; text-align: center;\">+</p>","response":null,"trial_type":"html-keyboard-response","trial_index":11,"plugin_version":"2.1.0","time_elapsed":98463,"subject_id":"91352","group":"Group1","condition":"1_Rep","full_date":"2026-02-24T22:16:51.247Z","date":"2026-02-24","time":"22:16:51"},{"task":"memory_phase","broad_category":"M","image_png":"M_Quartzite_08.png","image_id":280,"category_name":"Quartzite","category":18,"distinct_rating":2.15,"distinct_type":"Bottom","rt":null,"stimulus":"Stimuli_Rocks480/M_Quartzite_08.png","response":null,"trial_type":"image-keyboard-response","trial_index":12,"plugin_version":"2.1.0","time_elapsed":100967,"subject_id":"91352","group":"Group1","condition":"1_Rep","full_date":"2026-02-24T22:16:51.247Z","date":"2026-02-24","time":"22:16:51"},{"rt":null,"stimulus":"<p style=\"font-size: 50px; margin: 0; text-align: center;\">+</p>","response":null,"trial_type":"html-keyboard-response","trial_index":13,"plugin_version":"2.1.0","time_elapsed":101969,"subject_id":"91352","group":"Group1","condition":"1_Rep","full_date":"2026-02-24T22:16:51.247Z","date":"2026-02-24","time":"22:16:51"},{"task":"memory_phase","broad_category":"M","image_png":"M_Gneiss_13.png","image_id":205,"category_name":"Gneiss","category":13,"distinct_rating":3.26,"distinct_type":"Bottom","rt":null,"stimulus":"Stimuli_Rocks480/M_Gneiss_13.png","response":null,"trial_type":"image-keyboard-response","trial_index":14,"plugin_version":"2.1.0","time_elapsed":104474,"subject_id":"91352","group":"Group1","condition":"1_Rep","full_date":"2026-02-24T22:16:51.247Z","date":"2026-02-24","time":"22:16:51"},{"rt":null,"stimulus":"<p style=\"font-size: 50px; margin: 0; text-align: center;\">+</p>","response":null,"trial_type":"html-keyboard-response","trial_index":15,"plugin_version":"2.1.0","time_elapsed":105477,"subject_id":"91352","group":"Group1","condition":"1_Rep","full_date":"2026-02-24T22:16:51.247Z","date":"2026-02-24","time":"22:16:51"},{"task":"memory_phase","broad_category":"I","image_png":"I_Andesite_06.png","image_id":6,"category_name":"Andesite","category":1,"distinct_rating":3.17,"distinct_type":"Bottom","rt":null,"stimulus":"Stimuli_Rocks480/I_Andesite_06.png","response":null,"trial_type":"image-keyboard-response","trial_index":16,"plugin_version":"2.1.0","time_elapsed":107981,"subject_id":"91352","group":"Group1","condition":"1_Rep","full_date":"2026-02-24T22:16:51.247Z","date":"2026-02-24","time":"22:16:51"},{"rt":null,"stimulus":"<p style=\"font-size: 50px; margin: 0; text-align: center;\">+</p>","response":null,"trial_type":"html-keyboard-response","trial_index":17,"plugin_version":"2.1.0","time_elapsed":108983,"subject_id":"91352","group":"Group1","condition":"1_Rep","full_date":"2026-02-24T22:16:51.247Z","date":"2026-02-24","time":"22:16:51"},{"task":"memory_phase","broad_category":"S","image_png":"S_Chert_10.png","image_id":362,"category_name":"Chert","category":23,"distinct_rating":7.17,"distinct_type":"Top","rt":null,"stimulus":"Stimuli_Rocks480/S_Chert_10.png","response":null,"trial_type":"image-keyboard-response","trial_index":18,"plugin_version":"2.1.0","time_elapsed":111487,"subject_id":"91352","group":"Group1","condition":"1_Rep","full_date":"2026-02-24T22:16:51.247Z","date":"2026-02-24","time":"22:16:51"},{"rt":null,"stimulus":"<p style=\"font-size: 50px; margin: 0; text-align: center;\">+</p>","response":null,"trial_type":"html-keyboard-response","trial_index":19,"plugin_version":"2.1.0","time_elapsed":112490,"subject_id":"91352","group":"Group1","condition":"1_Rep","full_date":"2026-02-24T22:16:51.247Z","date":"2026-02-24","time":"22:16:51"},{"task":"memory_phase","broad_category":"S","image_png":"S_Rock Gypsum_04.png","image_id":420,"category_name":"Rock Gypsum","category":27,"distinct_rating":7.61,"distinct_type":"Top","rt":null,"stimulus":"Stimuli_Rocks480/S_Rock Gypsum_04.png","response":null,"trial_type":"image-keyboard-response","trial_index":20,"plugin_version":"2.1.0","time_elapsed":114994,"subject_id":"91352","group":"Group1","condition":"1_Rep","full_date":"2026-02-24T22:16:51.247Z","date":"2026-02-24","time":"22:16:51"},{"rt":null,"stimulus":"<p style=\"font-size: 50px; margin: 0; text-align: center;\">+</p>","response":null,"trial_type":"html-keyboard-response","trial_index":21,"plugin_version":"2.1.0","time_elapsed":115998,"subject_id":"91352","group":"Group1","condition":"1_Rep","full_date":"2026-02-24T22:16:51.247Z","date":"2026-02-24","time":"22:16:51"},{"task":"memory_phase","broad_category":"S","image_png":"S_Sandstone_15.png","image_id":463,"category_name":"Sandstone","category":29,"distinct_rating":2,"distinct_type":"Bottom","rt":null,"stimulus":"Stimuli_Rocks480/S_Sandstone_15.png","response":null,"trial_type":"image-keyboard-response","trial_index":22,"plugin_version":"2.1.0","time_elapsed":118501,"subject_id":"91352","group":"Group1","condition":"1_Rep","full_date":"2026-02-24T22:16:51.247Z","date":"2026-02-24","time":"22:16:51"},{"rt":null,"stimulus":"<p style=\"font-size: 50px; margin: 0; text-align: center;\">+</p>","response":null,"trial_type":"html-keyboard-response","trial_index":23,"plugin_version":"2.1.0","time_elapsed":119504,"subject_id":"91352","group":"Group1","condition":"1_Rep","full_date":"2026-02-24T22:16:51.247Z","date":"2026-02-24","time":"22:16:51"},{"task":"memory_phase","broad_category":"S","image_png":"S_Dolomite_12.png","image_id":396,"category_name":"Dolomite","category":25,"distinct_rating":1.85,"distinct_type":"Bottom","rt":null,"stimulus":"Stimuli_Rocks480/S_Dolomite_12.png","response":null,"trial_type":"image-keyboard-response","trial_index":24,"plugin_version":"2.1.0","time_elapsed":122008,"subject_id":"91352","group":"Group1","condition":"1_Rep","full_date":"2026-02-24T22:16:51.247Z","date":"2026-02-24","time":"22:16:51"},{"rt":null,"stimulus":"<p style=\"font-size: 50px; margin: 0; text-align: center;\">+</p>","response":null,"trial_type":"html-keyboard-response","trial_index":25,"plugin_version":"2.1.0","time_elapsed":123011,"subject_id":"91352","group":"Group1","condition":"1_Rep","full_date":"2026-02-24T22:16:51.247Z","date":"2026-02-24","time":"22:16:51"},{"task":"memory_phase","broad_category":"S","image_png":"S_Conglomerate_05.png","image_id":373,"category_name":"Conglomerate","category":24,"distinct_rating":7.32,"distinct_type":"Top","rt":null,"stimulus":"Stimuli_Rocks480/S_Conglomerate_05.png","response":null,"trial_type":"image-keyboard-response","trial_index":26,"plugin_version":"2.1.0","time_elapsed":125515,"subject_id":"91352","group":"Group1","condition":"1_Rep","full_date":"2026-02-24T22:16:51.247Z","date":"2026-02-24","time":"22:16:51"},{"rt":null,"stimulus":"<p style=\"font-size: 50px; margin: 0; text-align: center;\">+</p>","response":null,"trial_type":"html-keyboard-response","trial_index":27,"plugin_version":"2.1.0","time_elapsed":126518,"subject_id":"91352","group":"Group1","condition":"1_Rep","full_date":"2026-02-24T22:16:51.247Z","date":"2026-02-24","time":"22:16:51"},{"task":"memory_phase","broad_category":"I","image_png":"I_Basalt_02.png","image_id":18,"category_name":"Basalt","category":2,"distinct_rating":1.84,"distinct_type":"Bottom","rt":null,"stimulus":"Stimuli_Rocks480/I_Basalt_02.png","response":null,"trial_type":"image-keyboard-response","trial_index":28,"plugin_version":"2.1.0","time_elapsed":129022,"subject_id":"91352","group":"Group1","condition":"1_Rep","full_date":"2026-02-24T22:16:51.247Z","date":"2026-02-24","time":"22:16:51"},{"rt":null,"stimulus":"<p style=\"font-size: 50px; margin: 0; text-align: center;\">+</p>","response":null,"trial_type":"html-keyboard-response","trial_index":29,"plugin_version":"2.1.0","time_elapsed":130024,"subject_id":"91352","group":"Group1","condition":"1_Rep","full_date":"2026-02-24T22:16:51.247Z","date":"2026-02-24","time":"22:16:51"},{"task":"memory_phase","broad_category":"M","image_png":"M_Slate_03.png","image_id":307,"category_name":"Slate","category":20,"distinct_rating":1.87,"distinct_type":"Bottom","rt":null,"stimulus":"Stimuli_Rocks480/M_Slate_03.png","response":null,"trial_type":"image-keyboard-response","trial_index":30,"plugin_version":"2.1.0","time_elapsed":132528,"subject_id":"91352","group":"Group1","condition":"1_Rep","full_date":"2026-02-24T22:16:51.247Z","date":"2026-02-24","time":"22:16:51"},{"rt":null,"stimulus":"<p style=\"font-size: 50px; margin: 0; text-align: center;\">+</p>","response":null,"trial_type":"html-keyboard-response","trial_index":31,"plugin_version":"2.1.0","time_elapsed":133531,"subject_id":"91352","group":"Group1","condition":"1_Rep","full_date":"2026-02-24T22:16:51.247Z","date":"2026-02-24","time":"22:16:51"},{"task":"memory_phase","broad_category":"I","image_png":"I_Andesite_08.png","image_id":8,"category_name":"Andesite","category":1,"distinct_rating":1.95,"distinct_type":"Bottom","rt":null,"stimulus":"Stimuli_Rocks480/I_Andesite_08.png","response":null,"trial_type":"image-keyboard-response","trial_index":32,"plugin_version":"2.1.0","time_elapsed":136034,"subject_id":"91352","group":"Group1","condition":"1_Rep","full_date":"2026-02-24T22:16:51.247Z","date":"2026-02-24","time":"22:16:51"},{"rt":null,"stimulus":"<p style=\"font-size: 50px; margin: 0; text-align: center;\">+</p>","response":null,"trial_type":"html-keyboard-response","trial_index":33,"plugin_version":"2.1.0","time_elapsed":137037,"subject_id":"91352","group":"Group1","condition":"1_Rep","full_date":"2026-02-24T22:16:51.247Z","date":"2026-02-24","time":"22:16:51"},{"task":"memory_phase","broad_category":"I","image_png":"I_Diorite_05.png","image_id":37,"category_name":"Diorite","category":3,"distinct_rating":3.08,"distinct_type":"Bottom","rt":null,"stimulus":"Stimuli_Rocks480/I_Diorite_05.png","response":null,"trial_type":"image-keyboard-response","trial_index":34,"plugin_version":"2.1.0","time_elapsed":139541,"subject_id":"91352","group":"Group1","condition":"1_Rep","full_date":"2026-02-24T22:16:51.247Z","date":"2026-02-24","time":"22:16:51"},{"rt":null,"stimulus":"<p style=\"font-size: 50px; margin: 0; text-align: center;\">+</p>","response":null,"trial_type":"html-keyboard-response","trial_index":35,"plugin_version":"2.1.0","time_elapsed":140544,"subject_id":"91352","group":"Group1","condition":"1_Rep","full_date":"2026-02-24T22:16:51.247Z","date":"2026-02-24","time":"22:16:51"},{"task":"memory_phase","broad_category":"S","image_png":"S_Dolomite_14.png","image_id":398,"category_name":"Dolomite","category":25,"distinct_rating":1.43,"distinct_type":"Bottom","rt":null,"stimulus":"Stimuli_Rocks480/S_Dolomite_14.png","response":null,"trial_type":"image-keyboard-response","trial_index":36,"plugin_version":"2.1.0","time_elapsed":143047,"subject_id":"91352","group":"Group1","condition":"1_Rep","full_date":"2026-02-24T22:16:51.247Z","date":"2026-02-24","time":"22:16:51"},{"rt":null,"stimulus":"<p style=\"font-size: 50px; margin: 0; text-align: center;\">+</p>","response":null,"trial_type":"html-keyboard-response","trial_index":37,"plugin_version":"2.1.0","time_elapsed":144050,"subject_id":"91352","group":"Group1","condition":"1_Rep","full_date":"2026-02-24T22:16:51.247Z","date":"2026-02-24","time":"22:16:51"},{"task":"memory_phase","broad_category":"S","image_png":"S_Sandstone_16.png","image_id":464,"category_name":"Sandstone","category":29,"distinct_rating":1.93,"distinct_type":"Bottom","rt":null,"stimulus":"Stimuli_Rocks480/S_Sandstone_16.png","response":null,"trial_type":"image-keyboard-response","trial_index":38,"plugin_version":"2.1.0","time_elapsed":146553,"subject_id":"91352","group":"Group1","condition":"1_Rep","full_date":"2026-02-24T22:16:51.247Z","date":"2026-02-24","time":"22:16:51"},{"rt":null,"stimulus":"<p style=\"font-size: 50px; margin: 0; text-align: center;\">+</p>","response":null,"trial_type":"html-keyboard-response","trial_index":39,"plugin_version":"2.1.0","time_elapsed":147556,"subject_id":"91352","group":"Group1","condition":"1_Rep","full_date":"2026-02-24T22:16:51.247Z","date":"2026-02-24","time":"22:16:51"},{"task":"memory_phase","broad_category":"S","image_png":"S_Sandstone_03.png","image_id":451,"category_name":"Sandstone","category":29,"distinct_rating":1.86,"distinct_type":"Bottom","rt":null,"stimulus":"Stimuli_Rocks480/S_Sandstone_03.png","response":null,"trial_type":"image-keyboard-response","trial_index":40,"plugin_version":"2.1.0","time_elapsed":150060,"subject_id":"91352","group":"Group1","condition":"1_Rep","full_date":"2026-02-24T22:16:51.247Z","date":"2026-02-24","time":"22:16:51"},{"rt":null,"stimulus":"<p style=\"font-size: 50px; margin: 0; text-align: center;\">+</p>","response":null,"trial_type":"html-keyboard-response","trial_index":41,"plugin_version":"2.1.0","time_elapsed":151063,"subject_id":"91352","group":"Group1","condition":"1_Rep","full_date":"2026-02-24T22:16:51.247Z","date":"2026-02-24","time":"22:16:51"},{"task":"memory_phase","broad_category":"I","image_png":"I_Gabbro_11.png","image_id":59,"category_name":"Gabbro","category":4,"distinct_rating":1.99,"distinct_type":"Bottom","rt":null,"stimulus":"Stimuli_Rocks480/I_Gabbro_11.png","response":null,"trial_type":"image-keyboard-response","trial_index":42,"plugin_version":"2.1.0","time_elapsed":153567,"subject_id":"91352","group":"Group1","condition":"1_Rep","full_date":"2026-02-24T22:16:51.247Z","date":"2026-02-24","time":"22:16:51"},{"rt":null,"stimulus":"<p style=\"font-size: 50px; margin: 0; text-align: center;\">+</p>","response":null,"trial_type":"html-keyboard-response","trial_index":43,"plugin_version":"2.1.0","time_elapsed":154571,"subject_id":"91352","group":"Group1","condition":"1_Rep","full_date":"2026-02-24T22:16:51.247Z","date":"2026-02-24","time":"22:16:51"},{"task":"memory_phase","broad_category":"M","image_png":"M_Quartzite_05.png","image_id":277,"category_name":"Quartzite","category":18,"distinct_rating":2.23,"distinct_type":"Bottom","rt":null,"stimulus":"Stimuli_Rocks480/M_Quartzite_05.png","response":null,"trial_type":"image-keyboard-response","trial_index":44,"plugin_version":"2.1.0","time_elapsed":157076,"subject_id":"91352","group":"Group1","condition":"1_Rep","full_date":"2026-02-24T22:16:51.247Z","date":"2026-02-24","time":"22:16:51"},{"rt":null,"stimulus":"<p style=\"font-size: 50px; margin: 0; text-align: center;\">+</p>","response":null,"trial_type":"html-keyboard-response","trial_index":45,"plugin_version":"2.1.0","time_elapsed":158078,"subject_id":"91352","group":"Group1","condition":"1_Rep","full_date":"2026-02-24T22:16:51.247Z","date":"2026-02-24","time":"22:16:51"},{"task":"memory_phase","broad_category":"S","image_png":"S_Breccia_11.png","image_id":347,"category_name":"Breccia","category":22,"distinct_rating":6.7,"distinct_type":"Top","rt":null,"stimulus":"Stimuli_Rocks480/S_Breccia_11.png","response":null,"trial_type":"image-keyboard-response","trial_index":46,"plugin_version":"2.1.0","time_elapsed":160582,"subject_id":"91352","group":"Group1","condition":"1_Rep","full_date":"2026-02-24T22:16:51.247Z","date":"2026-02-24","time":"22:16:51"},{"rt":null,"stimulus":"<p style=\"font-size: 50px; margin: 0; text-align: center;\">+</p>","response":null,"trial_type":"html-keyboard-response","trial_index":47,"plugin_version":"2.1.0","time_elapsed":161585,"subject_id":"91352","group":"Group1","condition":"1_Rep","full_date":"2026-02-24T22:16:51.247Z","date":"2026-02-24","time":"22:16:51"},{"task":"memory_phase","broad_category":"I","image_png":"I_Pegmatite_10.png","image_id":106,"category_name":"Pegmatite","category":7,"distinct_rating":7.66,"distinct_type":"Top","rt":null,"stimulus":"Stimuli_Rocks480/I_Pegmatite_10.png","response":null,"trial_type":"image-keyboard-response","trial_index":48,"plugin_version":"2.1.0","time_elapsed":164089,"subject_id":"91352","group":"Group1","condition":"1_Rep","full_date":"2026-02-24T22:16:51.247Z","date":"2026-02-24","time":"22:16:51"},{"rt":null,"stimulus":"<p style=\"font-size: 50px; margin: 0; text-align: center;\">+</p>","response":null,"trial_type":"html-keyboard-response","trial_index":49,"plugin_version":"2.1.0","time_elapsed":165092,"subject_id":"91352","group":"Group1","condition":"1_Rep","full_date":"2026-02-24T22:16:51.247Z","date":"2026-02-24","time":"22:16:51"},{"task":"memory_phase","broad_category":"M","image_png":"M_Slate_11.png","image_id":315,"category_name":"Slate","category":20,"distinct_rating":2.75,"distinct_type":"Bottom","rt":null,"stimulus":"Stimuli_Rocks480/M_Slate_11.png","response":null,"trial_type":"image-keyboard-response","trial_index":50,"plugin_version":"2.1.0","time_elapsed":167596,"subject_id":"91352","group":"Group1","condition":"1_Rep","full_date":"2026-02-24T22:16:51.247Z","date":"2026-02-24","time":"22:16:51"},{"rt":null,"stimulus":"<p style=\"font-size: 50px; margin: 0; text-align: center;\">+</p>","response":null,"trial_type":"html-keyboard-response","trial_index":51,"plugin_version":"2.1.0","time_elapsed":168599,"subject_id":"91352","group":"Group1","condition":"1_Rep","full_date":"2026-02-24T22:16:51.247Z","date":"2026-02-24","time":"22:16:51"},{"task":"memory_phase","broad_category":"I","image_png":"I_Rhyolite_11.png","image_id":155,"category_name":"Rhyolite","category":10,"distinct_rating":1.73,"distinct_type":"Bottom","rt":null,"stimulus":"Stimuli_Rocks480/I_Rhyolite_11.png","response":null,"trial_type":"image-keyboard-response","trial_index":52,"plugin_version":"2.1.0","time_elapsed":171104,"subject_id":"91352","group":"Group1","condition":"1_Rep","full_date":"2026-02-24T22:16:51.247Z","date":"2026-02-24","time":"22:16:51"},{"rt":null,"stimulus":"<p style=\"font-size: 50px; margin: 0; text-align: center;\">+</p>","response":null,"trial_type":"html-keyboard-response","trial_index":53,"plugin_version":"2.1.0","time_elapsed":172107,"subject_id":"91352","group":"Group1","condition":"1_Rep","full_date":"2026-02-24T22:16:51.247Z","date":"2026-02-24","time":"22:16:51"},{"task":"memory_phase","broad_category":"I","image_png":"I_Rhyolite_16.png","image_id":160,"category_name":"Rhyolite","category":10,"distinct_rating":2.19,"distinct_type":"Bottom","rt":null,"stimulus":"Stimuli_Rocks480/I_Rhyolite_16.png","response":null,"trial_type":"image-keyboard-response","trial_index":54,"plugin_version":"2.1.0","time_elapsed":174611,"subject_id":"91352","group":"Group1","condition":"1_Rep","full_date":"2026-02-24T22:16:51.247Z","date":"2026-02-24","time":"22:16:51"},{"rt":34619,"stimulus":"<p style=\"max-width: 760px; margin: auto; font-size: 35px; line-height: 1.5;\">\n                Press SPACE to continue study phase\n              </p>","response":" ","trial_type":"html-keyboard-response","trial_index":55,"plugin_version":"2.1.0","time_elapsed":209232,"subject_id":"91352","group":"Group1","condition":"1_Rep","full_date":"2026-02-24T22:16:51.247Z","date":"2026-02-24","time":"22:16:51"},{"rt":null,"stimulus":"<p style=\"font-size: 50px; margin: 0; text-align: center;\">+</p>","response":null,"trial_type":"html-keyboard-response","trial_index":56,"plugin_version":"2.1.0","time_elapsed":210235,"subject_id":"91352","group":"Group1","condition":"1_Rep","full_date":"2026-02-24T22:16:51.247Z","date":"2026-02-24","time":"22:16:51"},{"task":"memory_phase","broad_category":"I","image_png":"I_Pumice_08.png","image_id":136,"category_name":"Pumice","category":9,"distinct_rating":3.1,"distinct_type":"Bottom","rt":null,"stimulus":"Stimuli_Rocks480/I_Pumice_08.png","response":null,"trial_type":"image-keyboard-response","trial_index":57,"plugin_version":"2.1.0","time_elapsed":212740,"subject_id":"91352","group":"Group1","condition":"1_Rep","full_date":"2026-02-24T22:16:51.247Z","date":"2026-02-24","time":"22:16:51"},{"rt":null,"stimulus":"<p style=\"font-size: 50px; margin: 0; text-align: center;\">+</p>","response":null,"trial_type":"html-keyboard-response","trial_index":58,"plugin_version":"2.1.0","time_elapsed":213743,"subject_id":"91352","group":"Group1","condition":"1_Rep","full_date":"2026-02-24T22:16:51.247Z","date":"2026-02-24","time":"22:16:51"},{"task":"memory_phase","broad_category":"M","image_png":"M_Gneiss_06.png","image_id":198,"category_name":"Gneiss","category":13,"distinct_rating":2.65,"distinct_type":"Bottom","rt":null,"stimulus":"Stimuli_Rocks480/M_Gneiss_06.png","response":null,"trial_type":"image-keyboard-response","trial_index":59,"plugin_version":"2.1.0","time_elapsed":216247,"subject_id":"91352","group":"Group1","condition":"1_Rep","full_date":"2026-02-24T22:16:51.247Z","date":"2026-02-24","time":"22:16:51"},{"rt":null,"stimulus":"<p style=\"font-size: 50px; margin: 0; text-align: center;\">+</p>","response":null,"trial_type":"html-keyboard-response","trial_index":60,"plugin_version":"2.1.0","time_elapsed":217250,"subject_id":"91352","group":"Group1","condition":"1_Rep","full_date":"2026-02-24T22:16:51.247Z","date":"2026-02-24","time":"22:16:51"},{"task":"memory_phase","broad_category":"S","image_png":"S_Dolomite_13.png","image_id":397,"category_name":"Dolomite","category":25,"distinct_rating":1.77,"distinct_type":"Bottom","rt":null,"stimulus":"Stimuli_Rocks480/S_Dolomite_13.png","response":null,"trial_type":"image-keyboard-response","trial_index":61,"plugin_version":"2.1.0","time_elapsed":219754,"subject_id":"91352","group":"Group1","condition":"1_Rep","full_date":"2026-02-24T22:16:51.247Z","date":"2026-02-24","time":"22:16:51"},{"rt":null,"stimulus":"<p style=\"font-size: 50px; margin: 0; text-align: center;\">+</p>","response":null,"trial_type":"html-keyboard-response","trial_index":62,"plugin_version":"2.1.0","time_elapsed":220756,"subject_id":"91352","group":"Group1","condition":"1_Rep","full_date":"2026-02-24T22:16:51.247Z","date":"2026-02-24","time":"22:16:51"},{"task":"memory_phase","broad_category":"I","image_png":"I_Pumice_12.png","image_id":140,"category_name":"Pumice","category":9,"distinct_rating":2.97,"distinct_type":"Bottom","rt":null,"stimulus":"Stimuli_Rocks480/I_Pumice_12.png","response":null,"trial_type":"image-keyboard-response","trial_index":63,"plugin_version":"2.1.0","time_elapsed":223260,"subject_id":"91352","group":"Group1","condition":"1_Rep","full_date":"2026-02-24T22:16:51.247Z","date":"2026-02-24","time":"22:16:51"},{"rt":null,"stimulus":"<p style=\"font-size: 50px; margin: 0; text-align: center;\">+</p>","response":null,"trial_type":"html-keyboard-response","trial_index":64,"plugin_version":"2.1.0","time_elapsed":224264,"subject_id":"91352","group":"Group1","condition":"1_Rep","full_date":"2026-02-24T22:16:51.247Z","date":"2026-02-24","time":"22:16:51"},{"task":"memory_phase","broad_category":"M","image_png":"M_Phyllite_07.png","image_id":263,"category_name":"Phyllite","category":17,"distinct_rating":2.59,"distinct_type":"Bottom","rt":null,"stimulus":"Stimuli_Rocks480/M_Phyllite_07.png","response":null,"trial_type":"image-keyboard-response","trial_index":65,"plugin_version":"2.1.0","time_elapsed":226768,"subject_id":"91352","group":"Group1","condition":"1_Rep","full_date":"2026-02-24T22:16:51.247Z","date":"2026-02-24","time":"22:16:51"},{"rt":null,"stimulus":"<p style=\"font-size: 50px; margin: 0; text-align: center;\">+</p>","response":null,"trial_type":"html-keyboard-response","trial_index":66,"plugin_version":"2.1.0","time_elapsed":227771,"subject_id":"91352","group":"Group1","condition":"1_Rep","full_date":"2026-02-24T22:16:51.247Z","date":"2026-02-24","time":"22:16:51"},{"task":"memory_phase","broad_category":"S","image_png":"S_Shale_01.png","image_id":465,"category_name":"Shale","category":30,"distinct_rating":2.7,"distinct_type":"Bottom","rt":null,"stimulus":"Stimuli_Rocks480/S_Shale_01.png","response":null,"trial_type":"image-keyboard-response","trial_index":67,"plugin_version":"2.1.0","time_elapsed":230275,"subject_id":"91352","group":"Group1","condition":"1_Rep","full_date":"2026-02-24T22:16:51.247Z","date":"2026-02-24","time":"22:16:51"},{"rt":null,"stimulus":"<p style=\"font-size: 50px; margin: 0; text-align: center;\">+</p>","response":null,"trial_type":"html-keyboard-response","trial_index":68,"plugin_version":"2.1.0","time_elapsed":231279,"subject_id":"91352","group":"Group1","condition":"1_Rep","full_date":"2026-02-24T22:16:51.247Z","date":"2026-02-24","time":"22:16:51"},{"task":"memory_phase","broad_category":"I","image_png":"I_Andesite_10.png","image_id":10,"category_name":"Andesite","category":1,"distinct_rating":3.15,"distinct_type":"Bottom","rt":null,"stimulus":"Stimuli_Rocks480/I_Andesite_10.png","response":null,"trial_type":"image-keyboard-response","trial_index":69,"plugin_version":"2.1.0","time_elapsed":233783,"subject_id":"91352","group":"Group1","condition":"1_Rep","full_date":"2026-02-24T22:16:51.247Z","date":"2026-02-24","time":"22:16:51"},{"rt":null,"stimulus":"<p style=\"font-size: 50px; margin: 0; text-align: center;\">+</p>","response":null,"trial_type":"html-keyboard-response","trial_index":70,"plugin_version":"2.1.0","time_elapsed":234785,"subject_id":"91352","group":"Group1","condition":"1_Rep","full_date":"2026-02-24T22:16:51.247Z","date":"2026-02-24","time":"22:16:51"},{"task":"memory_phase","broad_category":"M","image_png":"M_Quartzite_13.png","image_id":285,"category_name":"Quartzite","category":18,"distinct_rating":2.27,"distinct_type":"Bottom","rt":null,"stimulus":"Stimuli_Rocks480/M_Quartzite_13.png","response":null,"trial_type":"image-keyboard-response","trial_index":71,"plugin_version":"2.1.0","time_elapsed":237289,"subject_id":"91352","group":"Group1","condition":"1_Rep","full_date":"2026-02-24T22:16:51.247Z","date":"2026-02-24","time":"22:16:51"},{"rt":null,"stimulus":"<p style=\"font-size: 50px; margin: 0; text-align: center;\">+</p>","response":null,"trial_type":"html-keyboard-response","trial_index":72,"plugin_version":"2.1.0","time_elapsed":238292,"subject_id":"91352","group":"Group1","condition":"1_Rep","full_date":"2026-02-24T22:16:51.247Z","date":"2026-02-24","time":"22:16:51"},{"task":"memory_phase","broad_category":"M","image_png":"M_Marble_04.png","image_id":228,"category_name":"Marble","category":15,"distinct_rating":3.15,"distinct_type":"Bottom","rt":null,"stimulus":"Stimuli_Rocks480/M_Marble_04.png","response":null,"trial_type":"image-keyboard-response","trial_index":73,"plugin_version":"2.1.0","time_elapsed":240797,"subject_id":"91352","group":"Group1","condition":"1_Rep","full_date":"2026-02-24T22:16:51.247Z","date":"2026-02-24","time":"22:16:51"},{"rt":null,"stimulus":"<p style=\"font-size: 50px; margin: 0; text-align: center;\">+</p>","response":null,"trial_type":"html-keyboard-response","trial_index":74,"plugin_version":"2.1.0","time_elapsed":241799,"subject_id":"91352","group":"Group1","condition":"1_Rep","full_date":"2026-02-24T22:16:51.247Z","date":"2026-02-24","time":"22:16:51"},{"task":"memory_phase","broad_category":"I","image_png":"I_Basalt_09.png","image_id":25,"category_name":"Basalt","category":2,"distinct_rating":1.89,"distinct_type":"Bottom","rt":null,"stimulus":"Stimuli_Rocks480/I_Basalt_09.png","response":null,"trial_type":"image-keyboard-response","trial_index":75,"plugin_version":"2.1.0","time_elapsed":244303,"subject_id":"91352","group":"Group1","condition":"1_Rep","full_date":"2026-02-24T22:16:51.247Z","date":"2026-02-24","time":"22:16:51"},{"rt":null,"stimulus":"<p style=\"font-size: 50px; margin: 0; text-align: center;\">+</p>","response":null,"trial_type":"html-keyboard-response","trial_index":76,"plugin_version":"2.1.0","time_elapsed":245306,"subject_id":"91352","group":"Group1","condition":"1_Rep","full_date":"2026-02-24T22:16:51.247Z","date":"2026-02-24","time":"22:16:51"},{"task":"memory_phase","broad_category":"M","image_png":"M_Marble_16.png","image_id":240,"category_name":"Marble","category":15,"distinct_rating":2.57,"distinct_type":"Bottom","rt":null,"stimulus":"Stimuli_Rocks480/M_Marble_16.png","response":null,"trial_type":"image-keyboard-response","trial_index":77,"plugin_version":"2.1.0","time_elapsed":247809,"subject_id":"91352","group":"Group1","condition":"1_Rep","full_date":"2026-02-24T22:16:51.247Z","date":"2026-02-24","time":"22:16:51"},{"rt":null,"stimulus":"<p style=\"font-size: 50px; margin: 0; text-align: center;\">+</p>","response":null,"trial_type":"html-keyboard-response","trial_index":78,"plugin_version":"2.1.0","time_elapsed":248812,"subject_id":"91352","group":"Group1","condition":"1_Rep","full_date":"2026-02-24T22:16:51.247Z","date":"2026-02-24","time":"22:16:51"},{"task":"memory_phase","broad_category":"I","image_png":"I_Gabbro_16.png","image_id":64,"category_name":"Gabbro","category":4,"distinct_rating":2.52,"distinct_type":"Bottom","rt":null,"stimulus":"Stimuli_Rocks480/I_Gabbro_16.png","response":null,"trial_type":"image-keyboard-response","trial_index":79,"plugin_version":"2.1.0","time_elapsed":251316,"subject_id":"91352","group":"Group1","condition":"1_Rep","full_date":"2026-02-24T22:16:51.247Z","date":"2026-02-24","time":"22:16:51"},{"rt":null,"stimulus":"<p style=\"font-size: 50px; margin: 0; text-align: center;\">+</p>","response":null,"trial_type":"html-keyboard-response","trial_index":80,"plugin_version":"2.1.0","time_elapsed":252319,"subject_id":"91352","group":"Group1","condition":"1_Rep","full_date":"2026-02-24T22:16:51.247Z","date":"2026-02-24","time":"22:16:51"},{"task":"memory_phase","broad_category":"I","image_png":"I_Gabbro_08.png","image_id":56,"category_name":"Gabbro","category":4,"distinct_rating":3.02,"distinct_type":"Bottom","rt":null,"stimulus":"Stimuli_Rocks480/I_Gabbro_08.png","response":null,"trial_type":"image-keyboard-response","trial_index":81,"plugin_version":"2.1.0","time_elapsed":254823,"subject_id":"91352","group":"Group1","condition":"1_Rep","full_date":"2026-02-24T22:16:51.247Z","date":"2026-02-24","time":"22:16:51"},{"rt":null,"stimulus":"<p style=\"font-size: 50px; margin: 0; text-align: center;\">+</p>","response":null,"trial_type":"html-keyboard-response","trial_index":82,"plugin_version":"2.1.0","time_elapsed":255825,"subject_id":"91352","group":"Group1","condition":"1_Rep","full_date":"2026-02-24T22:16:51.247Z","date":"2026-02-24","time":"22:16:51"},{"task":"memory_phase","broad_category":"M","image_png":"M_Gneiss_05.png","image_id":197,"category_name":"Gneiss","category":13,"distinct_rating":2.97,"distinct_type":"Bottom","rt":null,"stimulus":"Stimuli_Rocks480/M_Gneiss_05.png","response":null,"trial_type":"image-keyboard-response","trial_index":83,"plugin_version":"2.1.0","time_elapsed":258328,"subject_id":"91352","group":"Group1","condition":"1_Rep","full_date":"2026-02-24T22:16:51.247Z","date":"2026-02-24","time":"22:16:51"},{"rt":null,"stimulus":"<p style=\"font-size: 50px; margin: 0; text-align: center;\">+</p>","response":null,"trial_type":"html-keyboard-response","trial_index":84,"plugin_version":"2.1.0","time_elapsed":259330,"subject_id":"91352","group":"Group1","condition":"1_Rep","full_date":"2026-02-24T22:16:51.247Z","date":"2026-02-24","time":"22:16:51"},{"task":"memory_phase","broad_category":"I","image_png":"I_Basalt_01.png","image_id":17,"category_name":"Basalt","category":2,"distinct_rating":1.92,"distinct_type":"Bottom","rt":null,"stimulus":"Stimuli_Rocks480/I_Basalt_01.png","response":null,"trial_type":"image-keyboard-response","trial_index":85,"plugin_version":"2.1.0","time_elapsed":261834,"subject_id":"91352","group":"Group1","condition":"1_Rep","full_date":"2026-02-24T22:16:51.247Z","date":"2026-02-24","time":"22:16:51"},{"rt":null,"stimulus":"<p style=\"font-size: 50px; margin: 0; text-align: center;\">+</p>","response":null,"trial_type":"html-keyboard-response","trial_index":86,"plugin_version":"2.1.0","time_elapsed":262837,"subject_id":"91352","group":"Group1","condition":"1_Rep","full_date":"2026-02-24T22:16:51.247Z","date":"2026-02-24","time":"22:16:51"},{"task":"memory_phase","broad_category":"I","image_png":"I_Obsidian_05.png","image_id":85,"category_name":"Obsidian","category":6,"distinct_rating":7.32,"distinct_type":"Top","rt":null,"stimulus":"Stimuli_Rocks480/I_Obsidian_05.png","response":null,"trial_type":"image-keyboard-response","trial_index":87,"plugin_version":"2.1.0","time_elapsed":265341,"subject_id":"91352","group":"Group1","condition":"1_Rep","full_date":"2026-02-24T22:16:51.247Z","date":"2026-02-24","time":"22:16:51"},{"rt":null,"stimulus":"<p style=\"font-size: 50px; margin: 0; text-align: center;\">+</p>","response":null,"trial_type":"html-keyboard-response","trial_index":88,"plugin_version":"2.1.0","time_elapsed":266344,"subject_id":"91352","group":"Group1","condition":"1_Rep","full_date":"2026-02-24T22:16:51.247Z","date":"2026-02-24","time":"22:16:51"},{"task":"memory_phase","broad_category":"M","image_png":"M_Marble_06.png","image_id":230,"category_name":"Marble","category":15,"distinct_rating":3.4,"distinct_type":"Bottom","rt":null,"stimulus":"Stimuli_Rocks480/M_Marble_06.png","response":null,"trial_type":"image-keyboard-response","trial_index":89,"plugin_version":"2.1.0","time_elapsed":268847,"subject_id":"91352","group":"Group1","condition":"1_Rep","full_date":"2026-02-24T22:16:51.247Z","date":"2026-02-24","time":"22:16:51"},{"rt":null,"stimulus":"<p style=\"font-size: 50px; margin: 0; text-align: center;\">+</p>","response":null,"trial_type":"html-keyboard-response","trial_index":90,"plugin_version":"2.1.0","time_elapsed":269850,"subject_id":"91352","group":"Group1","condition":"1_Rep","full_date":"2026-02-24T22:16:51.247Z","date":"2026-02-24","time":"22:16:51"},{"task":"memory_phase","broad_category":"M","image_png":"M_Phyllite_10.png","image_id":266,"category_name":"Phyllite","category":17,"distinct_rating":2.6,"distinct_type":"Bottom","rt":null,"stimulus":"Stimuli_Rocks480/M_Phyllite_10.png","response":null,"trial_type":"image-keyboard-response","trial_index":91,"plugin_version":"2.1.0","time_elapsed":272355,"subject_id":"91352","group":"Group1","condition":"1_Rep","full_date":"2026-02-24T22:16:51.247Z","date":"2026-02-24","time":"22:16:51"},{"rt":null,"stimulus":"<p style=\"font-size: 50px; margin: 0; text-align: center;\">+</p>","response":null,"trial_type":"html-keyboard-response","trial_index":92,"plugin_version":"2.1.0","time_elapsed":273357,"subject_id":"91352","group":"Group1","condition":"1_Rep","full_date":"2026-02-24T22:16:51.247Z","date":"2026-02-24","time":"22:16:51"},{"task":"memory_phase","broad_category":"M","image_png":"M_Phyllite_03.png","image_id":259,"category_name":"Phyllite","category":17,"distinct_rating":2.5,"distinct_type":"Bottom","rt":null,"stimulus":"Stimuli_Rocks480/M_Phyllite_03.png","response":null,"trial_type":"image-keyboard-response","trial_index":93,"plugin_version":"2.1.0","time_elapsed":275862,"subject_id":"91352","group":"Group1","condition":"1_Rep","full_date":"2026-02-24T22:16:51.247Z","date":"2026-02-24","time":"22:16:51"},{"rt":null,"stimulus":"<p style=\"font-size: 50px; margin: 0; text-align: center;\">+</p>","response":null,"trial_type":"html-keyboard-response","trial_index":94,"plugin_version":"2.1.0","time_elapsed":276865,"subject_id":"91352","group":"Group1","condition":"1_Rep","full_date":"2026-02-24T22:16:51.247Z","date":"2026-02-24","time":"22:16:51"},{"task":"memory_phase","broad_category":"I","image_png":"I_Pegmatite_16.png","image_id":112,"category_name":"Pegmatite","category":7,"distinct_rating":7.03,"distinct_type":"Top","rt":null,"stimulus":"Stimuli_Rocks480/I_Pegmatite_16.png","response":null,"trial_type":"image-keyboard-response","trial_index":95,"plugin_version":"2.1.0","time_elapsed":279369,"subject_id":"91352","group":"Group1","condition":"1_Rep","full_date":"2026-02-24T22:16:51.247Z","date":"2026-02-24","time":"22:16:51"},{"rt":null,"stimulus":"<p style=\"font-size: 50px; margin: 0; text-align: center;\">+</p>","response":null,"trial_type":"html-keyboard-response","trial_index":96,"plugin_version":"2.1.0","time_elapsed":280372,"subject_id":"91352","group":"Group1","condition":"1_Rep","full_date":"2026-02-24T22:16:51.247Z","date":"2026-02-24","time":"22:16:51"},{"task":"memory_phase","broad_category":"M","image_png":"M_Slate_15.png","image_id":319,"category_name":"Slate","category":20,"distinct_rating":2.13,"distinct_type":"Bottom","rt":null,"stimulus":"Stimuli_Rocks480/M_Slate_15.png","response":null,"trial_type":"image-keyboard-response","trial_index":97,"plugin_version":"2.1.0","time_elapsed":282876,"subject_id":"91352","group":"Group1","condition":"1_Rep","full_date":"2026-02-24T22:16:51.247Z","date":"2026-02-24","time":"22:16:51"},{"rt":null,"stimulus":"<p style=\"font-size: 50px; margin: 0; text-align: center;\">+</p>","response":null,"trial_type":"html-keyboard-response","trial_index":98,"plugin_version":"2.1.0","time_elapsed":283879,"subject_id":"91352","group":"Group1","condition":"1_Rep","full_date":"2026-02-24T22:16:51.247Z","date":"2026-02-24","time":"22:16:51"},{"task":"memory_phase","broad_category":"S","image_png":"S_Shale_12.png","image_id":476,"category_name":"Shale","category":30,"distinct_rating":2.48,"distinct_type":"Bottom","rt":null,"stimulus":"Stimuli_Rocks480/S_Shale_12.png","response":null,"trial_type":"image-keyboard-response","trial_index":99,"plugin_version":"2.1.0","time_elapsed":286382,"subject_id":"91352","group":"Group1","condition":"1_Rep","full_date":"2026-02-24T22:16:51.247Z","date":"2026-02-24","time":"22:16:51"},{"rt":null,"stimulus":"<p style=\"font-size: 50px; margin: 0; text-align: center;\">+</p>","response":null,"trial_type":"html-keyboard-response","trial_index":100,"plugin_version":"2.1.0","time_elapsed":287385,"subject_id":"91352","group":"Group1","condition":"1_Rep","full_date":"2026-02-24T22:16:51.247Z","date":"2026-02-24","time":"22:16:51"},{"task":"memory_phase","broad_category":"I","image_png":"I_Diorite_03.png","image_id":35,"category_name":"Diorite","category":3,"distinct_rating":3.14,"distinct_type":"Bottom","rt":null,"stimulus":"Stimuli_Rocks480/I_Diorite_03.png","response":null,"trial_type":"image-keyboard-response","trial_index":101,"plugin_version":"2.1.0","time_elapsed":289889,"subject_id":"91352","group":"Group1","condition":"1_Rep","full_date":"2026-02-24T22:16:51.247Z","date":"2026-02-24","time":"22:16:51"},{"rt":null,"stimulus":"<p style=\"font-size: 50px; margin: 0; text-align: center;\">+</p>","response":null,"trial_type":"html-keyboard-response","trial_index":102,"plugin_version":"2.1.0","time_elapsed":290891,"subject_id":"91352","group":"Group1","condition":"1_Rep","full_date":"2026-02-24T22:16:51.247Z","date":"2026-02-24","time":"22:16:51"},{"task":"memory_phase","broad_category":"S","image_png":"S_Shale_08.png","image_id":472,"category_name":"Shale","category":30,"distinct_rating":2.55,"distinct_type":"Bottom","rt":null,"stimulus":"Stimuli_Rocks480/S_Shale_08.png","response":null,"trial_type":"image-keyboard-response","trial_index":103,"plugin_version":"2.1.0","time_elapsed":293395,"subject_id":"91352","group":"Group1","condition":"1_Rep","full_date":"2026-02-24T22:16:51.247Z","date":"2026-02-24","time":"22:16:51"},{"rt":null,"stimulus":"<p style=\"font-size: 50px; margin: 0; text-align: center;\">+</p>","response":null,"trial_type":"html-keyboard-response","trial_index":104,"plugin_version":"2.1.0","time_elapsed":294398,"subject_id":"91352","group":"Group1","condition":"1_Rep","full_date":"2026-02-24T22:16:51.247Z","date":"2026-02-24","time":"22:16:51"},{"task":"memory_phase","broad_category":"I","image_png":"I_Diorite_04.png","image_id":36,"category_name":"Diorite","category":3,"distinct_rating":2.98,"distinct_type":"Bottom","rt":null,"stimulus":"Stimuli_Rocks480/I_Diorite_04.png","response":null,"trial_type":"image-keyboard-response","trial_index":105,"plugin_version":"2.1.0","time_elapsed":296902,"subject_id":"91352","group":"Group1","condition":"1_Rep","full_date":"2026-02-24T22:16:51.247Z","date":"2026-02-24","time":"22:16:51"},{"rt":26688,"stimulus":"<div style=\"max-width: 760px; margin: auto; font-size: 20px; line-height: 1.5;\">\n      <h1 style=\"text-align:center; font-size: 30px;\">Instructions for the Test Phase</h1>\n      <p>\n        The study phase is now complete.\n      </p>\n      <p>\n        In the test phase, you will again see a series of rock images. \n        Some will be ones you saw before - during the study phase, while others will be new.  \n        <b>Your task</b> is to decide whether you have seen each image before by pressing the corresponding key on your keyboard:<br><br>\n          <b>A</b> - NO (you did not see this image before)<br>\n          <b>L</b> - YES (you saw this image before)<br><br>\n        The test will proceed at your own pace. You will receive feedback after each response.  \n        Please try to respond <b>as accurately as possible</b>.\n      </p>\n      <p>\n        <b>Reminder:</b> If your computer has multiple language settings (e.g., English and another language),\n        please ensure it is set to English during the test phase.\n      </p>\n      <p>\n        You can track your progress using the <b>completion bar</b> at the top of the screen.  \n        Note that it has been refreshed to reflect your progress during this final phase.\n      </p>\n      <p>\n        Press the button below when you are ready to continue.\n      </p>\n    </div>","response":0,"trial_type":"html-button-response","trial_index":106,"plugin_version":"2.1.0","time_elapsed":323594,"subject_id":"91352","group":"Group1","condition":"1_Rep","full_date":"2026-02-24T22:16:51.247Z","date":"2026-02-24","time":"22:16:51"},{"correct_response":"l","task":"test_phase","broad_category":"M","image_png":"M_Marble_04.png","image_id":228,"category_name":"Marble","category":15,"distinct_rating":3.15,"distinct_type":"Bottom","item_type":"Target","rt":3245,"stimulus":"Stimuli_Rocks480/M_Marble_04.png","response":"l","trial_type":"image-keyboard-response","trial_index":107,"plugin_version":"2.1.0","time_elapsed":326843,"subject_id":"91352","group":"Group1","condition":"1_Rep","full_date":"2026-02-24T22:16:51.247Z","date":"2026-02-24","time":"22:16:51","cor_ans":true},{"trial_type":"html-keyboard-response","rt":null,"stimulus":"<p style=\"color: green; font-size: 50px; font-weight: bold;\">Correct</p>","response":null,"trial_index":108,"plugin_version":"2.1.0","time_elapsed":327346,"subject_id":"91352","group":"Group1","condition":"1_Rep","full_date":"2026-02-24T22:16:51.247Z","date":"2026-02-24","time":"22:16:51"},{"correct_response":"a","task":"test_phase","broad_category":"S","image_png":"S_Sandstone_04.png","image_id":452,"category_name":"Sandstone","category":29,"distinct_rating":1.8,"distinct_type":"Bottom","item_type":"Foil","rt":1519,"stimulus":"Stimuli_Rocks480/S_Sandstone_04.png","response":"a","trial_type":"image-keyboard-response","trial_index":109,"plugin_version":"2.1.0","time_elapsed":328868,"subject_id":"91352","group":"Group1","condition":"1_Rep","full_date":"2026-02-24T22:16:51.247Z","date":"2026-02-24","time":"22:16:51","cor_ans":true},{"trial_type":"html-keyboard-response","rt":null,"stimulus":"<p style=\"color: green; font-size: 50px; font-weight: bold;\">Correct</p>","response":null,"trial_index":110,"plugin_version":"2.1.0","time_elapsed":329370,"subject_id":"91352","group":"Group1","condition":"1_Rep","full_date":"2026-02-24T22:16:51.247Z","date":"2026-02-24","time":"22:16:51"},{"correct_response":"l","task":"test_phase","broad_category":"M","image_png":"M_Gneiss_06.png","image_id":198,"category_name":"Gneiss","category":13,"distinct_rating":2.65,"distinct_type":"Bottom","item_type":"Target","rt":1103,"stimulus":"Stimuli_Rocks480/M_Gneiss_06.png","response":"l","trial_type":"image-keyboard-response","trial_index":111,"plugin_version":"2.1.0","time_elapsed":330475,"subject_id":"91352","group":"Group1","condition":"1_Rep","full_date":"2026-02-24T22:16:51.247Z","date":"2026-02-24","time":"22:16:51","cor_ans":true},{"trial_type":"html-keyboard-response","rt":null,"stimulus":"<p style=\"color: green; font-size: 50px; font-weight: bold;\">Correct</p>","response":null,"trial_index":112,"plugin_version":"2.1.0","time_elapsed":330977,"subject_id":"91352","group":"Group1","condition":"1_Rep","full_date":"2026-02-24T22:16:51.247Z","date":"2026-02-24","time":"22:16:51"},{"correct_response":"a","task":"test_phase","broad_category":"I","image_png":"I_Rhyolite_10.png","image_id":154,"category_name":"Rhyolite","category":10,"distinct_rating":2.88,"distinct_type":"Bottom","item_type":"Foil","rt":1154,"stimulus":"Stimuli_Rocks480/I_Rhyolite_10.png","response":"a","trial_type":"image-keyboard-response","trial_index":113,"plugin_version":"2.1.0","time_elapsed":332134,"subject_id":"91352","group":"Group1","condition":"1_Rep","full_date":"2026-02-24T22:16:51.247Z","date":"2026-02-24","time":"22:16:51","cor_ans":true},{"trial_type":"html-keyboard-response","rt":null,"stimulus":"<p style=\"color: green; font-size: 50px; font-weight: bold;\">Correct</p>","response":null,"trial_index":114,"plugin_version":"2.1.0","time_elapsed":332635,"subject_id":"91352","group":"Group1","condition":"1_Rep","full_date":"2026-02-24T22:16:51.247Z","date":"2026-02-24","time":"22:16:51"},{"correct_response":"l","task":"test_phase","broad_category":"I","image_png":"I_Obsidian_05.png","image_id":85,"category_name":"Obsidian","category":6,"distinct_rating":7.32,"distinct_type":"Top","item_type":"Target","rt":1116,"stimulus":"Stimuli_Rocks480/I_Obsidian_05.png","response":"l","trial_type":"image-keyboard-response","trial_index":115,"plugin_version":"2.1.0","time_elapsed":333753,"subject_id":"91352","group":"Group1","condition":"1_Rep","full_date":"2026-02-24T22:16:51.247Z","date":"2026-02-24","time":"22:16:51","cor_ans":true},{"trial_type":"html-keyboard-response","rt":null,"stimulus":"<p style=\"color: green; font-size: 50px; font-weight: bold;\">Correct</p>","response":null,"trial_index":116,"plugin_version":"2.1.0","time_elapsed":334254,"subject_id":"91352","group":"Group1","condition":"1_Rep","full_date":"2026-02-24T22:16:51.247Z","date":"2026-02-24","time":"22:16:51"},{"correct_response":"a","task":"test_phase","broad_category":"I","image_png":"I_Andesite_04.png","image_id":4,"category_name":"Andesite","category":1,"distinct_rating":3.18,"distinct_type":"Bottom","item_type":"Foil","rt":1196,"stimulus":"Stimuli_Rocks480/I_Andesite_04.png","response":"a","trial_type":"image-keyboard-response","trial_index":117,"plugin_version":"2.1.0","time_elapsed":335453,"subject_id":"91352","group":"Group1","condition":"1_Rep","full_date":"2026-02-24T22:16:51.247Z","date":"2026-02-24","time":"22:16:51","cor_ans":true},{"trial_type":"html-keyboard-response","rt":null,"stimulus":"<p style=\"color: green; font-size: 50px; font-weight: bold;\">Correct</p>","response":null,"trial_index":118,"plugin_version":"2.1.0","time_elapsed":335954,"subject_id":"91352","group":"Group1","condition":"1_Rep","full_date":"2026-02-24T22:16:51.247Z","date":"2026-02-24","time":"22:16:51"},{"correct_response":"a","task":"test_phase","broad_category":"S","image_png":"S_Shale_03.png","image_id":467,"category_name":"Shale","category":30,"distinct_rating":1.95,"distinct_type":"Bottom","item_type":"Foil","rt":1437,"stimulus":"Stimuli_Rocks480/S_Shale_03.png","response":"a","trial_type":"image-keyboard-response","trial_index":119,"plugin_version":"2.1.0","time_elapsed":337394,"subject_id":"91352","group":"Group1","condition":"1_Rep","full_date":"2026-02-24T22:16:51.247Z","date":"2026-02-24","time":"22:16:51","cor_ans":true},{"trial_type":"html-keyboard-response","rt":null,"stimulus":"<p style=\"color: green; font-size: 50px; font-weight: bold;\">Correct</p>","response":null,"trial_index":120,"plugin_version":"2.1.0","time_elapsed":337895,"subject_id":"91352","group":"Group1","condition":"1_Rep","full_date":"2026-02-24T22:16:51.247Z","date":"2026-02-24","time":"22:16:51"},{"correct_response":"l","task":"test_phase","broad_category":"S","image_png":"S_Rock Gypsum_04.png","image_id":420,"category_name":"Rock Gypsum","category":27,"distinct_rating":7.61,"distinct_type":"Top","item_type":"Target","rt":1525,"stimulus":"Stimuli_Rocks480/S_Rock Gypsum_04.png","response":"l","trial_type":"image-keyboard-response","trial_index":121,"plugin_version":"2.1.0","time_elapsed":339422,"subject_id":"91352","group":"Group1","condition":"1_Rep","full_date":"2026-02-24T22:16:51.247Z","date":"2026-02-24","time":"22:16:51","cor_ans":true},{"trial_type":"html-keyboard-response","rt":null,"stimulus":"<p style=\"color: green; font-size: 50px; font-weight: bold;\">Correct</p>","response":null,"trial_index":122,"plugin_version":"2.1.0","time_elapsed":339923,"subject_id":"91352","group":"Group1","condition":"1_Rep","full_date":"2026-02-24T22:16:51.247Z","date":"2026-02-24","time":"22:16:51"},{"correct_response":"a","task":"test_phase","broad_category":"M","image_png":"M_Phyllite_02.png","image_id":258,"category_name":"Phyllite","category":17,"distinct_rating":2.89,"distinct_type":"Bottom","item_type":"Foil","rt":878,"stimulus":"Stimuli_Rocks480/M_Phyllite_02.png","response":"a","trial_type":"image-keyboard-response","trial_index":123,"plugin_version":"2.1.0","time_elapsed":340804,"subject_id":"91352","group":"Group1","condition":"1_Rep","full_date":"2026-02-24T22:16:51.247Z","date":"2026-02-24","time":"22:16:51","cor_ans":true},{"trial_type":"html-keyboard-response","rt":null,"stimulus":"<p style=\"color: green; font-size: 50px; font-weight: bold;\">Correct</p>","response":null,"trial_index":124,"plugin_version":"2.1.0","time_elapsed":341306,"subject_id":"91352","group":"Group1","condition":"1_Rep","full_date":"2026-02-24T22:16:51.247Z","date":"2026-02-24","time":"22:16:51"},{"correct_response":"l","task":"test_phase","broad_category":"M","image_png":"M_Quartzite_13.png","image_id":285,"category_name":"Quartzite","category":18,"distinct_rating":2.27,"distinct_type":"Bottom","item_type":"Target","rt":1376,"stimulus":"Stimuli_Rocks480/M_Quartzite_13.png","response":"a","trial_type":"image-keyboard-response","trial_index":125,"plugin_version":"2.1.0","time_elapsed":342684,"subject_id":"91352","group":"Group1","condition":"1_Rep","full_date":"2026-02-24T22:16:51.247Z","date":"2026-02-24","time":"22:16:51","cor_ans":false},{"trial_type":"html-keyboard-response","rt":null,"stimulus":"<p style=\"color: red; font-size: 50px; font-weight: bold;\">Incorrect</p>","response":null,"trial_index":126,"plugin_version":"2.1.0","time_elapsed":343185,"subject_id":"91352","group":"Group1","condition":"1_Rep","full_date":"2026-02-24T22:16:51.247Z","date":"2026-02-24","time":"22:16:51"},{"correct_response":"a","task":"test_phase","broad_category":"I","image_png":"I_Andesite_09.png","image_id":9,"category_name":"Andesite","category":1,"distinct_rating":2.49,"distinct_type":"Bottom","item_type":"Foil","rt":1174,"stimulus":"Stimuli_Rocks480/I_Andesite_09.png","response":"l","trial_type":"image-keyboard-response","trial_index":127,"plugin_version":"2.1.0","time_elapsed":344361,"subject_id":"91352","group":"Group1","condition":"1_Rep","full_date":"2026-02-24T22:16:51.247Z","date":"2026-02-24","time":"22:16:51","cor_ans":false},{"trial_type":"html-keyboard-response","rt":null,"stimulus":"<p style=\"color: red; font-size: 50px; font-weight: bold;\">Incorrect</p>","response":null,"trial_index":128,"plugin_version":"2.1.0","time_elapsed":344863,"subject_id":"91352","group":"Group1","condition":"1_Rep","full_date":"2026-02-24T22:16:51.247Z","date":"2026-02-24","time":"22:16:51"},{"correct_response":"l","task":"test_phase","broad_category":"I","image_png":"I_Andesite_08.png","image_id":8,"category_name":"Andesite","category":1,"distinct_rating":1.95,"distinct_type":"Bottom","item_type":"Target","rt":1129,"stimulus":"Stimuli_Rocks480/I_Andesite_08.png","response":"l","trial_type":"image-keyboard-response","trial_index":129,"plugin_version":"2.1.0","time_elapsed":345994,"subject_id":"91352","group":"Group1","condition":"1_Rep","full_date":"2026-02-24T22:16:51.247Z","date":"2026-02-24","time":"22:16:51","cor_ans":true},{"trial_type":"html-keyboard-response","rt":null,"stimulus":"<p style=\"color: green; font-size: 50px; font-weight: bold;\">Correct</p>","response":null,"trial_index":130,"plugin_version":"2.1.0","time_elapsed":346495,"subject_id":"91352","group":"Group1","condition":"1_Rep","full_date":"2026-02-24T22:16:51.247Z","date":"2026-02-24","time":"22:16:51"},{"correct_response":"l","task":"test_phase","broad_category":"S","image_png":"S_Shale_08.png","image_id":472,"category_name":"Shale","category":30,"distinct_rating":2.55,"distinct_type":"Bottom","item_type":"Target","rt":858,"stimulus":"Stimuli_Rocks480/S_Shale_08.png","response":"l","trial_type":"image-keyboard-response","trial_index":131,"plugin_version":"2.1.0","time_elapsed":347355,"subject_id":"91352","group":"Group1","condition":"1_Rep","full_date":"2026-02-24T22:16:51.247Z","date":"2026-02-24","time":"22:16:51","cor_ans":true},{"trial_type":"html-keyboard-response","rt":null,"stimulus":"<p style=\"color: green; font-size: 50px; font-weight: bold;\">Correct</p>","response":null,"trial_index":132,"plugin_version":"2.1.0","time_elapsed":347857,"subject_id":"91352","group":"Group1","condition":"1_Rep","full_date":"2026-02-24T22:16:51.247Z","date":"2026-02-24","time":"22:16:51"},{"correct_response":"a","task":"test_phase","broad_category":"I","image_png":"I_Pumice_14.png","image_id":142,"category_name":"Pumice","category":9,"distinct_rating":3.22,"distinct_type":"Bottom","item_type":"Foil","rt":1346,"stimulus":"Stimuli_Rocks480/I_Pumice_14.png","response":"a","trial_type":"image-keyboard-response","trial_index":133,"plugin_version":"2.1.0","time_elapsed":349206,"subject_id":"91352","group":"Group1","condition":"1_Rep","full_date":"2026-02-24T22:16:51.247Z","date":"2026-02-24","time":"22:16:51","cor_ans":true},{"trial_type":"html-keyboard-response","rt":null,"stimulus":"<p style=\"color: green; font-size: 50px; font-weight: bold;\">Correct</p>","response":null,"trial_index":134,"plugin_version":"2.1.0","time_elapsed":349707,"subject_id":"91352","group":"Group1","condition":"1_Rep","full_date":"2026-02-24T22:16:51.247Z","date":"2026-02-24","time":"22:16:51"},{"correct_response":"l","task":"test_phase","broad_category":"S","image_png":"S_Sandstone_16.png","image_id":464,"category_name":"Sandstone","category":29,"distinct_rating":1.93,"distinct_type":"Bottom","item_type":"Target","rt":920,"stimulus":"Stimuli_Rocks480/S_Sandstone_16.png","response":"l","trial_type":"image-keyboard-response","trial_index":135,"plugin_version":"2.1.0","time_elapsed":350629,"subject_id":"91352","group":"Group1","condition":"1_Rep","full_date":"2026-02-24T22:16:51.247Z","date":"2026-02-24","time":"22:16:51","cor_ans":true},{"trial_type":"html-keyboard-response","rt":null,"stimulus":"<p style=\"color: green; font-size: 50px; font-weight: bold;\">Correct</p>","response":null,"trial_index":136,"plugin_version":"2.1.0","time_elapsed":351131,"subject_id":"91352","group":"Group1","condition":"1_Rep","full_date":"2026-02-24T22:16:51.247Z","date":"2026-02-24","time":"22:16:51"},{"correct_response":"l","task":"test_phase","broad_category":"M","image_png":"M_Marble_16.png","image_id":240,"category_name":"Marble","category":15,"distinct_rating":2.57,"distinct_type":"Bottom","item_type":"Target","rt":1939,"stimulus":"Stimuli_Rocks480/M_Marble_16.png","response":"a","trial_type":"image-keyboard-response","trial_index":137,"plugin_version":"2.1.0","time_elapsed":353072,"subject_id":"91352","group":"Group1","condition":"1_Rep","full_date":"2026-02-24T22:16:51.247Z","date":"2026-02-24","time":"22:16:51","cor_ans":false},{"trial_type":"html-keyboard-response","rt":null,"stimulus":"<p style=\"color: red; font-size: 50px; font-weight: bold;\">Incorrect</p>","response":null,"trial_index":138,"plugin_version":"2.1.0","time_elapsed":353574,"subject_id":"91352","group":"Group1","condition":"1_Rep","full_date":"2026-02-24T22:16:51.247Z","date":"2026-02-24","time":"22:16:51"},{"correct_response":"l","task":"test_phase","broad_category":"S","image_png":"S_Breccia_11.png","image_id":347,"category_name":"Breccia","category":22,"distinct_rating":6.7,"distinct_type":"Top","item_type":"Target","rt":798,"stimulus":"Stimuli_Rocks480/S_Breccia_11.png","response":"a","trial_type":"image-keyboard-response","trial_index":139,"plugin_version":"2.1.0","time_elapsed":354375,"subject_id":"91352","group":"Group1","condition":"1_Rep","full_date":"2026-02-24T22:16:51.247Z","date":"2026-02-24","time":"22:16:51","cor_ans":false},{"trial_type":"html-keyboard-response","rt":null,"stimulus":"<p style=\"color: red; font-size: 50px; font-weight: bold;\">Incorrect</p>","response":null,"trial_index":140,"plugin_version":"2.1.0","time_elapsed":354877,"subject_id":"91352","group":"Group1","condition":"1_Rep","full_date":"2026-02-24T22:16:51.247Z","date":"2026-02-24","time":"22:16:51"},{"correct_response":"a","task":"test_phase","broad_category":"I","image_png":"I_Diorite_15.png","image_id":47,"category_name":"Diorite","category":3,"distinct_rating":3.05,"distinct_type":"Bottom","item_type":"Foil","rt":1425,"stimulus":"Stimuli_Rocks480/I_Diorite_15.png","response":"a","trial_type":"image-keyboard-response","trial_index":141,"plugin_version":"2.1.0","time_elapsed":356304,"subject_id":"91352","group":"Group1","condition":"1_Rep","full_date":"2026-02-24T22:16:51.247Z","date":"2026-02-24","time":"22:16:51","cor_ans":true},{"trial_type":"html-keyboard-response","rt":null,"stimulus":"<p style=\"color: green; font-size: 50px; font-weight: bold;\">Correct</p>","response":null,"trial_index":142,"plugin_version":"2.1.0","time_elapsed":356806,"subject_id":"91352","group":"Group1","condition":"1_Rep","full_date":"2026-02-24T22:16:51.247Z","date":"2026-02-24","time":"22:16:51"},{"correct_response":"a","task":"test_phase","broad_category":"S","image_png":"S_Sandstone_08.png","image_id":456,"category_name":"Sandstone","category":29,"distinct_rating":1.5,"distinct_type":"Bottom","item_type":"Foil","rt":1390,"stimulus":"Stimuli_Rocks480/S_Sandstone_08.png","response":"a","trial_type":"image-keyboard-response","trial_index":143,"plugin_version":"2.1.0","time_elapsed":358199,"subject_id":"91352","group":"Group1","condition":"1_Rep","full_date":"2026-02-24T22:16:51.247Z","date":"2026-02-24","time":"22:16:51","cor_ans":true},{"trial_type":"html-keyboard-response","rt":null,"stimulus":"<p style=\"color: green; font-size: 50px; font-weight: bold;\">Correct</p>","response":null,"trial_index":144,"plugin_version":"2.1.0","time_elapsed":358701,"subject_id":"91352","group":"Group1","condition":"1_Rep","full_date":"2026-02-24T22:16:51.247Z","date":"2026-02-24","time":"22:16:51"},{"correct_response":"a","task":"test_phase","broad_category":"I","image_png":"I_Rhyolite_05.png","image_id":149,"category_name":"Rhyolite","category":10,"distinct_rating":3.02,"distinct_type":"Bottom","item_type":"Foil","rt":1044,"stimulus":"Stimuli_Rocks480/I_Rhyolite_05.png","response":"l","trial_type":"image-keyboard-response","trial_index":145,"plugin_version":"2.1.0","time_elapsed":359748,"subject_id":"91352","group":"Group1","condition":"1_Rep","full_date":"2026-02-24T22:16:51.247Z","date":"2026-02-24","time":"22:16:51","cor_ans":false},{"trial_type":"html-keyboard-response","rt":null,"stimulus":"<p style=\"color: red; font-size: 50px; font-weight: bold;\">Incorrect</p>","response":null,"trial_index":146,"plugin_version":"2.1.0","time_elapsed":360249,"subject_id":"91352","group":"Group1","condition":"1_Rep","full_date":"2026-02-24T22:16:51.247Z","date":"2026-02-24","time":"22:16:51"},{"correct_response":"l","task":"test_phase","broad_category":"M","image_png":"M_Slate_11.png","image_id":315,"category_name":"Slate","category":20,"distinct_rating":2.75,"distinct_type":"Bottom","item_type":"Target","rt":1133,"stimulus":"Stimuli_Rocks480/M_Slate_11.png","response":"a","trial_type":"image-keyboard-response","trial_index":147,"plugin_version":"2.1.0","time_elapsed":361384,"subject_id":"91352","group":"Group1","condition":"1_Rep","full_date":"2026-02-24T22:16:51.247Z","date":"2026-02-24","time":"22:16:51","cor_ans":false},{"trial_type":"html-keyboard-response","rt":null,"stimulus":"<p style=\"color: red; font-size: 50px; font-weight: bold;\">Incorrect</p>","response":null,"trial_index":148,"plugin_version":"2.1.0","time_elapsed":361885,"subject_id":"91352","group":"Group1","condition":"1_Rep","full_date":"2026-02-24T22:16:51.247Z","date":"2026-02-24","time":"22:16:51"},{"correct_response":"a","task":"test_phase","broad_category":"S","image_png":"S_Shale_07.png","image_id":471,"category_name":"Shale","category":30,"distinct_rating":2.73,"distinct_type":"Bottom","item_type":"Foil","rt":1347,"stimulus":"Stimuli_Rocks480/S_Shale_07.png","response":"a","trial_type":"image-keyboard-response","trial_index":149,"plugin_version":"2.1.0","time_elapsed":363235,"subject_id":"91352","group":"Group1","condition":"1_Rep","full_date":"2026-02-24T22:16:51.247Z","date":"2026-02-24","time":"22:16:51","cor_ans":true},{"trial_type":"html-keyboard-response","rt":null,"stimulus":"<p style=\"color: green; font-size: 50px; font-weight: bold;\">Correct</p>","response":null,"trial_index":150,"plugin_version":"2.1.0","time_elapsed":363736,"subject_id":"91352","group":"Group1","condition":"1_Rep","full_date":"2026-02-24T22:16:51.247Z","date":"2026-02-24","time":"22:16:51"},{"correct_response":"l","task":"test_phase","broad_category":"I","image_png":"I_Rhyolite_16.png","image_id":160,"category_name":"Rhyolite","category":10,"distinct_rating":2.19,"distinct_type":"Bottom","item_type":"Target","rt":1089,"stimulus":"Stimuli_Rocks480/I_Rhyolite_16.png","response":"l","trial_type":"image-keyboard-response","trial_index":151,"plugin_version":"2.1.0","time_elapsed":364827,"subject_id":"91352","group":"Group1","condition":"1_Rep","full_date":"2026-02-24T22:16:51.247Z","date":"2026-02-24","time":"22:16:51","cor_ans":true},{"trial_type":"html-keyboard-response","rt":null,"stimulus":"<p style=\"color: green; font-size: 50px; font-weight: bold;\">Correct</p>","response":null,"trial_index":152,"plugin_version":"2.1.0","time_elapsed":365329,"subject_id":"91352","group":"Group1","condition":"1_Rep","full_date":"2026-02-24T22:16:51.247Z","date":"2026-02-24","time":"22:16:51"},{"correct_response":"a","task":"test_phase","broad_category":"I","image_png":"I_Gabbro_14.png","image_id":62,"category_name":"Gabbro","category":4,"distinct_rating":2.95,"distinct_type":"Bottom","item_type":"Foil","rt":960,"stimulus":"Stimuli_Rocks480/I_Gabbro_14.png","response":"l","trial_type":"image-keyboard-response","trial_index":153,"plugin_version":"2.1.0","time_elapsed":366292,"subject_id":"91352","group":"Group1","condition":"1_Rep","full_date":"2026-02-24T22:16:51.247Z","date":"2026-02-24","time":"22:16:51","cor_ans":false},{"trial_type":"html-keyboard-response","rt":null,"stimulus":"<p style=\"color: red; font-size: 50px; font-weight: bold;\">Incorrect</p>","response":null,"trial_index":154,"plugin_version":"2.1.0","time_elapsed":366793,"subject_id":"91352","group":"Group1","condition":"1_Rep","full_date":"2026-02-24T22:16:51.247Z","date":"2026-02-24","time":"22:16:51"},{"correct_response":"a","task":"test_phase","broad_category":"I","image_png":"I_Basalt_10.png","image_id":26,"category_name":"Basalt","category":2,"distinct_rating":2.76,"distinct_type":"Bottom","item_type":"Foil","rt":1199,"stimulus":"Stimuli_Rocks480/I_Basalt_10.png","response":"a","trial_type":"image-keyboard-response","trial_index":155,"plugin_version":"2.1.0","time_elapsed":367994,"subject_id":"91352","group":"Group1","condition":"1_Rep","full_date":"2026-02-24T22:16:51.247Z","date":"2026-02-24","time":"22:16:51","cor_ans":true},{"trial_type":"html-keyboard-response","rt":null,"stimulus":"<p style=\"color: green; font-size: 50px; font-weight: bold;\">Correct</p>","response":null,"trial_index":156,"plugin_version":"2.1.0","time_elapsed":368496,"subject_id":"91352","group":"Group1","condition":"1_Rep","full_date":"2026-02-24T22:16:51.247Z","date":"2026-02-24","time":"22:16:51"},{"correct_response":"a","task":"test_phase","broad_category":"M","image_png":"M_Phyllite_05.png","image_id":261,"category_name":"Phyllite","category":17,"distinct_rating":2.14,"distinct_type":"Bottom","item_type":"Foil","rt":905,"stimulus":"Stimuli_Rocks480/M_Phyllite_05.png","response":"l","trial_type":"image-keyboard-response","trial_index":157,"plugin_version":"2.1.0","time_elapsed":369403,"subject_id":"91352","group":"Group1","condition":"1_Rep","full_date":"2026-02-24T22:16:51.247Z","date":"2026-02-24","time":"22:16:51","cor_ans":false},{"trial_type":"html-keyboard-response","rt":null,"stimulus":"<p style=\"color: red; font-size: 50px; font-weight: bold;\">Incorrect</p>","response":null,"trial_index":158,"plugin_version":"2.1.0","time_elapsed":369904,"subject_id":"91352","group":"Group1","condition":"1_Rep","full_date":"2026-02-24T22:16:51.247Z","date":"2026-02-24","time":"22:16:51"},{"correct_response":"l","task":"test_phase","broad_category":"S","image_png":"S_Sandstone_03.png","image_id":451,"category_name":"Sandstone","category":29,"distinct_rating":1.86,"distinct_type":"Bottom","item_type":"Target","rt":925,"stimulus":"Stimuli_Rocks480/S_Sandstone_03.png","response":"l","trial_type":"image-keyboard-response","trial_index":159,"plugin_version":"2.1.0","time_elapsed":370832,"subject_id":"91352","group":"Group1","condition":"1_Rep","full_date":"2026-02-24T22:16:51.247Z","date":"2026-02-24","time":"22:16:51","cor_ans":true},{"trial_type":"html-keyboard-response","rt":null,"stimulus":"<p style=\"color: green; font-size: 50px; font-weight: bold;\">Correct</p>","response":null,"trial_index":160,"plugin_version":"2.1.0","time_elapsed":371333,"subject_id":"91352","group":"Group1","condition":"1_Rep","full_date":"2026-02-24T22:16:51.247Z","date":"2026-02-24","time":"22:16:51"},{"correct_response":"a","task":"test_phase","broad_category":"M","image_png":"M_Phyllite_13.png","image_id":269,"category_name":"Phyllite","category":17,"distinct_rating":2.8,"distinct_type":"Bottom","item_type":"Foil","rt":810,"stimulus":"Stimuli_Rocks480/M_Phyllite_13.png","response":"l","trial_type":"image-keyboard-response","trial_index":161,"plugin_version":"2.1.0","time_elapsed":372145,"subject_id":"91352","group":"Group1","condition":"1_Rep","full_date":"2026-02-24T22:16:51.247Z","date":"2026-02-24","time":"22:16:51","cor_ans":false},{"trial_type":"html-keyboard-response","rt":null,"stimulus":"<p style=\"color: red; font-size: 50px; font-weight: bold;\">Incorrect</p>","response":null,"trial_index":162,"plugin_version":"2.1.0","time_elapsed":372646,"subject_id":"91352","group":"Group1","condition":"1_Rep","full_date":"2026-02-24T22:16:51.247Z","date":"2026-02-24","time":"22:16:51"},{"correct_response":"l","task":"test_phase","broad_category":"S","image_png":"S_Dolomite_13.png","image_id":397,"category_name":"Dolomite","category":25,"distinct_rating":1.77,"distinct_type":"Bottom","item_type":"Target","rt":774,"stimulus":"Stimuli_Rocks480/S_Dolomite_13.png","response":"l","trial_type":"image-keyboard-response","trial_index":163,"plugin_version":"2.1.0","time_elapsed":373423,"subject_id":"91352","group":"Group1","condition":"1_Rep","full_date":"2026-02-24T22:16:51.247Z","date":"2026-02-24","time":"22:16:51","cor_ans":true},{"trial_type":"html-keyboard-response","rt":null,"stimulus":"<p style=\"color: green; font-size: 50px; font-weight: bold;\">Correct</p>","response":null,"trial_index":164,"plugin_version":"2.1.0","time_elapsed":373925,"subject_id":"91352","group":"Group1","condition":"1_Rep","full_date":"2026-02-24T22:16:51.247Z","date":"2026-02-24","time":"22:16:51"},{"correct_response":"l","task":"test_phase","broad_category":"M","image_png":"M_Phyllite_07.png","image_id":263,"category_name":"Phyllite","category":17,"distinct_rating":2.59,"distinct_type":"Bottom","item_type":"Target","rt":960,"stimulus":"Stimuli_Rocks480/M_Phyllite_07.png","response":"a","trial_type":"image-keyboard-response","trial_index":165,"plugin_version":"2.1.0","time_elapsed":374887,"subject_id":"91352","group":"Group1","condition":"1_Rep","full_date":"2026-02-24T22:16:51.247Z","date":"2026-02-24","time":"22:16:51","cor_ans":false},{"trial_type":"html-keyboard-response","rt":null,"stimulus":"<p style=\"color: red; font-size: 50px; font-weight: bold;\">Incorrect</p>","response":null,"trial_index":166,"plugin_version":"2.1.0","time_elapsed":375389,"subject_id":"91352","group":"Group1","condition":"1_Rep","full_date":"2026-02-24T22:16:51.247Z","date":"2026-02-24","time":"22:16:51"},{"correct_response":"a","task":"test_phase","broad_category":"I","image_png":"I_Peridotite_13.png","image_id":125,"category_name":"Peridotite","category":8,"distinct_rating":7.28,"distinct_type":"Top","item_type":"Foil","rt":2113,"stimulus":"Stimuli_Rocks480/I_Peridotite_13.png","response":"a","trial_type":"image-keyboard-response","trial_index":167,"plugin_version":"2.1.0","time_elapsed":377504,"subject_id":"91352","group":"Group1","condition":"1_Rep","full_date":"2026-02-24T22:16:51.247Z","date":"2026-02-24","time":"22:16:51","cor_ans":true},{"trial_type":"html-keyboard-response","rt":null,"stimulus":"<p style=\"color: green; font-size: 50px; font-weight: bold;\">Correct</p>","response":null,"trial_index":168,"plugin_version":"2.1.0","time_elapsed":378006,"subject_id":"91352","group":"Group1","condition":"1_Rep","full_date":"2026-02-24T22:16:51.247Z","date":"2026-02-24","time":"22:16:51"},{"correct_response":"l","task":"test_phase","broad_category":"S","image_png":"S_Dolomite_12.png","image_id":396,"category_name":"Dolomite","category":25,"distinct_rating":1.85,"distinct_type":"Bottom","item_type":"Target","rt":1343,"stimulus":"Stimuli_Rocks480/S_Dolomite_12.png","response":"a","trial_type":"image-keyboard-response","trial_index":169,"plugin_version":"2.1.0","time_elapsed":379351,"subject_id":"91352","group":"Group1","condition":"1_Rep","full_date":"2026-02-24T22:16:51.247Z","date":"2026-02-24","time":"22:16:51","cor_ans":false},{"trial_type":"html-keyboard-response","rt":null,"stimulus":"<p style=\"color: red; font-size: 50px; font-weight: bold;\">Incorrect</p>","response":null,"trial_index":170,"plugin_version":"2.1.0","time_elapsed":379854,"subject_id":"91352","group":"Group1","condition":"1_Rep","full_date":"2026-02-24T22:16:51.247Z","date":"2026-02-24","time":"22:16:51"},{"correct_response":"l","task":"test_phase","broad_category":"I","image_png":"I_Diorite_03.png","image_id":35,"category_name":"Diorite","category":3,"distinct_rating":3.14,"distinct_type":"Bottom","item_type":"Target","rt":791,"stimulus":"Stimuli_Rocks480/I_Diorite_03.png","response":"l","trial_type":"image-keyboard-response","trial_index":171,"plugin_version":"2.1.0","time_elapsed":380647,"subject_id":"91352","group":"Group1","condition":"1_Rep","full_date":"2026-02-24T22:16:51.247Z","date":"2026-02-24","time":"22:16:51","cor_ans":true},{"trial_type":"html-keyboard-response","rt":null,"stimulus":"<p style=\"color: green; font-size: 50px; font-weight: bold;\">Correct</p>","response":null,"trial_index":172,"plugin_version":"2.1.0","time_elapsed":381149,"subject_id":"91352","group":"Group1","condition":"1_Rep","full_date":"2026-02-24T22:16:51.247Z","date":"2026-02-24","time":"22:16:51"},{"correct_response":"l","task":"test_phase","broad_category":"S","image_png":"S_Sandstone_15.png","image_id":463,"category_name":"Sandstone","category":29,"distinct_rating":2,"distinct_type":"Bottom","item_type":"Target","rt":1014,"stimulus":"Stimuli_Rocks480/S_Sandstone_15.png","response":"l","trial_type":"image-keyboard-response","trial_index":173,"plugin_version":"2.1.0","time_elapsed":382166,"subject_id":"91352","group":"Group1","condition":"1_Rep","full_date":"2026-02-24T22:16:51.247Z","date":"2026-02-24","time":"22:16:51","cor_ans":true},{"trial_type":"html-keyboard-response","rt":null,"stimulus":"<p style=\"color: green; font-size: 50px; font-weight: bold;\">Correct</p>","response":null,"trial_index":174,"plugin_version":"2.1.0","time_elapsed":382668,"subject_id":"91352","group":"Group1","condition":"1_Rep","full_date":"2026-02-24T22:16:51.247Z","date":"2026-02-24","time":"22:16:51"},{"correct_response":"l","task":"test_phase","broad_category":"S","image_png":"S_Dolomite_14.png","image_id":398,"category_name":"Dolomite","category":25,"distinct_rating":1.43,"distinct_type":"Bottom","item_type":"Target","rt":1275,"stimulus":"Stimuli_Rocks480/S_Dolomite_14.png","response":"l","trial_type":"image-keyboard-response","trial_index":175,"plugin_version":"2.1.0","time_elapsed":383946,"subject_id":"91352","group":"Group1","condition":"1_Rep","full_date":"2026-02-24T22:16:51.247Z","date":"2026-02-24","time":"22:16:51","cor_ans":true},{"trial_type":"html-keyboard-response","rt":null,"stimulus":"<p style=\"color: green; font-size: 50px; font-weight: bold;\">Correct</p>","response":null,"trial_index":176,"plugin_version":"2.1.0","time_elapsed":384448,"subject_id":"91352","group":"Group1","condition":"1_Rep","full_date":"2026-02-24T22:16:51.247Z","date":"2026-02-24","time":"22:16:51"},{"correct_response":"l","task":"test_phase","broad_category":"I","image_png":"I_Pumice_12.png","image_id":140,"category_name":"Pumice","category":9,"distinct_rating":2.97,"distinct_type":"Bottom","item_type":"Target","rt":876,"stimulus":"Stimuli_Rocks480/I_Pumice_12.png","response":"a","trial_type":"image-keyboard-response","trial_index":177,"plugin_version":"2.1.0","time_elapsed":385326,"subject_id":"91352","group":"Group1","condition":"1_Rep","full_date":"2026-02-24T22:16:51.247Z","date":"2026-02-24","time":"22:16:51","cor_ans":false},{"trial_type":"html-keyboard-response","rt":null,"stimulus":"<p style=\"color: red; font-size: 50px; font-weight: bold;\">Incorrect</p>","response":null,"trial_index":178,"plugin_version":"2.1.0","time_elapsed":385828,"subject_id":"91352","group":"Group1","condition":"1_Rep","full_date":"2026-02-24T22:16:51.247Z","date":"2026-02-24","time":"22:16:51"},{"correct_response":"l","task":"test_phase","broad_category":"I","image_png":"I_Pumice_08.png","image_id":136,"category_name":"Pumice","category":9,"distinct_rating":3.1,"distinct_type":"Bottom","item_type":"Target","rt":1979,"stimulus":"Stimuli_Rocks480/I_Pumice_08.png","response":"l","trial_type":"image-keyboard-response","trial_index":179,"plugin_version":"2.1.0","time_elapsed":387810,"subject_id":"91352","group":"Group1","condition":"1_Rep","full_date":"2026-02-24T22:16:51.247Z","date":"2026-02-24","time":"22:16:51","cor_ans":true},{"trial_type":"html-keyboard-response","rt":null,"stimulus":"<p style=\"color: green; font-size: 50px; font-weight: bold;\">Correct</p>","response":null,"trial_index":180,"plugin_version":"2.1.0","time_elapsed":388311,"subject_id":"91352","group":"Group1","condition":"1_Rep","full_date":"2026-02-24T22:16:51.247Z","date":"2026-02-24","time":"22:16:51"},{"correct_response":"l","task":"test_phase","broad_category":"S","image_png":"S_Shale_12.png","image_id":476,"category_name":"Shale","category":30,"distinct_rating":2.48,"distinct_type":"Bottom","item_type":"Target","rt":15339,"stimulus":"Stimuli_Rocks480/S_Shale_12.png","response":"a","trial_type":"image-keyboard-response","trial_index":181,"plugin_version":"2.1.0","time_elapsed":403653,"subject_id":"91352","group":"Group1","condition":"1_Rep","full_date":"2026-02-24T22:16:51.247Z","date":"2026-02-24","time":"22:16:51","cor_ans":false},{"trial_type":"html-keyboard-response","rt":null,"stimulus":"<p style=\"color: red; font-size: 50px; font-weight: bold;\">Incorrect</p>","response":null,"trial_index":182,"plugin_version":"2.1.0","time_elapsed":404155,"subject_id":"91352","group":"Group1","condition":"1_Rep","full_date":"2026-02-24T22:16:51.247Z","date":"2026-02-24","time":"22:16:51"},{"correct_response":"l","task":"test_phase","broad_category":"I","image_png":"I_Basalt_09.png","image_id":25,"category_name":"Basalt","category":2,"distinct_rating":1.89,"distinct_type":"Bottom","item_type":"Target","rt":861,"stimulus":"Stimuli_Rocks480/I_Basalt_09.png","response":"a","trial_type":"image-keyboard-response","trial_index":183,"plugin_version":"2.1.0","time_elapsed":405018,"subject_id":"91352","group":"Group1","condition":"1_Rep","full_date":"2026-02-24T22:16:51.247Z","date":"2026-02-24","time":"22:16:51","cor_ans":false},{"trial_type":"html-keyboard-response","rt":null,"stimulus":"<p style=\"color: red; font-size: 50px; font-weight: bold;\">Incorrect</p>","response":null,"trial_index":184,"plugin_version":"2.1.0","time_elapsed":405519,"subject_id":"91352","group":"Group1","condition":"1_Rep","full_date":"2026-02-24T22:16:51.247Z","date":"2026-02-24","time":"22:16:51"},{"correct_response":"l","task":"test_phase","broad_category":"M","image_png":"M_Gneiss_05.png","image_id":197,"category_name":"Gneiss","category":13,"distinct_rating":2.97,"distinct_type":"Bottom","item_type":"Target","rt":839,"stimulus":"Stimuli_Rocks480/M_Gneiss_05.png","response":"l","trial_type":"image-keyboard-response","trial_index":185,"plugin_version":"2.1.0","time_elapsed":406361,"subject_id":"91352","group":"Group1","condition":"1_Rep","full_date":"2026-02-24T22:16:51.247Z","date":"2026-02-24","time":"22:16:51","cor_ans":true},{"trial_type":"html-keyboard-response","rt":null,"stimulus":"<p style=\"color: green; font-size: 50px; font-weight: bold;\">Correct</p>","response":null,"trial_index":186,"plugin_version":"2.1.0","time_elapsed":406862,"subject_id":"91352","group":"Group1","condition":"1_Rep","full_date":"2026-02-24T22:16:51.247Z","date":"2026-02-24","time":"22:16:51"},{"correct_response":"l","task":"test_phase","broad_category":"I","image_png":"I_Andesite_10.png","image_id":10,"category_name":"Andesite","category":1,"distinct_rating":3.15,"distinct_type":"Bottom","item_type":"Target","rt":837,"stimulus":"Stimuli_Rocks480/I_Andesite_10.png","response":"a","trial_type":"image-keyboard-response","trial_index":187,"plugin_version":"2.1.0","time_elapsed":407702,"subject_id":"91352","group":"Group1","condition":"1_Rep","full_date":"2026-02-24T22:16:51.247Z","date":"2026-02-24","time":"22:16:51","cor_ans":false},{"trial_type":"html-keyboard-response","rt":null,"stimulus":"<p style=\"color: red; font-size: 50px; font-weight: bold;\">Incorrect</p>","response":null,"trial_index":188,"plugin_version":"2.1.0","time_elapsed":408204,"subject_id":"91352","group":"Group1","condition":"1_Rep","full_date":"2026-02-24T22:16:51.247Z","date":"2026-02-24","time":"22:16:51"},{"correct_response":"l","task":"test_phase","broad_category":"I","image_png":"I_Diorite_05.png","image_id":37,"category_name":"Diorite","category":3,"distinct_rating":3.08,"distinct_type":"Bottom","item_type":"Target","rt":1348,"stimulus":"Stimuli_Rocks480/I_Diorite_05.png","response":"l","trial_type":"image-keyboard-response","trial_index":189,"plugin_version":"2.1.0","time_elapsed":409554,"subject_id":"91352","group":"Group1","condition":"1_Rep","full_date":"2026-02-24T22:16:51.247Z","date":"2026-02-24","time":"22:16:51","cor_ans":true},{"trial_type":"html-keyboard-response","rt":null,"stimulus":"<p style=\"color: green; font-size: 50px; font-weight: bold;\">Correct</p>","response":null,"trial_index":190,"plugin_version":"2.1.0","time_elapsed":410056,"subject_id":"91352","group":"Group1","condition":"1_Rep","full_date":"2026-02-24T22:16:51.247Z","date":"2026-02-24","time":"22:16:51"},{"correct_response":"a","task":"test_phase","broad_category":"I","image_png":"I_Diorite_01.png","image_id":33,"category_name":"Diorite","category":3,"distinct_rating":2.97,"distinct_type":"Bottom","item_type":"Foil","rt":1906,"stimulus":"Stimuli_Rocks480/I_Diorite_01.png","response":"l","trial_type":"image-keyboard-response","trial_index":191,"plugin_version":"2.1.0","time_elapsed":411965,"subject_id":"91352","group":"Group1","condition":"1_Rep","full_date":"2026-02-24T22:16:51.247Z","date":"2026-02-24","time":"22:16:51","cor_ans":false},{"trial_type":"html-keyboard-response","rt":null,"stimulus":"<p style=\"color: red; font-size: 50px; font-weight: bold;\">Incorrect</p>","response":null,"trial_index":192,"plugin_version":"2.1.0","time_elapsed":412466,"subject_id":"91352","group":"Group1","condition":"1_Rep","full_date":"2026-02-24T22:16:51.247Z","date":"2026-02-24","time":"22:16:51"},{"correct_response":"a","task":"test_phase","broad_category":"M","image_png":"M_Quartzite_07.png","image_id":279,"category_name":"Quartzite","category":18,"distinct_rating":1.97,"distinct_type":"Bottom","item_type":"Foil","rt":1099,"stimulus":"Stimuli_Rocks480/M_Quartzite_07.png","response":"a","trial_type":"image-keyboard-response","trial_index":193,"plugin_version":"2.1.0","time_elapsed":413567,"subject_id":"91352","group":"Group1","condition":"1_Rep","full_date":"2026-02-24T22:16:51.247Z","date":"2026-02-24","time":"22:16:51","cor_ans":true},{"trial_type":"html-keyboard-response","rt":null,"stimulus":"<p style=\"color: green; font-size: 50px; font-weight: bold;\">Correct</p>","response":null,"trial_index":194,"plugin_version":"2.1.0","time_elapsed":414069,"subject_id":"91352","group":"Group1","condition":"1_Rep","full_date":"2026-02-24T22:16:51.247Z","date":"2026-02-24","time":"22:16:51"},{"correct_response":"a","task":"test_phase","broad_category":"S","image_png":"S_Sandstone_11.png","image_id":459,"category_name":"Sandstone","category":29,"distinct_rating":1.82,"distinct_type":"Bottom","item_type":"Foil","rt":919,"stimulus":"Stimuli_Rocks480/S_Sandstone_11.png","response":"a","trial_type":"image-keyboard-response","trial_index":195,"plugin_version":"2.1.0","time_elapsed":414990,"subject_id":"91352","group":"Group1","condition":"1_Rep","full_date":"2026-02-24T22:16:51.247Z","date":"2026-02-24","time":"22:16:51","cor_ans":true},{"trial_type":"html-keyboard-response","rt":null,"stimulus":"<p style=\"color: green; font-size: 50px; font-weight: bold;\">Correct</p>","response":null,"trial_index":196,"plugin_version":"2.1.0","time_elapsed":415492,"subject_id":"91352","group":"Group1","condition":"1_Rep","full_date":"2026-02-24T22:16:51.247Z","date":"2026-02-24","time":"22:16:51"},{"correct_response":"a","task":"test_phase","broad_category":"I","image_png":"I_Diorite_10.png","image_id":42,"category_name":"Diorite","category":3,"distinct_rating":2.84,"distinct_type":"Bottom","item_type":"Foil","rt":905,"stimulus":"Stimuli_Rocks480/I_Diorite_10.png","response":"a","trial_type":"image-keyboard-response","trial_index":197,"plugin_version":"2.1.0","time_elapsed":416400,"subject_id":"91352","group":"Group1","condition":"1_Rep","full_date":"2026-02-24T22:16:51.247Z","date":"2026-02-24","time":"22:16:51","cor_ans":true},{"trial_type":"html-keyboard-response","rt":null,"stimulus":"<p style=\"color: green; font-size: 50px; font-weight: bold;\">Correct</p>","response":null,"trial_index":198,"plugin_version":"2.1.0","time_elapsed":416902,"subject_id":"91352","group":"Group1","condition":"1_Rep","full_date":"2026-02-24T22:16:51.247Z","date":"2026-02-24","time":"22:16:51"},{"correct_response":"a","task":"test_phase","broad_category":"S","image_png":"S_Rock Salt_13.png","image_id":445,"category_name":"Rock Salt","category":28,"distinct_rating":7.58,"distinct_type":"Top","item_type":"Foil","rt":984,"stimulus":"Stimuli_Rocks480/S_Rock Salt_13.png","response":"a","trial_type":"image-keyboard-response","trial_index":199,"plugin_version":"2.1.0","time_elapsed":417888,"subject_id":"91352","group":"Group1","condition":"1_Rep","full_date":"2026-02-24T22:16:51.247Z","date":"2026-02-24","time":"22:16:51","cor_ans":true},{"trial_type":"html-keyboard-response","rt":null,"stimulus":"<p style=\"color: green; font-size: 50px; font-weight: bold;\">Correct</p>","response":null,"trial_index":200,"plugin_version":"2.1.0","time_elapsed":418390,"subject_id":"91352","group":"Group1","condition":"1_Rep","full_date":"2026-02-24T22:16:51.247Z","date":"2026-02-24","time":"22:16:51"},{"correct_response":"a","task":"test_phase","broad_category":"S","image_png":"S_Conglomerate_14.png","image_id":382,"category_name":"Conglomerate","category":24,"distinct_rating":6.86,"distinct_type":"Top","item_type":"Foil","rt":861,"stimulus":"Stimuli_Rocks480/S_Conglomerate_14.png","response":"a","trial_type":"image-keyboard-response","trial_index":201,"plugin_version":"2.1.0","time_elapsed":419254,"subject_id":"91352","group":"Group1","condition":"1_Rep","full_date":"2026-02-24T22:16:51.247Z","date":"2026-02-24","time":"22:16:51","cor_ans":true},{"trial_type":"html-keyboard-response","rt":null,"stimulus":"<p style=\"color: green; font-size: 50px; font-weight: bold;\">Correct</p>","response":null,"trial_index":202,"plugin_version":"2.1.0","time_elapsed":419756,"subject_id":"91352","group":"Group1","condition":"1_Rep","full_date":"2026-02-24T22:16:51.247Z","date":"2026-02-24","time":"22:16:51"},{"correct_response":"a","task":"test_phase","broad_category":"M","image_png":"M_Gneiss_10.png","image_id":202,"category_name":"Gneiss","category":13,"distinct_rating":3.09,"distinct_type":"Bottom","item_type":"Foil","rt":946,"stimulus":"Stimuli_Rocks480/M_Gneiss_10.png","response":"a","trial_type":"image-keyboard-response","trial_index":203,"plugin_version":"2.1.0","time_elapsed":420705,"subject_id":"91352","group":"Group1","condition":"1_Rep","full_date":"2026-02-24T22:16:51.247Z","date":"2026-02-24","time":"22:16:51","cor_ans":true},{"trial_type":"html-keyboard-response","rt":null,"stimulus":"<p style=\"color: green; font-size: 50px; font-weight: bold;\">Correct</p>","response":null,"trial_index":204,"plugin_version":"2.1.0","time_elapsed":421206,"subject_id":"91352","group":"Group1","condition":"1_Rep","full_date":"2026-02-24T22:16:51.247Z","date":"2026-02-24","time":"22:16:51"},{"correct_response":"a","task":"test_phase","broad_category":"S","image_png":"S_Shale_02.png","image_id":466,"category_name":"Shale","category":30,"distinct_rating":2.9,"distinct_type":"Bottom","item_type":"Foil","rt":2031,"stimulus":"Stimuli_Rocks480/S_Shale_02.png","response":"l","trial_type":"image-keyboard-response","trial_index":205,"plugin_version":"2.1.0","time_elapsed":423239,"subject_id":"91352","group":"Group1","condition":"1_Rep","full_date":"2026-02-24T22:16:51.247Z","date":"2026-02-24","time":"22:16:51","cor_ans":false},{"trial_type":"html-keyboard-response","rt":null,"stimulus":"<p style=\"color: red; font-size: 50px; font-weight: bold;\">Incorrect</p>","response":null,"trial_index":206,"plugin_version":"2.1.0","time_elapsed":423741,"subject_id":"91352","group":"Group1","condition":"1_Rep","full_date":"2026-02-24T22:16:51.247Z","date":"2026-02-24","time":"22:16:51"},{"correct_response":"a","task":"test_phase","broad_category":"S","image_png":"S_Dolomite_01.png","image_id":385,"category_name":"Dolomite","category":25,"distinct_rating":1.43,"distinct_type":"Bottom","item_type":"Foil","rt":1316,"stimulus":"Stimuli_Rocks480/S_Dolomite_01.png","response":"a","trial_type":"image-keyboard-response","trial_index":207,"plugin_version":"2.1.0","time_elapsed":425059,"subject_id":"91352","group":"Group1","condition":"1_Rep","full_date":"2026-02-24T22:16:51.247Z","date":"2026-02-24","time":"22:16:51","cor_ans":true},{"trial_type":"html-keyboard-response","rt":null,"stimulus":"<p style=\"color: green; font-size: 50px; font-weight: bold;\">Correct</p>","response":null,"trial_index":208,"plugin_version":"2.1.0","time_elapsed":425561,"subject_id":"91352","group":"Group1","condition":"1_Rep","full_date":"2026-02-24T22:16:51.247Z","date":"2026-02-24","time":"22:16:51"},{"correct_response":"l","task":"test_phase","broad_category":"S","image_png":"S_Conglomerate_05.png","image_id":373,"category_name":"Conglomerate","category":24,"distinct_rating":7.32,"distinct_type":"Top","item_type":"Target","rt":882,"stimulus":"Stimuli_Rocks480/S_Conglomerate_05.png","response":"l","trial_type":"image-keyboard-response","trial_index":209,"plugin_version":"2.1.0","time_elapsed":426445,"subject_id":"91352","group":"Group1","condition":"1_Rep","full_date":"2026-02-24T22:16:51.247Z","date":"2026-02-24","time":"22:16:51","cor_ans":true},{"trial_type":"html-keyboard-response","rt":null,"stimulus":"<p style=\"color: green; font-size: 50px; font-weight: bold;\">Correct</p>","response":null,"trial_index":210,"plugin_version":"2.1.0","time_elapsed":426947,"subject_id":"91352","group":"Group1","condition":"1_Rep","full_date":"2026-02-24T22:16:51.247Z","date":"2026-02-24","time":"22:16:51"},{"correct_response":"a","task":"test_phase","broad_category":"M","image_png":"M_Gneiss_14.png","image_id":206,"category_name":"Gneiss","category":13,"distinct_rating":3.41,"distinct_type":"Bottom","item_type":"Foil","rt":996,"stimulus":"Stimuli_Rocks480/M_Gneiss_14.png","response":"l","trial_type":"image-keyboard-response","trial_index":211,"plugin_version":"2.1.0","time_elapsed":427945,"subject_id":"91352","group":"Group1","condition":"1_Rep","full_date":"2026-02-24T22:16:51.247Z","date":"2026-02-24","time":"22:16:51","cor_ans":false},{"trial_type":"html-keyboard-response","rt":null,"stimulus":"<p style=\"color: red; font-size: 50px; font-weight: bold;\">Incorrect</p>","response":null,"trial_index":212,"plugin_version":"2.1.0","time_elapsed":428447,"subject_id":"91352","group":"Group1","condition":"1_Rep","full_date":"2026-02-24T22:16:51.247Z","date":"2026-02-24","time":"22:16:51"},{"correct_response":"a","task":"test_phase","broad_category":"I","image_png":"I_Gabbro_12.png","image_id":60,"category_name":"Gabbro","category":4,"distinct_rating":2.6,"distinct_type":"Bottom","item_type":"Foil","rt":991,"stimulus":"Stimuli_Rocks480/I_Gabbro_12.png","response":"a","trial_type":"image-keyboard-response","trial_index":213,"plugin_version":"2.1.0","time_elapsed":429440,"subject_id":"91352","group":"Group1","condition":"1_Rep","full_date":"2026-02-24T22:16:51.247Z","date":"2026-02-24","time":"22:16:51","cor_ans":true},{"trial_type":"html-keyboard-response","rt":null,"stimulus":"<p style=\"color: green; font-size: 50px; font-weight: bold;\">Correct</p>","response":null,"trial_index":214,"plugin_version":"2.1.0","time_elapsed":429942,"subject_id":"91352","group":"Group1","condition":"1_Rep","full_date":"2026-02-24T22:16:51.247Z","date":"2026-02-24","time":"22:16:51"},{"correct_response":"a","task":"test_phase","broad_category":"I","image_png":"I_Pumice_13.png","image_id":141,"category_name":"Pumice","category":9,"distinct_rating":3.12,"distinct_type":"Bottom","item_type":"Foil","rt":1610,"stimulus":"Stimuli_Rocks480/I_Pumice_13.png","response":"a","trial_type":"image-keyboard-response","trial_index":215,"plugin_version":"2.1.0","time_elapsed":431554,"subject_id":"91352","group":"Group1","condition":"1_Rep","full_date":"2026-02-24T22:16:51.247Z","date":"2026-02-24","time":"22:16:51","cor_ans":true},{"trial_type":"html-keyboard-response","rt":null,"stimulus":"<p style=\"color: green; font-size: 50px; font-weight: bold;\">Correct</p>","response":null,"trial_index":216,"plugin_version":"2.1.0","time_elapsed":432056,"subject_id":"91352","group":"Group1","condition":"1_Rep","full_date":"2026-02-24T22:16:51.247Z","date":"2026-02-24","time":"22:16:51"},{"correct_response":"l","task":"test_phase","broad_category":"I","image_png":"I_Gabbro_11.png","image_id":59,"category_name":"Gabbro","category":4,"distinct_rating":1.99,"distinct_type":"Bottom","item_type":"Target","rt":1304,"stimulus":"Stimuli_Rocks480/I_Gabbro_11.png","response":"a","trial_type":"image-keyboard-response","trial_index":217,"plugin_version":"2.1.0","time_elapsed":433363,"subject_id":"91352","group":"Group1","condition":"1_Rep","full_date":"2026-02-24T22:16:51.247Z","date":"2026-02-24","time":"22:16:51","cor_ans":false},{"trial_type":"html-keyboard-response","rt":null,"stimulus":"<p style=\"color: red; font-size: 50px; font-weight: bold;\">Incorrect</p>","response":null,"trial_index":218,"plugin_version":"2.1.0","time_elapsed":433864,"subject_id":"91352","group":"Group1","condition":"1_Rep","full_date":"2026-02-24T22:16:51.247Z","date":"2026-02-24","time":"22:16:51"},{"correct_response":"a","task":"test_phase","broad_category":"S","image_png":"S_Chert_13.png","image_id":365,"category_name":"Chert","category":23,"distinct_rating":6.57,"distinct_type":"Top","item_type":"Foil","rt":820,"stimulus":"Stimuli_Rocks480/S_Chert_13.png","response":"a","trial_type":"image-keyboard-response","trial_index":219,"plugin_version":"2.1.0","time_elapsed":434687,"subject_id":"91352","group":"Group1","condition":"1_Rep","full_date":"2026-02-24T22:16:51.247Z","date":"2026-02-24","time":"22:16:51","cor_ans":true},{"trial_type":"html-keyboard-response","rt":null,"stimulus":"<p style=\"color: green; font-size: 50px; font-weight: bold;\">Correct</p>","response":null,"trial_index":220,"plugin_version":"2.1.0","time_elapsed":435189,"subject_id":"91352","group":"Group1","condition":"1_Rep","full_date":"2026-02-24T22:16:51.247Z","date":"2026-02-24","time":"22:16:51"},{"correct_response":"l","task":"test_phase","broad_category":"I","image_png":"I_Pegmatite_10.png","image_id":106,"category_name":"Pegmatite","category":7,"distinct_rating":7.66,"distinct_type":"Top","item_type":"Target","rt":792,"stimulus":"Stimuli_Rocks480/I_Pegmatite_10.png","response":"a","trial_type":"image-keyboard-response","trial_index":221,"plugin_version":"2.1.0","time_elapsed":435983,"subject_id":"91352","group":"Group1","condition":"1_Rep","full_date":"2026-02-24T22:16:51.247Z","date":"2026-02-24","time":"22:16:51","cor_ans":false},{"trial_type":"html-keyboard-response","rt":null,"stimulus":"<p style=\"color: red; font-size: 50px; font-weight: bold;\">Incorrect</p>","response":null,"trial_index":222,"plugin_version":"2.1.0","time_elapsed":436485,"subject_id":"91352","group":"Group1","condition":"1_Rep","full_date":"2026-02-24T22:16:51.247Z","date":"2026-02-24","time":"22:16:51"},{"correct_response":"a","task":"test_phase","broad_category":"M","image_png":"M_Quartzite_15.png","image_id":287,"category_name":"Quartzite","category":18,"distinct_rating":2.19,"distinct_type":"Bottom","item_type":"Foil","rt":2062,"stimulus":"Stimuli_Rocks480/M_Quartzite_15.png","response":"l","trial_type":"image-keyboard-response","trial_index":223,"plugin_version":"2.1.0","time_elapsed":438549,"subject_id":"91352","group":"Group1","condition":"1_Rep","full_date":"2026-02-24T22:16:51.247Z","date":"2026-02-24","time":"22:16:51","cor_ans":false},{"trial_type":"html-keyboard-response","rt":null,"stimulus":"<p style=\"color: red; font-size: 50px; font-weight: bold;\">Incorrect</p>","response":null,"trial_index":224,"plugin_version":"2.1.0","time_elapsed":439050,"subject_id":"91352","group":"Group1","condition":"1_Rep","full_date":"2026-02-24T22:16:51.247Z","date":"2026-02-24","time":"22:16:51"},{"correct_