[{"width":1470,"height":831,"webaudio":true,"browser":"chrome","browser_version":"143.0.0","mobile":false,"os":"Mac OS","fullscreen":true,"vsync_rate":60.53,"webcam":true,"microphone":true,"trial_type":"browser-check","trial_index":0,"plugin_version":"2.1.0","time_elapsed":1013,"subject_id":"92213","group":"Group1","condition":"1_Rep","full_date":"2026-01-29T21:54:34.099Z","date":"2026-01-29","time":"21:54:34"},{"success":true,"timeout":false,"failed_images":[],"failed_audio":[],"failed_video":[],"trial_type":"preload","trial_index":1,"plugin_version":"2.1.0","time_elapsed":2290,"subject_id":"92213","group":"Group1","condition":"1_Rep","full_date":"2026-01-29T21:54:34.099Z","date":"2026-01-29","time":"21:54:34"},{"rt":23127,"url":"SONA_consent_memorability.html","trial_type":"external-html","trial_index":2,"plugin_version":"2.1.0","time_elapsed":25457,"subject_id":"92213","group":"Group1","condition":"1_Rep","full_date":"2026-01-29T21:54:34.099Z","date":"2026-01-29","time":"21:54:34"},{"success":true,"rt":1196,"trial_type":"fullscreen","trial_index":3,"plugin_version":"2.1.0","time_elapsed":27659,"subject_id":"92213","group":"Group1","condition":"1_Rep","full_date":"2026-01-29T21:54:34.099Z","date":"2026-01-29","time":"21:54:34"},{"rt":6547,"stimulus":"<div style=\"max-width: 760px; margin: auto; font-size: 20px; line-height: 1.5;\">\n      <h1 style=\"text-align:center; font-size: 30px;\">Instructions</h1>\n      <p>\n        Welcome to the study on <b>visual memory</b>. This experiment consists of <b>two phases</b>: \n        a <b>study phase</b> and a <b>test phase</b>.\n      </p>\n      <p>\n        In the study phase, you will see a series of rock images along with their category labels.\n        The images will appear one at a time.\n        <b>Your task</b> is to learn the categories to which the rock images belong \n        and to remember each image as accurately as possible.\n      </p> \n      <p>\n        Note that you will see each image only <b>once</b> during the study phase. \n          So, please pay close attention and try to remember each image carefully.\n      </p>\n      <p>\n        After the study phase, <b>your memory will be tested</b>. \n        Additional instructions for the test phase will be provided at that time.\n      </p>\n      <p>\n        If your computer has multiple <b>language settings</b> (e.g., English and another language),\n        please make sure it is set to English before starting.\n      </p>\n      <p>\n        You can track your progress using the <b>completion bar</b> at the top of the screen. \n        Please note that the bar will refresh when the test phase begins \n        to give you an accurate sense of your progress in both phases.\n      </p> \n      <p>\n        Press the button below when you are ready to begin.\n      </p>\n    </div>","response":0,"trial_type":"html-button-response","trial_index":4,"plugin_version":"2.1.0","time_elapsed":34209,"subject_id":"92213","group":"Group1","condition":"1_Rep","full_date":"2026-01-29T21:54:34.099Z","date":"2026-01-29","time":"21:54:34"},{"rt":null,"stimulus":"<p style=\"font-size: 50px; margin: 0; text-align: center;\">+</p>","response":null,"trial_type":"html-keyboard-response","trial_index":5,"plugin_version":"2.1.0","time_elapsed":35214,"subject_id":"92213","group":"Group1","condition":"1_Rep","full_date":"2026-01-29T21:54:34.099Z","date":"2026-01-29","time":"21:54:34"},{"task":"memory_phase","broad_category":"I","image_png":"I_Basalt_01.png","image_id":17,"category_name":"Basalt","category":2,"distinct_rating":1.92,"distinct_type":"Bottom","rt":null,"stimulus":"Stimuli_Rocks480/I_Basalt_01.png","response":null,"trial_type":"image-keyboard-response","trial_index":6,"plugin_version":"2.1.0","time_elapsed":37722,"subject_id":"92213","group":"Group1","condition":"1_Rep","full_date":"2026-01-29T21:54:34.099Z","date":"2026-01-29","time":"21:54:34"},{"rt":null,"stimulus":"<p style=\"font-size: 50px; margin: 0; text-align: center;\">+</p>","response":null,"trial_type":"html-keyboard-response","trial_index":7,"plugin_version":"2.1.0","time_elapsed":38724,"subject_id":"92213","group":"Group1","condition":"1_Rep","full_date":"2026-01-29T21:54:34.099Z","date":"2026-01-29","time":"21:54:34"},{"task":"memory_phase","broad_category":"I","image_png":"I_Rhyolite_11.png","image_id":155,"category_name":"Rhyolite","category":10,"distinct_rating":1.73,"distinct_type":"Bottom","rt":null,"stimulus":"Stimuli_Rocks480/I_Rhyolite_11.png","response":null,"trial_type":"image-keyboard-response","trial_index":8,"plugin_version":"2.1.0","time_elapsed":41228,"subject_id":"92213","group":"Group1","condition":"1_Rep","full_date":"2026-01-29T21:54:34.099Z","date":"2026-01-29","time":"21:54:34"},{"rt":null,"stimulus":"<p style=\"font-size: 50px; margin: 0; text-align: center;\">+</p>","response":null,"trial_type":"html-keyboard-response","trial_index":9,"plugin_version":"2.1.0","time_elapsed":42231,"subject_id":"92213","group":"Group1","condition":"1_Rep","full_date":"2026-01-29T21:54:34.099Z","date":"2026-01-29","time":"21:54:34"},{"task":"memory_phase","broad_category":"I","image_png":"I_Gabbro_16.png","image_id":64,"category_name":"Gabbro","category":4,"distinct_rating":2.52,"distinct_type":"Bottom","rt":null,"stimulus":"Stimuli_Rocks480/I_Gabbro_16.png","response":null,"trial_type":"image-keyboard-response","trial_index":10,"plugin_version":"2.1.0","time_elapsed":44735,"subject_id":"92213","group":"Group1","condition":"1_Rep","full_date":"2026-01-29T21:54:34.099Z","date":"2026-01-29","time":"21:54:34"},{"rt":null,"stimulus":"<p style=\"font-size: 50px; margin: 0; text-align: center;\">+</p>","response":null,"trial_type":"html-keyboard-response","trial_index":11,"plugin_version":"2.1.0","time_elapsed":45738,"subject_id":"92213","group":"Group1","condition":"1_Rep","full_date":"2026-01-29T21:54:34.099Z","date":"2026-01-29","time":"21:54:34"},{"task":"memory_phase","broad_category":"M","image_png":"M_Gneiss_13.png","image_id":205,"category_name":"Gneiss","category":13,"distinct_rating":3.26,"distinct_type":"Bottom","rt":null,"stimulus":"Stimuli_Rocks480/M_Gneiss_13.png","response":null,"trial_type":"image-keyboard-response","trial_index":12,"plugin_version":"2.1.0","time_elapsed":48241,"subject_id":"92213","group":"Group1","condition":"1_Rep","full_date":"2026-01-29T21:54:34.099Z","date":"2026-01-29","time":"21:54:34"},{"rt":null,"stimulus":"<p style=\"font-size: 50px; margin: 0; text-align: center;\">+</p>","response":null,"trial_type":"html-keyboard-response","trial_index":13,"plugin_version":"2.1.0","time_elapsed":49244,"subject_id":"92213","group":"Group1","condition":"1_Rep","full_date":"2026-01-29T21:54:34.099Z","date":"2026-01-29","time":"21:54:34"},{"task":"memory_phase","broad_category":"M","image_png":"M_Marble_06.png","image_id":230,"category_name":"Marble","category":15,"distinct_rating":3.4,"distinct_type":"Bottom","rt":null,"stimulus":"Stimuli_Rocks480/M_Marble_06.png","response":null,"trial_type":"image-keyboard-response","trial_index":14,"plugin_version":"2.1.0","time_elapsed":51747,"subject_id":"92213","group":"Group1","condition":"1_Rep","full_date":"2026-01-29T21:54:34.099Z","date":"2026-01-29","time":"21:54:34"},{"rt":null,"stimulus":"<p style=\"font-size: 50px; margin: 0; text-align: center;\">+</p>","response":null,"trial_type":"html-keyboard-response","trial_index":15,"plugin_version":"2.1.0","time_elapsed":52750,"subject_id":"92213","group":"Group1","condition":"1_Rep","full_date":"2026-01-29T21:54:34.099Z","date":"2026-01-29","time":"21:54:34"},{"task":"memory_phase","broad_category":"S","image_png":"S_Sandstone_15.png","image_id":463,"category_name":"Sandstone","category":29,"distinct_rating":2,"distinct_type":"Bottom","rt":null,"stimulus":"Stimuli_Rocks480/S_Sandstone_15.png","response":null,"trial_type":"image-keyboard-response","trial_index":16,"plugin_version":"2.1.0","time_elapsed":55254,"subject_id":"92213","group":"Group1","condition":"1_Rep","full_date":"2026-01-29T21:54:34.099Z","date":"2026-01-29","time":"21:54:34"},{"rt":null,"stimulus":"<p style=\"font-size: 50px; margin: 0; text-align: center;\">+</p>","response":null,"trial_type":"html-keyboard-response","trial_index":17,"plugin_version":"2.1.0","time_elapsed":56256,"subject_id":"92213","group":"Group1","condition":"1_Rep","full_date":"2026-01-29T21:54:34.099Z","date":"2026-01-29","time":"21:54:34"},{"task":"memory_phase","broad_category":"S","image_png":"S_Dolomite_12.png","image_id":396,"category_name":"Dolomite","category":25,"distinct_rating":1.85,"distinct_type":"Bottom","rt":null,"stimulus":"Stimuli_Rocks480/S_Dolomite_12.png","response":null,"trial_type":"image-keyboard-response","trial_index":18,"plugin_version":"2.1.0","time_elapsed":58760,"subject_id":"92213","group":"Group1","condition":"1_Rep","full_date":"2026-01-29T21:54:34.099Z","date":"2026-01-29","time":"21:54:34"},{"rt":null,"stimulus":"<p style=\"font-size: 50px; margin: 0; text-align: center;\">+</p>","response":null,"trial_type":"html-keyboard-response","trial_index":19,"plugin_version":"2.1.0","time_elapsed":59763,"subject_id":"92213","group":"Group1","condition":"1_Rep","full_date":"2026-01-29T21:54:34.099Z","date":"2026-01-29","time":"21:54:34"},{"task":"memory_phase","broad_category":"S","image_png":"S_Dolomite_14.png","image_id":398,"category_name":"Dolomite","category":25,"distinct_rating":1.43,"distinct_type":"Bottom","rt":null,"stimulus":"Stimuli_Rocks480/S_Dolomite_14.png","response":null,"trial_type":"image-keyboard-response","trial_index":20,"plugin_version":"2.1.0","time_elapsed":62266,"subject_id":"92213","group":"Group1","condition":"1_Rep","full_date":"2026-01-29T21:54:34.099Z","date":"2026-01-29","time":"21:54:34"},{"rt":null,"stimulus":"<p style=\"font-size: 50px; margin: 0; text-align: center;\">+</p>","response":null,"trial_type":"html-keyboard-response","trial_index":21,"plugin_version":"2.1.0","time_elapsed":63269,"subject_id":"92213","group":"Group1","condition":"1_Rep","full_date":"2026-01-29T21:54:34.099Z","date":"2026-01-29","time":"21:54:34"},{"task":"memory_phase","broad_category":"M","image_png":"M_Quartzite_05.png","image_id":277,"category_name":"Quartzite","category":18,"distinct_rating":2.23,"distinct_type":"Bottom","rt":null,"stimulus":"Stimuli_Rocks480/M_Quartzite_05.png","response":null,"trial_type":"image-keyboard-response","trial_index":22,"plugin_version":"2.1.0","time_elapsed":65772,"subject_id":"92213","group":"Group1","condition":"1_Rep","full_date":"2026-01-29T21:54:34.099Z","date":"2026-01-29","time":"21:54:34"},{"rt":null,"stimulus":"<p style=\"font-size: 50px; margin: 0; text-align: center;\">+</p>","response":null,"trial_type":"html-keyboard-response","trial_index":23,"plugin_version":"2.1.0","time_elapsed":66775,"subject_id":"92213","group":"Group1","condition":"1_Rep","full_date":"2026-01-29T21:54:34.099Z","date":"2026-01-29","time":"21:54:34"},{"task":"memory_phase","broad_category":"S","image_png":"S_Breccia_11.png","image_id":347,"category_name":"Breccia","category":22,"distinct_rating":6.7,"distinct_type":"Top","rt":null,"stimulus":"Stimuli_Rocks480/S_Breccia_11.png","response":null,"trial_type":"image-keyboard-response","trial_index":24,"plugin_version":"2.1.0","time_elapsed":69278,"subject_id":"92213","group":"Group1","condition":"1_Rep","full_date":"2026-01-29T21:54:34.099Z","date":"2026-01-29","time":"21:54:34"},{"rt":null,"stimulus":"<p style=\"font-size: 50px; margin: 0; text-align: center;\">+</p>","response":null,"trial_type":"html-keyboard-response","trial_index":25,"plugin_version":"2.1.0","time_elapsed":70281,"subject_id":"92213","group":"Group1","condition":"1_Rep","full_date":"2026-01-29T21:54:34.099Z","date":"2026-01-29","time":"21:54:34"},{"task":"memory_phase","broad_category":"S","image_png":"S_Shale_08.png","image_id":472,"category_name":"Shale","category":30,"distinct_rating":2.55,"distinct_type":"Bottom","rt":null,"stimulus":"Stimuli_Rocks480/S_Shale_08.png","response":null,"trial_type":"image-keyboard-response","trial_index":26,"plugin_version":"2.1.0","time_elapsed":72785,"subject_id":"92213","group":"Group1","condition":"1_Rep","full_date":"2026-01-29T21:54:34.099Z","date":"2026-01-29","time":"21:54:34"},{"rt":null,"stimulus":"<p style=\"font-size: 50px; margin: 0; text-align: center;\">+</p>","response":null,"trial_type":"html-keyboard-response","trial_index":27,"plugin_version":"2.1.0","time_elapsed":73787,"subject_id":"92213","group":"Group1","condition":"1_Rep","full_date":"2026-01-29T21:54:34.099Z","date":"2026-01-29","time":"21:54:34"},{"task":"memory_phase","broad_category":"M","image_png":"M_Slate_15.png","image_id":319,"category_name":"Slate","category":20,"distinct_rating":2.13,"distinct_type":"Bottom","rt":null,"stimulus":"Stimuli_Rocks480/M_Slate_15.png","response":null,"trial_type":"image-keyboard-response","trial_index":28,"plugin_version":"2.1.0","time_elapsed":76291,"subject_id":"92213","group":"Group1","condition":"1_Rep","full_date":"2026-01-29T21:54:34.099Z","date":"2026-01-29","time":"21:54:34"},{"rt":null,"stimulus":"<p style=\"font-size: 50px; margin: 0; text-align: center;\">+</p>","response":null,"trial_type":"html-keyboard-response","trial_index":29,"plugin_version":"2.1.0","time_elapsed":77294,"subject_id":"92213","group":"Group1","condition":"1_Rep","full_date":"2026-01-29T21:54:34.099Z","date":"2026-01-29","time":"21:54:34"},{"task":"memory_phase","broad_category":"M","image_png":"M_Slate_03.png","image_id":307,"category_name":"Slate","category":20,"distinct_rating":1.87,"distinct_type":"Bottom","rt":null,"stimulus":"Stimuli_Rocks480/M_Slate_03.png","response":null,"trial_type":"image-keyboard-response","trial_index":30,"plugin_version":"2.1.0","time_elapsed":79798,"subject_id":"92213","group":"Group1","condition":"1_Rep","full_date":"2026-01-29T21:54:34.099Z","date":"2026-01-29","time":"21:54:34"},{"rt":null,"stimulus":"<p style=\"font-size: 50px; margin: 0; text-align: center;\">+</p>","response":null,"trial_type":"html-keyboard-response","trial_index":31,"plugin_version":"2.1.0","time_elapsed":80800,"subject_id":"92213","group":"Group1","condition":"1_Rep","full_date":"2026-01-29T21:54:34.099Z","date":"2026-01-29","time":"21:54:34"},{"task":"memory_phase","broad_category":"I","image_png":"I_Rhyolite_16.png","image_id":160,"category_name":"Rhyolite","category":10,"distinct_rating":2.19,"distinct_type":"Bottom","rt":null,"stimulus":"Stimuli_Rocks480/I_Rhyolite_16.png","response":null,"trial_type":"image-keyboard-response","trial_index":32,"plugin_version":"2.1.0","time_elapsed":83304,"subject_id":"92213","group":"Group1","condition":"1_Rep","full_date":"2026-01-29T21:54:34.099Z","date":"2026-01-29","time":"21:54:34"},{"rt":null,"stimulus":"<p style=\"font-size: 50px; margin: 0; text-align: center;\">+</p>","response":null,"trial_type":"html-keyboard-response","trial_index":33,"plugin_version":"2.1.0","time_elapsed":84306,"subject_id":"92213","group":"Group1","condition":"1_Rep","full_date":"2026-01-29T21:54:34.099Z","date":"2026-01-29","time":"21:54:34"},{"task":"memory_phase","broad_category":"M","image_png":"M_Quartzite_08.png","image_id":280,"category_name":"Quartzite","category":18,"distinct_rating":2.15,"distinct_type":"Bottom","rt":null,"stimulus":"Stimuli_Rocks480/M_Quartzite_08.png","response":null,"trial_type":"image-keyboard-response","trial_index":34,"plugin_version":"2.1.0","time_elapsed":86810,"subject_id":"92213","group":"Group1","condition":"1_Rep","full_date":"2026-01-29T21:54:34.099Z","date":"2026-01-29","time":"21:54:34"},{"rt":null,"stimulus":"<p style=\"font-size: 50px; margin: 0; text-align: center;\">+</p>","response":null,"trial_type":"html-keyboard-response","trial_index":35,"plugin_version":"2.1.0","time_elapsed":87812,"subject_id":"92213","group":"Group1","condition":"1_Rep","full_date":"2026-01-29T21:54:34.099Z","date":"2026-01-29","time":"21:54:34"},{"task":"memory_phase","broad_category":"I","image_png":"I_Basalt_09.png","image_id":25,"category_name":"Basalt","category":2,"distinct_rating":1.89,"distinct_type":"Bottom","rt":null,"stimulus":"Stimuli_Rocks480/I_Basalt_09.png","response":null,"trial_type":"image-keyboard-response","trial_index":36,"plugin_version":"2.1.0","time_elapsed":90316,"subject_id":"92213","group":"Group1","condition":"1_Rep","full_date":"2026-01-29T21:54:34.099Z","date":"2026-01-29","time":"21:54:34"},{"rt":null,"stimulus":"<p style=\"font-size: 50px; margin: 0; text-align: center;\">+</p>","response":null,"trial_type":"html-keyboard-response","trial_index":37,"plugin_version":"2.1.0","time_elapsed":91319,"subject_id":"92213","group":"Group1","condition":"1_Rep","full_date":"2026-01-29T21:54:34.099Z","date":"2026-01-29","time":"21:54:34"},{"task":"memory_phase","broad_category":"I","image_png":"I_Andesite_08.png","image_id":8,"category_name":"Andesite","category":1,"distinct_rating":1.95,"distinct_type":"Bottom","rt":null,"stimulus":"Stimuli_Rocks480/I_Andesite_08.png","response":null,"trial_type":"image-keyboard-response","trial_index":38,"plugin_version":"2.1.0","time_elapsed":93823,"subject_id":"92213","group":"Group1","condition":"1_Rep","full_date":"2026-01-29T21:54:34.099Z","date":"2026-01-29","time":"21:54:34"},{"rt":null,"stimulus":"<p style=\"font-size: 50px; margin: 0; text-align: center;\">+</p>","response":null,"trial_type":"html-keyboard-response","trial_index":39,"plugin_version":"2.1.0","time_elapsed":94826,"subject_id":"92213","group":"Group1","condition":"1_Rep","full_date":"2026-01-29T21:54:34.099Z","date":"2026-01-29","time":"21:54:34"},{"task":"memory_phase","broad_category":"I","image_png":"I_Diorite_04.png","image_id":36,"category_name":"Diorite","category":3,"distinct_rating":2.98,"distinct_type":"Bottom","rt":null,"stimulus":"Stimuli_Rocks480/I_Diorite_04.png","response":null,"trial_type":"image-keyboard-response","trial_index":40,"plugin_version":"2.1.0","time_elapsed":97330,"subject_id":"92213","group":"Group1","condition":"1_Rep","full_date":"2026-01-29T21:54:34.099Z","date":"2026-01-29","time":"21:54:34"},{"rt":null,"stimulus":"<p style=\"font-size: 50px; margin: 0; text-align: center;\">+</p>","response":null,"trial_type":"html-keyboard-response","trial_index":41,"plugin_version":"2.1.0","time_elapsed":98332,"subject_id":"92213","group":"Group1","condition":"1_Rep","full_date":"2026-01-29T21:54:34.099Z","date":"2026-01-29","time":"21:54:34"},{"task":"memory_phase","broad_category":"I","image_png":"I_Pegmatite_16.png","image_id":112,"category_name":"Pegmatite","category":7,"distinct_rating":7.03,"distinct_type":"Top","rt":null,"stimulus":"Stimuli_Rocks480/I_Pegmatite_16.png","response":null,"trial_type":"image-keyboard-response","trial_index":42,"plugin_version":"2.1.0","time_elapsed":100835,"subject_id":"92213","group":"Group1","condition":"1_Rep","full_date":"2026-01-29T21:54:34.099Z","date":"2026-01-29","time":"21:54:34"},{"rt":null,"stimulus":"<p style=\"font-size: 50px; margin: 0; text-align: center;\">+</p>","response":null,"trial_type":"html-keyboard-response","trial_index":43,"plugin_version":"2.1.0","time_elapsed":101837,"subject_id":"92213","group":"Group1","condition":"1_Rep","full_date":"2026-01-29T21:54:34.099Z","date":"2026-01-29","time":"21:54:34"},{"task":"memory_phase","broad_category":"M","image_png":"M_Marble_16.png","image_id":240,"category_name":"Marble","category":15,"distinct_rating":2.57,"distinct_type":"Bottom","rt":null,"stimulus":"Stimuli_Rocks480/M_Marble_16.png","response":null,"trial_type":"image-keyboard-response","trial_index":44,"plugin_version":"2.1.0","time_elapsed":104439,"subject_id":"92213","group":"Group1","condition":"1_Rep","full_date":"2026-01-29T21:54:34.099Z","date":"2026-01-29","time":"21:54:34"},{"rt":null,"stimulus":"<p style=\"font-size: 50px; margin: 0; text-align: center;\">+</p>","response":null,"trial_type":"html-keyboard-response","trial_index":45,"plugin_version":"2.1.0","time_elapsed":105440,"subject_id":"92213","group":"Group1","condition":"1_Rep","full_date":"2026-01-29T21:54:34.099Z","date":"2026-01-29","time":"21:54:34"},{"task":"memory_phase","broad_category":"S","image_png":"S_Conglomerate_05.png","image_id":373,"category_name":"Conglomerate","category":24,"distinct_rating":7.32,"distinct_type":"Top","rt":null,"stimulus":"Stimuli_Rocks480/S_Conglomerate_05.png","response":null,"trial_type":"image-keyboard-response","trial_index":46,"plugin_version":"2.1.0","time_elapsed":107944,"subject_id":"92213","group":"Group1","condition":"1_Rep","full_date":"2026-01-29T21:54:34.099Z","date":"2026-01-29","time":"21:54:34"},{"rt":null,"stimulus":"<p style=\"font-size: 50px; margin: 0; text-align: center;\">+</p>","response":null,"trial_type":"html-keyboard-response","trial_index":47,"plugin_version":"2.1.0","time_elapsed":108947,"subject_id":"92213","group":"Group1","condition":"1_Rep","full_date":"2026-01-29T21:54:34.099Z","date":"2026-01-29","time":"21:54:34"},{"task":"memory_phase","broad_category":"I","image_png":"I_Diorite_05.png","image_id":37,"category_name":"Diorite","category":3,"distinct_rating":3.08,"distinct_type":"Bottom","rt":null,"stimulus":"Stimuli_Rocks480/I_Diorite_05.png","response":null,"trial_type":"image-keyboard-response","trial_index":48,"plugin_version":"2.1.0","time_elapsed":111450,"subject_id":"92213","group":"Group1","condition":"1_Rep","full_date":"2026-01-29T21:54:34.099Z","date":"2026-01-29","time":"21:54:34"},{"rt":null,"stimulus":"<p style=\"font-size: 50px; margin: 0; text-align: center;\">+</p>","response":null,"trial_type":"html-keyboard-response","trial_index":49,"plugin_version":"2.1.0","time_elapsed":112453,"subject_id":"92213","group":"Group1","condition":"1_Rep","full_date":"2026-01-29T21:54:34.099Z","date":"2026-01-29","time":"21:54:34"},{"task":"memory_phase","broad_category":"S","image_png":"S_Shale_12.png","image_id":476,"category_name":"Shale","category":30,"distinct_rating":2.48,"distinct_type":"Bottom","rt":null,"stimulus":"Stimuli_Rocks480/S_Shale_12.png","response":null,"trial_type":"image-keyboard-response","trial_index":50,"plugin_version":"2.1.0","time_elapsed":114957,"subject_id":"92213","group":"Group1","condition":"1_Rep","full_date":"2026-01-29T21:54:34.099Z","date":"2026-01-29","time":"21:54:34"},{"rt":null,"stimulus":"<p style=\"font-size: 50px; margin: 0; text-align: center;\">+</p>","response":null,"trial_type":"html-keyboard-response","trial_index":51,"plugin_version":"2.1.0","time_elapsed":115959,"subject_id":"92213","group":"Group1","condition":"1_Rep","full_date":"2026-01-29T21:54:34.099Z","date":"2026-01-29","time":"21:54:34"},{"task":"memory_phase","broad_category":"M","image_png":"M_Gneiss_05.png","image_id":197,"category_name":"Gneiss","category":13,"distinct_rating":2.97,"distinct_type":"Bottom","rt":null,"stimulus":"Stimuli_Rocks480/M_Gneiss_05.png","response":null,"trial_type":"image-keyboard-response","trial_index":52,"plugin_version":"2.1.0","time_elapsed":118462,"subject_id":"92213","group":"Group1","condition":"1_Rep","full_date":"2026-01-29T21:54:34.099Z","date":"2026-01-29","time":"21:54:34"},{"rt":null,"stimulus":"<p style=\"font-size: 50px; margin: 0; text-align: center;\">+</p>","response":null,"trial_type":"html-keyboard-response","trial_index":53,"plugin_version":"2.1.0","time_elapsed":119464,"subject_id":"92213","group":"Group1","condition":"1_Rep","full_date":"2026-01-29T21:54:34.099Z","date":"2026-01-29","time":"21:54:34"},{"task":"memory_phase","broad_category":"S","image_png":"S_Rock Gypsum_04.png","image_id":420,"category_name":"Rock Gypsum","category":27,"distinct_rating":7.61,"distinct_type":"Top","rt":null,"stimulus":"Stimuli_Rocks480/S_Rock Gypsum_04.png","response":null,"trial_type":"image-keyboard-response","trial_index":54,"plugin_version":"2.1.0","time_elapsed":121967,"subject_id":"92213","group":"Group1","condition":"1_Rep","full_date":"2026-01-29T21:54:34.099Z","date":"2026-01-29","time":"21:54:34"},{"rt":2189,"stimulus":"<p style=\"max-width: 760px; margin: auto; font-size: 35px; line-height: 1.5;\">\n                Press SPACE to continue study phase\n              </p>","response":" ","trial_type":"html-keyboard-response","trial_index":55,"plugin_version":"2.1.0","time_elapsed":124167,"subject_id":"92213","group":"Group1","condition":"1_Rep","full_date":"2026-01-29T21:54:34.099Z","date":"2026-01-29","time":"21:54:34"},{"rt":null,"stimulus":"<p style=\"font-size: 50px; margin: 0; text-align: center;\">+</p>","response":null,"trial_type":"html-keyboard-response","trial_index":56,"plugin_version":"2.1.0","time_elapsed":125169,"subject_id":"92213","group":"Group1","condition":"1_Rep","full_date":"2026-01-29T21:54:34.099Z","date":"2026-01-29","time":"21:54:34"},{"task":"memory_phase","broad_category":"M","image_png":"M_Quartzite_13.png","image_id":285,"category_name":"Quartzite","category":18,"distinct_rating":2.27,"distinct_type":"Bottom","rt":null,"stimulus":"Stimuli_Rocks480/M_Quartzite_13.png","response":null,"trial_type":"image-keyboard-response","trial_index":57,"plugin_version":"2.1.0","time_elapsed":127674,"subject_id":"92213","group":"Group1","condition":"1_Rep","full_date":"2026-01-29T21:54:34.099Z","date":"2026-01-29","time":"21:54:34"},{"rt":null,"stimulus":"<p style=\"font-size: 50px; margin: 0; text-align: center;\">+</p>","response":null,"trial_type":"html-keyboard-response","trial_index":58,"plugin_version":"2.1.0","time_elapsed":128676,"subject_id":"92213","group":"Group1","condition":"1_Rep","full_date":"2026-01-29T21:54:34.099Z","date":"2026-01-29","time":"21:54:34"},{"task":"memory_phase","broad_category":"M","image_png":"M_Phyllite_07.png","image_id":263,"category_name":"Phyllite","category":17,"distinct_rating":2.59,"distinct_type":"Bottom","rt":null,"stimulus":"Stimuli_Rocks480/M_Phyllite_07.png","response":null,"trial_type":"image-keyboard-response","trial_index":59,"plugin_version":"2.1.0","time_elapsed":131180,"subject_id":"92213","group":"Group1","condition":"1_Rep","full_date":"2026-01-29T21:54:34.099Z","date":"2026-01-29","time":"21:54:34"},{"rt":null,"stimulus":"<p style=\"font-size: 50px; margin: 0; text-align: center;\">+</p>","response":null,"trial_type":"html-keyboard-response","trial_index":60,"plugin_version":"2.1.0","time_elapsed":132182,"subject_id":"92213","group":"Group1","condition":"1_Rep","full_date":"2026-01-29T21:54:34.099Z","date":"2026-01-29","time":"21:54:34"},{"task":"memory_phase","broad_category":"I","image_png":"I_Andesite_10.png","image_id":10,"category_name":"Andesite","category":1,"distinct_rating":3.15,"distinct_type":"Bottom","rt":null,"stimulus":"Stimuli_Rocks480/I_Andesite_10.png","response":null,"trial_type":"image-keyboard-response","trial_index":61,"plugin_version":"2.1.0","time_elapsed":134685,"subject_id":"92213","group":"Group1","condition":"1_Rep","full_date":"2026-01-29T21:54:34.099Z","date":"2026-01-29","time":"21:54:34"},{"rt":null,"stimulus":"<p style=\"font-size: 50px; margin: 0; text-align: center;\">+</p>","response":null,"trial_type":"html-keyboard-response","trial_index":62,"plugin_version":"2.1.0","time_elapsed":135689,"subject_id":"92213","group":"Group1","condition":"1_Rep","full_date":"2026-01-29T21:54:34.099Z","date":"2026-01-29","time":"21:54:34"},{"task":"memory_phase","broad_category":"I","image_png":"I_Gabbro_08.png","image_id":56,"category_name":"Gabbro","category":4,"distinct_rating":3.02,"distinct_type":"Bottom","rt":null,"stimulus":"Stimuli_Rocks480/I_Gabbro_08.png","response":null,"trial_type":"image-keyboard-response","trial_index":63,"plugin_version":"2.1.0","time_elapsed":138192,"subject_id":"92213","group":"Group1","condition":"1_Rep","full_date":"2026-01-29T21:54:34.099Z","date":"2026-01-29","time":"21:54:34"},{"rt":null,"stimulus":"<p style=\"font-size: 50px; margin: 0; text-align: center;\">+</p>","response":null,"trial_type":"html-keyboard-response","trial_index":64,"plugin_version":"2.1.0","time_elapsed":139195,"subject_id":"92213","group":"Group1","condition":"1_Rep","full_date":"2026-01-29T21:54:34.099Z","date":"2026-01-29","time":"21:54:34"},{"task":"memory_phase","broad_category":"M","image_png":"M_Gneiss_06.png","image_id":198,"category_name":"Gneiss","category":13,"distinct_rating":2.65,"distinct_type":"Bottom","rt":null,"stimulus":"Stimuli_Rocks480/M_Gneiss_06.png","response":null,"trial_type":"image-keyboard-response","trial_index":65,"plugin_version":"2.1.0","time_elapsed":141698,"subject_id":"92213","group":"Group1","condition":"1_Rep","full_date":"2026-01-29T21:54:34.099Z","date":"2026-01-29","time":"21:54:34"},{"rt":null,"stimulus":"<p style=\"font-size: 50px; margin: 0; text-align: center;\">+</p>","response":null,"trial_type":"html-keyboard-response","trial_index":66,"plugin_version":"2.1.0","time_elapsed":142701,"subject_id":"92213","group":"Group1","condition":"1_Rep","full_date":"2026-01-29T21:54:34.099Z","date":"2026-01-29","time":"21:54:34"},{"task":"memory_phase","broad_category":"I","image_png":"I_Obsidian_05.png","image_id":85,"category_name":"Obsidian","category":6,"distinct_rating":7.32,"distinct_type":"Top","rt":null,"stimulus":"Stimuli_Rocks480/I_Obsidian_05.png","response":null,"trial_type":"image-keyboard-response","trial_index":67,"plugin_version":"2.1.0","time_elapsed":145204,"subject_id":"92213","group":"Group1","condition":"1_Rep","full_date":"2026-01-29T21:54:34.099Z","date":"2026-01-29","time":"21:54:34"},{"rt":null,"stimulus":"<p style=\"font-size: 50px; margin: 0; text-align: center;\">+</p>","response":null,"trial_type":"html-keyboard-response","trial_index":68,"plugin_version":"2.1.0","time_elapsed":146207,"subject_id":"92213","group":"Group1","condition":"1_Rep","full_date":"2026-01-29T21:54:34.099Z","date":"2026-01-29","time":"21:54:34"},{"task":"memory_phase","broad_category":"M","image_png":"M_Slate_11.png","image_id":315,"category_name":"Slate","category":20,"distinct_rating":2.75,"distinct_type":"Bottom","rt":null,"stimulus":"Stimuli_Rocks480/M_Slate_11.png","response":null,"trial_type":"image-keyboard-response","trial_index":69,"plugin_version":"2.1.0","time_elapsed":148710,"subject_id":"92213","group":"Group1","condition":"1_Rep","full_date":"2026-01-29T21:54:34.099Z","date":"2026-01-29","time":"21:54:34"},{"rt":null,"stimulus":"<p style=\"font-size: 50px; margin: 0; text-align: center;\">+</p>","response":null,"trial_type":"html-keyboard-response","trial_index":70,"plugin_version":"2.1.0","time_elapsed":149712,"subject_id":"92213","group":"Group1","condition":"1_Rep","full_date":"2026-01-29T21:54:34.099Z","date":"2026-01-29","time":"21:54:34"},{"task":"memory_phase","broad_category":"I","image_png":"I_Diorite_03.png","image_id":35,"category_name":"Diorite","category":3,"distinct_rating":3.14,"distinct_type":"Bottom","rt":null,"stimulus":"Stimuli_Rocks480/I_Diorite_03.png","response":null,"trial_type":"image-keyboard-response","trial_index":71,"plugin_version":"2.1.0","time_elapsed":152216,"subject_id":"92213","group":"Group1","condition":"1_Rep","full_date":"2026-01-29T21:54:34.099Z","date":"2026-01-29","time":"21:54:34"},{"rt":null,"stimulus":"<p style=\"font-size: 50px; margin: 0; text-align: center;\">+</p>","response":null,"trial_type":"html-keyboard-response","trial_index":72,"plugin_version":"2.1.0","time_elapsed":153219,"subject_id":"92213","group":"Group1","condition":"1_Rep","full_date":"2026-01-29T21:54:34.099Z","date":"2026-01-29","time":"21:54:34"},{"task":"memory_phase","broad_category":"M","image_png":"M_Phyllite_03.png","image_id":259,"category_name":"Phyllite","category":17,"distinct_rating":2.5,"distinct_type":"Bottom","rt":null,"stimulus":"Stimuli_Rocks480/M_Phyllite_03.png","response":null,"trial_type":"image-keyboard-response","trial_index":73,"plugin_version":"2.1.0","time_elapsed":155724,"subject_id":"92213","group":"Group1","condition":"1_Rep","full_date":"2026-01-29T21:54:34.099Z","date":"2026-01-29","time":"21:54:34"},{"rt":null,"stimulus":"<p style=\"font-size: 50px; margin: 0; text-align: center;\">+</p>","response":null,"trial_type":"html-keyboard-response","trial_index":74,"plugin_version":"2.1.0","time_elapsed":156726,"subject_id":"92213","group":"Group1","condition":"1_Rep","full_date":"2026-01-29T21:54:34.099Z","date":"2026-01-29","time":"21:54:34"},{"task":"memory_phase","broad_category":"S","image_png":"S_Rock Salt_01.png","image_id":433,"category_name":"Rock Salt","category":28,"distinct_rating":7.18,"distinct_type":"Top","rt":null,"stimulus":"Stimuli_Rocks480/S_Rock Salt_01.png","response":null,"trial_type":"image-keyboard-response","trial_index":75,"plugin_version":"2.1.0","time_elapsed":159229,"subject_id":"92213","group":"Group1","condition":"1_Rep","full_date":"2026-01-29T21:54:34.099Z","date":"2026-01-29","time":"21:54:34"},{"rt":null,"stimulus":"<p style=\"font-size: 50px; margin: 0; text-align: center;\">+</p>","response":null,"trial_type":"html-keyboard-response","trial_index":76,"plugin_version":"2.1.0","time_elapsed":160238,"subject_id":"92213","group":"Group1","condition":"1_Rep","full_date":"2026-01-29T21:54:34.099Z","date":"2026-01-29","time":"21:54:34"},{"task":"memory_phase","broad_category":"M","image_png":"M_Marble_04.png","image_id":228,"category_name":"Marble","category":15,"distinct_rating":3.15,"distinct_type":"Bottom","rt":null,"stimulus":"Stimuli_Rocks480/M_Marble_04.png","response":null,"trial_type":"image-keyboard-response","trial_index":77,"plugin_version":"2.1.0","time_elapsed":162743,"subject_id":"92213","group":"Group1","condition":"1_Rep","full_date":"2026-01-29T21:54:34.099Z","date":"2026-01-29","time":"21:54:34"},{"rt":null,"stimulus":"<p style=\"font-size: 50px; margin: 0; text-align: center;\">+</p>","response":null,"trial_type":"html-keyboard-response","trial_index":78,"plugin_version":"2.1.0","time_elapsed":163745,"subject_id":"92213","group":"Group1","condition":"1_Rep","full_date":"2026-01-29T21:54:34.099Z","date":"2026-01-29","time":"21:54:34"},{"task":"memory_phase","broad_category":"I","image_png":"I_Pumice_12.png","image_id":140,"category_name":"Pumice","category":9,"distinct_rating":2.97,"distinct_type":"Bottom","rt":null,"stimulus":"Stimuli_Rocks480/I_Pumice_12.png","response":null,"trial_type":"image-keyboard-response","trial_index":79,"plugin_version":"2.1.0","time_elapsed":166249,"subject_id":"92213","group":"Group1","condition":"1_Rep","full_date":"2026-01-29T21:54:34.099Z","date":"2026-01-29","time":"21:54:34"},{"rt":null,"stimulus":"<p style=\"font-size: 50px; margin: 0; text-align: center;\">+</p>","response":null,"trial_type":"html-keyboard-response","trial_index":80,"plugin_version":"2.1.0","time_elapsed":167250,"subject_id":"92213","group":"Group1","condition":"1_Rep","full_date":"2026-01-29T21:54:34.099Z","date":"2026-01-29","time":"21:54:34"},{"task":"memory_phase","broad_category":"I","image_png":"I_Basalt_02.png","image_id":18,"category_name":"Basalt","category":2,"distinct_rating":1.84,"distinct_type":"Bottom","rt":null,"stimulus":"Stimuli_Rocks480/I_Basalt_02.png","response":null,"trial_type":"image-keyboard-response","trial_index":81,"plugin_version":"2.1.0","time_elapsed":169754,"subject_id":"92213","group":"Group1","condition":"1_Rep","full_date":"2026-01-29T21:54:34.099Z","date":"2026-01-29","time":"21:54:34"},{"rt":null,"stimulus":"<p style=\"font-size: 50px; margin: 0; text-align: center;\">+</p>","response":null,"trial_type":"html-keyboard-response","trial_index":82,"plugin_version":"2.1.0","time_elapsed":170756,"subject_id":"92213","group":"Group1","condition":"1_Rep","full_date":"2026-01-29T21:54:34.099Z","date":"2026-01-29","time":"21:54:34"},{"task":"memory_phase","broad_category":"S","image_png":"S_Sandstone_16.png","image_id":464,"category_name":"Sandstone","category":29,"distinct_rating":1.93,"distinct_type":"Bottom","rt":null,"stimulus":"Stimuli_Rocks480/S_Sandstone_16.png","response":null,"trial_type":"image-keyboard-response","trial_index":83,"plugin_version":"2.1.0","time_elapsed":173260,"subject_id":"92213","group":"Group1","condition":"1_Rep","full_date":"2026-01-29T21:54:34.099Z","date":"2026-01-29","time":"21:54:34"},{"rt":null,"stimulus":"<p style=\"font-size: 50px; margin: 0; text-align: center;\">+</p>","response":null,"trial_type":"html-keyboard-response","trial_index":84,"plugin_version":"2.1.0","time_elapsed":174263,"subject_id":"92213","group":"Group1","condition":"1_Rep","full_date":"2026-01-29T21:54:34.099Z","date":"2026-01-29","time":"21:54:34"},{"task":"memory_phase","broad_category":"I","image_png":"I_Pegmatite_10.png","image_id":106,"category_name":"Pegmatite","category":7,"distinct_rating":7.66,"distinct_type":"Top","rt":null,"stimulus":"Stimuli_Rocks480/I_Pegmatite_10.png","response":null,"trial_type":"image-keyboard-response","trial_index":85,"plugin_version":"2.1.0","time_elapsed":176767,"subject_id":"92213","group":"Group1","condition":"1_Rep","full_date":"2026-01-29T21:54:34.099Z","date":"2026-01-29","time":"21:54:34"},{"rt":null,"stimulus":"<p style=\"font-size: 50px; margin: 0; text-align: center;\">+</p>","response":null,"trial_type":"html-keyboard-response","trial_index":86,"plugin_version":"2.1.0","time_elapsed":177770,"subject_id":"92213","group":"Group1","condition":"1_Rep","full_date":"2026-01-29T21:54:34.099Z","date":"2026-01-29","time":"21:54:34"},{"task":"memory_phase","broad_category":"I","image_png":"I_Rhyolite_14.png","image_id":158,"category_name":"Rhyolite","category":10,"distinct_rating":2.59,"distinct_type":"Bottom","rt":null,"stimulus":"Stimuli_Rocks480/I_Rhyolite_14.png","response":null,"trial_type":"image-keyboard-response","trial_index":87,"plugin_version":"2.1.0","time_elapsed":180274,"subject_id":"92213","group":"Group1","condition":"1_Rep","full_date":"2026-01-29T21:54:34.099Z","date":"2026-01-29","time":"21:54:34"},{"rt":null,"stimulus":"<p style=\"font-size: 50px; margin: 0; text-align: center;\">+</p>","response":null,"trial_type":"html-keyboard-response","trial_index":88,"plugin_version":"2.1.0","time_elapsed":181276,"subject_id":"92213","group":"Group1","condition":"1_Rep","full_date":"2026-01-29T21:54:34.099Z","date":"2026-01-29","time":"21:54:34"},{"task":"memory_phase","broad_category":"S","image_png":"S_Shale_01.png","image_id":465,"category_name":"Shale","category":30,"distinct_rating":2.7,"distinct_type":"Bottom","rt":null,"stimulus":"Stimuli_Rocks480/S_Shale_01.png","response":null,"trial_type":"image-keyboard-response","trial_index":89,"plugin_version":"2.1.0","time_elapsed":183780,"subject_id":"92213","group":"Group1","condition":"1_Rep","full_date":"2026-01-29T21:54:34.099Z","date":"2026-01-29","time":"21:54:34"},{"rt":null,"stimulus":"<p style=\"font-size: 50px; margin: 0; text-align: center;\">+</p>","response":null,"trial_type":"html-keyboard-response","trial_index":90,"plugin_version":"2.1.0","time_elapsed":184782,"subject_id":"92213","group":"Group1","condition":"1_Rep","full_date":"2026-01-29T21:54:34.099Z","date":"2026-01-29","time":"21:54:34"},{"task":"memory_phase","broad_category":"S","image_png":"S_Chert_10.png","image_id":362,"category_name":"Chert","category":23,"distinct_rating":7.17,"distinct_type":"Top","rt":null,"stimulus":"Stimuli_Rocks480/S_Chert_10.png","response":null,"trial_type":"image-keyboard-response","trial_index":91,"plugin_version":"2.1.0","time_elapsed":187286,"subject_id":"92213","group":"Group1","condition":"1_Rep","full_date":"2026-01-29T21:54:34.099Z","date":"2026-01-29","time":"21:54:34"},{"rt":null,"stimulus":"<p style=\"font-size: 50px; margin: 0; text-align: center;\">+</p>","response":null,"trial_type":"html-keyboard-response","trial_index":92,"plugin_version":"2.1.0","time_elapsed":188288,"subject_id":"92213","group":"Group1","condition":"1_Rep","full_date":"2026-01-29T21:54:34.099Z","date":"2026-01-29","time":"21:54:34"},{"task":"memory_phase","broad_category":"M","image_png":"M_Phyllite_10.png","image_id":266,"category_name":"Phyllite","category":17,"distinct_rating":2.6,"distinct_type":"Bottom","rt":null,"stimulus":"Stimuli_Rocks480/M_Phyllite_10.png","response":null,"trial_type":"image-keyboard-response","trial_index":93,"plugin_version":"2.1.0","time_elapsed":190791,"subject_id":"92213","group":"Group1","condition":"1_Rep","full_date":"2026-01-29T21:54:34.099Z","date":"2026-01-29","time":"21:54:34"},{"rt":null,"stimulus":"<p style=\"font-size: 50px; margin: 0; text-align: center;\">+</p>","response":null,"trial_type":"html-keyboard-response","trial_index":94,"plugin_version":"2.1.0","time_elapsed":191794,"subject_id":"92213","group":"Group1","condition":"1_Rep","full_date":"2026-01-29T21:54:34.099Z","date":"2026-01-29","time":"21:54:34"},{"task":"memory_phase","broad_category":"S","image_png":"S_Dolomite_13.png","image_id":397,"category_name":"Dolomite","category":25,"distinct_rating":1.77,"distinct_type":"Bottom","rt":null,"stimulus":"Stimuli_Rocks480/S_Dolomite_13.png","response":null,"trial_type":"image-keyboard-response","trial_index":95,"plugin_version":"2.1.0","time_elapsed":194297,"subject_id":"92213","group":"Group1","condition":"1_Rep","full_date":"2026-01-29T21:54:34.099Z","date":"2026-01-29","time":"21:54:34"},{"rt":null,"stimulus":"<p style=\"font-size: 50px; margin: 0; text-align: center;\">+</p>","response":null,"trial_type":"html-keyboard-response","trial_index":96,"plugin_version":"2.1.0","time_elapsed":195299,"subject_id":"92213","group":"Group1","condition":"1_Rep","full_date":"2026-01-29T21:54:34.099Z","date":"2026-01-29","time":"21:54:34"},{"task":"memory_phase","broad_category":"S","image_png":"S_Sandstone_03.png","image_id":451,"category_name":"Sandstone","category":29,"distinct_rating":1.86,"distinct_type":"Bottom","rt":null,"stimulus":"Stimuli_Rocks480/S_Sandstone_03.png","response":null,"trial_type":"image-keyboard-response","trial_index":97,"plugin_version":"2.1.0","time_elapsed":197803,"subject_id":"92213","group":"Group1","condition":"1_Rep","full_date":"2026-01-29T21:54:34.099Z","date":"2026-01-29","time":"21:54:34"},{"rt":null,"stimulus":"<p style=\"font-size: 50px; margin: 0; text-align: center;\">+</p>","response":null,"trial_type":"html-keyboard-response","trial_index":98,"plugin_version":"2.1.0","time_elapsed":198806,"subject_id":"92213","group":"Group1","condition":"1_Rep","full_date":"2026-01-29T21:54:34.099Z","date":"2026-01-29","time":"21:54:34"},{"task":"memory_phase","broad_category":"I","image_png":"I_Gabbro_11.png","image_id":59,"category_name":"Gabbro","category":4,"distinct_rating":1.99,"distinct_type":"Bottom","rt":null,"stimulus":"Stimuli_Rocks480/I_Gabbro_11.png","response":null,"trial_type":"image-keyboard-response","trial_index":99,"plugin_version":"2.1.0","time_elapsed":201312,"subject_id":"92213","group":"Group1","condition":"1_Rep","full_date":"2026-01-29T21:54:34.099Z","date":"2026-01-29","time":"21:54:34"},{"rt":null,"stimulus":"<p style=\"font-size: 50px; margin: 0; text-align: center;\">+</p>","response":null,"trial_type":"html-keyboard-response","trial_index":100,"plugin_version":"2.1.0","time_elapsed":202314,"subject_id":"92213","group":"Group1","condition":"1_Rep","full_date":"2026-01-29T21:54:34.099Z","date":"2026-01-29","time":"21:54:34"},{"task":"memory_phase","broad_category":"I","image_png":"I_Pumice_11.png","image_id":139,"category_name":"Pumice","category":9,"distinct_rating":1.74,"distinct_type":"Bottom","rt":null,"stimulus":"Stimuli_Rocks480/I_Pumice_11.png","response":null,"trial_type":"image-keyboard-response","trial_index":101,"plugin_version":"2.1.0","time_elapsed":204818,"subject_id":"92213","group":"Group1","condition":"1_Rep","full_date":"2026-01-29T21:54:34.099Z","date":"2026-01-29","time":"21:54:34"},{"rt":null,"stimulus":"<p style=\"font-size: 50px; margin: 0; text-align: center;\">+</p>","response":null,"trial_type":"html-keyboard-response","trial_index":102,"plugin_version":"2.1.0","time_elapsed":205821,"subject_id":"92213","group":"Group1","condition":"1_Rep","full_date":"2026-01-29T21:54:34.099Z","date":"2026-01-29","time":"21:54:34"},{"task":"memory_phase","broad_category":"I","image_png":"I_Pumice_08.png","image_id":136,"category_name":"Pumice","category":9,"distinct_rating":3.1,"distinct_type":"Bottom","rt":null,"stimulus":"Stimuli_Rocks480/I_Pumice_08.png","response":null,"trial_type":"image-keyboard-response","trial_index":103,"plugin_version":"2.1.0","time_elapsed":208324,"subject_id":"92213","group":"Group1","condition":"1_Rep","full_date":"2026-01-29T21:54:34.099Z","date":"2026-01-29","time":"21:54:34"},{"rt":null,"stimulus":"<p style=\"font-size: 50px; margin: 0; text-align: center;\">+</p>","response":null,"trial_type":"html-keyboard-response","trial_index":104,"plugin_version":"2.1.0","time_elapsed":209326,"subject_id":"92213","group":"Group1","condition":"1_Rep","full_date":"2026-01-29T21:54:34.099Z","date":"2026-01-29","time":"21:54:34"},{"task":"memory_phase","broad_category":"I","image_png":"I_Andesite_06.png","image_id":6,"category_name":"Andesite","category":1,"distinct_rating":3.17,"distinct_type":"Bottom","rt":null,"stimulus":"Stimuli_Rocks480/I_Andesite_06.png","response":null,"trial_type":"image-keyboard-response","trial_index":105,"plugin_version":"2.1.0","time_elapsed":211829,"subject_id":"92213","group":"Group1","condition":"1_Rep","full_date":"2026-01-29T21:54:34.099Z","date":"2026-01-29","time":"21:54:34"},{"rt":22847,"stimulus":"<div style=\"max-width: 760px; margin: auto; font-size: 20px; line-height: 1.5;\">\n      <h1 style=\"text-align:center; font-size: 30px;\">Instructions for the Test Phase</h1>\n      <p>\n        The study phase is now complete.\n      </p>\n      <p>\n        In the test phase, you will again see a series of rock images. \n        Some will be ones you saw before - during the study phase, while others will be new.  \n        <b>Your task</b> is to decide whether you have seen each image before by pressing the corresponding key on your keyboard:<br><br>\n          <b>A</b> - NO (you did not see this image before)<br>\n          <b>L</b> - YES (you saw this image before)<br><br>\n        The test will proceed at your own pace. You will receive feedback after each response.  \n        Please try to respond <b>as accurately as possible</b>.\n      </p>\n      <p>\n        <b>Reminder:</b> If your computer has multiple language settings (e.g., English and another language),\n        please ensure it is set to English during the test phase.\n      </p>\n      <p>\n        You can track your progress using the <b>completion bar</b> at the top of the screen.  \n        Note that it has been refreshed to reflect your progress during this final phase.\n      </p>\n      <p>\n        Press the button below when you are ready to continue.\n      </p>\n    </div>","response":0,"trial_type":"html-button-response","trial_index":106,"plugin_version":"2.1.0","time_elapsed":234690,"subject_id":"92213","group":"Group1","condition":"1_Rep","full_date":"2026-01-29T21:54:34.099Z","date":"2026-01-29","time":"21:54:34"},{"correct_response":"a","task":"test_phase","broad_category":"M","image_png":"M_Marble_03.png","image_id":227,"category_name":"Marble","category":15,"distinct_rating":2.67,"distinct_type":"Bottom","item_type":"Foil","rt":5245,"stimulus":"Stimuli_Rocks480/M_Marble_03.png","response":"a","trial_type":"image-keyboard-response","trial_index":107,"plugin_version":"2.1.0","time_elapsed":239938,"subject_id":"92213","group":"Group1","condition":"1_Rep","full_date":"2026-01-29T21:54:34.099Z","date":"2026-01-29","time":"21:54:34","cor_ans":true},{"trial_type":"html-keyboard-response","rt":null,"stimulus":"<p style=\"color: green; font-size: 50px; font-weight: bold;\">Correct</p>","response":null,"trial_index":108,"plugin_version":"2.1.0","time_elapsed":240441,"subject_id":"92213","group":"Group1","condition":"1_Rep","full_date":"2026-01-29T21:54:34.099Z","date":"2026-01-29","time":"21:54:34"},{"correct_response":"l","task":"test_phase","broad_category":"M","image_png":"M_Phyllite_03.png","image_id":259,"category_name":"Phyllite","category":17,"distinct_rating":2.5,"distinct_type":"Bottom","item_type":"Target","rt":1456,"stimulus":"Stimuli_Rocks480/M_Phyllite_03.png","response":"a","trial_type":"image-keyboard-response","trial_index":109,"plugin_version":"2.1.0","time_elapsed":241899,"subject_id":"92213","group":"Group1","condition":"1_Rep","full_date":"2026-01-29T21:54:34.099Z","date":"2026-01-29","time":"21:54:34","cor_ans":false},{"trial_type":"html-keyboard-response","rt":null,"stimulus":"<p style=\"color: red; font-size: 50px; font-weight: bold;\">Incorrect</p>","response":null,"trial_index":110,"plugin_version":"2.1.0","time_elapsed":242401,"subject_id":"92213","group":"Group1","condition":"1_Rep","full_date":"2026-01-29T21:54:34.099Z","date":"2026-01-29","time":"21:54:34"},{"correct_response":"a","task":"test_phase","broad_category":"I","image_png":"I_Gabbro_12.png","image_id":60,"category_name":"Gabbro","category":4,"distinct_rating":2.6,"distinct_type":"Bottom","item_type":"Foil","rt":1494,"stimulus":"Stimuli_Rocks480/I_Gabbro_12.png","response":"a","trial_type":"image-keyboard-response","trial_index":111,"plugin_version":"2.1.0","time_elapsed":243897,"subject_id":"92213","group":"Group1","condition":"1_Rep","full_date":"2026-01-29T21:54:34.099Z","date":"2026-01-29","time":"21:54:34","cor_ans":true},{"trial_type":"html-keyboard-response","rt":null,"stimulus":"<p style=\"color: green; font-size: 50px; font-weight: bold;\">Correct</p>","response":null,"trial_index":112,"plugin_version":"2.1.0","time_elapsed":244399,"subject_id":"92213","group":"Group1","condition":"1_Rep","full_date":"2026-01-29T21:54:34.099Z","date":"2026-01-29","time":"21:54:34"},{"correct_response":"a","task":"test_phase","broad_category":"I","image_png":"I_Andesite_04.png","image_id":4,"category_name":"Andesite","category":1,"distinct_rating":3.18,"distinct_type":"Bottom","item_type":"Foil","rt":1055,"stimulus":"Stimuli_Rocks480/I_Andesite_04.png","response":"a","trial_type":"image-keyboard-response","trial_index":113,"plugin_version":"2.1.0","time_elapsed":245456,"subject_id":"92213","group":"Group1","condition":"1_Rep","full_date":"2026-01-29T21:54:34.099Z","date":"2026-01-29","time":"21:54:34","cor_ans":true},{"trial_type":"html-keyboard-response","rt":null,"stimulus":"<p style=\"color: green; font-size: 50px; font-weight: bold;\">Correct</p>","response":null,"trial_index":114,"plugin_version":"2.1.0","time_elapsed":245958,"subject_id":"92213","group":"Group1","condition":"1_Rep","full_date":"2026-01-29T21:54:34.099Z","date":"2026-01-29","time":"21:54:34"},{"correct_response":"l","task":"test_phase","broad_category":"I","image_png":"I_Diorite_03.png","image_id":35,"category_name":"Diorite","category":3,"distinct_rating":3.14,"distinct_type":"Bottom","item_type":"Target","rt":897,"stimulus":"Stimuli_Rocks480/I_Diorite_03.png","response":"a","trial_type":"image-keyboard-response","trial_index":115,"plugin_version":"2.1.0","time_elapsed":246857,"subject_id":"92213","group":"Group1","condition":"1_Rep","full_date":"2026-01-29T21:54:34.099Z","date":"2026-01-29","time":"21:54:34","cor_ans":false},{"trial_type":"html-keyboard-response","rt":null,"stimulus":"<p style=\"color: red; font-size: 50px; font-weight: bold;\">Incorrect</p>","response":null,"trial_index":116,"plugin_version":"2.1.0","time_elapsed":247358,"subject_id":"92213","group":"Group1","condition":"1_Rep","full_date":"2026-01-29T21:54:34.099Z","date":"2026-01-29","time":"21:54:34"},{"correct_response":"l","task":"test_phase","broad_category":"I","image_png":"I_Basalt_02.png","image_id":18,"category_name":"Basalt","category":2,"distinct_rating":1.84,"distinct_type":"Bottom","item_type":"Target","rt":1860,"stimulus":"Stimuli_Rocks480/I_Basalt_02.png","response":"l","trial_type":"image-keyboard-response","trial_index":117,"plugin_version":"2.1.0","time_elapsed":249218,"subject_id":"92213","group":"Group1","condition":"1_Rep","full_date":"2026-01-29T21:54:34.099Z","date":"2026-01-29","time":"21:54:34","cor_ans":true},{"trial_type":"html-keyboard-response","rt":null,"stimulus":"<p style=\"color: green; font-size: 50px; font-weight: bold;\">Correct</p>","response":null,"trial_index":118,"plugin_version":"2.1.0","time_elapsed":249720,"subject_id":"92213","group":"Group1","condition":"1_Rep","full_date":"2026-01-29T21:54:34.099Z","date":"2026-01-29","time":"21:54:34"},{"correct_response":"a","task":"test_phase","broad_category":"I","image_png":"I_Pegmatite_03.png","image_id":99,"category_name":"Pegmatite","category":7,"distinct_rating":7.24,"distinct_type":"Top","item_type":"Foil","rt":1142,"stimulus":"Stimuli_Rocks480/I_Pegmatite_03.png","response":"a","trial_type":"image-keyboard-response","trial_index":119,"plugin_version":"2.1.0","time_elapsed":250864,"subject_id":"92213","group":"Group1","condition":"1_Rep","full_date":"2026-01-29T21:54:34.099Z","date":"2026-01-29","time":"21:54:34","cor_ans":true},{"trial_type":"html-keyboard-response","rt":null,"stimulus":"<p style=\"color: green; font-size: 50px; font-weight: bold;\">Correct</p>","response":null,"trial_index":120,"plugin_version":"2.1.0","time_elapsed":251366,"subject_id":"92213","group":"Group1","condition":"1_Rep","full_date":"2026-01-29T21:54:34.099Z","date":"2026-01-29","time":"21:54:34"},{"correct_response":"a","task":"test_phase","broad_category":"M","image_png":"M_Quartzite_07.png","image_id":279,"category_name":"Quartzite","category":18,"distinct_rating":1.97,"distinct_type":"Bottom","item_type":"Foil","rt":1001,"stimulus":"Stimuli_Rocks480/M_Quartzite_07.png","response":"l","trial_type":"image-keyboard-response","trial_index":121,"plugin_version":"2.1.0","time_elapsed":252369,"subject_id":"92213","group":"Group1","condition":"1_Rep","full_date":"2026-01-29T21:54:34.099Z","date":"2026-01-29","time":"21:54:34","cor_ans":false},{"trial_type":"html-keyboard-response","rt":null,"stimulus":"<p style=\"color: red; font-size: 50px; font-weight: bold;\">Incorrect</p>","response":null,"trial_index":122,"plugin_version":"2.1.0","time_elapsed":252870,"subject_id":"92213","group":"Group1","condition":"1_Rep","full_date":"2026-01-29T21:54:34.099Z","date":"2026-01-29","time":"21:54:34"},{"correct_response":"l","task":"test_phase","broad_category":"I","image_png":"I_Rhyolite_11.png","image_id":155,"category_name":"Rhyolite","category":10,"distinct_rating":1.73,"distinct_type":"Bottom","item_type":"Target","rt":1216,"stimulus":"Stimuli_Rocks480/I_Rhyolite_11.png","response":"l","trial_type":"image-keyboard-response","trial_index":123,"plugin_version":"2.1.0","time_elapsed":254088,"subject_id":"92213","group":"Group1","condition":"1_Rep","full_date":"2026-01-29T21:54:34.099Z","date":"2026-01-29","time":"21:54:34","cor_ans":true},{"trial_type":"html-keyboard-response","rt":null,"stimulus":"<p style=\"color: green; font-size: 50px; font-weight: bold;\">Correct</p>","response":null,"trial_index":124,"plugin_version":"2.1.0","time_elapsed":254590,"subject_id":"92213","group":"Group1","condition":"1_Rep","full_date":"2026-01-29T21:54:34.099Z","date":"2026-01-29","time":"21:54:34"},{"correct_response":"l","task":"test_phase","broad_category":"S","image_png":"S_Rock Gypsum_04.png","image_id":420,"category_name":"Rock Gypsum","category":27,"distinct_rating":7.61,"distinct_type":"Top","item_type":"Target","rt":1873,"stimulus":"Stimuli_Rocks480/S_Rock Gypsum_04.png","response":"a","trial_type":"image-keyboard-response","trial_index":125,"plugin_version":"2.1.0","time_elapsed":256466,"subject_id":"92213","group":"Group1","condition":"1_Rep","full_date":"2026-01-29T21:54:34.099Z","date":"2026-01-29","time":"21:54:34","cor_ans":false},{"trial_type":"html-keyboard-response","rt":null,"stimulus":"<p style=\"color: red; font-size: 50px; font-weight: bold;\">Incorrect</p>","response":null,"trial_index":126,"plugin_version":"2.1.0","time_elapsed":256967,"subject_id":"92213","group":"Group1","condition":"1_Rep","full_date":"2026-01-29T21:54:34.099Z","date":"2026-01-29","time":"21:54:34"},{"correct_response":"l","task":"test_phase","broad_category":"S","image_png":"S_Sandstone_16.png","image_id":464,"category_name":"Sandstone","category":29,"distinct_rating":1.93,"distinct_type":"Bottom","item_type":"Target","rt":2156,"stimulus":"Stimuli_Rocks480/S_Sandstone_16.png","response":"l","trial_type":"image-keyboard-response","trial_index":127,"plugin_version":"2.1.0","time_elapsed":259125,"subject_id":"92213","group":"Group1","condition":"1_Rep","full_date":"2026-01-29T21:54:34.099Z","date":"2026-01-29","time":"21:54:34","cor_ans":true},{"trial_type":"html-keyboard-response","rt":null,"stimulus":"<p style=\"color: green; font-size: 50px; font-weight: bold;\">Correct</p>","response":null,"trial_index":128,"plugin_version":"2.1.0","time_elapsed":259626,"subject_id":"92213","group":"Group1","condition":"1_Rep","full_date":"2026-01-29T21:54:34.099Z","date":"2026-01-29","time":"21:54:34"},{"correct_response":"a","task":"test_phase","broad_category":"I","image_png":"I_Andesite_09.png","image_id":9,"category_name":"Andesite","category":1,"distinct_rating":2.49,"distinct_type":"Bottom","item_type":"Foil","rt":1025,"stimulus":"Stimuli_Rocks480/I_Andesite_09.png","response":"l","trial_type":"image-keyboard-response","trial_index":129,"plugin_version":"2.1.0","time_elapsed":260654,"subject_id":"92213","group":"Group1","condition":"1_Rep","full_date":"2026-01-29T21:54:34.099Z","date":"2026-01-29","time":"21:54:34","cor_ans":false},{"trial_type":"html-keyboard-response","rt":null,"stimulus":"<p style=\"color: red; font-size: 50px; font-weight: bold;\">Incorrect</p>","response":null,"trial_index":130,"plugin_version":"2.1.0","time_elapsed":261155,"subject_id":"92213","group":"Group1","condition":"1_Rep","full_date":"2026-01-29T21:54:34.099Z","date":"2026-01-29","time":"21:54:34"},{"correct_response":"a","task":"test_phase","broad_category":"I","image_png":"I_Pumice_14.png","image_id":142,"category_name":"Pumice","category":9,"distinct_rating":3.22,"distinct_type":"Bottom","item_type":"Foil","rt":1179,"stimulus":"Stimuli_Rocks480/I_Pumice_14.png","response":"l","trial_type":"image-keyboard-response","trial_index":131,"plugin_version":"2.1.0","time_elapsed":262336,"subject_id":"92213","group":"Group1","condition":"1_Rep","full_date":"2026-01-29T21:54:34.099Z","date":"2026-01-29","time":"21:54:34","cor_ans":false},{"trial_type":"html-keyboard-response","rt":null,"stimulus":"<p style=\"color: red; font-size: 50px; font-weight: bold;\">Incorrect</p>","response":null,"trial_index":132,"plugin_version":"2.1.0","time_elapsed":262838,"subject_id":"92213","group":"Group1","condition":"1_Rep","full_date":"2026-01-29T21:54:34.099Z","date":"2026-01-29","time":"21:54:34"},{"correct_response":"l","task":"test_phase","broad_category":"I","image_png":"I_Andesite_08.png","image_id":8,"category_name":"Andesite","category":1,"distinct_rating":1.95,"distinct_type":"Bottom","item_type":"Target","rt":1411,"stimulus":"Stimuli_Rocks480/I_Andesite_08.png","response":"a","trial_type":"image-keyboard-response","trial_index":133,"plugin_version":"2.1.0","time_elapsed":264251,"subject_id":"92213","group":"Group1","condition":"1_Rep","full_date":"2026-01-29T21:54:34.099Z","date":"2026-01-29","time":"21:54:34","cor_ans":false},{"trial_type":"html-keyboard-response","rt":null,"stimulus":"<p style=\"color: red; font-size: 50px; font-weight: bold;\">Incorrect</p>","response":null,"trial_index":134,"plugin_version":"2.1.0","time_elapsed":264753,"subject_id":"92213","group":"Group1","condition":"1_Rep","full_date":"2026-01-29T21:54:34.099Z","date":"2026-01-29","time":"21:54:34"},{"correct_response":"a","task":"test_phase","broad_category":"I","image_png":"I_Gabbro_02.png","image_id":50,"category_name":"Gabbro","category":4,"distinct_rating":2.73,"distinct_type":"Bottom","item_type":"Foil","rt":1474,"stimulus":"Stimuli_Rocks480/I_Gabbro_02.png","response":"l","trial_type":"image-keyboard-response","trial_index":135,"plugin_version":"2.1.0","time_elapsed":266229,"subject_id":"92213","group":"Group1","condition":"1_Rep","full_date":"2026-01-29T21:54:34.099Z","date":"2026-01-29","time":"21:54:34","cor_ans":false},{"trial_type":"html-keyboard-response","rt":null,"stimulus":"<p style=\"color: red; font-size: 50px; font-weight: bold;\">Incorrect</p>","response":null,"trial_index":136,"plugin_version":"2.1.0","time_elapsed":266731,"subject_id":"92213","group":"Group1","condition":"1_Rep","full_date":"2026-01-29T21:54:34.099Z","date":"2026-01-29","time":"21:54:34"},{"correct_response":"l","task":"test_phase","broad_category":"M","image_png":"M_Marble_06.png","image_id":230,"category_name":"Marble","category":15,"distinct_rating":3.4,"distinct_type":"Bottom","item_type":"Target","rt":1483,"stimulus":"Stimuli_Rocks480/M_Marble_06.png","response":"l","trial_type":"image-keyboard-response","trial_index":137,"plugin_version":"2.1.0","time_elapsed":268216,"subject_id":"92213","group":"Group1","condition":"1_Rep","full_date":"2026-01-29T21:54:34.099Z","date":"2026-01-29","time":"21:54:34","cor_ans":true},{"trial_type":"html-keyboard-response","rt":null,"stimulus":"<p style=\"color: green; font-size: 50px; font-weight: bold;\">Correct</p>","response":null,"trial_index":138,"plugin_version":"2.1.0","time_elapsed":268718,"subject_id":"92213","group":"Group1","condition":"1_Rep","full_date":"2026-01-29T21:54:34.099Z","date":"2026-01-29","time":"21:54:34"},{"correct_response":"l","task":"test_phase","broad_category":"I","image_png":"I_Rhyolite_16.png","image_id":160,"category_name":"Rhyolite","category":10,"distinct_rating":2.19,"distinct_type":"Bottom","item_type":"Target","rt":1866,"stimulus":"Stimuli_Rocks480/I_Rhyolite_16.png","response":"l","trial_type":"image-keyboard-response","trial_index":139,"plugin_version":"2.1.0","time_elapsed":270587,"subject_id":"92213","group":"Group1","condition":"1_Rep","full_date":"2026-01-29T21:54:34.099Z","date":"2026-01-29","time":"21:54:34","cor_ans":true},{"trial_type":"html-keyboard-response","rt":null,"stimulus":"<p style=\"color: green; font-size: 50px; font-weight: bold;\">Correct</p>","response":null,"trial_index":140,"plugin_version":"2.1.0","time_elapsed":271089,"subject_id":"92213","group":"Group1","condition":"1_Rep","full_date":"2026-01-29T21:54:34.099Z","date":"2026-01-29","time":"21:54:34"},{"correct_response":"a","task":"test_phase","broad_category":"M","image_png":"M_Slate_10.png","image_id":314,"category_name":"Slate","category":20,"distinct_rating":1.94,"distinct_type":"Bottom","item_type":"Foil","rt":596,"stimulus":"Stimuli_Rocks480/M_Slate_10.png","response":"l","trial_type":"image-keyboard-response","trial_index":141,"plugin_version":"2.1.0","time_elapsed":271686,"subject_id":"92213","group":"Group1","condition":"1_Rep","full_date":"2026-01-29T21:54:34.099Z","date":"2026-01-29","time":"21:54:34","cor_ans":false},{"trial_type":"html-keyboard-response","rt":null,"stimulus":"<p style=\"color: red; font-size: 50px; font-weight: bold;\">Incorrect</p>","response":null,"trial_index":142,"plugin_version":"2.1.0","time_elapsed":272188,"subject_id":"92213","group":"Group1","condition":"1_Rep","full_date":"2026-01-29T21:54:34.099Z","date":"2026-01-29","time":"21:54:34"},{"correct_response":"a","task":"test_phase","broad_category":"I","image_png":"I_Obsidian_06.png","image_id":86,"category_name":"Obsidian","category":6,"distinct_rating":8.01,"distinct_type":"Top","item_type":"Foil","rt":2221,"stimulus":"Stimuli_Rocks480/I_Obsidian_06.png","response":"a","trial_type":"image-keyboard-response","trial_index":143,"plugin_version":"2.1.0","time_elapsed":274411,"subject_id":"92213","group":"Group1","condition":"1_Rep","full_date":"2026-01-29T21:54:34.099Z","date":"2026-01-29","time":"21:54:34","cor_ans":true},{"trial_type":"html-keyboard-response","rt":null,"stimulus":"<p style=\"color: green; font-size: 50px; font-weight: bold;\">Correct</p>","response":null,"trial_index":144,"plugin_version":"2.1.0","time_elapsed":274912,"subject_id":"92213","group":"Group1","condition":"1_Rep","full_date":"2026-01-29T21:54:34.099Z","date":"2026-01-29","time":"21:54:34"},{"correct_response":"a","task":"test_phase","broad_category":"M","image_png":"M_Quartzite_12.png","image_id":284,"category_name":"Quartzite","category":18,"distinct_rating":1.92,"distinct_type":"Bottom","item_type":"Foil","rt":1198,"stimulus":"Stimuli_Rocks480/M_Quartzite_12.png","response":"l","trial_type":"image-keyboard-response","trial_index":145,"plugin_version":"2.1.0","time_elapsed":276112,"subject_id":"92213","group":"Group1","condition":"1_Rep","full_date":"2026-01-29T21:54:34.099Z","date":"2026-01-29","time":"21:54:34","cor_ans":false},{"trial_type":"html-keyboard-response","rt":null,"stimulus":"<p style=\"color: red; font-size: 50px; font-weight: bold;\">Incorrect</p>","response":null,"trial_index":146,"plugin_version":"2.1.0","time_elapsed":276613,"subject_id":"92213","group":"Group1","condition":"1_Rep","full_date":"2026-01-29T21:54:34.099Z","date":"2026-01-29","time":"21:54:34"},{"correct_response":"a","task":"test_phase","broad_category":"M","image_png":"M_Gneiss_10.png","image_id":202,"category_name":"Gneiss","category":13,"distinct_rating":3.09,"distinct_type":"Bottom","item_type":"Foil","rt":979,"stimulus":"Stimuli_Rocks480/M_Gneiss_10.png","response":"l","trial_type":"image-keyboard-response","trial_index":147,"plugin_version":"2.1.0","time_elapsed":277593,"subject_id":"92213","group":"Group1","condition":"1_Rep","full_date":"2026-01-29T21:54:34.099Z","date":"2026-01-29","time":"21:54:34","cor_ans":false},{"trial_type":"html-keyboard-response","rt":null,"stimulus":"<p style=\"color: red; font-size: 50px; font-weight: bold;\">Incorrect</p>","response":null,"trial_index":148,"plugin_version":"2.1.0","time_elapsed":278095,"subject_id":"92213","group":"Group1","condition":"1_Rep","full_date":"2026-01-29T21:54:34.099Z","date":"2026-01-29","time":"21:54:34"},{"correct_response":"a","task":"test_phase","broad_category":"I","image_png":"I_Rhyolite_08.png","image_id":152,"category_name":"Rhyolite","category":10,"distinct_rating":1.38,"distinct_type":"Bottom","item_type":"Foil","rt":892,"stimulus":"Stimuli_Rocks480/I_Rhyolite_08.png","response":"l","trial_type":"image-keyboard-response","trial_index":149,"plugin_version":"2.1.0","time_elapsed":278987,"subject_id":"92213","group":"Group1","condition":"1_Rep","full_date":"2026-01-29T21:54:34.099Z","date":"2026-01-29","time":"21:54:34","cor_ans":false},{"trial_type":"html-keyboard-response","rt":null,"stimulus":"<p style=\"color: red; font-size: 50px; font-weight: bold;\">Incorrect</p>","response":null,"trial_index":150,"plugin_version":"2.1.0","time_elapsed":279489,"subject_id":"92213","group":"Group1","condition":"1_Rep","full_date":"2026-01-29T21:54:34.099Z","date":"2026-01-29","time":"21:54:34"},{"correct_response":"l","task":"test_phase","broad_category":"M","image_png":"M_Marble_04.png","image_id":228,"category_name":"Marble","category":15,"distinct_rating":3.15,"distinct_type":"Bottom","item_type":"Target","rt":685,"stimulus":"Stimuli_Rocks480/M_Marble_04.png","response":"l","trial_type":"image-keyboard-response","trial_index":151,"plugin_version":"2.1.0","time_elapsed":280176,"subject_id":"92213","group":"Group1","condition":"1_Rep","full_date":"2026-01-29T21:54:34.099Z","date":"2026-01-29","time":"21:54:34","cor_ans":true},{"trial_type":"html-keyboard-response","rt":null,"stimulus":"<p style=\"color: green; font-size: 50px; font-weight: bold;\">Correct</p>","response":null,"trial_index":152,"plugin_version":"2.1.0","time_elapsed":280677,"subject_id":"92213","group":"Group1","condition":"1_Rep","full_date":"2026-01-29T21:54:34.099Z","date":"2026-01-29","time":"21:54:34"},{"correct_response":"l","task":"test_phase","broad_category":"I","image_png":"I_Pumice_08.png","image_id":136,"category_name":"Pumice","category":9,"distinct_rating":3.1,"distinct_type":"Bottom","item_type":"Target","rt":1748,"stimulus":"Stimuli_Rocks480/I_Pumice_08.png","response":"l","trial_type":"image-keyboard-response","trial_index":153,"plugin_version":"2.1.0","time_elapsed":282428,"subject_id":"92213","group":"Group1","condition":"1_Rep","full_date":"2026-01-29T21:54:34.099Z","date":"2026-01-29","time":"21:54:34","cor_ans":true},{"trial_type":"html-keyboard-response","rt":null,"stimulus":"<p style=\"color: green; font-size: 50px; font-weight: bold;\">Correct</p>","response":null,"trial_index":154,"plugin_version":"2.1.0","time_elapsed":282929,"subject_id":"92213","group":"Group1","condition":"1_Rep","full_date":"2026-01-29T21:54:34.099Z","date":"2026-01-29","time":"21:54:34"},{"correct_response":"a","task":"test_phase","broad_category":"M","image_png":"M_Phyllite_05.png","image_id":261,"category_name":"Phyllite","category":17,"distinct_rating":2.14,"distinct_type":"Bottom","item_type":"Foil","rt":1471,"stimulus":"Stimuli_Rocks480/M_Phyllite_05.png","response":"l","trial_type":"image-keyboard-response","trial_index":155,"plugin_version":"2.1.0","time_elapsed":284402,"subject_id":"92213","group":"Group1","condition":"1_Rep","full_date":"2026-01-29T21:54:34.099Z","date":"2026-01-29","time":"21:54:34","cor_ans":false},{"trial_type":"html-keyboard-response","rt":null,"stimulus":"<p style=\"color: red; font-size: 50px; font-weight: bold;\">Incorrect</p>","response":null,"trial_index":156,"plugin_version":"2.1.0","time_elapsed":284903,"subject_id":"92213","group":"Group1","condition":"1_Rep","full_date":"2026-01-29T21:54:34.099Z","date":"2026-01-29","time":"21:54:34"},{"correct_response":"l","task":"test_phase","broad_category":"I","image_png":"I_Gabbro_08.png","image_id":56,"category_name":"Gabbro","category":4,"distinct_rating":3.02,"distinct_type":"Bottom","item_type":"Target","rt":1954,"stimulus":"Stimuli_Rocks480/I_Gabbro_08.png","response":"l","trial_type":"image-keyboard-response","trial_index":157,"plugin_version":"2.1.0","time_elapsed":286859,"subject_id":"92213","group":"Group1","condition":"1_Rep","full_date":"2026-01-29T21:54:34.099Z","date":"2026-01-29","time":"21:54:34","cor_ans":true},{"trial_type":"html-keyboard-response","rt":null,"stimulus":"<p style=\"color: green; font-size: 50px; font-weight: bold;\">Correct</p>","response":null,"trial_index":158,"plugin_version":"2.1.0","time_elapsed":287361,"subject_id":"92213","group":"Group1","condition":"1_Rep","full_date":"2026-01-29T21:54:34.099Z","date":"2026-01-29","time":"21:54:34"},{"correct_response":"l","task":"test_phase","broad_category":"M","image_png":"M_Phyllite_10.png","image_id":266,"category_name":"Phyllite","category":17,"distinct_rating":2.6,"distinct_type":"Bottom","item_type":"Target","rt":757,"stimulus":"Stimuli_Rocks480/M_Phyllite_10.png","response":"a","trial_type":"image-keyboard-response","trial_index":159,"plugin_version":"2.1.0","time_elapsed":288119,"subject_id":"92213","group":"Group1","condition":"1_Rep","full_date":"2026-01-29T21:54:34.099Z","date":"2026-01-29","time":"21:54:34","cor_ans":false},{"trial_type":"html-keyboard-response","rt":null,"stimulus":"<p style=\"color: red; font-size: 50px; font-weight: bold;\">Incorrect</p>","response":null,"trial_index":160,"plugin_version":"2.1.0","time_elapsed":288620,"subject_id":"92213","group":"Group1","condition":"1_Rep","full_date":"2026-01-29T21:54:34.099Z","date":"2026-01-29","time":"21:54:34"},{"correct_response":"l","task":"test_phase","broad_category":"S","image_png":"S_Conglomerate_05.png","image_id":373,"category_name":"Conglomerate","category":24,"distinct_rating":7.32,"distinct_type":"Top","item_type":"Target","rt":804,"stimulus":"Stimuli_Rocks480/S_Conglomerate_05.png","response":"l","trial_type":"image-keyboard-response","trial_index":161,"plugin_version":"2.1.0","time_elapsed":289425,"subject_id":"92213","group":"Group1","condition":"1_Rep","full_date":"2026-01-29T21:54:34.099Z","date":"2026-01-29","time":"21:54:34","cor_ans":true},{"trial_type":"html-keyboard-response","rt":null,"stimulus":"<p style=\"color: green; font-size: 50px; font-weight: bold;\">Correct</p>","response":null,"trial_index":162,"plugin_version":"2.1.0","time_elapsed":289927,"subject_id":"92213","group":"Group1","condition":"1_Rep","full_date":"2026-01-29T21:54:34.099Z","date":"2026-01-29","time":"21:54:34"},{"correct_response":"l","task":"test_phase","broad_category":"I","image_png":"I_Andesite_06.png","image_id":6,"category_name":"Andesite","category":1,"distinct_rating":3.17,"distinct_type":"Bottom","item_type":"Target","rt":737,"stimulus":"Stimuli_Rocks480/I_Andesite_06.png","response":"l","trial_type":"image-keyboard-response","trial_index":163,"plugin_version":"2.1.0","time_elapsed":290666,"subject_id":"92213","group":"Group1","condition":"1_Rep","full_date":"2026-01-29T21:54:34.099Z","date":"2026-01-29","time":"21:54:34","cor_ans":true},{"trial_type":"html-keyboard-response","rt":null,"stimulus":"<p style=\"color: green; font-size: 50px; font-weight: bold;\">Correct</p>","response":null,"trial_index":164,"plugin_version":"2.1.0","time_elapsed":291167,"subject_id":"92213","group":"Group1","condition":"1_Rep","full_date":"2026-01-29T21:54:34.099Z","date":"2026-01-29","time":"21:54:34"},{"correct_response":"l","task":"test_phase","broad_category":"I","image_png":"I_Basalt_01.png","image_id":17,"category_name":"Basalt","category":2,"distinct_rating":1.92,"distinct_type":"Bottom","item_type":"Target","rt":619,"stimulus":"Stimuli_Rocks480/I_Basalt_01.png","response":"l","trial_type":"image-keyboard-response","trial_index":165,"plugin_version":"2.1.0","time_elapsed":291788,"subject_id":"92213","group":"Group1","condition":"1_Rep","full_date":"2026-01-29T21:54:34.099Z","date":"2026-01-29","time":"21:54:34","cor_ans":true},{"trial_type":"html-keyboard-response","rt":null,"stimulus":"<p style=\"color: green; font-size: 50px; font-weight: bold;\">Correct</p>","response":null,"trial_index":166,"plugin_version":"2.1.0","time_elapsed":292290,"subject_id":"92213","group":"Group1","condition":"1_Rep","full_date":"2026-01-29T21:54:34.099Z","date":"2026-01-29","time":"21:54:34"},{"correct_response":"a","task":"test_phase","broad_category":"S","image_png":"S_Shale_03.png","image_id":467,"category_name":"Shale","category":30,"distinct_rating":1.95,"distinct_type":"Bottom","item_type":"Foil","rt":741,"stimulus":"Stimuli_Rocks480/S_Shale_03.png","response":"l","trial_type":"image-keyboard-response","trial_index":167,"plugin_version":"2.1.0","time_elapsed":293032,"subject_id":"92213","group":"Group1","condition":"1_Rep","full_date":"2026-01-29T21:54:34.099Z","date":"2026-01-29","time":"21:54:34","cor_ans":false},{"trial_type":"html-keyboard-response","rt":null,"stimulus":"<p style=\"color: red; font-size: 50px; font-weight: bold;\">Incorrect</p>","response":null,"trial_index":168,"plugin_version":"2.1.0","time_elapsed":293533,"subject_id":"92213","group":"Group1","condition":"1_Rep","full_date":"2026-01-29T21:54:34.099Z","date":"2026-01-29","time":"21:54:34"},{"correct_response":"a","task":"test_phase","broad_category":"S","image_png":"S_Rock Salt_15.png","image_id":447,"category_name":"Rock Salt","category":28,"distinct_rating":7.79,"distinct_type":"Top","item_type":"Foil","rt":1421,"stimulus":"Stimuli_Rocks480/S_Rock Salt_15.png","response":"a","trial_type":"image-keyboard-response","trial_index":169,"plugin_version":"2.1.0","time_elapsed":294956,"subject_id":"92213","group":"Group1","condition":"1_Rep","full_date":"2026-01-29T21:54:34.099Z","date":"2026-01-29","time":"21:54:34","cor_ans":true},{"trial_type":"html-keyboard-response","rt":null,"stimulus":"<p style=\"color: green; font-size: 50px; font-weight: bold;\">Correct</p>","response":null,"trial_index":170,"plugin_version":"2.1.0","time_elapsed":295458,"subject_id":"92213","group":"Group1","condition":"1_Rep","full_date":"2026-01-29T21:54:34.099Z","date":"2026-01-29","time":"21:54:34"},{"correct_response":"l","task":"test_phase","broad_category":"S","image_png":"S_Dolomite_13.png","image_id":397,"category_name":"Dolomite","category":25,"distinct_rating":1.77,"distinct_type":"Bottom","item_type":"Target","rt":867,"stimulus":"Stimuli_Rocks480/S_Dolomite_13.png","response":"l","trial_type":"image-keyboard-response","trial_index":171,"plugin_version":"2.1.0","time_elapsed":296327,"subject_id":"92213","group":"Group1","condition":"1_Rep","full_date":"2026-01-29T21:54:34.099Z","date":"2026-01-29","time":"21:54:34","cor_ans":true},{"trial_type":"html-keyboard-response","rt":null,"stimulus":"<p style=\"color: green; font-size: 50px; font-weight: bold;\">Correct</p>","response":null,"trial_index":172,"plugin_version":"2.1.0","time_elapsed":296828,"subject_id":"92213","group":"Group1","condition":"1_Rep","full_date":"2026-01-29T21:54:34.099Z","date":"2026-01-29","time":"21:54:34"},{"correct_response":"l","task":"test_phase","broad_category":"S","image_png":"S_Shale_12.png","image_id":476,"category_name":"Shale","category":30,"distinct_rating":2.48,"distinct_type":"Bottom","item_type":"Target","rt":1147,"stimulus":"Stimuli_Rocks480/S_Shale_12.png","response":"l","trial_type":"image-keyboard-response","trial_index":173,"plugin_version":"2.1.0","time_elapsed":297977,"subject_id":"92213","group":"Group1","condition":"1_Rep","full_date":"2026-01-29T21:54:34.099Z","date":"2026-01-29","time":"21:54:34","cor_ans":true},{"trial_type":"html-keyboard-response","rt":null,"stimulus":"<p style=\"color: green; font-size: 50px; font-weight: bold;\">Correct</p>","response":null,"trial_index":174,"plugin_version":"2.1.0","time_elapsed":298478,"subject_id":"92213","group":"Group1","condition":"1_Rep","full_date":"2026-01-29T21:54:34.099Z","date":"2026-01-29","time":"21:54:34"},{"correct_response":"l","task":"test_phase","broad_category":"S","image_png":"S_Dolomite_12.png","image_id":396,"category_name":"Dolomite","category":25,"distinct_rating":1.85,"distinct_type":"Bottom","item_type":"Target","rt":675,"stimulus":"Stimuli_Rocks480/S_Dolomite_12.png","response":"l","trial_type":"image-keyboard-response","trial_index":175,"plugin_version":"2.1.0","time_elapsed":299155,"subject_id":"92213","group":"Group1","condition":"1_Rep","full_date":"2026-01-29T21:54:34.099Z","date":"2026-01-29","time":"21:54:34","cor_ans":true},{"trial_type":"html-keyboard-response","rt":null,"stimulus":"<p style=\"color: green; font-size: 50px; font-weight: bold;\">Correct</p>","response":null,"trial_index":176,"plugin_version":"2.1.0","time_elapsed":299657,"subject_id":"92213","group":"Group1","condition":"1_Rep","full_date":"2026-01-29T21:54:34.099Z","date":"2026-01-29","time":"21:54:34"},{"correct_response":"a","task":"test_phase","broad_category":"S","image_png":"S_Sandstone_04.png","image_id":452,"category_name":"Sandstone","category":29,"distinct_rating":1.8,"distinct_type":"Bottom","item_type":"Foil","rt":607,"stimulus":"Stimuli_Rocks480/S_Sandstone_04.png","response":"a","trial_type":"image-keyboard-response","trial_index":177,"plugin_version":"2.1.0","time_elapsed":300265,"subject_id":"92213","group":"Group1","condition":"1_Rep","full_date":"2026-01-29T21:54:34.099Z","date":"2026-01-29","time":"21:54:34","cor_ans":true},{"trial_type":"html-keyboard-response","rt":null,"stimulus":"<p style=\"color: green; font-size: 50px; font-weight: bold;\">Correct</p>","response":null,"trial_index":178,"plugin_version":"2.1.0","time_elapsed":300766,"subject_id":"92213","group":"Group1","condition":"1_Rep","full_date":"2026-01-29T21:54:34.099Z","date":"2026-01-29","time":"21:54:34"},{"correct_response":"a","task":"test_phase","broad_category":"M","image_png":"M_Slate_04.png","image_id":308,"category_name":"Slate","category":20,"distinct_rating":2.2,"distinct_type":"Bottom","item_type":"Foil","rt":1017,"stimulus":"Stimuli_Rocks480/M_Slate_04.png","response":"l","trial_type":"image-keyboard-response","trial_index":179,"plugin_version":"2.1.0","time_elapsed":301786,"subject_id":"92213","group":"Group1","condition":"1_Rep","full_date":"2026-01-29T21:54:34.099Z","date":"2026-01-29","time":"21:54:34","cor_ans":false},{"trial_type":"html-keyboard-response","rt":null,"stimulus":"<p style=\"color: red; font-size: 50px; font-weight: bold;\">Incorrect</p>","response":null,"trial_index":180,"plugin_version":"2.1.0","time_elapsed":302287,"subject_id":"92213","group":"Group1","condition":"1_Rep","full_date":"2026-01-29T21:54:34.099Z","date":"2026-01-29","time":"21:54:34"},{"correct_response":"l","task":"test_phase","broad_category":"M","image_png":"M_Quartzite_08.png","image_id":280,"category_name":"Quartzite","category":18,"distinct_rating":2.15,"distinct_type":"Bottom","item_type":"Target","rt":1069,"stimulus":"Stimuli_Rocks480/M_Quartzite_08.png","response":"l","trial_type":"image-keyboard-response","trial_index":181,"plugin_version":"2.1.0","time_elapsed":303358,"subject_id":"92213","group":"Group1","condition":"1_Rep","full_date":"2026-01-29T21:54:34.099Z","date":"2026-01-29","time":"21:54:34","cor_ans":true},{"trial_type":"html-keyboard-response","rt":null,"stimulus":"<p style=\"color: green; font-size: 50px; font-weight: bold;\">Correct</p>","response":null,"trial_index":182,"plugin_version":"2.1.0","time_elapsed":303859,"subject_id":"92213","group":"Group1","condition":"1_Rep","full_date":"2026-01-29T21:54:34.099Z","date":"2026-01-29","time":"21:54:34"},{"correct_response":"l","task":"test_phase","broad_category":"I","image_png":"I_Obsidian_05.png","image_id":85,"category_name":"Obsidian","category":6,"distinct_rating":7.32,"distinct_type":"Top","item_type":"Target","rt":683,"stimulus":"Stimuli_Rocks480/I_Obsidian_05.png","response":"l","trial_type":"image-keyboard-response","trial_index":183,"plugin_version":"2.1.0","time_elapsed":304544,"subject_id":"92213","group":"Group1","condition":"1_Rep","full_date":"2026-01-29T21:54:34.099Z","date":"2026-01-29","time":"21:54:34","cor_ans":true},{"trial_type":"html-keyboard-response","rt":null,"stimulus":"<p style=\"color: green; font-size: 50px; font-weight: bold;\">Correct</p>","response":null,"trial_index":184,"plugin_version":"2.1.0","time_elapsed":305046,"subject_id":"92213","group":"Group1","condition":"1_Rep","full_date":"2026-01-29T21:54:34.099Z","date":"2026-01-29","time":"21:54:34"},{"correct_response":"a","task":"test_phase","broad_category":"M","image_png":"M_Gneiss_14.png","image_id":206,"category_name":"Gneiss","category":13,"distinct_rating":3.41,"distinct_type":"Bottom","item_type":"Foil","rt":615,"stimulus":"Stimuli_Rocks480/M_Gneiss_14.png","response":"l","trial_type":"image-keyboard-response","trial_index":185,"plugin_version":"2.1.0","time_elapsed":305662,"subject_id":"92213","group":"Group1","condition":"1_Rep","full_date":"2026-01-29T21:54:34.099Z","date":"2026-01-29","time":"21:54:34","cor_ans":false},{"trial_type":"html-keyboard-response","rt":null,"stimulus":"<p style=\"color: red; font-size: 50px; font-weight: bold;\">Incorrect</p>","response":null,"trial_index":186,"plugin_version":"2.1.0","time_elapsed":306163,"subject_id":"92213","group":"Group1","condition":"1_Rep","full_date":"2026-01-29T21:54:34.099Z","date":"2026-01-29","time":"21:54:34"},{"correct_response":"a","task":"test_phase","broad_category":"I","image_png":"I_Diorite_01.png","image_id":33,"category_name":"Diorite","category":3,"distinct_rating":2.97,"distinct_type":"Bottom","item_type":"Foil","rt":889,"stimulus":"Stimuli_Rocks480/I_Diorite_01.png","response":"l","trial_type":"image-keyboard-response","trial_index":187,"plugin_version":"2.1.0","time_elapsed":307055,"subject_id":"92213","group":"Group1","condition":"1_Rep","full_date":"2026-01-29T21:54:34.099Z","date":"2026-01-29","time":"21:54:34","cor_ans":false},{"trial_type":"html-keyboard-response","rt":null,"stimulus":"<p style=\"color: red; font-size: 50px; font-weight: bold;\">Incorrect</p>","response":null,"trial_index":188,"plugin_version":"2.1.0","time_elapsed":307555,"subject_id":"92213","group":"Group1","condition":"1_Rep","full_date":"2026-01-29T21:54:34.099Z","date":"2026-01-29","time":"21:54:34"},{"correct_response":"a","task":"test_phase","broad_category":"S","image_png":"S_Chert_13.png","image_id":365,"category_name":"Chert","category":23,"distinct_rating":6.57,"distinct_type":"Top","item_type":"Foil","rt":740,"stimulus":"Stimuli_Rocks480/S_Chert_13.png","response":"a","trial_type":"image-keyboard-response","trial_index":189,"plugin_version":"2.1.0","time_elapsed":308297,"subject_id":"92213","group":"Group1","condition":"1_Rep","full_date":"2026-01-29T21:54:34.099Z","date":"2026-01-29","time":"21:54:34","cor_ans":true},{"trial_type":"html-keyboard-response","rt":null,"stimulus":"<p style=\"color: green; font-size: 50px; font-weight: bold;\">Correct</p>","response":null,"trial_index":190,"plugin_version":"2.1.0","time_elapsed":308799,"subject_id":"92213","group":"Group1","condition":"1_Rep","full_date":"2026-01-29T21:54:34.099Z","date":"2026-01-29","time":"21:54:34"},{"correct_response":"a","task":"test_phase","broad_category":"S","image_png":"S_Rock Salt_13.png","image_id":445,"category_name":"Rock Salt","category":28,"distinct_rating":7.58,"distinct_type":"Top","item_type":"Foil","rt":1034,"stimulus":"Stimuli_Rocks480/S_Rock Salt_13.png","response":"a","trial_type":"image-keyboard-response","trial_index":191,"plugin_version":"2.1.0","time_elapsed":309835,"subject_id":"92213","group":"Group1","condition":"1_Rep","full_date":"2026-01-29T21:54:34.099Z","date":"2026-01-29","time":"21:54:34","cor_ans":true},{"trial_type":"html-keyboard-response","rt":null,"stimulus":"<p style=\"color: green; font-size: 50px; font-weight: bold;\">Correct</p>","response":null,"trial_index":192,"plugin_version":"2.1.0","time_elapsed":310337,"subject_id":"92213","group":"Group1","condition":"1_Rep","full_date":"2026-01-29T21:54:34.099Z","date":"2026-01-29","time":"21:54:34"},{"correct_response":"a","task":"test_phase","broad_category":"S","image_png":"S_Dolomite_01.png","image_id":385,"category_name":"Dolomite","category":25,"distinct_rating":1.43,"distinct_type":"Bottom","item_type":"Foil","rt":760,"stimulus":"Stimuli_Rocks480/S_Dolomite_01.png","response":"l","trial_type":"image-keyboard-response","trial_index":193,"plugin_version":"2.1.0","time_elapsed":311099,"subject_id":"92213","group":"Group1","condition":"1_Rep","full_date":"2026-01-29T21:54:34.099Z","date":"2026-01-29","time":"21:54:34","cor_ans":false},{"trial_type":"html-keyboard-response","rt":null,"stimulus":"<p style=\"color: red; font-size: 50px; font-weight: bold;\">Incorrect</p>","response":null,"trial_index":194,"plugin_version":"2.1.0","time_elapsed":311600,"subject_id":"92213","group":"Group1","condition":"1_Rep","full_date":"2026-01-29T21:54:34.099Z","date":"2026-01-29","time":"21:54:34"},{"correct_response":"a","task":"test_phase","broad_category":"M","image_png":"M_Quartzite_15.png","image_id":287,"category_name":"Quartzite","category":18,"distinct_rating":2.19,"distinct_type":"Bottom","item_type":"Foil","rt":826,"stimulus":"Stimuli_Rocks480/M_Quartzite_15.png","response":"l","trial_type":"image-keyboard-response","trial_index":195,"plugin_version":"2.1.0","time_elapsed":312428,"subject_id":"92213","group":"Group1","condition":"1_Rep","full_date":"2026-01-29T21:54:34.099Z","date":"2026-01-29","time":"21:54:34","cor_ans":false},{"trial_type":"html-keyboard-response","rt":null,"stimulus":"<p style=\"color: red; font-size: 50px; font-weight: bold;\">Incorrect</p>","response":null,"trial_index":196,"plugin_version":"2.1.0","time_elapsed":312929,"subject_id":"92213","group":"Group1","condition":"1_Rep","full_date":"2026-01-29T21:54:34.099Z","date":"2026-01-29","time":"21:54:34"},{"correct_response":"a","task":"test_phase","broad_category":"M","image_png":"M_Phyllite_02.png","image_id":258,"category_name":"Phyllite","category":17,"distinct_rating":2.89,"distinct_type":"Bottom","item_type":"Foil","rt":1220,"stimulus":"Stimuli_Rocks480/M_Phyllite_02.png","response":"l","trial_type":"image-keyboard-response","trial_index":197,"plugin_version":"2.1.0","time_elapsed":314151,"subject_id":"92213","group":"Group1","condition":"1_Rep","full_date":"2026-01-29T21:54:34.099Z","date":"2026-01-29","time":"21:54:34","cor_ans":false},{"trial_type":"html-keyboard-response","rt":null,"stimulus":"<p style=\"color: red; font-size: 50px; font-weight: bold;\">Incorrect</p>","response":null,"trial_index":198,"plugin_version":"2.1.0","time_elapsed":314652,"subject_id":"92213","group":"Group1","condition":"1_Rep","full_date":"2026-01-29T21:54:34.099Z","date":"2026-01-29","time":"21:54:34"},{"correct_response":"l","task":"test_phase","broad_category":"M","image_png":"M_Phyllite_07.png","image_id":263,"category_name":"Phyllite","category":17,"distinct_rating":2.59,"distinct_type":"Bottom","item_type":"Target","rt":780,"stimulus":"Stimuli_Rocks480/M_Phyllite_07.png","response":"l","trial_type":"image-keyboard-response","trial_index":199,"plugin_version":"2.1.0","time_elapsed":315434,"subject_id":"92213","group":"Group1","condition":"1_Rep","full_date":"2026-01-29T21:54:34.099Z","date":"2026-01-29","time":"21:54:34","cor_ans":true},{"trial_type":"html-keyboard-response","rt":null,"stimulus":"<p style=\"color: green; font-size: 50px; font-weight: bold;\">Correct</p>","response":null,"trial_index":200,"plugin_version":"2.1.0","time_elapsed":315935,"subject_id":"92213","group":"Group1","condition":"1_Rep","full_date":"2026-01-29T21:54:34.099Z","date":"2026-01-29","time":"21:54:34"},{"correct_response":"l","task":"test_phase","broad_category":"I","image_png":"I_Gabbro_11.png","image_id":59,"category_name":"Gabbro","category":4,"distinct_rating":1.99,"distinct_type":"Bottom","item_type":"Target","rt":844,"stimulus":"Stimuli_Rocks480/I_Gabbro_11.png","response":"a","trial_type":"image-keyboard-response","trial_index":201,"plugin_version":"2.1.0","time_elapsed":316781,"subject_id":"92213","group":"Group1","condition":"1_Rep","full_date":"2026-01-29T21:54:34.099Z","date":"2026-01-29","time":"21:54:34","cor_ans":false},{"trial_type":"html-keyboard-response","rt":null,"stimulus":"<p style=\"color: red; font-size: 50px; font-weight: bold;\">Incorrect</p>","response":null,"trial_index":202,"plugin_version":"2.1.0","time_elapsed":317283,"subject_id":"92213","group":"Group1","condition":"1_Rep","full_date":"2026-01-29T21:54:34.099Z","date":"2026-01-29","time":"21:54:34"},{"correct_response":"a","task":"test_phase","broad_category":"I","image_png":"I_Peridotite_13.png","image_id":125,"category_name":"Peridotite","category":8,"distinct_rating":7.28,"distinct_type":"Top","item_type":"Foil","rt":714,"stimulus":"Stimuli_Rocks480/I_Peridotite_13.png","response":"l","trial_type":"image-keyboard-response","trial_index":203,"plugin_version":"2.1.0","time_elapsed":317999,"subject_id":"92213","group":"Group1","condition":"1_Rep","full_date":"2026-01-29T21:54:34.099Z","date":"2026-01-29","time":"21:54:34","cor_ans":false},{"trial_type":"html-keyboard-response","rt":null,"stimulus":"<p style=\"color: red; font-size: 50px; font-weight: bold;\">Incorrect</p>","response":null,"trial_index":204,"plugin_version":"2.1.0","time_elapsed":318500,"subject_id":"92213","group":"Group1","condition":"1_Rep","full_date":"2026-01-29T21:54:34.099Z","date":"2026-01-29","time":"21:54:34"},{"correct_response":"a","task":"test_phase","broad_category":"I","image_png":"I_Rhyolite_10.png","image_id":154,"category_name":"Rhyolite","category":10,"distinct_rating":2.88,"distinct_type":"Bottom","item_type":"Foil","rt":1110,"stimulus":"Stimuli_Rocks480/I_Rhyolite_10.png","response":"l","trial_type":"image-keyboard-response","trial_index":205,"plugin_version":"2.1.0","time_elapsed":319612,"subject_id":"92213","group":"Group1","condition":"1_Rep","full_date":"2026-01-29T21:54:34.099Z","date":"2026-01-29","time":"21:54:34","cor_ans":false},{"trial_type":"html-keyboard-response","rt":null,"stimulus":"<p style=\"color: red; font-size: 50px; font-weight: bold;\">Incorrect</p>","response":null,"trial_index":206,"plugin_version":"2.1.0","time_elapsed":320114,"subject_id":"92213","group":"Group1","condition":"1_Rep","full_date":"2026-01-29T21:54:34.099Z","date":"2026-01-29","time":"21:54:34"},{"correct_response":"l","task":"test_phase","broad_category":"S","image_png":"S_Shale_08.png","image_id":472,"category_name":"Shale","category":30,"distinct_rating":2.55,"distinct_type":"Bottom","item_type":"Target","rt":1001,"stimulus":"Stimuli_Rocks480/S_Shale_08.png","response":"a","trial_type":"image-keyboard-response","trial_index":207,"plugin_version":"2.1.0","time_elapsed":321117,"subject_id":"92213","group":"Group1","condition":"1_Rep","full_date":"2026-01-29T21:54:34.099Z","date":"2026-01-29","time":"21:54:34","cor_ans":false},{"trial_type":"html-keyboard-response","rt":null,"stimulus":"<p style=\"color: red; font-size: 50px; font-weight: bold;\">Incorrect</p>","response":null,"trial_index":208,"plugin_version":"2.1.0","time_elapsed":321619,"subject_id":"92213","group":"Group1","condition":"1_Rep","full_date":"2026-01-29T21:54:34.099Z","date":"2026-01-29","time":"21:54:34"},{"correct_response":"a","task":"test_phase","broad_category":"M","image_png":"M_Slate_14.png","image_id":318,"category_name":"Slate","category":20,"distinct_rating":2.58,"distinct_type":"Bottom","item_type":"Foil","rt":1094,"stimulus":"Stimuli_Rocks480/M_Slate_14.png","response":"l","trial_type":"image-keyboard-response","trial_index":209,"plugin_version":"2.1.0","time_elapsed":322715,"subject_id":"92213","group":"Group1","condition":"1_Rep","full_date":"2026-01-29T21:54:34.099Z","date":"2026-01-29","time":"21:54:34","cor_ans":false},{"trial_type":"html-keyboard-response","rt":null,"stimulus":"<p style=\"color: red; font-size: 50px; font-weight: bold;\">Incorrect</p>","response":null,"trial_index":210,"plugin_version":"2.1.0","time_elapsed":323217,"subject_id":"92213","group":"Group1","condition":"1_Rep","full_date":"2026-01-29T21:54:34.099Z","date":"2026-01-29","time":"21:54:34"},{"correct_response":"a","task":"test_phase","broad_category":"I","image_png":"I_Basalt_13.png","image_id":29,"category_name":"Basalt","category":2,"distinct_rating":2.68,"distinct_type":"Bottom","item_type":"Foil","rt":1082,"stimulus":"Stimuli_Rocks480/I_Basalt_13.png","response":"a","trial_type":"image-keyboard-response","trial_index":211,"plugin_version":"2.1.0","time_elapsed":324302,"subject_id":"92213","group":"Group1","condition":"1_Rep","full_date":"2026-01-29T21:54:34.099Z","date":"2026-01-29","time":"21:54:34","cor_ans":true},{"trial_type":"html-keyboard-response","rt":null,"stimulus":"<p style=\"color: green; font-size: 50px; font-weight: bold;\">Correct</p>","response":null,"trial_index":212,"plugin_version":"2.1.0","time_elapsed":324803,"subject_id":"92213","group":"Group1","condition":"1_Rep","full_date":"2026-01-29T21:54:34.099Z","date":"2026-01-29","time":"21:54:34"},{"correct_response":"a","task":"test_phase","broad_category":"I","image_png":"I_Basalt_08.png","image_id":24,"category_name":"Basalt","category":2,"distinct_rating":2.31,"distinct_type":"Bottom","item_type":"Foil","rt":988,"stimulus":"Stimuli_Rocks480/I_Basalt_08.png","response":"a","trial_type":"image-keyboard-response","trial_index":213,"plugin_version":"2.1.0","time_elapsed":325793,"subject_id":"92213","group":"Group1","condition":"1_Rep","full_date":"2026-01-29T21:54:34.099Z","date":"2026-01-29","time":"21:54:34","cor_ans":true},{"trial_type":"html-keyboard-response","rt":null,"stimulus":"<p style=\"color: green; font-size: 50px; font-weight: bold;\">Correct</p>","response":null,"trial_index":214,"plugin_version":"2.1.0","time_elapsed":326294,"subject_id":"92213","group":"Group1","condition":"1_Rep","full_date":"2026-01-29T21:54:34.099Z","date":"2026-01-29","time":"21:54:34"},{"correct_response":"a","task":"test_phase","broad_category":"I","image_png":"I_Gabbro_14.png","image_id":62,"category_name":"Gabbro","category":4,"distinct_rating":2.95,"distinct_type":"Bottom","item_type":"Foil","rt":1121,"stimulus":"Stimuli_Rocks480/I_Gabbro_14.png","response":"l","trial_type":"image-keyboard-response","trial_index":215,"plugin_version":"2.1.0","time_elapsed":327417,"subject_id":"92213","group":"Group1","condition":"1_Rep","full_date":"2026-01-29T21:54:34.099Z","date":"2026-01-29","time":"21:54:34","cor_ans":false},{"trial_type":"html-keyboard-response","rt":null,"stimulus":"<p style=\"color: red; font-size: 50px; font-weight: bold;\">Incorrect</p>","response":null,"trial_index":216,"plugin_version":"2.1.0","time_elapsed":327918,"subject_id":"92213","group":"Group1","condition":"1_Rep","full_date":"2026-01-29T21:54:34.099Z","date":"2026-01-29","time":"21:54:34"},{"correct_response":"a","task":"test_phase","broad_category":"M","image_png":"M_Marble_14.png","image_id":238,"category_name":"Marble","category":15,"distinct_rating":3.31,"distinct_type":"Bottom","item_type":"Foil","rt":817,"stimulus":"Stimuli_Rocks480/M_Marble_14.png","response":"a","trial_type":"image-keyboard-response","trial_index":217,"plugin_version":"2.1.0","time_elapsed":328738,"subject_id":"92213","group":"Group1","condition":"1_Rep","full_date":"2026-01-29T21:54:34.099Z","date":"2026-01-29","time":"21:54:34","cor_ans":true},{"trial_type":"html-keyboard-response","rt":null,"stimulus":"<p style=\"color: green; font-size: 50px; font-weight: bold;\">Correct</p>","response":null,"trial_index":218,"plugin_version":"2.1.0","time_elapsed":329239,"subject_id":"92213","group":"Group1","condition":"1_Rep","full_date":"2026-01-29T21:54:34.099Z","date":"2026-01-29","time":"21:54:34"},{"correct_response":"a","task":"test_phase","broad_category":"M","image_png":"M_Marble_02.png","image_id":226,"category_name":"Marble","category":15,"distinct_rating":3.2,"distinct_type":"Bottom","item_type":"Foil","rt":1074,"stimulus":"Stimuli_Rocks480/M_Marble_02.png","response":"a","trial_type":"image-keyboard-response","trial_index":219,"plugin_version":"2.1.0","time_elapsed":330315,"subject_id":"92213","group":"Group1","condition":"1_Rep","full_date":"2026-01-29T21:54:34.099Z","date":"2026-01-29","time":"21:54:34","cor_ans":true},{"trial_type":"html-keyboard-response","rt":null,"stimulus":"<p style=\"color: green; font-size: 50px; font-weight: bold;\">Correct</p>","response":null,"trial_index":220,"plugin_version":"2.1.0","time_elapsed":330816,"subject_id":"92213","group":"Group1","condition":"1_Rep","full_date":"2026-01-29T21:54:34.099Z","date":"2026-01-29","time":"21:54:34"},{"correct_response":"l","task":"test_phase","broad_category":"I","image_png":"I_Diorite_04.png","image_id":36,"category_name":"Diorite","category":3,"distinct_rating":2.98,"distinct_type":"Bottom","item_type":"Target","rt":740,"stimulus":"Stimuli_Rocks480/I_Diorite_04.png","response":"l","trial_type":"image-keyboard-response","trial_index":221,"plugin_version":"2.1.0","time_elapsed":331558,"subject_id":"92213","group":"Group1","condition":"1_Rep","full_date":"2026-01-29T21:54:34.099Z","date":"2026-01-29","time":"21:54:34","cor_ans":true},{"trial_type":"html-keyboard-response","rt":null,"stimulus":"<p style=\"color: green; font-size: 50px; font-weight: bold;\">Correct</p>","response":null,"trial_index":222,"plugin_version":"2.1.0","time_elapsed":332060,"subject_id":"92213","group":"Group1","condition":"1_Rep","full_date":"2026-01-29T21:54:34.099Z","date":"2026-01-29","time":"21:54:34"},{"correct_response":"l","task":"test_phase","broad_category":"I","image_png":"I_Pumice_12.png","image_id":140,"category_name":"Pumice","category":9,"distinct_rating":2.97,"distinct_type":"Bottom","item_type":"Target","rt":888,"stimulus":"Stimuli_Rocks480/I_Pumice_12.png","response":"a","trial_type":"image-keyboard-response","trial_index":223,"plugin_version":"2.1.0","time_elapsed":332950,"subject_id":"92213","group":"Group1","condition":"1_Rep","full_date":"2026-01-29T21:54:34.099Z","date":"2026-01-29","time":"21:54:34","cor_ans":false},{"trial_type":"html-keyboard-response","rt":null,"stimulus":"<p style=\"color: red; font-size: 50px; font-weight: bold;\">Incorrect</p>","response":null,"trial_index":224,"plugin_version":"2.1.0","time_elapsed":333451,"subject_id":"92213","group":"Group1","condition":"1_Rep","full_date":"2026-01-29T21:54:34.099Z","date":"2026-01-29","time":"21:54:34"},{"correct_response":"a","task":"test_phase","broad_category":"S","image_png":"S_C