[{"width":1180,"height":713,"webaudio":true,"browser":"safari","browser_version":"18.6.0","mobile":false,"os":"Mac OS","fullscreen":true,"vsync_rate":60.06,"webcam":true,"microphone":true,"trial_type":"browser-check","trial_index":0,"plugin_version":"2.1.0","time_elapsed":1008,"subject_id":"90850","group":"Group2","condition":"1_Rep","full_date":"2026-02-01T00:24:59.500Z","date":"2026-02-01","time":"00:24:59"},{"success":true,"timeout":false,"failed_images":[],"failed_audio":[],"failed_video":[],"trial_type":"preload","trial_index":1,"plugin_version":"2.1.0","time_elapsed":121820,"subject_id":"90850","group":"Group2","condition":"1_Rep","full_date":"2026-02-01T00:24:59.500Z","date":"2026-02-01","time":"00:24:59"},{"rt":226820,"url":"SONA_consent_memorability.html","trial_type":"external-html","trial_index":2,"plugin_version":"2.1.0","time_elapsed":348700,"subject_id":"90850","group":"Group2","condition":"1_Rep","full_date":"2026-02-01T00:24:59.500Z","date":"2026-02-01","time":"00:24:59"},{"success":true,"rt":1576,"trial_type":"fullscreen","trial_index":3,"plugin_version":"2.1.0","time_elapsed":351282,"subject_id":"90850","group":"Group2","condition":"1_Rep","full_date":"2026-02-01T00:24:59.500Z","date":"2026-02-01","time":"00:24:59"},{"rt":59205,"stimulus":"<div style=\"max-width: 760px; margin: auto; font-size: 20px; line-height: 1.5;\">\n      <h1 style=\"text-align:center; font-size: 30px;\">Instructions</h1>\n      <p>\n        Welcome to the study on <b>visual memory</b>. This experiment consists of <b>two phases</b>: \n        a <b>study phase</b> and a <b>test phase</b>.\n      </p>\n      <p>\n        In the study phase, you will see a series of rock images along with their category labels.\n        The images will appear one at a time.\n        <b>Your task</b> is to learn the categories to which the rock images belong \n        and to remember each image as accurately as possible.\n      </p> \n      <p>\n        Note that you will see each image only <b>once</b> during the study phase. \n          So, please pay close attention and try to remember each image carefully.\n      </p>\n      <p>\n        After the study phase, <b>your memory will be tested</b>. \n        Additional instructions for the test phase will be provided at that time.\n      </p>\n      <p>\n        If your computer has multiple <b>language settings</b> (e.g., English and another language),\n        please make sure it is set to English before starting.\n      </p>\n      <p>\n        You can track your progress using the <b>completion bar</b> at the top of the screen. \n        Please note that the bar will refresh when the test phase begins \n        to give you an accurate sense of your progress in both phases.\n      </p> \n      <p>\n        Press the button below when you are ready to begin.\n      </p>\n    </div>","response":0,"trial_type":"html-button-response","trial_index":4,"plugin_version":"2.1.0","time_elapsed":410489,"subject_id":"90850","group":"Group2","condition":"1_Rep","full_date":"2026-02-01T00:24:59.500Z","date":"2026-02-01","time":"00:24:59"},{"rt":null,"stimulus":"<p style=\"font-size: 50px; margin: 0; text-align: center;\">+</p>","response":null,"trial_type":"html-keyboard-response","trial_index":5,"plugin_version":"2.1.0","time_elapsed":411496,"subject_id":"90850","group":"Group2","condition":"1_Rep","full_date":"2026-02-01T00:24:59.500Z","date":"2026-02-01","time":"00:24:59"},{"task":"memory_phase","broad_category":"M","image_png":"M_Marble_03.png","image_id":227,"category_name":"Marble","category":15,"distinct_rating":2.67,"distinct_type":"Bottom","rt":null,"stimulus":"Stimuli_Rocks480/M_Marble_03.png","response":null,"trial_type":"image-keyboard-response","trial_index":6,"plugin_version":"2.1.0","time_elapsed":414024,"subject_id":"90850","group":"Group2","condition":"1_Rep","full_date":"2026-02-01T00:24:59.500Z","date":"2026-02-01","time":"00:24:59"},{"rt":null,"stimulus":"<p style=\"font-size: 50px; margin: 0; text-align: center;\">+</p>","response":null,"trial_type":"html-keyboard-response","trial_index":7,"plugin_version":"2.1.0","time_elapsed":415028,"subject_id":"90850","group":"Group2","condition":"1_Rep","full_date":"2026-02-01T00:24:59.500Z","date":"2026-02-01","time":"00:24:59"},{"task":"memory_phase","broad_category":"M","image_png":"M_Quartzite_07.png","image_id":279,"category_name":"Quartzite","category":18,"distinct_rating":1.97,"distinct_type":"Bottom","rt":null,"stimulus":"Stimuli_Rocks480/M_Quartzite_07.png","response":null,"trial_type":"image-keyboard-response","trial_index":8,"plugin_version":"2.1.0","time_elapsed":417554,"subject_id":"90850","group":"Group2","condition":"1_Rep","full_date":"2026-02-01T00:24:59.500Z","date":"2026-02-01","time":"00:24:59"},{"rt":null,"stimulus":"<p style=\"font-size: 50px; margin: 0; text-align: center;\">+</p>","response":null,"trial_type":"html-keyboard-response","trial_index":9,"plugin_version":"2.1.0","time_elapsed":418557,"subject_id":"90850","group":"Group2","condition":"1_Rep","full_date":"2026-02-01T00:24:59.500Z","date":"2026-02-01","time":"00:24:59"},{"task":"memory_phase","broad_category":"S","image_png":"S_Sandstone_11.png","image_id":459,"category_name":"Sandstone","category":29,"distinct_rating":1.82,"distinct_type":"Bottom","rt":null,"stimulus":"Stimuli_Rocks480/S_Sandstone_11.png","response":null,"trial_type":"image-keyboard-response","trial_index":10,"plugin_version":"2.1.0","time_elapsed":421082,"subject_id":"90850","group":"Group2","condition":"1_Rep","full_date":"2026-02-01T00:24:59.500Z","date":"2026-02-01","time":"00:24:59"},{"rt":null,"stimulus":"<p style=\"font-size: 50px; margin: 0; text-align: center;\">+</p>","response":null,"trial_type":"html-keyboard-response","trial_index":11,"plugin_version":"2.1.0","time_elapsed":422086,"subject_id":"90850","group":"Group2","condition":"1_Rep","full_date":"2026-02-01T00:24:59.500Z","date":"2026-02-01","time":"00:24:59"},{"task":"memory_phase","broad_category":"M","image_png":"M_Quartzite_15.png","image_id":287,"category_name":"Quartzite","category":18,"distinct_rating":2.19,"distinct_type":"Bottom","rt":null,"stimulus":"Stimuli_Rocks480/M_Quartzite_15.png","response":null,"trial_type":"image-keyboard-response","trial_index":12,"plugin_version":"2.1.0","time_elapsed":424607,"subject_id":"90850","group":"Group2","condition":"1_Rep","full_date":"2026-02-01T00:24:59.500Z","date":"2026-02-01","time":"00:24:59"},{"rt":null,"stimulus":"<p style=\"font-size: 50px; margin: 0; text-align: center;\">+</p>","response":null,"trial_type":"html-keyboard-response","trial_index":13,"plugin_version":"2.1.0","time_elapsed":425611,"subject_id":"90850","group":"Group2","condition":"1_Rep","full_date":"2026-02-01T00:24:59.500Z","date":"2026-02-01","time":"00:24:59"},{"task":"memory_phase","broad_category":"M","image_png":"M_Gneiss_10.png","image_id":202,"category_name":"Gneiss","category":13,"distinct_rating":3.09,"distinct_type":"Bottom","rt":null,"stimulus":"Stimuli_Rocks480/M_Gneiss_10.png","response":null,"trial_type":"image-keyboard-response","trial_index":14,"plugin_version":"2.1.0","time_elapsed":428135,"subject_id":"90850","group":"Group2","condition":"1_Rep","full_date":"2026-02-01T00:24:59.500Z","date":"2026-02-01","time":"00:24:59"},{"rt":null,"stimulus":"<p style=\"font-size: 50px; margin: 0; text-align: center;\">+</p>","response":null,"trial_type":"html-keyboard-response","trial_index":15,"plugin_version":"2.1.0","time_elapsed":429138,"subject_id":"90850","group":"Group2","condition":"1_Rep","full_date":"2026-02-01T00:24:59.500Z","date":"2026-02-01","time":"00:24:59"},{"task":"memory_phase","broad_category":"S","image_png":"S_Sandstone_04.png","image_id":452,"category_name":"Sandstone","category":29,"distinct_rating":1.8,"distinct_type":"Bottom","rt":null,"stimulus":"Stimuli_Rocks480/S_Sandstone_04.png","response":null,"trial_type":"image-keyboard-response","trial_index":16,"plugin_version":"2.1.0","time_elapsed":431659,"subject_id":"90850","group":"Group2","condition":"1_Rep","full_date":"2026-02-01T00:24:59.500Z","date":"2026-02-01","time":"00:24:59"},{"rt":null,"stimulus":"<p style=\"font-size: 50px; margin: 0; text-align: center;\">+</p>","response":null,"trial_type":"html-keyboard-response","trial_index":17,"plugin_version":"2.1.0","time_elapsed":432667,"subject_id":"90850","group":"Group2","condition":"1_Rep","full_date":"2026-02-01T00:24:59.500Z","date":"2026-02-01","time":"00:24:59"},{"task":"memory_phase","broad_category":"I","image_png":"I_Andesite_09.png","image_id":9,"category_name":"Andesite","category":1,"distinct_rating":2.49,"distinct_type":"Bottom","rt":null,"stimulus":"Stimuli_Rocks480/I_Andesite_09.png","response":null,"trial_type":"image-keyboard-response","trial_index":18,"plugin_version":"2.1.0","time_elapsed":435184,"subject_id":"90850","group":"Group2","condition":"1_Rep","full_date":"2026-02-01T00:24:59.500Z","date":"2026-02-01","time":"00:24:59"},{"rt":null,"stimulus":"<p style=\"font-size: 50px; margin: 0; text-align: center;\">+</p>","response":null,"trial_type":"html-keyboard-response","trial_index":19,"plugin_version":"2.1.0","time_elapsed":436187,"subject_id":"90850","group":"Group2","condition":"1_Rep","full_date":"2026-02-01T00:24:59.500Z","date":"2026-02-01","time":"00:24:59"},{"task":"memory_phase","broad_category":"M","image_png":"M_Marble_02.png","image_id":226,"category_name":"Marble","category":15,"distinct_rating":3.2,"distinct_type":"Bottom","rt":null,"stimulus":"Stimuli_Rocks480/M_Marble_02.png","response":null,"trial_type":"image-keyboard-response","trial_index":20,"plugin_version":"2.1.0","time_elapsed":438707,"subject_id":"90850","group":"Group2","condition":"1_Rep","full_date":"2026-02-01T00:24:59.500Z","date":"2026-02-01","time":"00:24:59"},{"rt":null,"stimulus":"<p style=\"font-size: 50px; margin: 0; text-align: center;\">+</p>","response":null,"trial_type":"html-keyboard-response","trial_index":21,"plugin_version":"2.1.0","time_elapsed":439711,"subject_id":"90850","group":"Group2","condition":"1_Rep","full_date":"2026-02-01T00:24:59.500Z","date":"2026-02-01","time":"00:24:59"},{"task":"memory_phase","broad_category":"I","image_png":"I_Rhyolite_05.png","image_id":149,"category_name":"Rhyolite","category":10,"distinct_rating":3.02,"distinct_type":"Bottom","rt":null,"stimulus":"Stimuli_Rocks480/I_Rhyolite_05.png","response":null,"trial_type":"image-keyboard-response","trial_index":22,"plugin_version":"2.1.0","time_elapsed":442236,"subject_id":"90850","group":"Group2","condition":"1_Rep","full_date":"2026-02-01T00:24:59.500Z","date":"2026-02-01","time":"00:24:59"},{"rt":null,"stimulus":"<p style=\"font-size: 50px; margin: 0; text-align: center;\">+</p>","response":null,"trial_type":"html-keyboard-response","trial_index":23,"plugin_version":"2.1.0","time_elapsed":443239,"subject_id":"90850","group":"Group2","condition":"1_Rep","full_date":"2026-02-01T00:24:59.500Z","date":"2026-02-01","time":"00:24:59"},{"task":"memory_phase","broad_category":"I","image_png":"I_Andesite_03.png","image_id":3,"category_name":"Andesite","category":1,"distinct_rating":3.17,"distinct_type":"Bottom","rt":null,"stimulus":"Stimuli_Rocks480/I_Andesite_03.png","response":null,"trial_type":"image-keyboard-response","trial_index":24,"plugin_version":"2.1.0","time_elapsed":445754,"subject_id":"90850","group":"Group2","condition":"1_Rep","full_date":"2026-02-01T00:24:59.500Z","date":"2026-02-01","time":"00:24:59"},{"rt":null,"stimulus":"<p style=\"font-size: 50px; margin: 0; text-align: center;\">+</p>","response":null,"trial_type":"html-keyboard-response","trial_index":25,"plugin_version":"2.1.0","time_elapsed":446757,"subject_id":"90850","group":"Group2","condition":"1_Rep","full_date":"2026-02-01T00:24:59.500Z","date":"2026-02-01","time":"00:24:59"},{"task":"memory_phase","broad_category":"I","image_png":"I_Diorite_15.png","image_id":47,"category_name":"Diorite","category":3,"distinct_rating":3.05,"distinct_type":"Bottom","rt":null,"stimulus":"Stimuli_Rocks480/I_Diorite_15.png","response":null,"trial_type":"image-keyboard-response","trial_index":26,"plugin_version":"2.1.0","time_elapsed":449275,"subject_id":"90850","group":"Group2","condition":"1_Rep","full_date":"2026-02-01T00:24:59.500Z","date":"2026-02-01","time":"00:24:59"},{"rt":null,"stimulus":"<p style=\"font-size: 50px; margin: 0; text-align: center;\">+</p>","response":null,"trial_type":"html-keyboard-response","trial_index":27,"plugin_version":"2.1.0","time_elapsed":450279,"subject_id":"90850","group":"Group2","condition":"1_Rep","full_date":"2026-02-01T00:24:59.500Z","date":"2026-02-01","time":"00:24:59"},{"task":"memory_phase","broad_category":"M","image_png":"M_Phyllite_05.png","image_id":261,"category_name":"Phyllite","category":17,"distinct_rating":2.14,"distinct_type":"Bottom","rt":null,"stimulus":"Stimuli_Rocks480/M_Phyllite_05.png","response":null,"trial_type":"image-keyboard-response","trial_index":28,"plugin_version":"2.1.0","time_elapsed":452797,"subject_id":"90850","group":"Group2","condition":"1_Rep","full_date":"2026-02-01T00:24:59.500Z","date":"2026-02-01","time":"00:24:59"},{"rt":null,"stimulus":"<p style=\"font-size: 50px; margin: 0; text-align: center;\">+</p>","response":null,"trial_type":"html-keyboard-response","trial_index":29,"plugin_version":"2.1.0","time_elapsed":453800,"subject_id":"90850","group":"Group2","condition":"1_Rep","full_date":"2026-02-01T00:24:59.500Z","date":"2026-02-01","time":"00:24:59"},{"task":"memory_phase","broad_category":"I","image_png":"I_Obsidian_06.png","image_id":86,"category_name":"Obsidian","category":6,"distinct_rating":8.01,"distinct_type":"Top","rt":null,"stimulus":"Stimuli_Rocks480/I_Obsidian_06.png","response":null,"trial_type":"image-keyboard-response","trial_index":30,"plugin_version":"2.1.0","time_elapsed":456326,"subject_id":"90850","group":"Group2","condition":"1_Rep","full_date":"2026-02-01T00:24:59.500Z","date":"2026-02-01","time":"00:24:59"},{"rt":null,"stimulus":"<p style=\"font-size: 50px; margin: 0; text-align: center;\">+</p>","response":null,"trial_type":"html-keyboard-response","trial_index":31,"plugin_version":"2.1.0","time_elapsed":457331,"subject_id":"90850","group":"Group2","condition":"1_Rep","full_date":"2026-02-01T00:24:59.500Z","date":"2026-02-01","time":"00:24:59"},{"task":"memory_phase","broad_category":"I","image_png":"I_Pegmatite_11.png","image_id":107,"category_name":"Pegmatite","category":7,"distinct_rating":7.11,"distinct_type":"Top","rt":null,"stimulus":"Stimuli_Rocks480/I_Pegmatite_11.png","response":null,"trial_type":"image-keyboard-response","trial_index":32,"plugin_version":"2.1.0","time_elapsed":459859,"subject_id":"90850","group":"Group2","condition":"1_Rep","full_date":"2026-02-01T00:24:59.500Z","date":"2026-02-01","time":"00:24:59"},{"rt":null,"stimulus":"<p style=\"font-size: 50px; margin: 0; text-align: center;\">+</p>","response":null,"trial_type":"html-keyboard-response","trial_index":33,"plugin_version":"2.1.0","time_elapsed":460863,"subject_id":"90850","group":"Group2","condition":"1_Rep","full_date":"2026-02-01T00:24:59.500Z","date":"2026-02-01","time":"00:24:59"},{"task":"memory_phase","broad_category":"I","image_png":"I_Basalt_08.png","image_id":24,"category_name":"Basalt","category":2,"distinct_rating":2.31,"distinct_type":"Bottom","rt":null,"stimulus":"Stimuli_Rocks480/I_Basalt_08.png","response":null,"trial_type":"image-keyboard-response","trial_index":34,"plugin_version":"2.1.0","time_elapsed":463391,"subject_id":"90850","group":"Group2","condition":"1_Rep","full_date":"2026-02-01T00:24:59.500Z","date":"2026-02-01","time":"00:24:59"},{"rt":null,"stimulus":"<p style=\"font-size: 50px; margin: 0; text-align: center;\">+</p>","response":null,"trial_type":"html-keyboard-response","trial_index":35,"plugin_version":"2.1.0","time_elapsed":464395,"subject_id":"90850","group":"Group2","condition":"1_Rep","full_date":"2026-02-01T00:24:59.500Z","date":"2026-02-01","time":"00:24:59"},{"task":"memory_phase","broad_category":"I","image_png":"I_Peridotite_13.png","image_id":125,"category_name":"Peridotite","category":8,"distinct_rating":7.28,"distinct_type":"Top","rt":null,"stimulus":"Stimuli_Rocks480/I_Peridotite_13.png","response":null,"trial_type":"image-keyboard-response","trial_index":36,"plugin_version":"2.1.0","time_elapsed":466919,"subject_id":"90850","group":"Group2","condition":"1_Rep","full_date":"2026-02-01T00:24:59.500Z","date":"2026-02-01","time":"00:24:59"},{"rt":null,"stimulus":"<p style=\"font-size: 50px; margin: 0; text-align: center;\">+</p>","response":null,"trial_type":"html-keyboard-response","trial_index":37,"plugin_version":"2.1.0","time_elapsed":467922,"subject_id":"90850","group":"Group2","condition":"1_Rep","full_date":"2026-02-01T00:24:59.500Z","date":"2026-02-01","time":"00:24:59"},{"task":"memory_phase","broad_category":"M","image_png":"M_Slate_04.png","image_id":308,"category_name":"Slate","category":20,"distinct_rating":2.2,"distinct_type":"Bottom","rt":null,"stimulus":"Stimuli_Rocks480/M_Slate_04.png","response":null,"trial_type":"image-keyboard-response","trial_index":38,"plugin_version":"2.1.0","time_elapsed":470438,"subject_id":"90850","group":"Group2","condition":"1_Rep","full_date":"2026-02-01T00:24:59.500Z","date":"2026-02-01","time":"00:24:59"},{"rt":null,"stimulus":"<p style=\"font-size: 50px; margin: 0; text-align: center;\">+</p>","response":null,"trial_type":"html-keyboard-response","trial_index":39,"plugin_version":"2.1.0","time_elapsed":471442,"subject_id":"90850","group":"Group2","condition":"1_Rep","full_date":"2026-02-01T00:24:59.500Z","date":"2026-02-01","time":"00:24:59"},{"task":"memory_phase","broad_category":"I","image_png":"I_Andesite_04.png","image_id":4,"category_name":"Andesite","category":1,"distinct_rating":3.18,"distinct_type":"Bottom","rt":null,"stimulus":"Stimuli_Rocks480/I_Andesite_04.png","response":null,"trial_type":"image-keyboard-response","trial_index":40,"plugin_version":"2.1.0","time_elapsed":473959,"subject_id":"90850","group":"Group2","condition":"1_Rep","full_date":"2026-02-01T00:24:59.500Z","date":"2026-02-01","time":"00:24:59"},{"rt":null,"stimulus":"<p style=\"font-size: 50px; margin: 0; text-align: center;\">+</p>","response":null,"trial_type":"html-keyboard-response","trial_index":41,"plugin_version":"2.1.0","time_elapsed":474962,"subject_id":"90850","group":"Group2","condition":"1_Rep","full_date":"2026-02-01T00:24:59.500Z","date":"2026-02-01","time":"00:24:59"},{"task":"memory_phase","broad_category":"I","image_png":"I_Gabbro_02.png","image_id":50,"category_name":"Gabbro","category":4,"distinct_rating":2.73,"distinct_type":"Bottom","rt":null,"stimulus":"Stimuli_Rocks480/I_Gabbro_02.png","response":null,"trial_type":"image-keyboard-response","trial_index":42,"plugin_version":"2.1.0","time_elapsed":477484,"subject_id":"90850","group":"Group2","condition":"1_Rep","full_date":"2026-02-01T00:24:59.500Z","date":"2026-02-01","time":"00:24:59"},{"rt":null,"stimulus":"<p style=\"font-size: 50px; margin: 0; text-align: center;\">+</p>","response":null,"trial_type":"html-keyboard-response","trial_index":43,"plugin_version":"2.1.0","time_elapsed":478488,"subject_id":"90850","group":"Group2","condition":"1_Rep","full_date":"2026-02-01T00:24:59.500Z","date":"2026-02-01","time":"00:24:59"},{"task":"memory_phase","broad_category":"S","image_png":"S_Sandstone_08.png","image_id":456,"category_name":"Sandstone","category":29,"distinct_rating":1.5,"distinct_type":"Bottom","rt":null,"stimulus":"Stimuli_Rocks480/S_Sandstone_08.png","response":null,"trial_type":"image-keyboard-response","trial_index":44,"plugin_version":"2.1.0","time_elapsed":481007,"subject_id":"90850","group":"Group2","condition":"1_Rep","full_date":"2026-02-01T00:24:59.500Z","date":"2026-02-01","time":"00:24:59"},{"rt":null,"stimulus":"<p style=\"font-size: 50px; margin: 0; text-align: center;\">+</p>","response":null,"trial_type":"html-keyboard-response","trial_index":45,"plugin_version":"2.1.0","time_elapsed":482009,"subject_id":"90850","group":"Group2","condition":"1_Rep","full_date":"2026-02-01T00:24:59.500Z","date":"2026-02-01","time":"00:24:59"},{"task":"memory_phase","broad_category":"S","image_png":"S_Rock Salt_13.png","image_id":445,"category_name":"Rock Salt","category":28,"distinct_rating":7.58,"distinct_type":"Top","rt":null,"stimulus":"Stimuli_Rocks480/S_Rock Salt_13.png","response":null,"trial_type":"image-keyboard-response","trial_index":46,"plugin_version":"2.1.0","time_elapsed":484529,"subject_id":"90850","group":"Group2","condition":"1_Rep","full_date":"2026-02-01T00:24:59.500Z","date":"2026-02-01","time":"00:24:59"},{"rt":null,"stimulus":"<p style=\"font-size: 50px; margin: 0; text-align: center;\">+</p>","response":null,"trial_type":"html-keyboard-response","trial_index":47,"plugin_version":"2.1.0","time_elapsed":485532,"subject_id":"90850","group":"Group2","condition":"1_Rep","full_date":"2026-02-01T00:24:59.500Z","date":"2026-02-01","time":"00:24:59"},{"task":"memory_phase","broad_category":"I","image_png":"I_Pumice_14.png","image_id":142,"category_name":"Pumice","category":9,"distinct_rating":3.22,"distinct_type":"Bottom","rt":null,"stimulus":"Stimuli_Rocks480/I_Pumice_14.png","response":null,"trial_type":"image-keyboard-response","trial_index":48,"plugin_version":"2.1.0","time_elapsed":488051,"subject_id":"90850","group":"Group2","condition":"1_Rep","full_date":"2026-02-01T00:24:59.500Z","date":"2026-02-01","time":"00:24:59"},{"rt":null,"stimulus":"<p style=\"font-size: 50px; margin: 0; text-align: center;\">+</p>","response":null,"trial_type":"html-keyboard-response","trial_index":49,"plugin_version":"2.1.0","time_elapsed":489054,"subject_id":"90850","group":"Group2","condition":"1_Rep","full_date":"2026-02-01T00:24:59.500Z","date":"2026-02-01","time":"00:24:59"},{"task":"memory_phase","broad_category":"S","image_png":"S_Dolomite_16.png","image_id":400,"category_name":"Dolomite","category":25,"distinct_rating":1.71,"distinct_type":"Bottom","rt":null,"stimulus":"Stimuli_Rocks480/S_Dolomite_16.png","response":null,"trial_type":"image-keyboard-response","trial_index":50,"plugin_version":"2.1.0","time_elapsed":491573,"subject_id":"90850","group":"Group2","condition":"1_Rep","full_date":"2026-02-01T00:24:59.500Z","date":"2026-02-01","time":"00:24:59"},{"rt":null,"stimulus":"<p style=\"font-size: 50px; margin: 0; text-align: center;\">+</p>","response":null,"trial_type":"html-keyboard-response","trial_index":51,"plugin_version":"2.1.0","time_elapsed":492576,"subject_id":"90850","group":"Group2","condition":"1_Rep","full_date":"2026-02-01T00:24:59.500Z","date":"2026-02-01","time":"00:24:59"},{"task":"memory_phase","broad_category":"I","image_png":"I_Rhyolite_10.png","image_id":154,"category_name":"Rhyolite","category":10,"distinct_rating":2.88,"distinct_type":"Bottom","rt":null,"stimulus":"Stimuli_Rocks480/I_Rhyolite_10.png","response":null,"trial_type":"image-keyboard-response","trial_index":52,"plugin_version":"2.1.0","time_elapsed":495103,"subject_id":"90850","group":"Group2","condition":"1_Rep","full_date":"2026-02-01T00:24:59.500Z","date":"2026-02-01","time":"00:24:59"},{"rt":null,"stimulus":"<p style=\"font-size: 50px; margin: 0; text-align: center;\">+</p>","response":null,"trial_type":"html-keyboard-response","trial_index":53,"plugin_version":"2.1.0","time_elapsed":496106,"subject_id":"90850","group":"Group2","condition":"1_Rep","full_date":"2026-02-01T00:24:59.500Z","date":"2026-02-01","time":"00:24:59"},{"task":"memory_phase","broad_category":"I","image_png":"I_Diorite_01.png","image_id":33,"category_name":"Diorite","category":3,"distinct_rating":2.97,"distinct_type":"Bottom","rt":null,"stimulus":"Stimuli_Rocks480/I_Diorite_01.png","response":null,"trial_type":"image-keyboard-response","trial_index":54,"plugin_version":"2.1.0","time_elapsed":498631,"subject_id":"90850","group":"Group2","condition":"1_Rep","full_date":"2026-02-01T00:24:59.500Z","date":"2026-02-01","time":"00:24:59"},{"rt":5140,"stimulus":"<p style=\"max-width: 760px; margin: auto; font-size: 35px; line-height: 1.5;\">\n                Press SPACE to continue study phase\n              </p>","response":" ","trial_type":"html-keyboard-response","trial_index":55,"plugin_version":"2.1.0","time_elapsed":503774,"subject_id":"90850","group":"Group2","condition":"1_Rep","full_date":"2026-02-01T00:24:59.500Z","date":"2026-02-01","time":"00:24:59"},{"rt":null,"stimulus":"<p style=\"font-size: 50px; margin: 0; text-align: center;\">+</p>","response":null,"trial_type":"html-keyboard-response","trial_index":56,"plugin_version":"2.1.0","time_elapsed":504776,"subject_id":"90850","group":"Group2","condition":"1_Rep","full_date":"2026-02-01T00:24:59.500Z","date":"2026-02-01","time":"00:24:59"},{"task":"memory_phase","broad_category":"I","image_png":"I_Rhyolite_08.png","image_id":152,"category_name":"Rhyolite","category":10,"distinct_rating":1.38,"distinct_type":"Bottom","rt":null,"stimulus":"Stimuli_Rocks480/I_Rhyolite_08.png","response":null,"trial_type":"image-keyboard-response","trial_index":57,"plugin_version":"2.1.0","time_elapsed":507294,"subject_id":"90850","group":"Group2","condition":"1_Rep","full_date":"2026-02-01T00:24:59.500Z","date":"2026-02-01","time":"00:24:59"},{"rt":null,"stimulus":"<p style=\"font-size: 50px; margin: 0; text-align: center;\">+</p>","response":null,"trial_type":"html-keyboard-response","trial_index":58,"plugin_version":"2.1.0","time_elapsed":508297,"subject_id":"90850","group":"Group2","condition":"1_Rep","full_date":"2026-02-01T00:24:59.500Z","date":"2026-02-01","time":"00:24:59"},{"task":"memory_phase","broad_category":"M","image_png":"M_Phyllite_13.png","image_id":269,"category_name":"Phyllite","category":17,"distinct_rating":2.8,"distinct_type":"Bottom","rt":null,"stimulus":"Stimuli_Rocks480/M_Phyllite_13.png","response":null,"trial_type":"image-keyboard-response","trial_index":59,"plugin_version":"2.1.0","time_elapsed":510815,"subject_id":"90850","group":"Group2","condition":"1_Rep","full_date":"2026-02-01T00:24:59.500Z","date":"2026-02-01","time":"00:24:59"},{"rt":null,"stimulus":"<p style=\"font-size: 50px; margin: 0; text-align: center;\">+</p>","response":null,"trial_type":"html-keyboard-response","trial_index":60,"plugin_version":"2.1.0","time_elapsed":511818,"subject_id":"90850","group":"Group2","condition":"1_Rep","full_date":"2026-02-01T00:24:59.500Z","date":"2026-02-01","time":"00:24:59"},{"task":"memory_phase","broad_category":"M","image_png":"M_Slate_14.png","image_id":318,"category_name":"Slate","category":20,"distinct_rating":2.58,"distinct_type":"Bottom","rt":null,"stimulus":"Stimuli_Rocks480/M_Slate_14.png","response":null,"trial_type":"image-keyboard-response","trial_index":61,"plugin_version":"2.1.0","time_elapsed":514333,"subject_id":"90850","group":"Group2","condition":"1_Rep","full_date":"2026-02-01T00:24:59.500Z","date":"2026-02-01","time":"00:24:59"},{"rt":null,"stimulus":"<p style=\"font-size: 50px; margin: 0; text-align: center;\">+</p>","response":null,"trial_type":"html-keyboard-response","trial_index":62,"plugin_version":"2.1.0","time_elapsed":515336,"subject_id":"90850","group":"Group2","condition":"1_Rep","full_date":"2026-02-01T00:24:59.500Z","date":"2026-02-01","time":"00:24:59"},{"task":"memory_phase","broad_category":"I","image_png":"I_Pumice_13.png","image_id":141,"category_name":"Pumice","category":9,"distinct_rating":3.12,"distinct_type":"Bottom","rt":null,"stimulus":"Stimuli_Rocks480/I_Pumice_13.png","response":null,"trial_type":"image-keyboard-response","trial_index":63,"plugin_version":"2.1.0","time_elapsed":517858,"subject_id":"90850","group":"Group2","condition":"1_Rep","full_date":"2026-02-01T00:24:59.500Z","date":"2026-02-01","time":"00:24:59"},{"rt":null,"stimulus":"<p style=\"font-size: 50px; margin: 0; text-align: center;\">+</p>","response":null,"trial_type":"html-keyboard-response","trial_index":64,"plugin_version":"2.1.0","time_elapsed":518861,"subject_id":"90850","group":"Group2","condition":"1_Rep","full_date":"2026-02-01T00:24:59.500Z","date":"2026-02-01","time":"00:24:59"},{"task":"memory_phase","broad_category":"S","image_png":"S_Dolomite_07.png","image_id":391,"category_name":"Dolomite","category":25,"distinct_rating":1.73,"distinct_type":"Bottom","rt":null,"stimulus":"Stimuli_Rocks480/S_Dolomite_07.png","response":null,"trial_type":"image-keyboard-response","trial_index":65,"plugin_version":"2.1.0","time_elapsed":521382,"subject_id":"90850","group":"Group2","condition":"1_Rep","full_date":"2026-02-01T00:24:59.500Z","date":"2026-02-01","time":"00:24:59"},{"rt":null,"stimulus":"<p style=\"font-size: 50px; margin: 0; text-align: center;\">+</p>","response":null,"trial_type":"html-keyboard-response","trial_index":66,"plugin_version":"2.1.0","time_elapsed":522386,"subject_id":"90850","group":"Group2","condition":"1_Rep","full_date":"2026-02-01T00:24:59.500Z","date":"2026-02-01","time":"00:24:59"},{"task":"memory_phase","broad_category":"M","image_png":"M_Marble_14.png","image_id":238,"category_name":"Marble","category":15,"distinct_rating":3.31,"distinct_type":"Bottom","rt":null,"stimulus":"Stimuli_Rocks480/M_Marble_14.png","response":null,"trial_type":"image-keyboard-response","trial_index":67,"plugin_version":"2.1.0","time_elapsed":524904,"subject_id":"90850","group":"Group2","condition":"1_Rep","full_date":"2026-02-01T00:24:59.500Z","date":"2026-02-01","time":"00:24:59"},{"rt":null,"stimulus":"<p style=\"font-size: 50px; margin: 0; text-align: center;\">+</p>","response":null,"trial_type":"html-keyboard-response","trial_index":68,"plugin_version":"2.1.0","time_elapsed":525907,"subject_id":"90850","group":"Group2","condition":"1_Rep","full_date":"2026-02-01T00:24:59.500Z","date":"2026-02-01","time":"00:24:59"},{"task":"memory_phase","broad_category":"S","image_png":"S_Dolomite_01.png","image_id":385,"category_name":"Dolomite","category":25,"distinct_rating":1.43,"distinct_type":"Bottom","rt":null,"stimulus":"Stimuli_Rocks480/S_Dolomite_01.png","response":null,"trial_type":"image-keyboard-response","trial_index":69,"plugin_version":"2.1.0","time_elapsed":528432,"subject_id":"90850","group":"Group2","condition":"1_Rep","full_date":"2026-02-01T00:24:59.500Z","date":"2026-02-01","time":"00:24:59"},{"rt":null,"stimulus":"<p style=\"font-size: 50px; margin: 0; text-align: center;\">+</p>","response":null,"trial_type":"html-keyboard-response","trial_index":70,"plugin_version":"2.1.0","time_elapsed":529435,"subject_id":"90850","group":"Group2","condition":"1_Rep","full_date":"2026-02-01T00:24:59.500Z","date":"2026-02-01","time":"00:24:59"},{"task":"memory_phase","broad_category":"M","image_png":"M_Quartzite_12.png","image_id":284,"category_name":"Quartzite","category":18,"distinct_rating":1.92,"distinct_type":"Bottom","rt":null,"stimulus":"Stimuli_Rocks480/M_Quartzite_12.png","response":null,"trial_type":"image-keyboard-response","trial_index":71,"plugin_version":"2.1.0","time_elapsed":531951,"subject_id":"90850","group":"Group2","condition":"1_Rep","full_date":"2026-02-01T00:24:59.500Z","date":"2026-02-01","time":"00:24:59"},{"rt":null,"stimulus":"<p style=\"font-size: 50px; margin: 0; text-align: center;\">+</p>","response":null,"trial_type":"html-keyboard-response","trial_index":72,"plugin_version":"2.1.0","time_elapsed":532954,"subject_id":"90850","group":"Group2","condition":"1_Rep","full_date":"2026-02-01T00:24:59.500Z","date":"2026-02-01","time":"00:24:59"},{"task":"memory_phase","broad_category":"S","image_png":"S_Rock Salt_15.png","image_id":447,"category_name":"Rock Salt","category":28,"distinct_rating":7.79,"distinct_type":"Top","rt":null,"stimulus":"Stimuli_Rocks480/S_Rock Salt_15.png","response":null,"trial_type":"image-keyboard-response","trial_index":73,"plugin_version":"2.1.0","time_elapsed":535472,"subject_id":"90850","group":"Group2","condition":"1_Rep","full_date":"2026-02-01T00:24:59.500Z","date":"2026-02-01","time":"00:24:59"},{"rt":null,"stimulus":"<p style=\"font-size: 50px; margin: 0; text-align: center;\">+</p>","response":null,"trial_type":"html-keyboard-response","trial_index":74,"plugin_version":"2.1.0","time_elapsed":536475,"subject_id":"90850","group":"Group2","condition":"1_Rep","full_date":"2026-02-01T00:24:59.500Z","date":"2026-02-01","time":"00:24:59"},{"task":"memory_phase","broad_category":"I","image_png":"I_Gabbro_14.png","image_id":62,"category_name":"Gabbro","category":4,"distinct_rating":2.95,"distinct_type":"Bottom","rt":null,"stimulus":"Stimuli_Rocks480/I_Gabbro_14.png","response":null,"trial_type":"image-keyboard-response","trial_index":75,"plugin_version":"2.1.0","time_elapsed":538998,"subject_id":"90850","group":"Group2","condition":"1_Rep","full_date":"2026-02-01T00:24:59.500Z","date":"2026-02-01","time":"00:24:59"},{"rt":null,"stimulus":"<p style=\"font-size: 50px; margin: 0; text-align: center;\">+</p>","response":null,"trial_type":"html-keyboard-response","trial_index":76,"plugin_version":"2.1.0","time_elapsed":540000,"subject_id":"90850","group":"Group2","condition":"1_Rep","full_date":"2026-02-01T00:24:59.500Z","date":"2026-02-01","time":"00:24:59"},{"task":"memory_phase","broad_category":"I","image_png":"I_Basalt_10.png","image_id":26,"category_name":"Basalt","category":2,"distinct_rating":2.76,"distinct_type":"Bottom","rt":null,"stimulus":"Stimuli_Rocks480/I_Basalt_10.png","response":null,"trial_type":"image-keyboard-response","trial_index":77,"plugin_version":"2.1.0","time_elapsed":542519,"subject_id":"90850","group":"Group2","condition":"1_Rep","full_date":"2026-02-01T00:24:59.500Z","date":"2026-02-01","time":"00:24:59"},{"rt":null,"stimulus":"<p style=\"font-size: 50px; margin: 0; text-align: center;\">+</p>","response":null,"trial_type":"html-keyboard-response","trial_index":78,"plugin_version":"2.1.0","time_elapsed":543522,"subject_id":"90850","group":"Group2","condition":"1_Rep","full_date":"2026-02-01T00:24:59.500Z","date":"2026-02-01","time":"00:24:59"},{"task":"memory_phase","broad_category":"M","image_png":"M_Gneiss_15.png","image_id":207,"category_name":"Gneiss","category":13,"distinct_rating":3.11,"distinct_type":"Bottom","rt":null,"stimulus":"Stimuli_Rocks480/M_Gneiss_15.png","response":null,"trial_type":"image-keyboard-response","trial_index":79,"plugin_version":"2.1.0","time_elapsed":546037,"subject_id":"90850","group":"Group2","condition":"1_Rep","full_date":"2026-02-01T00:24:59.500Z","date":"2026-02-01","time":"00:24:59"},{"rt":null,"stimulus":"<p style=\"font-size: 50px; margin: 0; text-align: center;\">+</p>","response":null,"trial_type":"html-keyboard-response","trial_index":80,"plugin_version":"2.1.0","time_elapsed":547039,"subject_id":"90850","group":"Group2","condition":"1_Rep","full_date":"2026-02-01T00:24:59.500Z","date":"2026-02-01","time":"00:24:59"},{"task":"memory_phase","broad_category":"M","image_png":"M_Gneiss_14.png","image_id":206,"category_name":"Gneiss","category":13,"distinct_rating":3.41,"distinct_type":"Bottom","rt":null,"stimulus":"Stimuli_Rocks480/M_Gneiss_14.png","response":null,"trial_type":"image-keyboard-response","trial_index":81,"plugin_version":"2.1.0","time_elapsed":549560,"subject_id":"90850","group":"Group2","condition":"1_Rep","full_date":"2026-02-01T00:24:59.500Z","date":"2026-02-01","time":"00:24:59"},{"rt":null,"stimulus":"<p style=\"font-size: 50px; margin: 0; text-align: center;\">+</p>","response":null,"trial_type":"html-keyboard-response","trial_index":82,"plugin_version":"2.1.0","time_elapsed":550563,"subject_id":"90850","group":"Group2","condition":"1_Rep","full_date":"2026-02-01T00:24:59.500Z","date":"2026-02-01","time":"00:24:59"},{"task":"memory_phase","broad_category":"I","image_png":"I_Basalt_13.png","image_id":29,"category_name":"Basalt","category":2,"distinct_rating":2.68,"distinct_type":"Bottom","rt":null,"stimulus":"Stimuli_Rocks480/I_Basalt_13.png","response":null,"trial_type":"image-keyboard-response","trial_index":83,"plugin_version":"2.1.0","time_elapsed":553079,"subject_id":"90850","group":"Group2","condition":"1_Rep","full_date":"2026-02-01T00:24:59.500Z","date":"2026-02-01","time":"00:24:59"},{"rt":null,"stimulus":"<p style=\"font-size: 50px; margin: 0; text-align: center;\">+</p>","response":null,"trial_type":"html-keyboard-response","trial_index":84,"plugin_version":"2.1.0","time_elapsed":554082,"subject_id":"90850","group":"Group2","condition":"1_Rep","full_date":"2026-02-01T00:24:59.500Z","date":"2026-02-01","time":"00:24:59"},{"task":"memory_phase","broad_category":"I","image_png":"I_Pumice_01.png","image_id":129,"category_name":"Pumice","category":9,"distinct_rating":3.25,"distinct_type":"Bottom","rt":null,"stimulus":"Stimuli_Rocks480/I_Pumice_01.png","response":null,"trial_type":"image-keyboard-response","trial_index":85,"plugin_version":"2.1.0","time_elapsed":556602,"subject_id":"90850","group":"Group2","condition":"1_Rep","full_date":"2026-02-01T00:24:59.500Z","date":"2026-02-01","time":"00:24:59"},{"rt":null,"stimulus":"<p style=\"font-size: 50px; margin: 0; text-align: center;\">+</p>","response":null,"trial_type":"html-keyboard-response","trial_index":86,"plugin_version":"2.1.0","time_elapsed":557605,"subject_id":"90850","group":"Group2","condition":"1_Rep","full_date":"2026-02-01T00:24:59.500Z","date":"2026-02-01","time":"00:24:59"},{"task":"memory_phase","broad_category":"I","image_png":"I_Diorite_10.png","image_id":42,"category_name":"Diorite","category":3,"distinct_rating":2.84,"distinct_type":"Bottom","rt":null,"stimulus":"Stimuli_Rocks480/I_Diorite_10.png","response":null,"trial_type":"image-keyboard-response","trial_index":87,"plugin_version":"2.1.0","time_elapsed":560122,"subject_id":"90850","group":"Group2","condition":"1_Rep","full_date":"2026-02-01T00:24:59.500Z","date":"2026-02-01","time":"00:24:59"},{"rt":null,"stimulus":"<p style=\"font-size: 50px; margin: 0; text-align: center;\">+</p>","response":null,"trial_type":"html-keyboard-response","trial_index":88,"plugin_version":"2.1.0","time_elapsed":561125,"subject_id":"90850","group":"Group2","condition":"1_Rep","full_date":"2026-02-01T00:24:59.500Z","date":"2026-02-01","time":"00:24:59"},{"task":"memory_phase","broad_category":"S","image_png":"S_Shale_07.png","image_id":471,"category_name":"Shale","category":30,"distinct_rating":2.73,"distinct_type":"Bottom","rt":null,"stimulus":"Stimuli_Rocks480/S_Shale_07.png","response":null,"trial_type":"image-keyboard-response","trial_index":89,"plugin_version":"2.1.0","time_elapsed":563647,"subject_id":"90850","group":"Group2","condition":"1_Rep","full_date":"2026-02-01T00:24:59.500Z","date":"2026-02-01","time":"00:24:59"},{"rt":null,"stimulus":"<p style=\"font-size: 50px; margin: 0; text-align: center;\">+</p>","response":null,"trial_type":"html-keyboard-response","trial_index":90,"plugin_version":"2.1.0","time_elapsed":564652,"subject_id":"90850","group":"Group2","condition":"1_Rep","full_date":"2026-02-01T00:24:59.500Z","date":"2026-02-01","time":"00:24:59"},{"task":"memory_phase","broad_category":"I","image_png":"I_Gabbro_12.png","image_id":60,"category_name":"Gabbro","category":4,"distinct_rating":2.6,"distinct_type":"Bottom","rt":null,"stimulus":"Stimuli_Rocks480/I_Gabbro_12.png","response":null,"trial_type":"image-keyboard-response","trial_index":91,"plugin_version":"2.1.0","time_elapsed":567177,"subject_id":"90850","group":"Group2","condition":"1_Rep","full_date":"2026-02-01T00:24:59.500Z","date":"2026-02-01","time":"00:24:59"},{"rt":null,"stimulus":"<p style=\"font-size: 50px; margin: 0; text-align: center;\">+</p>","response":null,"trial_type":"html-keyboard-response","trial_index":92,"plugin_version":"2.1.0","time_elapsed":568181,"subject_id":"90850","group":"Group2","condition":"1_Rep","full_date":"2026-02-01T00:24:59.500Z","date":"2026-02-01","time":"00:24:59"},{"task":"memory_phase","broad_category":"M","image_png":"M_Slate_10.png","image_id":314,"category_name":"Slate","category":20,"distinct_rating":1.94,"distinct_type":"Bottom","rt":null,"stimulus":"Stimuli_Rocks480/M_Slate_10.png","response":null,"trial_type":"image-keyboard-response","trial_index":93,"plugin_version":"2.1.0","time_elapsed":570697,"subject_id":"90850","group":"Group2","condition":"1_Rep","full_date":"2026-02-01T00:24:59.500Z","date":"2026-02-01","time":"00:24:59"},{"rt":null,"stimulus":"<p style=\"font-size: 50px; margin: 0; text-align: center;\">+</p>","response":null,"trial_type":"html-keyboard-response","trial_index":94,"plugin_version":"2.1.0","time_elapsed":571700,"subject_id":"90850","group":"Group2","condition":"1_Rep","full_date":"2026-02-01T00:24:59.500Z","date":"2026-02-01","time":"00:24:59"},{"task":"memory_phase","broad_category":"S","image_png":"S_Conglomerate_14.png","image_id":382,"category_name":"Conglomerate","category":24,"distinct_rating":6.86,"distinct_type":"Top","rt":null,"stimulus":"Stimuli_Rocks480/S_Conglomerate_14.png","response":null,"trial_type":"image-keyboard-response","trial_index":95,"plugin_version":"2.1.0","time_elapsed":574219,"subject_id":"90850","group":"Group2","condition":"1_Rep","full_date":"2026-02-01T00:24:59.500Z","date":"2026-02-01","time":"00:24:59"},{"rt":null,"stimulus":"<p style=\"font-size: 50px; margin: 0; text-align: center;\">+</p>","response":null,"trial_type":"html-keyboard-response","trial_index":96,"plugin_version":"2.1.0","time_elapsed":575222,"subject_id":"90850","group":"Group2","condition":"1_Rep","full_date":"2026-02-01T00:24:59.500Z","date":"2026-02-01","time":"00:24:59"},{"task":"memory_phase","broad_category":"S","image_png":"S_Shale_03.png","image_id":467,"category_name":"Shale","category":30,"distinct_rating":1.95,"distinct_type":"Bottom","rt":null,"stimulus":"Stimuli_Rocks480/S_Shale_03.png","response":null,"trial_type":"image-keyboard-response","trial_index":97,"plugin_version":"2.1.0","time_elapsed":577746,"subject_id":"90850","group":"Group2","condition":"1_Rep","full_date":"2026-02-01T00:24:59.500Z","date":"2026-02-01","time":"00:24:59"},{"rt":null,"stimulus":"<p style=\"font-size: 50px; margin: 0; text-align: center;\">+</p>","response":null,"trial_type":"html-keyboard-response","trial_index":98,"plugin_version":"2.1.0","time_elapsed":578749,"subject_id":"90850","group":"Group2","condition":"1_Rep","full_date":"2026-02-01T00:24:59.500Z","date":"2026-02-01","time":"00:24:59"},{"task":"memory_phase","broad_category":"S","image_png":"S_Chert_13.png","image_id":365,"category_name":"Chert","category":23,"distinct_rating":6.57,"distinct_type":"Top","rt":null,"stimulus":"Stimuli_Rocks480/S_Chert_13.png","response":null,"trial_type":"image-keyboard-response","trial_index":99,"plugin_version":"2.1.0","time_elapsed":581262,"subject_id":"90850","group":"Group2","condition":"1_Rep","full_date":"2026-02-01T00:24:59.500Z","date":"2026-02-01","time":"00:24:59"},{"rt":null,"stimulus":"<p style=\"font-size: 50px; margin: 0; text-align: center;\">+</p>","response":null,"trial_type":"html-keyboard-response","trial_index":100,"plugin_version":"2.1.0","time_elapsed":582266,"subject_id":"90850","group":"Group2","condition":"1_Rep","full_date":"2026-02-01T00:24:59.500Z","date":"2026-02-01","time":"00:24:59"},{"task":"memory_phase","broad_category":"M","image_png":"M_Phyllite_02.png","image_id":258,"category_name":"Phyllite","category":17,"distinct_rating":2.89,"distinct_type":"Bottom","rt":null,"stimulus":"Stimuli_Rocks480/M_Phyllite_02.png","response":null,"trial_type":"image-keyboard-response","trial_index":101,"plugin_version":"2.1.0","time_elapsed":584790,"subject_id":"90850","group":"Group2","condition":"1_Rep","full_date":"2026-02-01T00:24:59.500Z","date":"2026-02-01","time":"00:24:59"},{"rt":null,"stimulus":"<p style=\"font-size: 50px; margin: 0; text-align: center;\">+</p>","response":null,"trial_type":"html-keyboard-response","trial_index":102,"plugin_version":"2.1.0","time_elapsed":585795,"subject_id":"90850","group":"Group2","condition":"1_Rep","full_date":"2026-02-01T00:24:59.500Z","date":"2026-02-01","time":"00:24:59"},{"task":"memory_phase","broad_category":"S","image_png":"S_Shale_02.png","image_id":466,"category_name":"Shale","category":30,"distinct_rating":2.9,"distinct_type":"Bottom","rt":null,"stimulus":"Stimuli_Rocks480/S_Shale_02.png","response":null,"trial_type":"image-keyboard-response","trial_index":103,"plugin_version":"2.1.0","time_elapsed":588313,"subject_id":"90850","group":"Group2","condition":"1_Rep","full_date":"2026-02-01T00:24:59.500Z","date":"2026-02-01","time":"00:24:59"},{"rt":null,"stimulus":"<p style=\"font-size: 50px; margin: 0; text-align: center;\">+</p>","response":null,"trial_type":"html-keyboard-response","trial_index":104,"plugin_version":"2.1.0","time_elapsed":589316,"subject_id":"90850","group":"Group2","condition":"1_Rep","full_date":"2026-02-01T00:24:59.500Z","date":"2026-02-01","time":"00:24:59"},{"task":"memory_phase","broad_category":"I","image_png":"I_Pegmatite_03.png","image_id":99,"category_name":"Pegmatite","category":7,"distinct_rating":7.24,"distinct_type":"Top","rt":null,"stimulus":"Stimuli_Rocks480/I_Pegmatite_03.png","response":null,"trial_type":"image-keyboard-response","trial_index":105,"plugin_version":"2.1.0","time_elapsed":591834,"subject_id":"90850","group":"Group2","condition":"1_Rep","full_date":"2026-02-01T00:24:59.500Z","date":"2026-02-01","time":"00:24:59"},{"rt":26515,"stimulus":"<div style=\"max-width: 760px; margin: auto; font-size: 20px; line-height: 1.5;\">\n      <h1 style=\"text-align:center; font-size: 30px;\">Instructions for the Test Phase</h1>\n      <p>\n        The study phase is now complete.\n      </p>\n      <p>\n        In the test phase, you will again see a series of rock images. \n        Some will be ones you saw before - during the study phase, while others will be new.  \n        <b>Your task</b> is to decide whether you have seen each image before by pressing the corresponding key on your keyboard:<br><br>\n          <b>A</b> - NO (you did not see this image before)<br>\n          <b>L</b> - YES (you saw this image before)<br><br>\n        The test will proceed at your own pace. You will receive feedback after each response.  \n        Please try to respond <b>as accurately as possible</b>.\n      </p>\n      <p>\n        <b>Reminder:</b> If your computer has multiple language settings (e.g., English and another language),\n        please ensure it is set to English during the test phase.\n      </p>\n      <p>\n        You can track your progress using the <b>completion bar</b> at the top of the screen.  \n        Note that it has been refreshed to reflect your progress during this final phase.\n      </p>\n      <p>\n        Press the button below when you are ready to continue.\n      </p>\n    </div>","response":0,"trial_type":"html-button-response","trial_index":106,"plugin_version":"2.1.0","time_elapsed":618355,"subject_id":"90850","group":"Group2","condition":"1_Rep","full_date":"2026-02-01T00:24:59.500Z","date":"2026-02-01","time":"00:24:59"},{"correct_response":"l","task":"test_phase","broad_category":"S","image_png":"S_Shale_07.png","image_id":471,"category_name":"Shale","category":30,"distinct_rating":2.73,"distinct_type":"Bottom","item_type":"Target","rt":31809,"stimulus":"Stimuli_Rocks480/S_Shale_07.png","response":"l","trial_type":"image-keyboard-response","trial_index":107,"plugin_version":"2.1.0","time_elapsed":650169,"subject_id":"90850","group":"Group2","condition":"1_Rep","full_date":"2026-02-01T00:24:59.500Z","date":"2026-02-01","time":"00:24:59","cor_ans":true},{"trial_type":"html-keyboard-response","rt":null,"stimulus":"<p style=\"color: green; font-size: 50px; font-weight: bold;\">Correct</p>","response":null,"trial_index":108,"plugin_version":"2.1.0","time_elapsed":650674,"subject_id":"90850","group":"Group2","condition":"1_Rep","full_date":"2026-02-01T00:24:59.500Z","date":"2026-02-01","time":"00:24:59"},{"correct_response":"l","task":"test_phase","broad_category":"S","image_png":"S_Conglomerate_14.png","image_id":382,"category_name":"Conglomerate","category":24,"distinct_rating":6.86,"distinct_type":"Top","item_type":"Target","rt":1601,"stimulus":"Stimuli_Rocks480/S_Conglomerate_14.png","response":"l","trial_type":"image-keyboard-response","trial_index":109,"plugin_version":"2.1.0","time_elapsed":652279,"subject_id":"90850","group":"Group2","condition":"1_Rep","full_date":"2026-02-01T00:24:59.500Z","date":"2026-02-01","time":"00:24:59","cor_ans":true},{"trial_type":"html-keyboard-response","rt":null,"stimulus":"<p style=\"color: green; font-size: 50px; font-weight: bold;\">Correct</p>","response":null,"trial_index":110,"plugin_version":"2.1.0","time_elapsed":652782,"subject_id":"90850","group":"Group2","condition":"1_Rep","full_date":"2026-02-01T00:24:59.500Z","date":"2026-02-01","time":"00:24:59"},{"correct_response":"a","task":"test_phase","broad_category":"I","image_png":"I_Pumice_11.png","image_id":139,"category_name":"Pumice","category":9,"distinct_rating":1.74,"distinct_type":"Bottom","item_type":"Foil","rt":2086,"stimulus":"Stimuli_Rocks480/I_Pumice_11.png","response":"l","trial_type":"image-keyboard-response","trial_index":111,"plugin_version":"2.1.0","time_elapsed":654880,"subject_id":"90850","group":"Group2","condition":"1_Rep","full_date":"2026-02-01T00:24:59.500Z","date":"2026-02-01","time":"00:24:59","cor_ans":false},{"trial_type":"html-keyboard-response","rt":null,"stimulus":"<p style=\"color: red; font-size: 50px; font-weight: bold;\">Incorrect</p>","response":null,"trial_index":112,"plugin_version":"2.1.0","time_elapsed":655383,"subject_id":"90850","group":"Group2","condition":"1_Rep","full_date":"2026-02-01T00:24:59.500Z","date":"2026-02-01","time":"00:24:59"},{"correct_response":"l","task":"test_phase","broad_category":"I","image_png":"I_Diorite_10.png","image_id":42,"category_name":"Diorite","category":3,"distinct_rating":2.84,"distinct_type":"Bottom","item_type":"Target","rt":1009,"stimulus":"Stimuli_Rocks480/I_Diorite_10.png","response":"l","trial_type":"image-keyboard-response","trial_index":113,"plugin_version":"2.1.0","time_elapsed":656395,"subject_id":"90850","group":"Group2","condition":"1_Rep","full_date":"2026-02-01T00:24:59.500Z","date":"2026-02-01","time":"00:24:59","cor_ans":true},{"trial_type":"html-keyboard-response","rt":null,"stimulus":"<p style=\"color: green; font-size: 50px; font-weight: bold;\">Correct</p>","response":null,"trial_index":114,"plugin_version":"2.1.0","time_elapsed":656897,"subject_id":"90850","group":"Group2","condition":"1_Rep","full_date":"2026-02-01T00:24:59.500Z","date":"2026-02-01","time":"00:24:59"},{"correct_response":"a","task":"test_phase","broad_category":"M","image_png":"M_Slate_15.png","image_id":319,"category_name":"Slate","category":20,"distinct_rating":2.13,"distinct_type":"Bottom","item_type":"Foil","rt":3207,"stimulus":"Stimuli_Rocks480/M_Slate_15.png","response":"l","trial_type":"image-keyboard-response","trial_index":115,"plugin_version":"2.1.0","time_elapsed":660118,"subject_id":"90850","group":"Group2","condition":"1_Rep","full_date":"2026-02-01T00:24:59.500Z","date":"2026-02-01","time":"00:24:59","cor_ans":false},{"trial_type":"html-keyboard-response","rt":null,"stimulus":"<p style=\"color: red; font-size: 50px; font-weight: bold;\">Incorrect</p>","response":null,"trial_index":116,"plugin_version":"2.1.0","time_elapsed":660621,"subject_id":"90850","group":"Group2","condition":"1_Rep","full_date":"2026-02-01T00:24:59.500Z","date":"2026-02-01","time":"00:24:59"},{"correct_response":"a","task":"test_phase","broad_category":"I","image_png":"I_Gabbro_11.png","image_id":59,"category_name":"Gabbro","category":4,"distinct_rating":1.99,"distinct_type":"Bottom","item_type":"Foil","rt":1439,"stimulus":"Stimuli_Rocks480/I_Gabbro_11.png","response":"l","trial_type":"image-keyboard-response","trial_index":117,"plugin_version":"2.1.0","time_elapsed":662074,"subject_id":"90850","group":"Group2","condition":"1_Rep","full_date":"2026-02-01T00:24:59.500Z","date":"2026-02-01","time":"00:24:59","cor_ans":false},{"trial_type":"html-keyboard-response","rt":null,"stimulus":"<p style=\"color: red; font-size: 50px; font-weight: bold;\">Incorrect</p>","response":null,"trial_index":118,"plugin_version":"2.1.0","time_elapsed":662576,"subject_id":"90850","group":"Group2","condition":"1_Rep","full_date":"2026-02-01T00:24:59.500Z","date":"2026-02-01","time":"00:24:59"},{"correct_response":"a","task":"test_phase","broad_category":"S","image_png":"S_Sandstone_03.png","image_id":451,"category_name":"Sandstone","category":29,"distinct_rating":1.86,"distinct_type":"Bottom","item_type":"Foil","rt":1181,"stimulus":"Stimuli_Rocks480/S_Sandstone_03.png","response":"a","trial_type":"image-keyboard-response","trial_index":119,"plugin_version":"2.1.0","time_elapsed":663773,"subject_id":"90850","group":"Group2","condition":"1_Rep","full_date":"2026-02-01T00:24:59.500Z","date":"2026-02-01","time":"00:24:59","cor_ans":true},{"trial_type":"html-keyboard-response","rt":null,"stimulus":"<p style=\"color: green; font-size: 50px; font-weight: bold;\">Correct</p>","response":null,"trial_index":120,"plugin_version":"2.1.0","time_elapsed":664275,"subject_id":"90850","group":"Group2","condition":"1_Rep","full_date":"2026-02-01T00:24:59.500Z","date":"2026-02-01","time":"00:24:59"},{"correct_response":"a","task":"test_phase","broad_category":"I","image_png":"I_Diorite_04.png","image_id":36,"category_name":"Diorite","category":3,"distinct_rating":2.98,"distinct_type":"Bottom","item_type":"Foil","rt":1587,"stimulus":"Stimuli_Rocks480/I_Diorite_04.png","response":"l","trial_type":"image-keyboard-response","trial_index":121,"plugin_version":"2.1.0","time_elapsed":665883,"subject_id":"90850","group":"Group2","condition":"1_Rep","full_date":"2026-02-01T00:24:59.500Z","date":"2026-02-01","time":"00:24:59","cor_ans":false},{"trial_type":"html-keyboard-response","rt":null,"stimulus":"<p style=\"color: red; font-size: 50px; font-weight: bold;\">Incorrect</p>","response":null,"trial_index":122,"plugin_version":"2.1.0","time_elapsed":666384,"subject_id":"90850","group":"Group2","condition":"1_Rep","full_date":"2026-02-01T00:24:59.500Z","date":"2026-02-01","time":"00:24:59"},{"correct_response":"l","task":"test_phase","broad_category":"M","image_png":"M_Gneiss_15.png","image_id":207,"category_name":"Gneiss","category":13,"distinct_rating":3.11,"distinct_type":"Bottom","item_type":"Target","rt":1034,"stimulus":"Stimuli_Rocks480/M_Gneiss_15.png","response":"a","trial_type":"image-keyboard-response","trial_index":123,"plugin_version":"2.1.0","time_elapsed":667432,"subject_id":"90850","group":"Group2","condition":"1_Rep","full_date":"2026-02-01T00:24:59.500Z","date":"2026-02-01","time":"00:24:59","cor_ans":false},{"trial_type":"html-keyboard-response","rt":null,"stimulus":"<p style=\"color: red; font-size: 50px; font-weight: bold;\">Incorrect</p>","response":null,"trial_index":124,"plugin_version":"2.1.0","time_elapsed":667933,"subject_id":"90850","group":"Group2","condition":"1_Rep","full_date":"2026-02-01T00:24:59.500Z","date":"2026-02-01","time":"00:24:59"},{"correct_response":"a","task":"test_phase","broad_category":"M","image_png":"M_Gneiss_06.png","image_id":198,"category_name":"Gneiss","category":13,"distinct_rating":2.65,"distinct_type":"Bottom","item_type":"Foil","rt":2538,"stimulus":"Stimuli_Rocks480/M_Gneiss_06.png","response":"l","trial_type":"image-keyboard-response","trial_index":125,"plugin_version":"2.1.0","time_elapsed":670492,"subject_id":"90850","group":"Group2","condition":"1_Rep","full_date":"2026-02-01T00:24:59.500Z","date":"2026-02-01","time":"00:24:59","cor_ans":false},{"trial_type":"html-keyboard-response","rt":null,"stimulus":"<p style=\"color: red; font-size: 50px; font-weight: bold;\">Incorrect</p>","response":null,"trial_index":126,"plugin_version":"2.1.0","time_elapsed":670993,"subject_id":"90850","group":"Group2","condition":"1_Rep","full_date":"2026-02-01T00:24:59.500Z","date":"2026-02-01","time":"00:24:59"},{"correct_response":"a","task":"test_phase","broad_category":"M","image_png":"M_Phyllite_10.png","image_id":266,"category_name":"Phyllite","category":17,"distinct_rating":2.6,"distinct_type":"Bottom","item_type":"Foil","rt":2989,"stimulus":"Stimuli_Rocks480/M_Phyllite_10.png","response":"a","trial_type":"image-keyboard-response","trial_index":127,"plugin_version":"2.1.0","time_elapsed":673998,"subject_id":"90850","group":"Group2","condition":"1_Rep","full_date":"2026-02-01T00:24:59.500Z","date":"2026-02-01","time":"00:24:59","cor_ans":true},{"trial_type":"html-keyboard-response","rt":null,"stimulus":"<p style=\"color: green; font-size: 50px; font-weight: bold;\">Correct</p>","response":null,"trial_index":128,"plugin_version":"2.1.0","time_elapsed":674499,"subject_id":"90850","group":"Group2","condition":"1_Rep","full_date":"2026-02-01T00:24:59.500Z","date":"2026-02-01","time":"00:24:59"},{"correct_response":"l","task":"test_phase","broad_category":"S","image_png":"S_Sandstone_11.png","image_id":459,"category_name":"Sandstone","category":29,"distinct_rating":1.82,"distinct_type":"Bottom","item_type":"Target","rt":1361,"stimulus":"Stimuli_Rocks480/S_Sandstone_11.png","response":"l","trial_type":"image-keyboard-response","trial_index":129,"plugin_version":"2.1.0","time_elapsed":675882,"subject_id":"90850","group":"Group2","condition":"1_Rep","full_date":"2026-02-01T00:24:59.500Z","date":"2026-02-01","time":"00:24:59","cor_ans":true},{"trial_type":"html-keyboard-response","rt":null,"stimulus":"<p style=\"color: green; font-size: 50px; font-weight: bold;\">Correct</p>","response":null,"trial_index":130,"plugin_version":"2.1.0","time_elapsed":676385,"subject_id":"90850","group":"Group2","condition":"1_Rep","full_date":"2026-02-01T00:24:59.500Z","date":"2026-02-01","time":"00:24:59"},{"correct_response":"l","task":"test_phase","broad_category":"S","image_png":"S_Sandstone_08.png","image_id":456,"category_name":"Sandstone","category":29,"distinct_rating":1.5,"distinct_type":"Bottom","item_type":"Target","rt":2273,"stimulus":"Stimuli_Rocks480/S_Sandstone_08.png","response":"l","trial_type":"image-keyboard-response","trial_index":131,"plugin_version":"2.1.0","time_elapsed":678675,"subject_id":"90850","group":"Group2","condition":"1_Rep","full_date":"2026-02-01T00:24:59.500Z","date":"2026-02-01","time":"00:24:59","cor_ans":true},{"trial_type":"html-keyboard-response","rt":null,"stimulus":"<p style=\"color: green; font-size: 50px; font-weight: bold;\">Correct</p>","response":null,"trial_index":132,"plugin_version":"2.1.0","time_elapsed":679178,"subject_id":"90850","group":"Group2","condition":"1_Rep","full_date":"2026-02-01T00:24:59.500Z","date":"2026-02-01","time":"00:24:59"},{"correct_response":"l","task":"test_phase","broad_category":"I","image_png":"I_Rhyolite_10.png","image_id":154,"category_name":"Rhyolite","category":10,"distinct_rating":2.88,"distinct_type":"Bottom","item_type":"Target","rt":1407,"stimulus":"Stimuli_Rocks480/I_Rhyolite_10.png","response":"a","trial_type":"image-keyboard-response","trial_index":133,"plugin_version":"2.1.0","time_elapsed":680611,"subject_id":"90850","group":"Group2","condition":"1_Rep","full_date":"2026-02-01T00:24:59.500Z","date":"2026-02-01","time":"00:24:59","cor_ans":false},{"trial_type":"html-keyboard-response","rt":null,"stimulus":"<p style=\"color: red; font-size: 50px; font-weight: bold;\">Incorrect</p>","response":null,"trial_index":134,"plugin_version":"2.1.0","time_elapsed":681113,"subject_id":"90850","group":"Group2","condition":"1_Rep","full_date":"2026-02-01T00:24:59.500Z","date":"2026-02-01","time":"00:24:59"},{"correct_response":"l","task":"test_phase","broad_category":"S","image_png":"S_Rock Salt_13.png","image_id":445,"category_name":"Rock Salt","category":28,"distinct_rating":7.58,"distinct_type":"Top","item_type":"Target","rt":1829,"stimulus":"Stimuli_Rocks480/S_Rock Salt_13.png","response":"l","trial_type":"image-keyboard-response","trial_index":135,"plugin_version":"2.1.0","time_elapsed":682961,"subject_id":"90850","group":"Group2","condition":"1_Rep","full_date":"2026-02-01T00:24:59.500Z","date":"2026-02-01","time":"00:24:59","cor_ans":true},{"trial_type":"html-keyboard-response","rt":null,"stimulus":"<p style=\"color: green; font-size: 50px; font-weight: bold;\">Correct</p>","response":null,"trial_index":136,"plugin_version":"2.1.0","time_elapsed":683463,"subject_id":"90850","group":"Group2","condition":"1_Rep","full_date":"2026-02-01T00:24:59.500Z","date":"2026-02-01","time":"00:24:59"},{"correct_response":"l","task":"test_phase","broad_category":"I","image_png":"I_Basalt_08.png","image_id":24,"category_name":"Basalt","category":2,"distinct_rating":2.31,"distinct_type":"Bottom","item_type":"Target","rt":749,"stimulus":"Stimuli_Rocks480/I_Basalt_08.png","response":"a","trial_type":"image-keyboard-response","trial_index":137,"plugin_version":"2.1.0","time_elapsed":684237,"subject_id":"90850","group":"Group2","condition":"1_Rep","full_date":"2026-02-01T00:24:59.500Z","date":"2026-02-01","time":"00:24:59","cor_ans":false},{"trial_type":"html-keyboard-response","rt":null,"stimulus":"<p style=\"color: red; font-size: 50px; font-weight: bold;\">Incorrect</p>","response":null,"trial_index":138,"plugin_version":"2.1.0","time_elapsed":684738,"subject_id":"90850","group":"Group2","condition":"1_Rep","full_date":"2026-02-01T00:24:59.500Z","date":"2026-02-01","time":"00:24:59"},{"correct_response":"a","task":"test_phase","broad_category":"M","image_png":"M_Quartzite_08.png","image_id":280,"category_name":"Quartzite","category":18,"distinct_rating":2.15,"distinct_type":"Bottom","item_type":"Foil","rt":1487,"stimulus":"Stimuli_Rocks480/M_Quartzite_08.png","response":"l","trial_type":"image-keyboard-response","trial_index":139,"plugin_version":"2.1.0","time_elapsed":686241,"subject_id":"90850","group":"Group2","condition":"1_Rep","full_date":"2026-02-01T00:24:59.500Z","date":"2026-02-01","time":"00:24:59","cor_ans":false},{"trial_type":"html-keyboard-response","rt":null,"stimulus":"<p style=\"color: red; font-size: 50px; font-weight: bold;\">Incorrect</p>","response":null,"trial_index":140,"plugin_version":"2.1.0","time_elapsed":686743,"subject_id":"90850","group":"Group2","condition":"1_Rep","full_date":"2026-02-01T00:24:59.500Z","date":"2026-02-01","time":"00:24:59"},{"correct_response":"a","task":"test_phase","broad_category":"I","image_png":"I_Andesite_06.png","image_id":6,"category_name":"Andesite","category":1,"distinct_rating":3.17,"distinct_type":"Bottom","item_type":"Foil","rt":1177,"stimulus":"Stimuli_Rocks480/I_Andesite_06.png","response":"a","trial_type":"image-keyboard-response","trial_index":141,"plugin_version":"2.1.0","time_elapsed":687941,"subject_id":"90850","group":"Group2","condition":"1_Rep","full_date":"2026-02-01T00:24:59.500Z","date":"2026-02-01","time":"00:24:59","cor_ans":true},{"trial_type":"html-keyboard-response","rt":null,"stimulus":"<p style=\"color: green; font-size: 50px; font-weight: bold;\">Correct</p>","response":null,"trial_index":142,"plugin_version":"2.1.0","time_elapsed":688442,"subject_id":"90850","group":"Group2","condition":"1_Rep","full_date":"2026-02-01T00:24:59.500Z","date":"2026-02-01","time":"00:24:59"},{"correct_response":"a","task":"test_phase","broad_category":"I","image_png":"I_Rhyolite_11.png","image_id":155,"category_name":"Rhyolite","category":10,"distinct_rating":1.73,"distinct_type":"Bottom","item_type":"Foil","rt":2084,"stimulus":"Stimuli_Rocks480/I_Rhyolite_11.png","response":"a","trial_type":"image-keyboard-response","trial_index":143,"plugin_version":"2.1.0","time_elapsed":690540,"subject_id":"90850","group":"Group2","condition":"1_Rep","full_date":"2026-02-01T00:24:59.500Z","date":"2026-02-01","time":"00:24:59","cor_ans":true},{"trial_type":"html-keyboard-response","rt":null,"stimulus":"<p style=\"color: green; font-size: 50px; font-weight: bold;\">Correct</p>","response":null,"trial_index":144,"plugin_version":"2.1.0","time_elapsed":691043,"subject_id":"90850","group":"Group2","condition":"1_Rep","full_date":"2026-02-01T00:24:59.500Z","date":"2026-02-01","time":"00:24:59"},{"correct_response":"l","task":"test_phase","broad_category":"I","image_png":"I_Rhyolite_08.png","image_id":152,"category_name":"Rhyolite","category":10,"distinct_rating":1.38,"distinct_type":"Bottom","item_type":"Target","rt":1308,"stimulus":"Stimuli_Rocks480/I_Rhyolite_08.png","response":"l","trial_type":"image-keyboard-response","trial_index":145,"plugin_version":"2.1.0","time_elapsed":692366,"subject_id":"90850","group":"Group2","condition":"1_Rep","full_date":"2026-02-01T00:24:59.500Z","date":"2026-02-01","time":"00:24:59","cor_ans":true},{"trial_type":"html-keyboard-response","rt":null,"stimulus":"<p style=\"color: green; font-size: 50px; font-weight: bold;\">Correct</p>","response":null,"trial_index":146,"plugin_version":"2.1.0","time_elapsed":692867,"subject_id":"90850","group":"Group2","condition":"1_Rep","full_date":"2026-02-01T00:24:59.500Z","date":"2026-02-01","time":"00:24:59"},{"correct_response":"l","task":"test_phase","broad_category":"I","image_png":"I_Andesite_03.png","image_id":3,"category_name":"Andesite","category":1,"distinct_rating":3.17,"distinct_type":"Bottom","item_type":"Target","rt":1679,"stimulus":"Stimuli_Rocks480/I_Andesite_03.png","response":"l","trial_type":"image-keyboard-response","trial_index":147,"plugin_version":"2.1.0","time_elapsed":694560,"subject_id":"90850","group":"Group2","condition":"1_Rep","full_date":"2026-02-01T00:24:59.500Z","date":"2026-02-01","time":"00:24:59","cor_ans":true},{"trial_type":"html-keyboard-response","rt":null,"stimulus":"<p style=\"color: green; font-size: 50px; font-weight: bold;\">Correct</p>","response":null,"trial_index":148,"plugin_version":"2.1.0","time_elapsed":695062,"subject_id":"90850","group":"Group2","condition":"1_Rep","full_date":"2026-02-01T00:24:59.500Z","date":"2026-02-01","time":"00:24:59"},{"correct_response":"a","task":"test_phase","broad_category":"M","image_png":"M_Marble_06.png","image_id":230,"category_name":"Marble","category":15,"distinct_rating":3.4,"distinct_type":"Bottom","item_type":"Foil","rt":1182,"stimulus":"Stimuli_Rocks480/M_Marble_06.png","response":"a","trial_type":"image-keyboard-response","trial_index":149,"plugin_version":"2.1.0","time_elapsed":696259,"subject_id":"90850","group":"Group2","condition":"1_Rep","full_date":"2026-02-01T00:24:59.500Z","date":"2026-02-01","time":"00:24:59","cor_ans":true},{"trial_type":"html-keyboard-response","rt":null,"stimulus":"<p style=\"color: green; font-size: 50px; font-weight: bold;\">Correct</p>","response":null,"trial_index":150,"plugin_version":"2.1.0","time_elapsed":696761,"subject_id":"90850","group":"Group2","condition":"1_Rep","full_date":"2026-02-01T00:24:59.500Z","date":"2026-02-01","time":"00:24:59"},{"correct_response":"a","task":"test_phase","broad_category":"I","image_png":"I_Pumice_12.png","image_id":140,"category_name":"Pumice","category":9,"distinct_rating":2.97,"distinct_type":"Bottom","item_type":"Foil","rt":1117,"stimulus":"Stimuli_Rocks480/I_Pumice_12.png","response":"a","trial_type":"image-keyboard-response","trial_index":151,"plugin_version":"2.1.0","time_elapsed":697892,"subject_id":"90850","group":"Group2","condition":"1_Rep","full_date":"2026-02-01T00:24:59.500Z","date":"2026-02-01","time":"00:24:59","cor_ans":true},{"trial_type":"html-keyboard-response","rt":null,"stimulus":"<p style=\"color: green; font-size: 50px; font-weight: bold;\">Correct</p>","response":null,"trial_index":152,"plugin_version":"2.1.0","time_elapsed":698395,"subject_id":"90850","group":"Group2","condition":"1_Rep","full_date":"2026-02-01T00:24:59.500Z","date":"2026-02-01","time":"00:24:59"},{"correct_response":"l","task":"test_phase","broad_category":"I","image_png":"I_Basalt_13.png","image_id":29,"category_name":"Basalt","category":2,"distinct_rating":2.68,"distinct_type":"Bottom","item_type":"Target","rt":2218,"stimulus":"Stimuli_Rocks480/I_Basalt_13.png","response":"l","trial_type":"image-keyboard-response","trial_index":153,"plugin_version":"2.1.0","time_elapsed":700631,"subject_id":"90850","group":"Group2","condition":"1_Rep","full_date":"2026-02-01T00:24:59.500Z","date":"2026-02-01","time":"00:24:59","cor_ans":true},{"trial_type":"html-keyboard-response","rt":null,"stimulus":"<p style=\"color: green; font-size: 50px; font-weight: bold;\">Correct</p>","response":null,"trial_index":154,"plugin_version":"2.1.0","time_elapsed":701133,"subject_id":"90850","group":"Group2","condition":"1_Rep","full_date":"2026-02-01T00:24:59.500Z","date":"2026-02-01","time":"00:24:59"},{"correct_response":"a","task":"test_phase","broad_category":"M","image_png":"M_Quartzite_13.png","image_id":285,"category_name":"Quartzite","category":18,"distinct_rating":2.27,"distinct_type":"Bottom","item_type":"Foil","rt":1486,"stimulus":"Stimuli_Rocks480/M_Quartzite_13.png","response":"l","trial_type":"image-keyboard-response","trial_index":155,"plugin_version":"2.1.0","time_elapsed":702637,"subject_id":"90850","group":"Group2","condition":"1_Rep","full_date":"2026-02-01T00:24:59.500Z","date":"2026-02-01","time":"00:24:59","cor_ans":false},{"trial_type":"html-keyboard-response","rt":null,"stimulus":"<p style=\"color: red; font-size: 50px; font-weight: bold;\">Incorrect</p>","response":null,"trial_index":156,"plugin_version":"2.1.0","time_elapsed":703141,"subject_id":"90850","group":"Group2","condition":"1_Rep","full_date":"2026-02-01T00:24:59.500Z","date":"2026-02-01","time":"00:24:59"},{"correct_response":"a","task":"test_phase","broad_category":"S","image_png":"S_Shale_01.png","image_id":465,"category_name":"Shale","category":30,"distinct_rating":2.7,"distinct_type":"Bottom","item_type":"Foil","rt":1977,"stimulus":"Stimuli_Rocks480/S_Shale_01.png","response":"a","trial_type":"image-keyboard-response","trial_index":157,"plugin_version":"2.1.0","time_elapsed":705132,"subject_id":"90850","group":"Group2","condition":"1_Rep","full_date":"2026-02-01T00:24:59.500Z","date":"2026-02-01","time":"00:24:59","cor_ans":true},{"trial_type":"html-keyboard-response","rt":null,"stimulus":"<p style=\"color: green; font-size: 50px; font-weight: bold;\">Correct</p>","response":null,"trial_index":158,"plugin_version":"2.1.0","time_elapsed":705634,"subject_id":"90850","group":"Group2","condition":"1_Rep","full_date":"2026-02-01T00:24:59.500Z","date":"2026-02-01","time":"00:24:59"},{"correct_response":"l","task":"test_phase","broad_category":"M","image_png":"M_Gneiss_10.png","image_id":202,"category_name":"Gneiss","category":13,"distinct_rating":3.09,"distinct_type":"Bottom","item_type":"Target","rt":1030,"stimulus":"Stimuli_Rocks480/M_Gneiss_10.png","response":"l","trial_type":"image-keyboard-response","trial_index":159,"plugin_version":"2.1.0","time_elapsed":706683,"subject_id":"90850","group":"Group2","condition":"1_Rep","full_date":"2026-02-01T00:24:59.500Z","date":"2026-02-01","time":"00:24:59","cor_ans":true},{"trial_type":"html-keyboard-response","rt":null,"stimulus":"<p style=\"color: green; font-size: 50px; font-weight: bold;\">Correct</p>","response":null,"trial_index":160,"plugin_version":"2.1.0","time_elapsed":707185,"subject_id":"90850","group":"Group2","condition":"1_Rep","full_date":"2026-02-01T00:24:59.500Z","date":"2026-02-01","time":"00:24:59"},{"correct_response":"l","task":"test_phase","broad_category":"I","image_png":"I_Peridotite_13.png","image_id":125,"category_name":"Peridotite","category":8,"distinct_rating":7.28,"distinct_type":"Top","item_type":"Target","rt":984,"stimulus":"Stimuli_Rocks480/I_Peridotite_13.png","response":"l","trial_type":"image-keyboard-response","trial_index":161,"plugin_version":"2.1.0","time_elapsed":708192,"subject_id":"90850","group":"Group2","condition":"1_Rep","full_date":"2026-02-01T00:24:59.500Z","date":"2026-02-01","time":"00:24:59","cor_ans":true},{"trial_type":"html-keyboard-response","rt":null,"stimulus":"<p style=\"color: green; font-size: 50px; font-weight: bold;\">Correct</p>","response":null,"trial_index":162,"plugin_version":"2.1.0","time_elapsed":708695,"subject_id":"90850","group":"Group2","condition":"1_Rep","full_date":"2026-02-01T00:24:59.500Z","date":"2026-02-01","time":"00:24:59"},{"correct_response":"l","task":"test_phase","broad_category":"I","image_png":"I_Basalt_10.png","image_id":26,"category_name":"Basalt","category":2,"distinct_rating":2.76,"distinct_type":"Bottom","item_type":"Target","rt":1439,"stimulus":"Stimuli_Rocks480/I_Basalt_10.png","response":"a","trial_type":"image-keyboard-response","trial_index":163,"plugin_version":"2.1.0","time_elapsed":710151,"subject_id":"90850","group":"Group2","condition":"1_Rep","full_date":"2026-02-01T00:24:59.500Z","date":"2026-02-01","time":"00:24:59","cor_ans":false},{"trial_type":"html-keyboard-response","rt":null,"stimulus":"<p style=\"color: red; font-size: 50px; font-weight: bold;\">Incorrect</p>","response":null,"trial_index":164,"plugin_version":"2.1.0","time_elapsed":710653,"subject_id":"90850","group":"Group2","condition":"1_Rep","full_date":"2026-02-01T00:24:59.500Z","date":"2026-02-01","time":"00:24:59"},{"correct_response":"l","task":"test_phase","broad_category":"I","image_png":"I_Diorite_15.png","image_id":47,"category_name":"Diorite","category":3,"distinct_rating":3.05,"distinct_type":"Bottom","item_type":"Target","rt":1592,"stimulus":"Stimuli_Rocks480/I_Diorite_15.png","response":"l","trial_type":"image-keyboard-response","trial_index":165,"plugin_version":"2.1.0","time_elapsed":712260,"subject_id":"90850","group":"Group2","condition":"1_Rep","full_date":"2026-02-01T00:24:59.500Z","date":"2026-02-01","time":"00:24:59","cor_ans":true},{"trial_type":"html-keyboard-response","rt":null,"stimulus":"<p style=\"color: green; font-size: 50px; font-weight: bold;\">Correct</p>","response":null,"trial_index":166,"plugin_version":"2.1.0","time_elapsed":712762,"subject_id":"90850","group":"Group2","condition":"1_Rep","full_date":"2026-02-01T00:24:59.500Z","date":"2026-02-01","time":"00:24:59"},{"correct_response":"l","task":"test_phase","broad_category":"M","image_png":"M_Marble_03.png","image_id":227,"category_name":"Marble","category":15,"distinct_rating":2.67,"distinct_type":"Bottom","item_type":"Target","rt":1622,"stimulus":"Stimuli_Rocks480/M_Marble_03.png","response":"a","trial_type":"image-keyboard-response","trial_index":167,"plugin_version":"2.1.0","time_elapsed":714401,"subject_id":"90850","group":"Group2","condition":"1_Rep","full_date":"2026-02-01T00:24:59.500Z","date":"2026-02-01","time":"00:24:59","cor_ans":false},{"trial_type":"html-keyboard-response","rt":null,"stimulus":"<p style=\"color: red; font-size: 50px; font-weight: bold;\">Incorrect</p>","response":null,"trial_index":168,"plugin_version":"2.1.0","time_elapsed":714902,"subject_id":"90850","group":"Group2","condition":"1_Rep","full_date":"2026-02-01T00:24:59.500Z","date":"2026-02-01","time":"00:24:59"},{"correct_response":"a","task":"test_phase","broad_category":"M","image_png":"M_Gneiss_05.png","image_id":197,"category_name":"Gneiss","category":13,"distinct_rating":2.97,"distinct_type":"Bottom","item_type":"Foil","rt":1495,"stimulus":"Stimuli_Rocks480/M_Gneiss_05.png","response":"l","trial_type":"image-keyboard-response","trial_index":169,"plugin_version":"2.1.0","time_elapsed":716423,"subject_id":"90850","group":"Group2","condition":"1_Rep","full_date":"2026-02-01T00:24:59.500Z","date":"2026-02-01","time":"00:24:59","cor_ans":false},{"trial_type":"html-keyboard-response","rt":null,"stimulus":"<p style=\"color: red; font-size: 50px; font-weight: bold;\">Incorrect</p>","response":null,"trial_index":170,"plugin_version":"2.1.0","time_elapsed":716925,"subject_id":"90850","group":"Group2","condition":"1_Rep","full_date":"2026-02-01T00:24:59.500Z","date":"2026-02-01","time":"00:24:59"},{"correct_response":"a","task":"test_phase","broad_category":"I","image_png":"I_Obsidian_05.png","image_id":85,"category_name":"Obsidian","category":6,"distinct_rating":7.32,"distinct_type":"Top","item_type":"Foil","rt":1010,"stimulus":"Stimuli_Rocks480/I_Obsidian_05.png","response":"a","trial_type":"image-keyboard-response","trial_index":171,"plugin_version":"2.1.0","time_elapsed":717955,"subject_id":"90850","group":"Group2","condition":"1_Rep","full_date":"2026-02-01T00:24:59.500Z","date":"2026-02-01","time":"00:24:59","cor_ans":true},{"trial_type":"html-keyboard-response","rt":null,"stimulus":"<p style=\"color: green; font-size: 50px; font-weight: bold;\">Correct</p>","response":null,"trial_index":172,"plugin_version":"2.1.0","time_elapsed":718456,"subject_id":"90850","group":"Group2","condition":"1_Rep","full_date":"2026-02-01T00:24:59.500Z","date":"2026-02-01","time":"00:24:59"},{"correct_response":"a","task":"test_phase","broad_category":"S","image_png":"S_Sandstone_15.png","image_id":463,"category_name":"Sandstone","category":29,"distinct_rating":2,"distinct_type":"Bottom","item_type":"Foil","rt":1143,"stimulus":"Stimuli_Rocks480/S_Sandstone_15.png","response":"l","trial_type":"image-keyboard-response","trial_index":173,"plugin_version":"2.1.0","time_elapsed":719622,"subject_id":"90850","group":"Group2","condition":"1_Rep","full_date":"2026-02-01T00:24:59.500Z","date":"2026-02-01","time":"00:24:59","cor_ans":false},{"trial_type":"html-keyboard-response","rt":null,"stimulus":"<p style=\"color: red; font-size: 50px; font-weight: bold;\">Incorrect</p>","response":null,"trial_index":174,"plugin_version":"2.1.0","time_elapsed":720125,"subject_id":"90850","group":"Group2","condition":"1_Rep","full_date":"2026-02-01T00:24:59.500Z","date":"2026-02-01","time":"00:24:59"},{"correct_response":"a","task":"test_phase","broad_category":"M","image_png":"M_Phyllite_07.png","image_id":263,"category_name":"Phyllite","category":17,"distinct_rating":2.59,"distinct_type":"Bottom","item_type":"Foil","rt":1349,"stimulus":"Stimuli_Rocks480/M_Phyllite_07.png","response":"a","trial_type":"image-keyboard-response","trial_index":175,"plugin_version":"2.1.0","time_elapsed":721488,"subject_id":"90850","group":"Group2","condition":"1_Rep","full_date":"2026-02-01T00:24:59.500Z","date":"2026-02-01","time":"00:24:59","cor_ans":true},{"trial_type":"html-keyboard-response","rt":null,"stimulus":"<p style=\"color: green; font-size: 50px; font-weight: bold;\">Correct</p>","response":null,"trial_index":176,"plugin_version":"2.1.0","time_elapsed":721989,"subject_id":"90850","group":"Group2","condition":"1_Rep","full_date":"2026-02-01T00:24:59.500Z","date":"2026-02-01","time":"00:24:59"},{"correct_response":"l","task":"test_phase","broad_category":"I","image_png":"I_Diorite_01.png","image_id":33,"category_name":"Diorite","category":3,"distinct_rating":2.97,"distinct_type":"Bottom","item_type":"Target","rt":2045,"stimulus":"Stimuli_Rocks480/I_Diorite_01.png","response":"l","trial_type":"image-keyboard-response","trial_index":177,"plugin_version":"2.1.0","time_elapsed":724055,"subject_id":"90850","group":"Group2","condition":"1_Rep","full_date":"2026-02-01T00:24:59.500Z","date":"2026-02-01","time":"00:24:59","cor_ans":true},{"trial_type":"html-keyboard-response","rt":null,"stimulus":"<p style=\"color: green; font-size: 50px; font-weight: bold;\">Correct</p>","response":null,"trial_index":178,"plugin_version":"2.1.0","time_elapsed":724557,"subject_id":"90850","group":"Group2","condition":"1_Rep","full_date":"2026-02-01T00:24:59.500Z","date":"2026-02-01","time":"00:24:59"},{"correct_response":"l","task":"test_phase","broad_category":"I","image_png":"I_Gabbro_02.png","image_id":50,"category_name":"Gabbro","category":4,"distinct_rating":2.73,"distinct_type":"Bottom","item_type":"Target","rt":3479,"stimulus":"Stimuli_Rocks480/I_Gabbro_02.png","response":"a","trial_type":"image-keyboard-response","trial_index":179,"plugin_version":"2.1.0","time_elapsed":728051,"subject_id":"90850","group":"Group2","condition":"1_Rep","full_date":"2026-02-01T00:24:59.500Z","date":"2026-02-01","time":"00:24:59","cor_ans":false},{"trial_type":"html-keyboard-response","rt":null,"stimulus":"<p style=\"color: red; font-size: 50px; font-weight: bold;\">Incorrect</p>","response":null,"trial_index":180,"plugin_version":"2.1.0","time_elapsed":728553,"subject_id":"90850","group":"Group2","condition":"1_Rep","full_date":"2026-02-01T00:24:59.500Z","date":"2026-02-01","time":"00:24:59"},{"correct_response":"a","task":"test_phase","broad_category":"S","image_png":"S_Shale_12.png","image_id":476,"category_name":"Shale","category":30,"distinct_rating":2.48,"distinct_type":"Bottom","item_type":"Foil","rt":1199,"stimulus":"Stimuli_Rocks480/S_Shale_12.png","response":"l","trial_type":"image-keyboard-response","trial_index":181,"plugin_version":"2.1.0","time_elapsed":729770,"subject_id":"90850","group":"Group2","condition":"1_Rep","full_date":"2026-02-01T00:24:59.500Z","date":"2026-02-01","time":"00:24:59","cor_ans":false},{"trial_type":"html-keyboard-response","rt":null,"stimulus":"<p style=\"color: red; font-size: 50px; font-weight: bold;\">Incorrect</p>","response":null,"trial_index":182,"plugin_version":"2.1.0","time_elapsed":730273,"subject_id":"90850","group":"Group2","condition":"1_Rep","full_date":"2026-02-01T00:24:59.500Z","date":"2026-02-01","time":"00:24:59"},{"correct_response":"a","task":"test_phase","broad_category":"I","image_png":"I_Rhyolite_14.png","image_id":158,"category_name":"Rhyolite","category":10,"distinct_rating":2.59,"distinct_type":"Bottom","item_type":"Foil","rt":2278,"stimulus":"Stimuli_Rocks480/I_Rhyolite_14.png","response":"a","trial_type":"image-keyboard-response","trial_index":183,"plugin_version":"2.1.0","time_elapsed":732565,"subject_id":"90850","group":"Group2","condition":"1_Rep","full_date":"2026-02-01T00:24:59.500Z","date":"2026-02-01","time":"00:24:59","cor_ans":true},{"trial_type":"html-keyboard-response","rt":null,"stimulus":"<p style=\"color: green; font-size: 50px; font-weight: bold;\">Correct</p>","response":null,"trial_index":184,"plugin_version":"2.1.0","time_elapsed":733067,"subject_id":"90850","group":"Group2","condition":"1_Rep","full_date":"2026-02-01T00:24:59.500Z","date":"2026-02-01","time":"00:24:59"},{"correct_response":"a","task":"test_phase","broad_category":"S","image_png":"S_Conglomerate_05.png","image_id":373,"category_name":"Conglomerate","category":24,"distinct_rating":7.32,"distinct_type":"Top","item_type":"Foil","rt":1581,"stimulus":"Stimuli_Rocks480/S_Conglomerate_05.png","response":"a","trial_type":"image-keyboard-response","trial_index":185,"plugin_version":"2.1.0","time_elapsed":734667,"subject_id":"90850","group":"Group2","condition":"1_Rep","full_date":"2026-02-01T00:24:59.500Z","date":"2026-02-01","time":"00:24:59","cor_ans":true},{"trial_type":"html-keyboard-response","rt":null,"stimulus":"<p style=\"color: green; font-size: 50px; font-weight: bold;\">Correct</p>","response":null,"trial_index":186,"plugin_version":"2.1.0","time_elapsed":735168,"subject_id":"90850","group":"Group2","condition":"1_Rep","full_date":"2026-02-01T00:24:59.500Z","date":"2026-02-01","time":"00:24:59"},{"correct_response":"l","task":"test_phase","broad_category":"I","image_png":"I_Andesite_09.png","image_id":9,"category_name":"Andesite","category":1,"distinct_rating":2.49,"distinct_type":"Bottom","item_type":"Target","rt":3005,"stimulus":"Stimuli_Rocks480/I_Andesite_09.png","response":"l","trial_type":"image-keyboard-response","trial_index":187,"plugin_version":"2.1.0","time_elapsed":738189,"subject_id":"90850","group":"Group2","condition":"1_Rep","full_date":"2026-02-01T00:24:59.500Z","date":"2026-02-01","time":"00:24:59","cor_ans":true},{"trial_type":"html-keyboard-response","rt":null,"stimulus":"<p style=\"color: green; font-size: 50px; font-weight: bold;\">Correct</p>","response":null,"trial_index":188,"plugin_version":"2.1.0","time_elapsed":738692,"subject_id":"90850","group":"Group2","condition":"1_Rep","full_date":"2026-02-01T00:24:59.500Z","date":"2026-02-01","time":"00:24:59"},{"correct_response":"a","task":"test_phase","broad_category":"I","image_png":"I_Pegmatite_16.png","image_id":112,"category_name":"Pegmatite","category":7,"distinct_rating":7.03,"distinct_type":"Top","item_type":"Foil","rt":1258,"stimulus":"Stimuli_Rocks480/I_Pegmatite_16.png","response":"a","trial_type":"image-keyboard-response","trial_index":189,"plugin_version":"2.1.0","time_elapsed":739969,"subject_id":"90850","group":"Group2","condition":"1_Rep","full_date":"2026-02-01T00:24:59.500Z","date":"2026-02-01","time":"00:24:59","cor_ans":true},{"trial_type":"html-keyboard-response","rt":null,"stimulus":"<p style=\"color: green; font-size: 50px; font-weight: bold;\">Correct</p>","response":null,"trial_index":190,"plugin_version":"2.1.0","time_elapsed":740472,"subject_id":"90850","group":"Group2","condition":"1_Rep","full_date":"2026-02-01T00:24:59.500Z","date":"2026-02-01","time":"00:24:59"},{"correct_response":"l","task":"test_phase","broad_category":"M","image_png":"M_Quartzite_07.png","image_id":279,"category_name":"Quartzite","category":18,"distinct_rating":1.97,"distinct_type":"Bottom","item_type":"Target","rt":1284,"stimulus":"Stimuli_Rocks480/M_Quartzite_07.png","response":"l","trial_type":"image-keyboard-response","trial_index":191,"plugin_version":"2.1.0","time_elapsed":741776,"subject_id":"90850","group":"Group2","condition":"1_Rep","full_date":"2026-02-01T00:24:59.500Z","date":"2026-02-01","time":"00:24:59","cor_ans":true},{"trial_type":"html-keyboard-response","rt":null,"stimulus":"<p style=\"color: green; font-size: 50px; font-weight: bold;\">Correct</p>","response":null,"trial_index":192,"plugin_version":"2.1.0","time_elapsed":742278,"subject_id":"90850","group":"Group2","condition":"1_Rep","full_date":"2026-02-01T00:24:59.500Z","date":"2026-02-01","time":"00:24:59"},{"correct_response":"a","task":"test_phase","broad_category":"S","image_png":"S_Shale_08.png","image_id":472,"category_name":"Shale","category":30,"distinct_rating":2.55,"distinct_type":"Bottom","item_type":"Foil","rt":1008,"stimulus":"Stimuli_Rocks480/S_Shale_08.png","response":"a","trial_type":"image-keyboard-response","trial_index":193,"plugin_version":"2.1.0","time_elapsed":743305,"subject_id":"90850","group":"Group2","condition":"1_Rep","full_date":"2026-02-01T00:24:59.500Z","date":"2026-02-01","time":"00:24:59","cor_ans":true},{"trial_type":"html-keyboard-response","rt":null,"stimulus":"<p style=\"color: green; font-size: 50px; font-weight: bold;\">Correct</p>","response":null,"trial_index":194,"plugin_version":"2.1.0","time_elapsed":743808,"subject_id":"90850","group":"Group2","condition":"1_Rep","full_date":"2026-02-01T00:24:59.500Z","date":"2026-02-01","time":"00:24:59"},{"correct_response":"a","task":"test_phase","broad_category":"S","image_png":"S_Rock Gypsum_04.png","image_id":420,"category_name":"Rock Gypsum","category":27,"distinct_rating":7.61,"distinct_type":"Top","item_type":"Foil","rt":1772,"stimulus":"Stimuli_Rocks480/S_Rock Gypsum_04.png","response":"a","trial_type":"image-keyboard-response","trial_index":195,"plugin_version":"2.1.0","time_elapsed":745597,"subject_id":"90850","group":"Group2","condition":"1_Rep","full_date":"2026-02-01T00:24:59.500Z","date":"2026-02-01","time":"00:24:59","cor_ans":true},{"trial_type":"html-keyboard-response","rt":null,"stimulus":"<p style=\"color: green; font-size: 50px; font-weight: bold;\">Correct</p>","response":null,"trial_index":196,"plugin_version":"2.1.0","time_elapsed":746098,"subject_id":"90850","group":"Group2","condition":"1_Rep","full_date":"2026-02-01T00:24:59.500Z","date":"2026-02-01","time":"00:24:59"},{"correct_response":"l","task":"test_phase","broad_category":"S","image_png":"S_Dolomite_07.png","image_id":391,"category_name":"Dolomite","category":25,"distinct_rating":1.73,"distinct_type":"Bottom","item_type":"Target","rt":1185,"stimulus":"Stimuli_Rocks480/S_Dolomite_07.png","response":"l","trial_type":"image-keyboard-response","trial_index":197,"plugin_version":"2.1.0","time_elapsed":747301,"subject_id":"90850","group":"Group2","condition":"1_Rep","full_date":"2026-02-01T00:24:59.500Z","date":"2026-02-01","time":"00:24:59","cor_ans":true},{"trial_type":"html-keyboard-response","rt":null,"stimulus":"<p style=\"color: green; font-size: 50px; font-weight: bold;\">Correct</p>","response":null,"trial_index":198,"plugin_version":"2.1.0","time_elapsed":747802,"subject_id":"90850","group":"Group2","condition":"1_Rep","full_date":"2026-02-01T00:24:59.500Z","date":"2026-02-01","time":"00:24:59"},{"correct_response":"a","task":"test_phase","broad_category":"M","image_png":"M_Gneiss_13.png","image_id":205,"category_name":"Gneiss","category":13,"distinct_rating":3.26,"distinct_type":"Bottom","item_type":"Foil","rt":2863,"stimulus":"Stimuli_Rocks480/M_Gneiss_13.png","response":"l","trial_type":"image-keyboard-response","trial_index":199,"plugin_version":"2.1.0","time_elapsed":750681,"subject_id":"90850","group":"Group2","condition":"1_Rep","full_date":"2026-02-01T00:24:59.500Z","date":"2026-02-01","time":"00:24:59","cor_ans":false},{"trial_type":"html-keyboard-response","rt":null,"stimulus":"<p style=\"color: red; font-size: 50px; font-weight: bold;\">Incorrect</p>","response":null,"trial_index":200,"plugin_version":"2.1.0","time_elapsed":751183,"subject_id":"90850","group":"Group2","condition":"1_Rep","full_date":"2026-02-01T00:24:59.500Z","date":"2026-02-01","time":"00:24:59"},{"correct_response":"l","task":"test_phase","broad_category":"M","image_png":"M_Quartzite_15.png","image_id":287,"category_name":"Quartzite","category":18,"distinct_rating":2.19,"distinct_type":"Bottom","item_type":"Target","rt":858,"stimulus":"Stimuli_Rocks480/M_Quartzite_15.png","response":"a","trial_type":"image-keyboard-response","trial_index":201,"plugin_version":"2.1.0","time_elapsed":752062,"subject_id":"90850","group":"Group2","condition":"1_Rep","full_date":"2026-02-01T00:24:59.500Z","date":"2026-02-01","time":"00:24:59","cor_ans":false},{"trial_type":"html-keyboard-response","rt":null,"stimulus":"<p style=\"color: red; font-size: 50px; font-weight: bold;\">Incorrect</p>","response":null,"trial_index":202,"plugin_version":"2.1.0","time_elapsed":752565,"subject_id":"90850","group":"Group2","condition":"1_Rep","full_date":"2026-02-01T00:24:59.500Z","date":"2026-02-01","time":"00:24:59"},{"correct_response":"a","task":"test_phase","broad_category":"I","image_png":"I_Gabbro_16.png","image_id":64,"category_name":"Gabbro","category":4,"distinct_rating":2.52,"distinct_type":"Bottom","item_type":"Foil","rt":3341,"stimulus":"Stimuli_Rocks480/I_Gabbro_16.png","response":"l","trial_type":"image-keyboard-response","trial_index":203,"plugin_version":"2.1.0","time_elapsed":755923,"subject_id":"90850","group":"Group2","condition":"1_Rep","full_date":"2026-02-01T00:24:59.500Z","date":"2026-02-01","time":"00:24:59","cor_ans":false},{"trial_type":"html-keyboard-response","rt":null,"stimulus":"<p style=\"color: red; font-size: 50px; font-weight: bold;\">Incorrect</p>","response":null,"trial_index":204,"plugin_version":"2.1.0","time_elapsed":756424,"subject_id":"90850","group":"Group2","condition":"1_Rep","full_date":"2026-02-01T00:24:59.500Z","date":"2026-02-01","time":"00:24:59"},{"correct_response":"a","task":"test_phase","broad_category":"M","image_png":"M_Slate_11.png","image_id":315,"category_name":"Slate","category":20,"distinct_rating":2.75,"distinct_type":"Bottom","item_type":"Foil","rt":1790,"stimulus":"Stimuli_Rocks480/M_Slate_11.png","response":"l","trial_type":"image-keyboard-response","trial_index":205,"plugin_version":"2.1.0","time_elapsed":758230,"subject_id":"90850","group":"Group2","condition":"1_Rep","full_date":"2026-02-01T00:24:59.500Z","date":"2026-02-01","time":"00:24:59","cor_ans":false},{"trial_type":"html-keyboard-response","rt":null,"stimulus":"<p style=\"color: red; font-size: 50px; font-weight: bold;\">Incorrect</p>","response":null,"trial_index":206,"plugin_version":"2.1.0","time_elapsed":758732,"subject_id":"90850","group":"Group2","condition":"1_Rep","full_date":"2026-02-01T00:24:59.500Z","date":"2026-02-01","time":"00:24:59"},{"correct_response":"a","task":"test_phase","broad_category":"M","image_png":"M_Slate_03.png","image_id":307,"category_name":"Slate","category":20,"distinct_rating":1.87,"distinct_type":"Bottom","item_type":"Foil","rt":1031,"stimulus":"Stimuli_Rocks480/M_Slate_03.png","response":"l","trial_type":"image-keyboard-response","trial_index":207,"plugin_version":"2.1.0","time_elapsed":759783,"subject_id":"90850","group":"Group2","condition":"1_Rep","full_date":"2026-02-01T00:24:59.500Z","date":"2026-02-01","time":"00:24:59","cor_ans":false},{"trial_type":"html-keyboard-response","rt":null,"stimulus":"<p style=\"color: red; font-size: 50px; font-weight: bold;\">Incorrect</p>","response":null,"trial_index":208,"plugin_version":"2.1.0","time_elapsed":760285,"subject_id":"90850","group":"Group2","condition":"1_Rep","full_date":"2026-02-01T00:24:59.500Z","date":"2026-02-01","time":"00:24:59"},{"correct_response":"a","task":"test_phase","broad_category":"I","image_png":"I_Basalt_02.png","image_id":18,"category_name":"Basalt","category":2,"distinct_rating":1.84,"distinct_type":"Bottom","item_type":"Foil","rt":4169,"stimulus":"Stimuli_Rocks480/I_Basalt_02.png","response":"l","trial_type":"image-keyboard-response","trial_index":209,"plugin_version":"2.1.0","time_elapsed":764476,"subject_id":"90850","group":"Group2","condition":"1_Rep","full_date":"2026-02-01T00:24:59.500Z","date":"2026-02-01","time":"00:24:59","cor_ans":false},{"trial_type":"html-keyboard-response","rt":null,"stimulus":"<p style=\"color: red; font-size: 50px; font-weight: bold;\">Incorrect</p>","response":null,"trial_index":210,"plugin_version":"2.1.0","time_elapsed":764979,"subject_id":"90850","group":"Group2","condition":"1_Rep","full_date":"2026-02-01T00:24:59.500Z","date":"2026-02-01","time":"00:24:59"},{"correct_response":"a","task":"test_phase","broad_category":"I","image_png":"I_Andesite_10.png","image_id":10,"category_name":"Andesite","category":1,"distinct_rating":3.15,"distinct_type":"Bottom","item_type":"Foil","rt":1322,"stimulus":"Stimuli_Rocks480/I_Andesite_10.png","response":"a","trial_type":"image-keyboard-response","trial_index":211,"plugin_version":"2.1.0","time_elapsed":766313,"subject_id":"90850","group":"Group2","condition":"1_Rep","full_date":"2026-02-01T00:24:59.500Z","date":"2026-02-01","time":"00:24:59","cor_ans":true},{"trial_type":"html-keyboard-response","rt":null,"stimulus":"<p style=\"color: green; font-size: 50px; font-weight: bold;\">Correct</p>","response":null,"trial_index":212,"plugin_version":"2.1.0","time_elapsed":766816,"subject_id":"90850","group":"Group2","condition":"1_Rep","full_date":"2026-02-01T00:24:59.500Z","date":"2026-02-01","time":"00:24:59"},{"correct_response":"a","task":"test_phase","broad_category":"I","image_png":"I_Diorite_03.png","image_id":35,"category_name":"Diorite","category":3,"distinct_rating":3.14,"distinct_type":"Bottom","item_type":"Foil","rt":922,"stimulus":"Stimuli_Rocks480/I_Diorite_03.png","response":"l","trial_type":"image-keyboard-response","trial_index":213,"plugin_version":"2.1.0","time_elapsed":767759,"subject_id":"90850","group":"Group2","condition":"1_Rep","full_date":"2026-02-01T00:24:59.500Z","date":"2026-02-01","time":"00:24:59","cor_ans":false},{"trial_type":"html-keyboard-response","rt":null,"stimulus":"<p style=\"color: red; font-size: 50px; font-weight: bold;\">Incorrect</p>","response":null,"trial_index":214,"plugin_version":"2.1.0","time_elapsed":768260,"subject_id":"90850","group":"Group2","condition":"1_Rep","full_date":"2026-02-01T00:24:59.500Z","date":"2026-02-01","time":"00:24:59"},{"correct_response":"l","task":"test_phase","broad_category":"S","image_png":"S_Dolomite_16.png","image_id":400,"category_name":"Dolomite","category":25,"distinct_rating":1.71,"distinct_type":"Bottom","item_type":"Target","rt":2286,"stimulus":"Stimuli_Rocks480/S_Dolomite_16.png","response":"l","trial_type":"image-keyboard-response","trial_index":215,"plugin_version":"2.1.0","time_elapsed":770561,"subject_id":"90850","group":"Group2","condition":"1_Rep","full_date":"2026-02-01T00:24:59.500Z","date":"2026-02-01","time":"00:24:59","cor_ans":true},{"trial_type":"html-keyboard-response","rt":null,"stimulus":"<p style=\"color: green; font-size: 50px; font-weight: bold;\">Correct</p>","response":null,"trial_index":216,"plugin_version":"2.1.0","time_elapsed":771062,"subject_id":"90850","group":"Group2","condition":"1_Rep","full_date":"2026-02-01T00:24:59.500Z","date":"2026-02-01","time":"00:24:59"},{"correct_response":"a","task":"test_phase","broad_category":"I","image_png":"I_Gabbro_08.png","image_id":56,"category_name":"Gabbro","category":4,"distinct_rating":3.02,"distinct_type":"Bottom","item_type":"Foil","rt":950,"stimulus":"Stimuli_Rocks480/I_Gabbro_08.png","response":"a","trial_type":"image-keyboard-response","trial_index":217,"plugin_version":"2.1.0","time_elapsed":772026,"subject_id":"90850","group":"Group2","condition":"1_Rep","full_date":"2026-02-01T00:24:59.500Z","date":"2026-02-01","time":"00:24:59","cor_ans":true},{"trial_type":"html-keyboard-response","rt":null,"stimulus":"<p style=\"color: green; font-size: 50px; font-weight: bold;\">Correct</p>","response":null,"trial_index":218,"plugin_version":"2.1.0","time_elapsed":772527,"subject_id":"90850","group":"Group2","condition":"1_Rep","full_date":"2026-02-01T00:24:59.500Z","date":"2026-02-01","time":"00:24:59"},{"correct_response":"a","task":"test_phase","broad_category":"M","image_png":"M_Marble_16.png","image_id":240,"category_name":"Marble","category":15,"distinct_rating":2.57,"distinct_type":"Bottom","item_type":"Foil","rt":1404,"stimulus":"Stimuli_Rocks480/M_Marble_16.png","response":"a","trial_type":"image-keyboard-response","trial_index":219,"plugin_version":"2.1.0","time_elapsed":773949,"subject_id":"90850","group":"Group2","condition":"1_Rep","full_date":"2026-02-01T00:24:59.500Z","date":"2026-02-01","time":"00:24:59","cor_ans":true},{"trial_type":"html-keyboard-response","rt":null,"stimulus":"<p style=\"color: green; font-size: 50px; font-weight: bold;\">Correct</p>","response":null,"trial_index":220,"plugin_version":"2.1.0","time_elapsed":774452,"subject_id":"90850","group":"Group2","condition":"1_Rep","full_date":"2026-02-01T00:24:59.500Z","date":"2026-02-01","time":"00:24:59"},{"correct_response":"a","task":"test_phase","broad_category":"M","image_png":"M_Quartzite_05.png","image_id":277,"category_name":"Quartzite","category":18,"distinct_rating":2.23,"distinct_type":"Bottom","item_type":"Foil","rt":1393,"stimulus":"Stimuli_Rocks480/M_Quartzite_05.png","response":"a","trial_type":"image-keyboard-response","trial_index":221,"plugin_version":"2.1.0","time_elapsed":775867,"subject_id":"90850","group":"Group2","condition":"1_Rep","full_date":"2026-02-01T00:24:59.500Z","date":"2026-02-01","time":"00:24:59","cor_ans":true},{"trial_type":"html-keyboard-response","rt":null,"stimulus":"<p style=\"color: green; font-size: 50px; font-weight: bold;\">Correct</p>","response":null,"trial_index":222,"plugin_version":"2.1.0","time_elapsed":776369,"subject_id":"90850","group":"Group2","condition":"1_Rep","full_date":"2026-02-01T00:24:59.500Z","date":"2026-02-01","time":"00:24:59"},{"correct_response":"l","task":"test_phase","broad_category":"M","image_png":"M_Marble_14.png","image_id":238,"category_name":"Marble","category":15,"distinct_rating":3.31,"distinct_type":"Bottom","item_type":"Target","rt":1749,"stimulus":"Stimuli_Rocks480/M_Marble_14.png","response":"a","trial_type":"image-keyboard-response","trial_index":223,"plugin_version":"2.1.0","time_elapsed":778134,"subject_id":"90850","group":"Group2","condition":"1_Rep","full_date":"2026-02-01T00:24:59.500Z","date":"2026-02-01","time":"00:24:59","cor_ans":false},{"trial_type":"html-keyboard-response","rt":null,"stimulus":"<p style=\"color: red; font-size: 50px; font-weight: bold;\">Incorrect</p>","response":null,"trial_index":224,"plugin_version":"2.1.0","time_elapsed":778636,"subject_id":"90850","group":"Group2","condition":"1_Rep","full_date":"2026-02-01T00:24:59.500Z","date":"2026-02-01","time":"00:24:59"