[{"width":1440,"height":726,"webaudio":true,"browser":"safari","browser_version":"26.2.0","mobile":false,"os":"Mac OS","fullscreen":true,"vsync_rate":60.67,"webcam":true,"microphone":true,"trial_type":"browser-check","trial_index":0,"plugin_version":"2.1.0","time_elapsed":999,"subject_id":"90680","group":"Group2","condition":"3_Rep","full_date":"2026-02-08T22:04:15.329Z","date":"2026-02-08","time":"22:04:15"},{"success":true,"timeout":false,"failed_images":[],"failed_audio":[],"failed_video":[],"trial_type":"preload","trial_index":1,"plugin_version":"2.1.0","time_elapsed":6744,"subject_id":"90680","group":"Group2","condition":"3_Rep","full_date":"2026-02-08T22:04:15.329Z","date":"2026-02-08","time":"22:04:15"},{"rt":69586,"url":"SONA_consent_memorability.html","trial_type":"external-html","trial_index":2,"plugin_version":"2.1.0","time_elapsed":76383,"subject_id":"90680","group":"Group2","condition":"3_Rep","full_date":"2026-02-08T22:04:15.329Z","date":"2026-02-08","time":"22:04:15"},{"success":true,"rt":1531,"trial_type":"fullscreen","trial_index":3,"plugin_version":"2.1.0","time_elapsed":78918,"subject_id":"90680","group":"Group2","condition":"3_Rep","full_date":"2026-02-08T22:04:15.329Z","date":"2026-02-08","time":"22:04:15"},{"rt":151313,"stimulus":"<div style=\"max-width: 760px; margin: auto; font-size: 20px; line-height: 1.5;\">\n      <h1 style=\"text-align:center; font-size: 30px;\">Instructions</h1>\n      <p>\n        Welcome to the study on <b>visual memory</b>. This experiment consists of <b>two phases</b>: \n        a <b>study phase</b> and a <b>test phase</b>.\n      </p>\n      <p>\n        In the study phase, you will see a series of rock images along with their category labels.\n        The images will appear one at a time.\n        <b>Your task</b> is to learn the categories to which the rock images belong \n        and to remember each image as accurately as possible.\n      </p> \n      <p>\n        Note that we will repeat the study phase <b>3 times</b>, \n             so you will have multiple opportunities to see and remember each image.\n      </p>\n      <p>\n        After the study phase, <b>your memory will be tested</b>. \n        Additional instructions for the test phase will be provided at that time.\n      </p>\n      <p>\n        If your computer has multiple <b>language settings</b> (e.g., English and another language),\n        please make sure it is set to English before starting.\n      </p>\n      <p>\n        You can track your progress using the <b>completion bar</b> at the top of the screen. \n        Please note that the bar will refresh when the test phase begins \n        to give you an accurate sense of your progress in both phases.\n      </p> \n      <p>\n        Press the button below when you are ready to begin.\n      </p>\n    </div>","response":0,"trial_type":"html-button-response","trial_index":4,"plugin_version":"2.1.0","time_elapsed":230232,"subject_id":"90680","group":"Group2","condition":"3_Rep","full_date":"2026-02-08T22:04:15.329Z","date":"2026-02-08","time":"22:04:15"},{"rt":null,"stimulus":"<p style=\"font-size: 50px; margin: 0; text-align: center;\">+</p>","response":null,"trial_type":"html-keyboard-response","trial_index":5,"plugin_version":"2.1.0","time_elapsed":231236,"subject_id":"90680","group":"Group2","condition":"3_Rep","full_date":"2026-02-08T22:04:15.329Z","date":"2026-02-08","time":"22:04:15"},{"task":"memory_phase","broad_category":"M","image_png":"M_Marble_03.png","image_id":227,"category_name":"Marble","category":15,"distinct_rating":2.67,"distinct_type":"Bottom","rt":null,"stimulus":"Stimuli_Rocks480/M_Marble_03.png","response":null,"trial_type":"image-keyboard-response","trial_index":6,"plugin_version":"2.1.0","time_elapsed":233751,"subject_id":"90680","group":"Group2","condition":"3_Rep","full_date":"2026-02-08T22:04:15.329Z","date":"2026-02-08","time":"22:04:15"},{"rt":null,"stimulus":"<p style=\"font-size: 50px; margin: 0; text-align: center;\">+</p>","response":null,"trial_type":"html-keyboard-response","trial_index":7,"plugin_version":"2.1.0","time_elapsed":234753,"subject_id":"90680","group":"Group2","condition":"3_Rep","full_date":"2026-02-08T22:04:15.329Z","date":"2026-02-08","time":"22:04:15"},{"task":"memory_phase","broad_category":"S","image_png":"S_Dolomite_16.png","image_id":400,"category_name":"Dolomite","category":25,"distinct_rating":1.71,"distinct_type":"Bottom","rt":null,"stimulus":"Stimuli_Rocks480/S_Dolomite_16.png","response":null,"trial_type":"image-keyboard-response","trial_index":8,"plugin_version":"2.1.0","time_elapsed":237266,"subject_id":"90680","group":"Group2","condition":"3_Rep","full_date":"2026-02-08T22:04:15.329Z","date":"2026-02-08","time":"22:04:15"},{"rt":null,"stimulus":"<p style=\"font-size: 50px; margin: 0; text-align: center;\">+</p>","response":null,"trial_type":"html-keyboard-response","trial_index":9,"plugin_version":"2.1.0","time_elapsed":238269,"subject_id":"90680","group":"Group2","condition":"3_Rep","full_date":"2026-02-08T22:04:15.329Z","date":"2026-02-08","time":"22:04:15"},{"task":"memory_phase","broad_category":"I","image_png":"I_Basalt_10.png","image_id":26,"category_name":"Basalt","category":2,"distinct_rating":2.76,"distinct_type":"Bottom","rt":null,"stimulus":"Stimuli_Rocks480/I_Basalt_10.png","response":null,"trial_type":"image-keyboard-response","trial_index":10,"plugin_version":"2.1.0","time_elapsed":240782,"subject_id":"90680","group":"Group2","condition":"3_Rep","full_date":"2026-02-08T22:04:15.329Z","date":"2026-02-08","time":"22:04:15"},{"rt":null,"stimulus":"<p style=\"font-size: 50px; margin: 0; text-align: center;\">+</p>","response":null,"trial_type":"html-keyboard-response","trial_index":11,"plugin_version":"2.1.0","time_elapsed":241784,"subject_id":"90680","group":"Group2","condition":"3_Rep","full_date":"2026-02-08T22:04:15.329Z","date":"2026-02-08","time":"22:04:15"},{"task":"memory_phase","broad_category":"I","image_png":"I_Andesite_03.png","image_id":3,"category_name":"Andesite","category":1,"distinct_rating":3.17,"distinct_type":"Bottom","rt":null,"stimulus":"Stimuli_Rocks480/I_Andesite_03.png","response":null,"trial_type":"image-keyboard-response","trial_index":12,"plugin_version":"2.1.0","time_elapsed":244296,"subject_id":"90680","group":"Group2","condition":"3_Rep","full_date":"2026-02-08T22:04:15.329Z","date":"2026-02-08","time":"22:04:15"},{"rt":null,"stimulus":"<p style=\"font-size: 50px; margin: 0; text-align: center;\">+</p>","response":null,"trial_type":"html-keyboard-response","trial_index":13,"plugin_version":"2.1.0","time_elapsed":245299,"subject_id":"90680","group":"Group2","condition":"3_Rep","full_date":"2026-02-08T22:04:15.329Z","date":"2026-02-08","time":"22:04:15"},{"task":"memory_phase","broad_category":"M","image_png":"M_Gneiss_14.png","image_id":206,"category_name":"Gneiss","category":13,"distinct_rating":3.41,"distinct_type":"Bottom","rt":null,"stimulus":"Stimuli_Rocks480/M_Gneiss_14.png","response":null,"trial_type":"image-keyboard-response","trial_index":14,"plugin_version":"2.1.0","time_elapsed":247814,"subject_id":"90680","group":"Group2","condition":"3_Rep","full_date":"2026-02-08T22:04:15.329Z","date":"2026-02-08","time":"22:04:15"},{"rt":null,"stimulus":"<p style=\"font-size: 50px; margin: 0; text-align: center;\">+</p>","response":null,"trial_type":"html-keyboard-response","trial_index":15,"plugin_version":"2.1.0","time_elapsed":248816,"subject_id":"90680","group":"Group2","condition":"3_Rep","full_date":"2026-02-08T22:04:15.329Z","date":"2026-02-08","time":"22:04:15"},{"task":"memory_phase","broad_category":"S","image_png":"S_Dolomite_01.png","image_id":385,"category_name":"Dolomite","category":25,"distinct_rating":1.43,"distinct_type":"Bottom","rt":null,"stimulus":"Stimuli_Rocks480/S_Dolomite_01.png","response":null,"trial_type":"image-keyboard-response","trial_index":16,"plugin_version":"2.1.0","time_elapsed":251334,"subject_id":"90680","group":"Group2","condition":"3_Rep","full_date":"2026-02-08T22:04:15.329Z","date":"2026-02-08","time":"22:04:15"},{"rt":null,"stimulus":"<p style=\"font-size: 50px; margin: 0; text-align: center;\">+</p>","response":null,"trial_type":"html-keyboard-response","trial_index":17,"plugin_version":"2.1.0","time_elapsed":252336,"subject_id":"90680","group":"Group2","condition":"3_Rep","full_date":"2026-02-08T22:04:15.329Z","date":"2026-02-08","time":"22:04:15"},{"task":"memory_phase","broad_category":"M","image_png":"M_Marble_02.png","image_id":226,"category_name":"Marble","category":15,"distinct_rating":3.2,"distinct_type":"Bottom","rt":null,"stimulus":"Stimuli_Rocks480/M_Marble_02.png","response":null,"trial_type":"image-keyboard-response","trial_index":18,"plugin_version":"2.1.0","time_elapsed":254849,"subject_id":"90680","group":"Group2","condition":"3_Rep","full_date":"2026-02-08T22:04:15.329Z","date":"2026-02-08","time":"22:04:15"},{"rt":null,"stimulus":"<p style=\"font-size: 50px; margin: 0; text-align: center;\">+</p>","response":null,"trial_type":"html-keyboard-response","trial_index":19,"plugin_version":"2.1.0","time_elapsed":255851,"subject_id":"90680","group":"Group2","condition":"3_Rep","full_date":"2026-02-08T22:04:15.329Z","date":"2026-02-08","time":"22:04:15"},{"task":"memory_phase","broad_category":"S","image_png":"S_Rock Salt_13.png","image_id":445,"category_name":"Rock Salt","category":28,"distinct_rating":7.58,"distinct_type":"Top","rt":null,"stimulus":"Stimuli_Rocks480/S_Rock Salt_13.png","response":null,"trial_type":"image-keyboard-response","trial_index":20,"plugin_version":"2.1.0","time_elapsed":258367,"subject_id":"90680","group":"Group2","condition":"3_Rep","full_date":"2026-02-08T22:04:15.329Z","date":"2026-02-08","time":"22:04:15"},{"rt":null,"stimulus":"<p style=\"font-size: 50px; margin: 0; text-align: center;\">+</p>","response":null,"trial_type":"html-keyboard-response","trial_index":21,"plugin_version":"2.1.0","time_elapsed":259370,"subject_id":"90680","group":"Group2","condition":"3_Rep","full_date":"2026-02-08T22:04:15.329Z","date":"2026-02-08","time":"22:04:15"},{"task":"memory_phase","broad_category":"S","image_png":"S_Rock Salt_15.png","image_id":447,"category_name":"Rock Salt","category":28,"distinct_rating":7.79,"distinct_type":"Top","rt":null,"stimulus":"Stimuli_Rocks480/S_Rock Salt_15.png","response":null,"trial_type":"image-keyboard-response","trial_index":22,"plugin_version":"2.1.0","time_elapsed":261883,"subject_id":"90680","group":"Group2","condition":"3_Rep","full_date":"2026-02-08T22:04:15.329Z","date":"2026-02-08","time":"22:04:15"},{"rt":null,"stimulus":"<p style=\"font-size: 50px; margin: 0; text-align: center;\">+</p>","response":null,"trial_type":"html-keyboard-response","trial_index":23,"plugin_version":"2.1.0","time_elapsed":262886,"subject_id":"90680","group":"Group2","condition":"3_Rep","full_date":"2026-02-08T22:04:15.329Z","date":"2026-02-08","time":"22:04:15"},{"task":"memory_phase","broad_category":"S","image_png":"S_Sandstone_11.png","image_id":459,"category_name":"Sandstone","category":29,"distinct_rating":1.82,"distinct_type":"Bottom","rt":null,"stimulus":"Stimuli_Rocks480/S_Sandstone_11.png","response":null,"trial_type":"image-keyboard-response","trial_index":24,"plugin_version":"2.1.0","time_elapsed":265403,"subject_id":"90680","group":"Group2","condition":"3_Rep","full_date":"2026-02-08T22:04:15.329Z","date":"2026-02-08","time":"22:04:15"},{"rt":null,"stimulus":"<p style=\"font-size: 50px; margin: 0; text-align: center;\">+</p>","response":null,"trial_type":"html-keyboard-response","trial_index":25,"plugin_version":"2.1.0","time_elapsed":266406,"subject_id":"90680","group":"Group2","condition":"3_Rep","full_date":"2026-02-08T22:04:15.329Z","date":"2026-02-08","time":"22:04:15"},{"task":"memory_phase","broad_category":"S","image_png":"S_Chert_13.png","image_id":365,"category_name":"Chert","category":23,"distinct_rating":6.57,"distinct_type":"Top","rt":null,"stimulus":"Stimuli_Rocks480/S_Chert_13.png","response":null,"trial_type":"image-keyboard-response","trial_index":26,"plugin_version":"2.1.0","time_elapsed":268916,"subject_id":"90680","group":"Group2","condition":"3_Rep","full_date":"2026-02-08T22:04:15.329Z","date":"2026-02-08","time":"22:04:15"},{"rt":null,"stimulus":"<p style=\"font-size: 50px; margin: 0; text-align: center;\">+</p>","response":null,"trial_type":"html-keyboard-response","trial_index":27,"plugin_version":"2.1.0","time_elapsed":269918,"subject_id":"90680","group":"Group2","condition":"3_Rep","full_date":"2026-02-08T22:04:15.329Z","date":"2026-02-08","time":"22:04:15"},{"task":"memory_phase","broad_category":"M","image_png":"M_Gneiss_15.png","image_id":207,"category_name":"Gneiss","category":13,"distinct_rating":3.11,"distinct_type":"Bottom","rt":null,"stimulus":"Stimuli_Rocks480/M_Gneiss_15.png","response":null,"trial_type":"image-keyboard-response","trial_index":28,"plugin_version":"2.1.0","time_elapsed":272428,"subject_id":"90680","group":"Group2","condition":"3_Rep","full_date":"2026-02-08T22:04:15.329Z","date":"2026-02-08","time":"22:04:15"},{"rt":null,"stimulus":"<p style=\"font-size: 50px; margin: 0; text-align: center;\">+</p>","response":null,"trial_type":"html-keyboard-response","trial_index":29,"plugin_version":"2.1.0","time_elapsed":273431,"subject_id":"90680","group":"Group2","condition":"3_Rep","full_date":"2026-02-08T22:04:15.329Z","date":"2026-02-08","time":"22:04:15"},{"task":"memory_phase","broad_category":"I","image_png":"I_Gabbro_02.png","image_id":50,"category_name":"Gabbro","category":4,"distinct_rating":2.73,"distinct_type":"Bottom","rt":null,"stimulus":"Stimuli_Rocks480/I_Gabbro_02.png","response":null,"trial_type":"image-keyboard-response","trial_index":30,"plugin_version":"2.1.0","time_elapsed":275944,"subject_id":"90680","group":"Group2","condition":"3_Rep","full_date":"2026-02-08T22:04:15.329Z","date":"2026-02-08","time":"22:04:15"},{"rt":null,"stimulus":"<p style=\"font-size: 50px; margin: 0; text-align: center;\">+</p>","response":null,"trial_type":"html-keyboard-response","trial_index":31,"plugin_version":"2.1.0","time_elapsed":276946,"subject_id":"90680","group":"Group2","condition":"3_Rep","full_date":"2026-02-08T22:04:15.329Z","date":"2026-02-08","time":"22:04:15"},{"task":"memory_phase","broad_category":"M","image_png":"M_Quartzite_15.png","image_id":287,"category_name":"Quartzite","category":18,"distinct_rating":2.19,"distinct_type":"Bottom","rt":null,"stimulus":"Stimuli_Rocks480/M_Quartzite_15.png","response":null,"trial_type":"image-keyboard-response","trial_index":32,"plugin_version":"2.1.0","time_elapsed":279463,"subject_id":"90680","group":"Group2","condition":"3_Rep","full_date":"2026-02-08T22:04:15.329Z","date":"2026-02-08","time":"22:04:15"},{"rt":null,"stimulus":"<p style=\"font-size: 50px; margin: 0; text-align: center;\">+</p>","response":null,"trial_type":"html-keyboard-response","trial_index":33,"plugin_version":"2.1.0","time_elapsed":280466,"subject_id":"90680","group":"Group2","condition":"3_Rep","full_date":"2026-02-08T22:04:15.329Z","date":"2026-02-08","time":"22:04:15"},{"task":"memory_phase","broad_category":"I","image_png":"I_Gabbro_12.png","image_id":60,"category_name":"Gabbro","category":4,"distinct_rating":2.6,"distinct_type":"Bottom","rt":null,"stimulus":"Stimuli_Rocks480/I_Gabbro_12.png","response":null,"trial_type":"image-keyboard-response","trial_index":34,"plugin_version":"2.1.0","time_elapsed":282983,"subject_id":"90680","group":"Group2","condition":"3_Rep","full_date":"2026-02-08T22:04:15.329Z","date":"2026-02-08","time":"22:04:15"},{"rt":null,"stimulus":"<p style=\"font-size: 50px; margin: 0; text-align: center;\">+</p>","response":null,"trial_type":"html-keyboard-response","trial_index":35,"plugin_version":"2.1.0","time_elapsed":283985,"subject_id":"90680","group":"Group2","condition":"3_Rep","full_date":"2026-02-08T22:04:15.329Z","date":"2026-02-08","time":"22:04:15"},{"task":"memory_phase","broad_category":"M","image_png":"M_Phyllite_02.png","image_id":258,"category_name":"Phyllite","category":17,"distinct_rating":2.89,"distinct_type":"Bottom","rt":null,"stimulus":"Stimuli_Rocks480/M_Phyllite_02.png","response":null,"trial_type":"image-keyboard-response","trial_index":36,"plugin_version":"2.1.0","time_elapsed":286501,"subject_id":"90680","group":"Group2","condition":"3_Rep","full_date":"2026-02-08T22:04:15.329Z","date":"2026-02-08","time":"22:04:15"},{"rt":null,"stimulus":"<p style=\"font-size: 50px; margin: 0; text-align: center;\">+</p>","response":null,"trial_type":"html-keyboard-response","trial_index":37,"plugin_version":"2.1.0","time_elapsed":287503,"subject_id":"90680","group":"Group2","condition":"3_Rep","full_date":"2026-02-08T22:04:15.329Z","date":"2026-02-08","time":"22:04:15"},{"task":"memory_phase","broad_category":"I","image_png":"I_Diorite_01.png","image_id":33,"category_name":"Diorite","category":3,"distinct_rating":2.97,"distinct_type":"Bottom","rt":null,"stimulus":"Stimuli_Rocks480/I_Diorite_01.png","response":null,"trial_type":"image-keyboard-response","trial_index":38,"plugin_version":"2.1.0","time_elapsed":290021,"subject_id":"90680","group":"Group2","condition":"3_Rep","full_date":"2026-02-08T22:04:15.329Z","date":"2026-02-08","time":"22:04:15"},{"rt":null,"stimulus":"<p style=\"font-size: 50px; margin: 0; text-align: center;\">+</p>","response":null,"trial_type":"html-keyboard-response","trial_index":39,"plugin_version":"2.1.0","time_elapsed":291023,"subject_id":"90680","group":"Group2","condition":"3_Rep","full_date":"2026-02-08T22:04:15.329Z","date":"2026-02-08","time":"22:04:15"},{"task":"memory_phase","broad_category":"M","image_png":"M_Slate_04.png","image_id":308,"category_name":"Slate","category":20,"distinct_rating":2.2,"distinct_type":"Bottom","rt":null,"stimulus":"Stimuli_Rocks480/M_Slate_04.png","response":null,"trial_type":"image-keyboard-response","trial_index":40,"plugin_version":"2.1.0","time_elapsed":293535,"subject_id":"90680","group":"Group2","condition":"3_Rep","full_date":"2026-02-08T22:04:15.329Z","date":"2026-02-08","time":"22:04:15"},{"rt":null,"stimulus":"<p style=\"font-size: 50px; margin: 0; text-align: center;\">+</p>","response":null,"trial_type":"html-keyboard-response","trial_index":41,"plugin_version":"2.1.0","time_elapsed":294537,"subject_id":"90680","group":"Group2","condition":"3_Rep","full_date":"2026-02-08T22:04:15.329Z","date":"2026-02-08","time":"22:04:15"},{"task":"memory_phase","broad_category":"I","image_png":"I_Rhyolite_05.png","image_id":149,"category_name":"Rhyolite","category":10,"distinct_rating":3.02,"distinct_type":"Bottom","rt":null,"stimulus":"Stimuli_Rocks480/I_Rhyolite_05.png","response":null,"trial_type":"image-keyboard-response","trial_index":42,"plugin_version":"2.1.0","time_elapsed":297054,"subject_id":"90680","group":"Group2","condition":"3_Rep","full_date":"2026-02-08T22:04:15.329Z","date":"2026-02-08","time":"22:04:15"},{"rt":null,"stimulus":"<p style=\"font-size: 50px; margin: 0; text-align: center;\">+</p>","response":null,"trial_type":"html-keyboard-response","trial_index":43,"plugin_version":"2.1.0","time_elapsed":298057,"subject_id":"90680","group":"Group2","condition":"3_Rep","full_date":"2026-02-08T22:04:15.329Z","date":"2026-02-08","time":"22:04:15"},{"task":"memory_phase","broad_category":"I","image_png":"I_Pumice_01.png","image_id":129,"category_name":"Pumice","category":9,"distinct_rating":3.25,"distinct_type":"Bottom","rt":null,"stimulus":"Stimuli_Rocks480/I_Pumice_01.png","response":null,"trial_type":"image-keyboard-response","trial_index":44,"plugin_version":"2.1.0","time_elapsed":300571,"subject_id":"90680","group":"Group2","condition":"3_Rep","full_date":"2026-02-08T22:04:15.329Z","date":"2026-02-08","time":"22:04:15"},{"rt":null,"stimulus":"<p style=\"font-size: 50px; margin: 0; text-align: center;\">+</p>","response":null,"trial_type":"html-keyboard-response","trial_index":45,"plugin_version":"2.1.0","time_elapsed":301573,"subject_id":"90680","group":"Group2","condition":"3_Rep","full_date":"2026-02-08T22:04:15.329Z","date":"2026-02-08","time":"22:04:15"},{"task":"memory_phase","broad_category":"I","image_png":"I_Pumice_14.png","image_id":142,"category_name":"Pumice","category":9,"distinct_rating":3.22,"distinct_type":"Bottom","rt":null,"stimulus":"Stimuli_Rocks480/I_Pumice_14.png","response":null,"trial_type":"image-keyboard-response","trial_index":46,"plugin_version":"2.1.0","time_elapsed":304087,"subject_id":"90680","group":"Group2","condition":"3_Rep","full_date":"2026-02-08T22:04:15.329Z","date":"2026-02-08","time":"22:04:15"},{"rt":null,"stimulus":"<p style=\"font-size: 50px; margin: 0; text-align: center;\">+</p>","response":null,"trial_type":"html-keyboard-response","trial_index":47,"plugin_version":"2.1.0","time_elapsed":305089,"subject_id":"90680","group":"Group2","condition":"3_Rep","full_date":"2026-02-08T22:04:15.329Z","date":"2026-02-08","time":"22:04:15"},{"task":"memory_phase","broad_category":"I","image_png":"I_Gabbro_14.png","image_id":62,"category_name":"Gabbro","category":4,"distinct_rating":2.95,"distinct_type":"Bottom","rt":null,"stimulus":"Stimuli_Rocks480/I_Gabbro_14.png","response":null,"trial_type":"image-keyboard-response","trial_index":48,"plugin_version":"2.1.0","time_elapsed":307606,"subject_id":"90680","group":"Group2","condition":"3_Rep","full_date":"2026-02-08T22:04:15.329Z","date":"2026-02-08","time":"22:04:15"},{"rt":null,"stimulus":"<p style=\"font-size: 50px; margin: 0; text-align: center;\">+</p>","response":null,"trial_type":"html-keyboard-response","trial_index":49,"plugin_version":"2.1.0","time_elapsed":308608,"subject_id":"90680","group":"Group2","condition":"3_Rep","full_date":"2026-02-08T22:04:15.329Z","date":"2026-02-08","time":"22:04:15"},{"task":"memory_phase","broad_category":"S","image_png":"S_Shale_03.png","image_id":467,"category_name":"Shale","category":30,"distinct_rating":1.95,"distinct_type":"Bottom","rt":null,"stimulus":"Stimuli_Rocks480/S_Shale_03.png","response":null,"trial_type":"image-keyboard-response","trial_index":50,"plugin_version":"2.1.0","time_elapsed":311125,"subject_id":"90680","group":"Group2","condition":"3_Rep","full_date":"2026-02-08T22:04:15.329Z","date":"2026-02-08","time":"22:04:15"},{"rt":null,"stimulus":"<p style=\"font-size: 50px; margin: 0; text-align: center;\">+</p>","response":null,"trial_type":"html-keyboard-response","trial_index":51,"plugin_version":"2.1.0","time_elapsed":312127,"subject_id":"90680","group":"Group2","condition":"3_Rep","full_date":"2026-02-08T22:04:15.329Z","date":"2026-02-08","time":"22:04:15"},{"task":"memory_phase","broad_category":"I","image_png":"I_Pumice_13.png","image_id":141,"category_name":"Pumice","category":9,"distinct_rating":3.12,"distinct_type":"Bottom","rt":null,"stimulus":"Stimuli_Rocks480/I_Pumice_13.png","response":null,"trial_type":"image-keyboard-response","trial_index":52,"plugin_version":"2.1.0","time_elapsed":314643,"subject_id":"90680","group":"Group2","condition":"3_Rep","full_date":"2026-02-08T22:04:15.329Z","date":"2026-02-08","time":"22:04:15"},{"rt":null,"stimulus":"<p style=\"font-size: 50px; margin: 0; text-align: center;\">+</p>","response":null,"trial_type":"html-keyboard-response","trial_index":53,"plugin_version":"2.1.0","time_elapsed":315645,"subject_id":"90680","group":"Group2","condition":"3_Rep","full_date":"2026-02-08T22:04:15.329Z","date":"2026-02-08","time":"22:04:15"},{"task":"memory_phase","broad_category":"S","image_png":"S_Sandstone_04.png","image_id":452,"category_name":"Sandstone","category":29,"distinct_rating":1.8,"distinct_type":"Bottom","rt":null,"stimulus":"Stimuli_Rocks480/S_Sandstone_04.png","response":null,"trial_type":"image-keyboard-response","trial_index":54,"plugin_version":"2.1.0","time_elapsed":318160,"subject_id":"90680","group":"Group2","condition":"3_Rep","full_date":"2026-02-08T22:04:15.329Z","date":"2026-02-08","time":"22:04:15"},{"rt":2155,"stimulus":"<p style=\"max-width: 760px; margin: auto; font-size: 35px; line-height: 1.5;\">\n                Press SPACE to continue study phase\n              </p>","response":" ","trial_type":"html-keyboard-response","trial_index":55,"plugin_version":"2.1.0","time_elapsed":320317,"subject_id":"90680","group":"Group2","condition":"3_Rep","full_date":"2026-02-08T22:04:15.329Z","date":"2026-02-08","time":"22:04:15"},{"rt":null,"stimulus":"<p style=\"font-size: 50px; margin: 0; text-align: center;\">+</p>","response":null,"trial_type":"html-keyboard-response","trial_index":56,"plugin_version":"2.1.0","time_elapsed":321319,"subject_id":"90680","group":"Group2","condition":"3_Rep","full_date":"2026-02-08T22:04:15.329Z","date":"2026-02-08","time":"22:04:15"},{"task":"memory_phase","broad_category":"S","image_png":"S_Dolomite_07.png","image_id":391,"category_name":"Dolomite","category":25,"distinct_rating":1.73,"distinct_type":"Bottom","rt":null,"stimulus":"Stimuli_Rocks480/S_Dolomite_07.png","response":null,"trial_type":"image-keyboard-response","trial_index":57,"plugin_version":"2.1.0","time_elapsed":323834,"subject_id":"90680","group":"Group2","condition":"3_Rep","full_date":"2026-02-08T22:04:15.329Z","date":"2026-02-08","time":"22:04:15"},{"rt":null,"stimulus":"<p style=\"font-size: 50px; margin: 0; text-align: center;\">+</p>","response":null,"trial_type":"html-keyboard-response","trial_index":58,"plugin_version":"2.1.0","time_elapsed":324836,"subject_id":"90680","group":"Group2","condition":"3_Rep","full_date":"2026-02-08T22:04:15.329Z","date":"2026-02-08","time":"22:04:15"},{"task":"memory_phase","broad_category":"I","image_png":"I_Andesite_04.png","image_id":4,"category_name":"Andesite","category":1,"distinct_rating":3.18,"distinct_type":"Bottom","rt":null,"stimulus":"Stimuli_Rocks480/I_Andesite_04.png","response":null,"trial_type":"image-keyboard-response","trial_index":59,"plugin_version":"2.1.0","time_elapsed":327350,"subject_id":"90680","group":"Group2","condition":"3_Rep","full_date":"2026-02-08T22:04:15.329Z","date":"2026-02-08","time":"22:04:15"},{"rt":null,"stimulus":"<p style=\"font-size: 50px; margin: 0; text-align: center;\">+</p>","response":null,"trial_type":"html-keyboard-response","trial_index":60,"plugin_version":"2.1.0","time_elapsed":328352,"subject_id":"90680","group":"Group2","condition":"3_Rep","full_date":"2026-02-08T22:04:15.329Z","date":"2026-02-08","time":"22:04:15"},{"task":"memory_phase","broad_category":"M","image_png":"M_Phyllite_13.png","image_id":269,"category_name":"Phyllite","category":17,"distinct_rating":2.8,"distinct_type":"Bottom","rt":null,"stimulus":"Stimuli_Rocks480/M_Phyllite_13.png","response":null,"trial_type":"image-keyboard-response","trial_index":61,"plugin_version":"2.1.0","time_elapsed":330865,"subject_id":"90680","group":"Group2","condition":"3_Rep","full_date":"2026-02-08T22:04:15.329Z","date":"2026-02-08","time":"22:04:15"},{"rt":null,"stimulus":"<p style=\"font-size: 50px; margin: 0; text-align: center;\">+</p>","response":null,"trial_type":"html-keyboard-response","trial_index":62,"plugin_version":"2.1.0","time_elapsed":331867,"subject_id":"90680","group":"Group2","condition":"3_Rep","full_date":"2026-02-08T22:04:15.329Z","date":"2026-02-08","time":"22:04:15"},{"task":"memory_phase","broad_category":"I","image_png":"I_Pegmatite_03.png","image_id":99,"category_name":"Pegmatite","category":7,"distinct_rating":7.24,"distinct_type":"Top","rt":null,"stimulus":"Stimuli_Rocks480/I_Pegmatite_03.png","response":null,"trial_type":"image-keyboard-response","trial_index":63,"plugin_version":"2.1.0","time_elapsed":334381,"subject_id":"90680","group":"Group2","condition":"3_Rep","full_date":"2026-02-08T22:04:15.329Z","date":"2026-02-08","time":"22:04:15"},{"rt":null,"stimulus":"<p style=\"font-size: 50px; margin: 0; text-align: center;\">+</p>","response":null,"trial_type":"html-keyboard-response","trial_index":64,"plugin_version":"2.1.0","time_elapsed":335383,"subject_id":"90680","group":"Group2","condition":"3_Rep","full_date":"2026-02-08T22:04:15.329Z","date":"2026-02-08","time":"22:04:15"},{"task":"memory_phase","broad_category":"M","image_png":"M_Phyllite_05.png","image_id":261,"category_name":"Phyllite","category":17,"distinct_rating":2.14,"distinct_type":"Bottom","rt":null,"stimulus":"Stimuli_Rocks480/M_Phyllite_05.png","response":null,"trial_type":"image-keyboard-response","trial_index":65,"plugin_version":"2.1.0","time_elapsed":337898,"subject_id":"90680","group":"Group2","condition":"3_Rep","full_date":"2026-02-08T22:04:15.329Z","date":"2026-02-08","time":"22:04:15"},{"rt":null,"stimulus":"<p style=\"font-size: 50px; margin: 0; text-align: center;\">+</p>","response":null,"trial_type":"html-keyboard-response","trial_index":66,"plugin_version":"2.1.0","time_elapsed":338901,"subject_id":"90680","group":"Group2","condition":"3_Rep","full_date":"2026-02-08T22:04:15.329Z","date":"2026-02-08","time":"22:04:15"},{"task":"memory_phase","broad_category":"M","image_png":"M_Marble_14.png","image_id":238,"category_name":"Marble","category":15,"distinct_rating":3.31,"distinct_type":"Bottom","rt":null,"stimulus":"Stimuli_Rocks480/M_Marble_14.png","response":null,"trial_type":"image-keyboard-response","trial_index":67,"plugin_version":"2.1.0","time_elapsed":341415,"subject_id":"90680","group":"Group2","condition":"3_Rep","full_date":"2026-02-08T22:04:15.329Z","date":"2026-02-08","time":"22:04:15"},{"rt":null,"stimulus":"<p style=\"font-size: 50px; margin: 0; text-align: center;\">+</p>","response":null,"trial_type":"html-keyboard-response","trial_index":68,"plugin_version":"2.1.0","time_elapsed":342417,"subject_id":"90680","group":"Group2","condition":"3_Rep","full_date":"2026-02-08T22:04:15.329Z","date":"2026-02-08","time":"22:04:15"},{"task":"memory_phase","broad_category":"S","image_png":"S_Sandstone_08.png","image_id":456,"category_name":"Sandstone","category":29,"distinct_rating":1.5,"distinct_type":"Bottom","rt":null,"stimulus":"Stimuli_Rocks480/S_Sandstone_08.png","response":null,"trial_type":"image-keyboard-response","trial_index":69,"plugin_version":"2.1.0","time_elapsed":344931,"subject_id":"90680","group":"Group2","condition":"3_Rep","full_date":"2026-02-08T22:04:15.329Z","date":"2026-02-08","time":"22:04:15"},{"rt":null,"stimulus":"<p style=\"font-size: 50px; margin: 0; text-align: center;\">+</p>","response":null,"trial_type":"html-keyboard-response","trial_index":70,"plugin_version":"2.1.0","time_elapsed":345933,"subject_id":"90680","group":"Group2","condition":"3_Rep","full_date":"2026-02-08T22:04:15.329Z","date":"2026-02-08","time":"22:04:15"},{"task":"memory_phase","broad_category":"S","image_png":"S_Shale_02.png","image_id":466,"category_name":"Shale","category":30,"distinct_rating":2.9,"distinct_type":"Bottom","rt":null,"stimulus":"Stimuli_Rocks480/S_Shale_02.png","response":null,"trial_type":"image-keyboard-response","trial_index":71,"plugin_version":"2.1.0","time_elapsed":348446,"subject_id":"90680","group":"Group2","condition":"3_Rep","full_date":"2026-02-08T22:04:15.329Z","date":"2026-02-08","time":"22:04:15"},{"rt":null,"stimulus":"<p style=\"font-size: 50px; margin: 0; text-align: center;\">+</p>","response":null,"trial_type":"html-keyboard-response","trial_index":72,"plugin_version":"2.1.0","time_elapsed":349448,"subject_id":"90680","group":"Group2","condition":"3_Rep","full_date":"2026-02-08T22:04:15.329Z","date":"2026-02-08","time":"22:04:15"},{"task":"memory_phase","broad_category":"M","image_png":"M_Quartzite_07.png","image_id":279,"category_name":"Quartzite","category":18,"distinct_rating":1.97,"distinct_type":"Bottom","rt":null,"stimulus":"Stimuli_Rocks480/M_Quartzite_07.png","response":null,"trial_type":"image-keyboard-response","trial_index":73,"plugin_version":"2.1.0","time_elapsed":351962,"subject_id":"90680","group":"Group2","condition":"3_Rep","full_date":"2026-02-08T22:04:15.329Z","date":"2026-02-08","time":"22:04:15"},{"rt":null,"stimulus":"<p style=\"font-size: 50px; margin: 0; text-align: center;\">+</p>","response":null,"trial_type":"html-keyboard-response","trial_index":74,"plugin_version":"2.1.0","time_elapsed":352965,"subject_id":"90680","group":"Group2","condition":"3_Rep","full_date":"2026-02-08T22:04:15.329Z","date":"2026-02-08","time":"22:04:15"},{"task":"memory_phase","broad_category":"M","image_png":"M_Slate_14.png","image_id":318,"category_name":"Slate","category":20,"distinct_rating":2.58,"distinct_type":"Bottom","rt":null,"stimulus":"Stimuli_Rocks480/M_Slate_14.png","response":null,"trial_type":"image-keyboard-response","trial_index":75,"plugin_version":"2.1.0","time_elapsed":355475,"subject_id":"90680","group":"Group2","condition":"3_Rep","full_date":"2026-02-08T22:04:15.329Z","date":"2026-02-08","time":"22:04:15"},{"rt":null,"stimulus":"<p style=\"font-size: 50px; margin: 0; text-align: center;\">+</p>","response":null,"trial_type":"html-keyboard-response","trial_index":76,"plugin_version":"2.1.0","time_elapsed":356477,"subject_id":"90680","group":"Group2","condition":"3_Rep","full_date":"2026-02-08T22:04:15.329Z","date":"2026-02-08","time":"22:04:15"},{"task":"memory_phase","broad_category":"I","image_png":"I_Diorite_15.png","image_id":47,"category_name":"Diorite","category":3,"distinct_rating":3.05,"distinct_type":"Bottom","rt":null,"stimulus":"Stimuli_Rocks480/I_Diorite_15.png","response":null,"trial_type":"image-keyboard-response","trial_index":77,"plugin_version":"2.1.0","time_elapsed":358991,"subject_id":"90680","group":"Group2","condition":"3_Rep","full_date":"2026-02-08T22:04:15.329Z","date":"2026-02-08","time":"22:04:15"},{"rt":null,"stimulus":"<p style=\"font-size: 50px; margin: 0; text-align: center;\">+</p>","response":null,"trial_type":"html-keyboard-response","trial_index":78,"plugin_version":"2.1.0","time_elapsed":359993,"subject_id":"90680","group":"Group2","condition":"3_Rep","full_date":"2026-02-08T22:04:15.329Z","date":"2026-02-08","time":"22:04:15"},{"task":"memory_phase","broad_category":"M","image_png":"M_Gneiss_10.png","image_id":202,"category_name":"Gneiss","category":13,"distinct_rating":3.09,"distinct_type":"Bottom","rt":null,"stimulus":"Stimuli_Rocks480/M_Gneiss_10.png","response":null,"trial_type":"image-keyboard-response","trial_index":79,"plugin_version":"2.1.0","time_elapsed":362508,"subject_id":"90680","group":"Group2","condition":"3_Rep","full_date":"2026-02-08T22:04:15.329Z","date":"2026-02-08","time":"22:04:15"},{"rt":null,"stimulus":"<p style=\"font-size: 50px; margin: 0; text-align: center;\">+</p>","response":null,"trial_type":"html-keyboard-response","trial_index":80,"plugin_version":"2.1.0","time_elapsed":363510,"subject_id":"90680","group":"Group2","condition":"3_Rep","full_date":"2026-02-08T22:04:15.329Z","date":"2026-02-08","time":"22:04:15"},{"task":"memory_phase","broad_category":"I","image_png":"I_Pegmatite_11.png","image_id":107,"category_name":"Pegmatite","category":7,"distinct_rating":7.11,"distinct_type":"Top","rt":null,"stimulus":"Stimuli_Rocks480/I_Pegmatite_11.png","response":null,"trial_type":"image-keyboard-response","trial_index":81,"plugin_version":"2.1.0","time_elapsed":366028,"subject_id":"90680","group":"Group2","condition":"3_Rep","full_date":"2026-02-08T22:04:15.329Z","date":"2026-02-08","time":"22:04:15"},{"rt":null,"stimulus":"<p style=\"font-size: 50px; margin: 0; text-align: center;\">+</p>","response":null,"trial_type":"html-keyboard-response","trial_index":82,"plugin_version":"2.1.0","time_elapsed":367030,"subject_id":"90680","group":"Group2","condition":"3_Rep","full_date":"2026-02-08T22:04:15.329Z","date":"2026-02-08","time":"22:04:15"},{"task":"memory_phase","broad_category":"M","image_png":"M_Quartzite_12.png","image_id":284,"category_name":"Quartzite","category":18,"distinct_rating":1.92,"distinct_type":"Bottom","rt":null,"stimulus":"Stimuli_Rocks480/M_Quartzite_12.png","response":null,"trial_type":"image-keyboard-response","trial_index":83,"plugin_version":"2.1.0","time_elapsed":369543,"subject_id":"90680","group":"Group2","condition":"3_Rep","full_date":"2026-02-08T22:04:15.329Z","date":"2026-02-08","time":"22:04:15"},{"rt":null,"stimulus":"<p style=\"font-size: 50px; margin: 0; text-align: center;\">+</p>","response":null,"trial_type":"html-keyboard-response","trial_index":84,"plugin_version":"2.1.0","time_elapsed":370545,"subject_id":"90680","group":"Group2","condition":"3_Rep","full_date":"2026-02-08T22:04:15.329Z","date":"2026-02-08","time":"22:04:15"},{"task":"memory_phase","broad_category":"I","image_png":"I_Basalt_13.png","image_id":29,"category_name":"Basalt","category":2,"distinct_rating":2.68,"distinct_type":"Bottom","rt":null,"stimulus":"Stimuli_Rocks480/I_Basalt_13.png","response":null,"trial_type":"image-keyboard-response","trial_index":85,"plugin_version":"2.1.0","time_elapsed":373058,"subject_id":"90680","group":"Group2","condition":"3_Rep","full_date":"2026-02-08T22:04:15.329Z","date":"2026-02-08","time":"22:04:15"},{"rt":null,"stimulus":"<p style=\"font-size: 50px; margin: 0; text-align: center;\">+</p>","response":null,"trial_type":"html-keyboard-response","trial_index":86,"plugin_version":"2.1.0","time_elapsed":374060,"subject_id":"90680","group":"Group2","condition":"3_Rep","full_date":"2026-02-08T22:04:15.329Z","date":"2026-02-08","time":"22:04:15"},{"task":"memory_phase","broad_category":"S","image_png":"S_Conglomerate_14.png","image_id":382,"category_name":"Conglomerate","category":24,"distinct_rating":6.86,"distinct_type":"Top","rt":null,"stimulus":"Stimuli_Rocks480/S_Conglomerate_14.png","response":null,"trial_type":"image-keyboard-response","trial_index":87,"plugin_version":"2.1.0","time_elapsed":376573,"subject_id":"90680","group":"Group2","condition":"3_Rep","full_date":"2026-02-08T22:04:15.329Z","date":"2026-02-08","time":"22:04:15"},{"rt":null,"stimulus":"<p style=\"font-size: 50px; margin: 0; text-align: center;\">+</p>","response":null,"trial_type":"html-keyboard-response","trial_index":88,"plugin_version":"2.1.0","time_elapsed":377575,"subject_id":"90680","group":"Group2","condition":"3_Rep","full_date":"2026-02-08T22:04:15.329Z","date":"2026-02-08","time":"22:04:15"},{"task":"memory_phase","broad_category":"I","image_png":"I_Andesite_09.png","image_id":9,"category_name":"Andesite","category":1,"distinct_rating":2.49,"distinct_type":"Bottom","rt":null,"stimulus":"Stimuli_Rocks480/I_Andesite_09.png","response":null,"trial_type":"image-keyboard-response","trial_index":89,"plugin_version":"2.1.0","time_elapsed":380089,"subject_id":"90680","group":"Group2","condition":"3_Rep","full_date":"2026-02-08T22:04:15.329Z","date":"2026-02-08","time":"22:04:15"},{"rt":null,"stimulus":"<p style=\"font-size: 50px; margin: 0; text-align: center;\">+</p>","response":null,"trial_type":"html-keyboard-response","trial_index":90,"plugin_version":"2.1.0","time_elapsed":381091,"subject_id":"90680","group":"Group2","condition":"3_Rep","full_date":"2026-02-08T22:04:15.329Z","date":"2026-02-08","time":"22:04:15"},{"task":"memory_phase","broad_category":"M","image_png":"M_Slate_10.png","image_id":314,"category_name":"Slate","category":20,"distinct_rating":1.94,"distinct_type":"Bottom","rt":null,"stimulus":"Stimuli_Rocks480/M_Slate_10.png","response":null,"trial_type":"image-keyboard-response","trial_index":91,"plugin_version":"2.1.0","time_elapsed":383601,"subject_id":"90680","group":"Group2","condition":"3_Rep","full_date":"2026-02-08T22:04:15.329Z","date":"2026-02-08","time":"22:04:15"},{"rt":null,"stimulus":"<p style=\"font-size: 50px; margin: 0; text-align: center;\">+</p>","response":null,"trial_type":"html-keyboard-response","trial_index":92,"plugin_version":"2.1.0","time_elapsed":384604,"subject_id":"90680","group":"Group2","condition":"3_Rep","full_date":"2026-02-08T22:04:15.329Z","date":"2026-02-08","time":"22:04:15"},{"task":"memory_phase","broad_category":"I","image_png":"I_Rhyolite_08.png","image_id":152,"category_name":"Rhyolite","category":10,"distinct_rating":1.38,"distinct_type":"Bottom","rt":null,"stimulus":"Stimuli_Rocks480/I_Rhyolite_08.png","response":null,"trial_type":"image-keyboard-response","trial_index":93,"plugin_version":"2.1.0","time_elapsed":387116,"subject_id":"90680","group":"Group2","condition":"3_Rep","full_date":"2026-02-08T22:04:15.329Z","date":"2026-02-08","time":"22:04:15"},{"rt":null,"stimulus":"<p style=\"font-size: 50px; margin: 0; text-align: center;\">+</p>","response":null,"trial_type":"html-keyboard-response","trial_index":94,"plugin_version":"2.1.0","time_elapsed":388119,"subject_id":"90680","group":"Group2","condition":"3_Rep","full_date":"2026-02-08T22:04:15.329Z","date":"2026-02-08","time":"22:04:15"},{"task":"memory_phase","broad_category":"I","image_png":"I_Obsidian_06.png","image_id":86,"category_name":"Obsidian","category":6,"distinct_rating":8.01,"distinct_type":"Top","rt":null,"stimulus":"Stimuli_Rocks480/I_Obsidian_06.png","response":null,"trial_type":"image-keyboard-response","trial_index":95,"plugin_version":"2.1.0","time_elapsed":390635,"subject_id":"90680","group":"Group2","condition":"3_Rep","full_date":"2026-02-08T22:04:15.329Z","date":"2026-02-08","time":"22:04:15"},{"rt":null,"stimulus":"<p style=\"font-size: 50px; margin: 0; text-align: center;\">+</p>","response":null,"trial_type":"html-keyboard-response","trial_index":96,"plugin_version":"2.1.0","time_elapsed":391637,"subject_id":"90680","group":"Group2","condition":"3_Rep","full_date":"2026-02-08T22:04:15.329Z","date":"2026-02-08","time":"22:04:15"},{"task":"memory_phase","broad_category":"S","image_png":"S_Shale_07.png","image_id":471,"category_name":"Shale","category":30,"distinct_rating":2.73,"distinct_type":"Bottom","rt":null,"stimulus":"Stimuli_Rocks480/S_Shale_07.png","response":null,"trial_type":"image-keyboard-response","trial_index":97,"plugin_version":"2.1.0","time_elapsed":394151,"subject_id":"90680","group":"Group2","condition":"3_Rep","full_date":"2026-02-08T22:04:15.329Z","date":"2026-02-08","time":"22:04:15"},{"rt":null,"stimulus":"<p style=\"font-size: 50px; margin: 0; text-align: center;\">+</p>","response":null,"trial_type":"html-keyboard-response","trial_index":98,"plugin_version":"2.1.0","time_elapsed":395153,"subject_id":"90680","group":"Group2","condition":"3_Rep","full_date":"2026-02-08T22:04:15.329Z","date":"2026-02-08","time":"22:04:15"},{"task":"memory_phase","broad_category":"I","image_png":"I_Peridotite_13.png","image_id":125,"category_name":"Peridotite","category":8,"distinct_rating":7.28,"distinct_type":"Top","rt":null,"stimulus":"Stimuli_Rocks480/I_Peridotite_13.png","response":null,"trial_type":"image-keyboard-response","trial_index":99,"plugin_version":"2.1.0","time_elapsed":397669,"subject_id":"90680","group":"Group2","condition":"3_Rep","full_date":"2026-02-08T22:04:15.329Z","date":"2026-02-08","time":"22:04:15"},{"rt":null,"stimulus":"<p style=\"font-size: 50px; margin: 0; text-align: center;\">+</p>","response":null,"trial_type":"html-keyboard-response","trial_index":100,"plugin_version":"2.1.0","time_elapsed":398671,"subject_id":"90680","group":"Group2","condition":"3_Rep","full_date":"2026-02-08T22:04:15.329Z","date":"2026-02-08","time":"22:04:15"},{"task":"memory_phase","broad_category":"I","image_png":"I_Diorite_10.png","image_id":42,"category_name":"Diorite","category":3,"distinct_rating":2.84,"distinct_type":"Bottom","rt":null,"stimulus":"Stimuli_Rocks480/I_Diorite_10.png","response":null,"trial_type":"image-keyboard-response","trial_index":101,"plugin_version":"2.1.0","time_elapsed":401185,"subject_id":"90680","group":"Group2","condition":"3_Rep","full_date":"2026-02-08T22:04:15.329Z","date":"2026-02-08","time":"22:04:15"},{"rt":null,"stimulus":"<p style=\"font-size: 50px; margin: 0; text-align: center;\">+</p>","response":null,"trial_type":"html-keyboard-response","trial_index":102,"plugin_version":"2.1.0","time_elapsed":402187,"subject_id":"90680","group":"Group2","condition":"3_Rep","full_date":"2026-02-08T22:04:15.329Z","date":"2026-02-08","time":"22:04:15"},{"task":"memory_phase","broad_category":"I","image_png":"I_Basalt_08.png","image_id":24,"category_name":"Basalt","category":2,"distinct_rating":2.31,"distinct_type":"Bottom","rt":null,"stimulus":"Stimuli_Rocks480/I_Basalt_08.png","response":null,"trial_type":"image-keyboard-response","trial_index":103,"plugin_version":"2.1.0","time_elapsed":404706,"subject_id":"90680","group":"Group2","condition":"3_Rep","full_date":"2026-02-08T22:04:15.329Z","date":"2026-02-08","time":"22:04:15"},{"rt":null,"stimulus":"<p style=\"font-size: 50px; margin: 0; text-align: center;\">+</p>","response":null,"trial_type":"html-keyboard-response","trial_index":104,"plugin_version":"2.1.0","time_elapsed":405708,"subject_id":"90680","group":"Group2","condition":"3_Rep","full_date":"2026-02-08T22:04:15.329Z","date":"2026-02-08","time":"22:04:15"},{"task":"memory_phase","broad_category":"I","image_png":"I_Rhyolite_10.png","image_id":154,"category_name":"Rhyolite","category":10,"distinct_rating":2.88,"distinct_type":"Bottom","rt":null,"stimulus":"Stimuli_Rocks480/I_Rhyolite_10.png","response":null,"trial_type":"image-keyboard-response","trial_index":105,"plugin_version":"2.1.0","time_elapsed":408227,"subject_id":"90680","group":"Group2","condition":"3_Rep","full_date":"2026-02-08T22:04:15.329Z","date":"2026-02-08","time":"22:04:15"},{"rt":6938,"stimulus":"<p style=\"max-width: 760px; margin: auto; font-size: 35px; line-height: 1.5;\">\n                You have completed 1 study phase. \n                Now, we'll show you all the images again 2 more times.\n                <br><br>Press SPACE to continue\n              </p>","response":" ","trial_type":"html-keyboard-response","trial_index":106,"plugin_version":"2.1.0","time_elapsed":415167,"subject_id":"90680","group":"Group2","condition":"3_Rep","full_date":"2026-02-08T22:04:15.329Z","date":"2026-02-08","time":"22:04:15"},{"rt":null,"stimulus":"<p style=\"font-size: 50px; margin: 0; text-align: center;\">+</p>","response":null,"trial_type":"html-keyboard-response","trial_index":107,"plugin_version":"2.1.0","time_elapsed":416170,"subject_id":"90680","group":"Group2","condition":"3_Rep","full_date":"2026-02-08T22:04:15.329Z","date":"2026-02-08","time":"22:04:15"},{"task":"memory_phase","broad_category":"S","image_png":"S_Dolomite_16.png","image_id":400,"category_name":"Dolomite","category":25,"distinct_rating":1.71,"distinct_type":"Bottom","rt":null,"stimulus":"Stimuli_Rocks480/S_Dolomite_16.png","response":null,"trial_type":"image-keyboard-response","trial_index":108,"plugin_version":"2.1.0","time_elapsed":418682,"subject_id":"90680","group":"Group2","condition":"3_Rep","full_date":"2026-02-08T22:04:15.329Z","date":"2026-02-08","time":"22:04:15"},{"rt":null,"stimulus":"<p style=\"font-size: 50px; margin: 0; text-align: center;\">+</p>","response":null,"trial_type":"html-keyboard-response","trial_index":109,"plugin_version":"2.1.0","time_elapsed":419685,"subject_id":"90680","group":"Group2","condition":"3_Rep","full_date":"2026-02-08T22:04:15.329Z","date":"2026-02-08","time":"22:04:15"},{"task":"memory_phase","broad_category":"S","image_png":"S_Sandstone_04.png","image_id":452,"category_name":"Sandstone","category":29,"distinct_rating":1.8,"distinct_type":"Bottom","rt":null,"stimulus":"Stimuli_Rocks480/S_Sandstone_04.png","response":null,"trial_type":"image-keyboard-response","trial_index":110,"plugin_version":"2.1.0","time_elapsed":422199,"subject_id":"90680","group":"Group2","condition":"3_Rep","full_date":"2026-02-08T22:04:15.329Z","date":"2026-02-08","time":"22:04:15"},{"rt":null,"stimulus":"<p style=\"font-size: 50px; margin: 0; text-align: center;\">+</p>","response":null,"trial_type":"html-keyboard-response","trial_index":111,"plugin_version":"2.1.0","time_elapsed":423200,"subject_id":"90680","group":"Group2","condition":"3_Rep","full_date":"2026-02-08T22:04:15.329Z","date":"2026-02-08","time":"22:04:15"},{"task":"memory_phase","broad_category":"M","image_png":"M_Phyllite_13.png","image_id":269,"category_name":"Phyllite","category":17,"distinct_rating":2.8,"distinct_type":"Bottom","rt":null,"stimulus":"Stimuli_Rocks480/M_Phyllite_13.png","response":null,"trial_type":"image-keyboard-response","trial_index":112,"plugin_version":"2.1.0","time_elapsed":425714,"subject_id":"90680","group":"Group2","condition":"3_Rep","full_date":"2026-02-08T22:04:15.329Z","date":"2026-02-08","time":"22:04:15"},{"rt":null,"stimulus":"<p style=\"font-size: 50px; margin: 0; text-align: center;\">+</p>","response":null,"trial_type":"html-keyboard-response","trial_index":113,"plugin_version":"2.1.0","time_elapsed":426715,"subject_id":"90680","group":"Group2","condition":"3_Rep","full_date":"2026-02-08T22:04:15.329Z","date":"2026-02-08","time":"22:04:15"},{"task":"memory_phase","broad_category":"M","image_png":"M_Marble_03.png","image_id":227,"category_name":"Marble","category":15,"distinct_rating":2.67,"distinct_type":"Bottom","rt":null,"stimulus":"Stimuli_Rocks480/M_Marble_03.png","response":null,"trial_type":"image-keyboard-response","trial_index":114,"plugin_version":"2.1.0","time_elapsed":429231,"subject_id":"90680","group":"Group2","condition":"3_Rep","full_date":"2026-02-08T22:04:15.329Z","date":"2026-02-08","time":"22:04:15"},{"rt":null,"stimulus":"<p style=\"font-size: 50px; margin: 0; text-align: center;\">+</p>","response":null,"trial_type":"html-keyboard-response","trial_index":115,"plugin_version":"2.1.0","time_elapsed":430234,"subject_id":"90680","group":"Group2","condition":"3_Rep","full_date":"2026-02-08T22:04:15.329Z","date":"2026-02-08","time":"22:04:15"},{"task":"memory_phase","broad_category":"I","image_png":"I_Peridotite_13.png","image_id":125,"category_name":"Peridotite","category":8,"distinct_rating":7.28,"distinct_type":"Top","rt":null,"stimulus":"Stimuli_Rocks480/I_Peridotite_13.png","response":null,"trial_type":"image-keyboard-response","trial_index":116,"plugin_version":"2.1.0","time_elapsed":432737,"subject_id":"90680","group":"Group2","condition":"3_Rep","full_date":"2026-02-08T22:04:15.329Z","date":"2026-02-08","time":"22:04:15"},{"rt":null,"stimulus":"<p style=\"font-size: 50px; margin: 0; text-align: center;\">+</p>","response":null,"trial_type":"html-keyboard-response","trial_index":117,"plugin_version":"2.1.0","time_elapsed":433740,"subject_id":"90680","group":"Group2","condition":"3_Rep","full_date":"2026-02-08T22:04:15.329Z","date":"2026-02-08","time":"22:04:15"},{"task":"memory_phase","broad_category":"S","image_png":"S_Sandstone_08.png","image_id":456,"category_name":"Sandstone","category":29,"distinct_rating":1.5,"distinct_type":"Bottom","rt":null,"stimulus":"Stimuli_Rocks480/S_Sandstone_08.png","response":null,"trial_type":"image-keyboard-response","trial_index":118,"plugin_version":"2.1.0","time_elapsed":436253,"subject_id":"90680","group":"Group2","condition":"3_Rep","full_date":"2026-02-08T22:04:15.329Z","date":"2026-02-08","time":"22:04:15"},{"rt":null,"stimulus":"<p style=\"font-size: 50px; margin: 0; text-align: center;\">+</p>","response":null,"trial_type":"html-keyboard-response","trial_index":119,"plugin_version":"2.1.0","time_elapsed":437255,"subject_id":"90680","group":"Group2","condition":"3_Rep","full_date":"2026-02-08T22:04:15.329Z","date":"2026-02-08","time":"22:04:15"},{"task":"memory_phase","broad_category":"I","image_png":"I_Diorite_01.png","image_id":33,"category_name":"Diorite","category":3,"distinct_rating":2.97,"distinct_type":"Bottom","rt":null,"stimulus":"Stimuli_Rocks480/I_Diorite_01.png","response":null,"trial_type":"image-keyboard-response","trial_index":120,"plugin_version":"2.1.0","time_elapsed":439772,"subject_id":"90680","group":"Group2","condition":"3_Rep","full_date":"2026-02-08T22:04:15.329Z","date":"2026-02-08","time":"22:04:15"},{"rt":null,"stimulus":"<p style=\"font-size: 50px; margin: 0; text-align: center;\">+</p>","response":null,"trial_type":"html-keyboard-response","trial_index":121,"plugin_version":"2.1.0","time_elapsed":440773,"subject_id":"90680","group":"Group2","condition":"3_Rep","full_date":"2026-02-08T22:04:15.329Z","date":"2026-02-08","time":"22:04:15"},{"task":"memory_phase","broad_category":"S","image_png":"S_Dolomite_07.png","image_id":391,"category_name":"Dolomite","category":25,"distinct_rating":1.73,"distinct_type":"Bottom","rt":null,"stimulus":"Stimuli_Rocks480/S_Dolomite_07.png","response":null,"trial_type":"image-keyboard-response","trial_index":122,"plugin_version":"2.1.0","time_elapsed":443287,"subject_id":"90680","group":"Group2","condition":"3_Rep","full_date":"2026-02-08T22:04:15.329Z","date":"2026-02-08","time":"22:04:15"},{"rt":null,"stimulus":"<p style=\"font-size: 50px; margin: 0; text-align: center;\">+</p>","response":null,"trial_type":"html-keyboard-response","trial_index":123,"plugin_version":"2.1.0","time_elapsed":444290,"subject_id":"90680","group":"Group2","condition":"3_Rep","full_date":"2026-02-08T22:04:15.329Z","date":"2026-02-08","time":"22:04:15"},{"task":"memory_phase","broad_category":"I","image_png":"I_Rhyolite_10.png","image_id":154,"category_name":"Rhyolite","category":10,"distinct_rating":2.88,"distinct_type":"Bottom","rt":null,"stimulus":"Stimuli_Rocks480/I_Rhyolite_10.png","response":null,"trial_type":"image-keyboard-response","trial_index":124,"plugin_version":"2.1.0","time_elapsed":446792,"subject_id":"90680","group":"Group2","condition":"3_Rep","full_date":"2026-02-08T22:04:15.329Z","date":"2026-02-08","time":"22:04:15"},{"rt":null,"stimulus":"<p style=\"font-size: 50px; margin: 0; text-align: center;\">+</p>","response":null,"trial_type":"html-keyboard-response","trial_index":125,"plugin_version":"2.1.0","time_elapsed":447795,"subject_id":"90680","group":"Group2","condition":"3_Rep","full_date":"2026-02-08T22:04:15.329Z","date":"2026-02-08","time":"22:04:15"},{"task":"memory_phase","broad_category":"S","image_png":"S_Shale_02.png","image_id":466,"category_name":"Shale","category":30,"distinct_rating":2.9,"distinct_type":"Bottom","rt":null,"stimulus":"Stimuli_Rocks480/S_Shale_02.png","response":null,"trial_type":"image-keyboard-response","trial_index":126,"plugin_version":"2.1.0","time_elapsed":450308,"subject_id":"90680","group":"Group2","condition":"3_Rep","full_date":"2026-02-08T22:04:15.329Z","date":"2026-02-08","time":"22:04:15"},{"rt":null,"stimulus":"<p style=\"font-size: 50px; margin: 0; text-align: center;\">+</p>","response":null,"trial_type":"html-keyboard-response","trial_index":127,"plugin_version":"2.1.0","time_elapsed":451310,"subject_id":"90680","group":"Group2","condition":"3_Rep","full_date":"2026-02-08T22:04:15.329Z","date":"2026-02-08","time":"22:04:15"},{"task":"memory_phase","broad_category":"I","image_png":"I_Pegmatite_11.png","image_id":107,"category_name":"Pegmatite","category":7,"distinct_rating":7.11,"distinct_type":"Top","rt":null,"stimulus":"Stimuli_Rocks480/I_Pegmatite_11.png","response":null,"trial_type":"image-keyboard-response","trial_index":128,"plugin_version":"2.1.0","time_elapsed":453828,"subject_id":"90680","group":"Group2","condition":"3_Rep","full_date":"2026-02-08T22:04:15.329Z","date":"2026-02-08","time":"22:04:15"},{"rt":null,"stimulus":"<p style=\"font-size: 50px; margin: 0; text-align: center;\">+</p>","response":null,"trial_type":"html-keyboard-response","trial_index":129,"plugin_version":"2.1.0","time_elapsed":454830,"subject_id":"90680","group":"Group2","condition":"3_Rep","full_date":"2026-02-08T22:04:15.329Z","date":"2026-02-08","time":"22:04:15"},{"task":"memory_phase","broad_category":"S","image_png":"S_Conglomerate_14.png","image_id":382,"category_name":"Conglomerate","category":24,"distinct_rating":6.86,"distinct_type":"Top","rt":null,"stimulus":"Stimuli_Rocks480/S_Conglomerate_14.png","response":null,"trial_type":"image-keyboard-response","trial_index":130,"plugin_version":"2.1.0","time_elapsed":457332,"subject_id":"90680","group":"Group2","condition":"3_Rep","full_date":"2026-02-08T22:04:15.329Z","date":"2026-02-08","time":"22:04:15"},{"rt":null,"stimulus":"<p style=\"font-size: 50px; margin: 0; text-align: center;\">+</p>","response":null,"trial_type":"html-keyboard-response","trial_index":131,"plugin_version":"2.1.0","time_elapsed":458335,"subject_id":"90680","group":"Group2","condition":"3_Rep","full_date":"2026-02-08T22:04:15.329Z","date":"2026-02-08","time":"22:04:15"},{"task":"memory_phase","broad_category":"I","image_png":"I_Obsidian_06.png","image_id":86,"category_name":"Obsidian","category":6,"distinct_rating":8.01,"distinct_type":"Top","rt":null,"stimulus":"Stimuli_Rocks480/I_Obsidian_06.png","response":null,"trial_type":"image-keyboard-response","trial_index":132,"plugin_version":"2.1.0","time_elapsed":460837,"subject_id":"90680","group":"Group2","condition":"3_Rep","full_date":"2026-02-08T22:04:15.329Z","date":"2026-02-08","time":"22:04:15"},{"rt":null,"stimulus":"<p style=\"font-size: 50px; margin: 0; text-align: center;\">+</p>","response":null,"trial_type":"html-keyboard-response","trial_index":133,"plugin_version":"2.1.0","time_elapsed":461840,"subject_id":"90680","group":"Group2","condition":"3_Rep","full_date":"2026-02-08T22:04:15.329Z","date":"2026-02-08","time":"22:04:15"},{"task":"memory_phase","broad_category":"S","image_png":"S_Sandstone_11.png","image_id":459,"category_name":"Sandstone","category":29,"distinct_rating":1.82,"distinct_type":"Bottom","rt":null,"stimulus":"Stimuli_Rocks480/S_Sandstone_11.png","response":null,"trial_type":"image-keyboard-response","trial_index":134,"plugin_version":"2.1.0","time_elapsed":464357,"subject_id":"90680","group":"Group2","condition":"3_Rep","full_date":"2026-02-08T22:04:15.329Z","date":"2026-02-08","time":"22:04:15"},{"rt":null,"stimulus":"<p style=\"font-size: 50px; margin: 0; text-align: center;\">+</p>","response":null,"trial_type":"html-keyboard-response","trial_index":135,"plugin_version":"2.1.0","time_elapsed":465358,"subject_id":"90680","group":"Group2","condition":"3_Rep","full_date":"2026-02-08T22:04:15.329Z","date":"2026-02-08","time":"22:04:15"},{"task":"memory_phase","broad_category":"M","image_png":"M_Gneiss_14.png","image_id":206,"category_name":"Gneiss","category":13,"distinct_rating":3.41,"distinct_type":"Bottom","rt":null,"stimulus":"Stimuli_Rocks480/M_Gneiss_14.png","response":null,"trial_type":"image-keyboard-response","trial_index":136,"plugin_version":"2.1.0","time_elapsed":467873,"subject_id":"90680","group":"Group2","condition":"3_Rep","full_date":"2026-02-08T22:04:15.329Z","date":"2026-02-08","time":"22:04:15"},{"rt":null,"stimulus":"<p style=\"font-size: 50px; margin: 0; text-align: center;\">+</p>","response":null,"trial_type":"html-keyboard-response","trial_index":137,"plugin_version":"2.1.0","time_elapsed":468875,"subject_id":"90680","group":"Group2","condition":"3_Rep","full_date":"2026-02-08T22:04:15.329Z","date":"2026-02-08","time":"22:04:15"},{"task":"memory_phase","broad_category":"I","image_png":"I_Basalt_10.png","image_id":26,"category_name":"Basalt","category":2,"distinct_rating":2.76,"distinct_type":"Bottom","rt":null,"stimulus":"Stimuli_Rocks480/I_Basalt_10.png","response":null,"trial_type":"image-keyboard-response","trial_index":138,"plugin_version":"2.1.0","time_elapsed":471390,"subject_id":"90680","group":"Group2","condition":"3_Rep","full_date":"2026-02-08T22:04:15.329Z","date":"2026-02-08","time":"22:04:15"},{"rt":null,"stimulus":"<p style=\"font-size: 50px; margin: 0; text-align: center;\">+</p>","response":null,"trial_type":"html-keyboard-response","trial_index":139,"plugin_version":"2.1.0","time_elapsed":472392,"subject_id":"90680","group":"Group2","condition":"3_Rep","full_date":"2026-02-08T22:04:15.329Z","date":"2026-02-08","time":"22:04:15"},{"task":"memory_phase","broad_category":"M","image_png":"M_Marble_14.png","image_id":238,"category_name":"Marble","category":15,"distinct_rating":3.31,"distinct_type":"Bottom","rt":null,"stimulus":"Stimuli_Rocks480/M_Marble_14.png","response":null,"trial_type":"image-keyboard-response","trial_index":140,"plugin_version":"2.1.0","time_elapsed":474907,"subject_id":"90680","group":"Group2","condition":"3_Rep","full_date":"2026-02-08T22:04:15.329Z","date":"2026-02-08","time":"22:04:15"},{"rt":null,"stimulus":"<p style=\"font-size: 50px; margin: 0; text-align: center;\">+</p>","response":null,"trial_type":"html-keyboard-response","trial_index":141,"plugin_version":"2.1.0","time_elapsed":475909,"subject_id":"90680","group":"Group2","condition":"3_Rep","full_date":"2026-02-08T22:04:15.329Z","date":"2026-02-08","time":"22:04:15"},{"task":"memory_phase","broad_category":"M","image_png":"M_Marble_02.png","image_id":226,"category_name":"Marble","category":15,"distinct_rating":3.2,"distinct_type":"Bottom","rt":null,"stimulus":"Stimuli_Rocks480/M_Marble_02.png","response":null,"trial_type":"image-keyboard-response","trial_index":142,"plugin_version":"2.1.0","time_elapsed":478421,"subject_id":"90680","group":"Group2","condition":"3_Rep","full_date":"2026-02-08T22:04:15.329Z","date":"2026-02-08","time":"22:04:15"},{"rt":null,"stimulus":"<p style=\"font-size: 50px; margin: 0; text-align: center;\">+</p>","response":null,"trial_type":"html-keyboard-response","trial_index":143,"plugin_version":"2.1.0","time_elapsed":479423,"subject_id":"90680","group":"Group2","condition":"3_Rep","full_date":"2026-02-08T22:04:15.329Z","date":"2026-02-08","time":"22:04:15"},{"task":"memory_phase","broad_category":"I","image_png":"I_Gabbro_12.png","image_id":60,"category_name":"Gabbro","category":4,"distinct_rating":2.6,"distinct_type":"Bottom","rt":null,"stimulus":"Stimuli_Rocks480/I_Gabbro_12.png","response":null,"trial_type":"image-keyboard-response","trial_index":144,"plugin_version":"2.1.0","time_elapsed":481940,"subject_id":"90680","group":"Group2","condition":"3_Rep","full_date":"2026-02-08T22:04:15.329Z","date":"2026-02-08","time":"22:04:15"},{"rt":null,"stimulus":"<p style=\"font-size: 50px; margin: 0; text-align: center;\">+</p>","response":null,"trial_type":"html-keyboard-response","trial_index":145,"plugin_version":"2.1.0","time_elapsed":482942,"subject_id":"90680","group":"Group2","condition":"3_Rep","full_date":"2026-02-08T22:04:15.329Z","date":"2026-02-08","time":"22:04:15"},{"task":"memory_phase","broad_category":"M","image_png":"M_Phyllite_02.png","image_id":258,"category_name":"Phyllite","category":17,"distinct_rating":2.89,"distinct_type":"Bottom","rt":null,"stimulus":"Stimuli_Rocks480/M_Phyllite_02.png","response":null,"trial_type":"image-keyboard-response","trial_index":146,"plugin_version":"2.1.0","time_elapsed":485458,"subject_id":"90680","group":"Group2","condition":"3_Rep","full_date":"2026-02-08T22:04:15.329Z","date":"2026-02-08","time":"22:04:15"},{"rt":null,"stimulus":"<p style=\"font-size: 50px; margin: 0; text-align: center;\">+</p>","response":null,"trial_type":"html-keyboard-response","trial_index":147,"plugin_version":"2.1.0","time_elapsed":486460,"subject_id":"90680","group":"Group2","condition":"3_Rep","full_date":"2026-02-08T22:04:15.329Z","date":"2026-02-08","time":"22:04:15"},{"task":"memory_phase","broad_category":"I","image_png":"I_Basalt_13.png","image_id":29,"category_name":"Basalt","category":2,"distinct_rating":2.68,"distinct_type":"Bottom","rt":null,"stimulus":"Stimuli_Rocks480/I_Basalt_13.png","response":null,"trial_type":"image-keyboard-response","trial_index":148,"plugin_version":"2.1.0","time_elapsed":488974,"subject_id":"90680","group":"Group2","condition":"3_Rep","full_date":"2026-02-08T22:04:15.329Z","date":"2026-02-08","time":"22:04:15"},{"rt":null,"stimulus":"<p style=\"font-size: 50px; margin: 0; text-align: center;\">+</p>","response":null,"trial_type":"html-keyboard-response","trial_index":149,"plugin_version":"2.1.0","time_elapsed":489976,"subject_id":"90680","group":"Group2","condition":"3_Rep","full_date":"2026-02-08T22:04:15.329Z","date":"2026-02-08","time":"22:04:15"},{"task":"memory_phase","broad_category":"M","image_png":"M_Gneiss_10.png","image_id":202,"category_name":"Gneiss","category":13,"distinct_rating":3.09,"distinct_type":"Bottom","rt":null,"stimulus":"Stimuli_Rocks480/M_Gneiss_10.png","response":null,"trial_type":"image-keyboard-response","trial_index":150,"plugin_version":"2.1.0","time_elapsed":492491,"subject_id":"90680","group":"Group2","condition":"3_Rep","full_date":"2026-02-08T22:04:15.329Z","date":"2026-02-08","time":"22:04:15"},{"rt":null,"stimulus":"<p style=\"font-size: 50px; margin: 0; text-align: center;\">+</p>","response":null,"trial_type":"html-keyboard-response","trial_index":151,"plugin_version":"2.1.0","time_elapsed":493493,"subject_id":"90680","group":"Group2","condition":"3_Rep","full_date":"2026-02-08T22:04:15.329Z","date":"2026-02-08","time":"22:04:15"},{"task":"memory_phase","broad_category":"M","image_png":"M_Gneiss_15.png","image_id":207,"category_name":"Gneiss","category":13,"distinct_rating":3.11,"distinct_type":"Bottom","rt":null,"stimulus":"Stimuli_Rocks480/M_Gneiss_15.png","response":null,"trial_type":"image-keyboard-response","trial_index":152,"plugin_version":"2.1.0","time_elapsed":496003,"subject_id":"90680","group":"Group2","condition":"3_Rep","full_date":"2026-02-08T22:04:15.329Z","date":"2026-02-08","time":"22:04:15"},{"rt":null,"stimulus":"<p style=\"font-size: 50px; margin: 0; text-align: center;\">+</p>","response":null,"trial_type":"html-keyboard-response","trial_index":153,"plugin_version":"2.1.0","time_elapsed":497005,"subject_id":"90680","group":"Group2","condition":"3_Rep","full_date":"2026-02-08T22:04:15.329Z","date":"2026-02-08","time":"22:04:15"},{"task":"memory_phase","broad_category":"I","image_png":"I_Gabbro_02.png","image_id":50,"category_name":"Gabbro","category":4,"distinct_rating":2.73,"distinct_type":"Bottom","rt":null,"stimulus":"Stimuli_Rocks480/I_Gabbro_02.png","response":null,"trial_type":"image-keyboard-response","trial_index":154,"plugin_version":"2.1.0","time_elapsed":499519,"subject_id":"90680","group":"Group2","condition":"3_Rep","full_date":"2026-02-08T22:04:15.329Z","date":"2026-02-08","time":"22:04:15"},{"rt":null,"stimulus":"<p style=\"font-size: 50px; margin: 0; text-align: center;\">+</p>","response":null,"trial_type":"html-keyboard-response","trial_index":155,"plugin_version":"2.1.0","time_elapsed":500521,"subject_id":"90680","group":"Group2","condition":"3_Rep","full_date":"2026-02-08T22:04:15.329Z","date":"2026-02-08","time":"22:04:15"},{"task":"memory_phase","broad_category":"I","image_png":"I_Andesite_03.png","image_id":3,"category_name":"Andesite","category":1,"distinct_rating":3.17,"distinct_type":"Bottom","rt":null,"stimulus":"Stimuli_Rocks480/I_Andesite_03.png","response":null,"trial_type":"image-keyboard-response","trial_index":156,"plugin_version":"2.1.0","time_elapsed":503031,"subject_id":"90680","group":"Group2","condition":"3_Rep","full_date":"2026-02-08T22:04:15.329Z","date":"2026-02-08","time":"22:04:15"},{"rt":1250,"stimulus":"<p style=\"max-width: 760px; margin: auto; font-size: 35px; line-height: 1.5;\">\n                Press SPACE to continue study phase\n              </p>","response":" ","trial_type":"html-keyboard-response","trial_index":157,"plugin_version":"2.1.0","time_elapsed":504282,"subject_id":"90680","group":"Group2","condition":"3_Rep","full_date":"2026-02-08T22:04:15.329Z","date":"2026-02-08","time":"22:04:15"},{"rt":null,"stimulus":"<p style=\"font-size: 50px; margin: 0; text-align: center;\">+</p>","response":null,"trial_type":"html-keyboard-response","trial_index":158,"plugin_version":"2.1.0","time_elapsed":505285,"subject_id":"90680","group":"Group2","condition":"3_Rep","full_date":"2026-02-08T22:04:15.329Z","date":"2026-02-08","time":"22:04:15"},{"task":"memory_phase","broad_category":"S","image_png":"S_Dolomite_01.png","image_id":385,"category_name":"Dolomite","category":25,"distinct_rating":1.43,"distinct_type":"Bottom","rt":null,"stimulus":"Stimuli_Rocks480/S_Dolomite_01.png","response":null,"trial_type":"image-keyboard-response","trial_index":159,"plugin_version":"2.1.0","time_elapsed":507802,"subject_id":"90680","group":"Group2","condition":"3_Rep","full_date":"2026-02-08T22:04:15.329Z","date":"2026-02-08","time":"22:04:15"},{"rt":null,"stimulus":"<p style=\"font-size: 50px; margin: 0; text-align: center;\">+</p>","response":null,"trial_type":"html-keyboard-response","trial_index":160,"plugin_version":"2.1.0","time_elapsed":508804,"subject_id":"90680","group":"Group2","condition":"3_Rep","full_date":"2026-02-08T22:04:15.329Z","date":"2026-02-08","time":"22:04:15"},{"task":"memory_phase","broad_category":"I","image_png":"I_Diorite_10.png","image_id":42,"category_name":"Diorite","category":3,"distinct_rating":2.84,"distinct_type":"Bottom","rt":null,"stimulus":"Stimuli_Rocks480/I_Diorite_10.png","response":null,"trial_type":"image-keyboard-response","trial_index":161,"plugin_version":"2.1.0","time_elapsed":511320,"subject_id":"90680","group":"Group2","condition":"3_Rep","full_date":"2026-02-08T22:04:15.329Z","date":"2026-02-08","time":"22:04:15"},{"rt":null,"stimulus":"<p style=\"font-size: 50px; margin: 0; text-align: center;\">+</p>","response":null,"trial_type":"html-keyboard-response","trial_index":162,"plugin_version":"2.1.0","time_elapsed":512323,"subject_id":"90680","group":"Group2","condition":"3_Rep","full_date":"2026-02-08T22:04:15.329Z","date":"2026-02-08","time":"22:04:15"},{"task":"memory_phase","broad_category":"I","image_png":"I_Rhyolite_08.png","image_id":152,"category_name":"Rhyolite","category":10,"distinct_rating":1.38,"distinct_type":"Bottom","rt":null,"stimulus":"Stimuli_Rocks480/I_Rhyolite_08.png","response":null,"trial_type":"image-keyboard-response","trial_index":163,"plugin_version":"2.1.0","time_elapsed":514837,"subject_id":"90680","group":"Group2","condition":"3_Rep","full_date":"2026-02-08T22:04:15.329Z","date":"2026-02-08","time":"22:04:15"},{"rt":null,"stimulus":"<p style=\"font-size: 50px; margin: 0; text-align: center;\">+</p>","response":null,"trial_type":"html-keyboard-response","trial_index":164,"plugin_version":"2.1.0","time_elapsed":515839,"subject_id":"90680","group":"Group2","condition":"3_Rep","full_date":"2026-02-08T22:04:15.329Z","date":"2026-02-08","time":"22:04:15"},{"task":"memory_phase","broad_category":"I","image_png":"I_Rhyolite_05.png","image_id":149,"category_name":"Rhyolite","category":10,"distinct_rating":3.02,"distinct_type":"Bottom","rt":null,"stimulus":"Stimuli_Rocks480/I_Rhyolite_05.png","response":null,"trial_type":"image-keyboard-response","trial_index":165,"plugin_version":"2.1.0","time_elapsed":518356,"subject_id":"90680","group":"Group2","condition":"3_Rep","full_date":"2026-02-08T22:04:15.329Z","date":"2026-02-08","time":"22:04:15"},{"rt":null,"stimulus":"<p style=\"font-size: 50px; margin: 0; text-align: center;\">+</p>","response":null,"trial_type":"html-keyboard-response","trial_index":166,"plugin_version":"2.1.0","time_elapsed":519358,"subject_id":"90680","group":"Group2","condition":"3_Rep","full_date":"2026-02-08T22:04:15.329Z","date":"2026-02-08","time":"22:04:15"},{"task":"memory_phase","broad_category":"S","image_png":"S_Rock Salt_13.png","image_id":445,"category_name":"Rock Salt","category":28,"distinct_rating":7.58,"distinct_type":"Top","rt":null,"stimulus":"Stimuli_Rocks480/S_Rock Salt_13.png","response":null,"trial_type":"image-keyboard-response","trial_index":167,"plugin_version":"2.1.0","time_elapsed":521874,"subject_id":"90680","group":"Group2","condition":"3_Rep","full_date":"2026-02-08T22:04:15.329Z","date":"2026-02-08","time":"22:04:15"},{"rt":null,"stimulus":"<p style=\"font-size: 50px; margin: 0; text-align: center;\">+</p>","response":null,"trial_type":"html-keyboard-response","trial_index":168,"plugin_version":"2.1.0","time_elapsed":522876,"subject_id":"90680","group":"Group2","condition":"3_Rep","full_date":"2026-02-08T22:04:15.329Z","date":"2026-02-08","time":"22:04:15"},{"task":"memory_phase","broad_category":"S","image_png":"S_Shale_07.png","image_id":471,"category_name":"Shale","category":30,"distinct_rating":2.73,"distinct_type":"Bottom","rt":null,"stimulus":"Stimuli_Rocks480/S_Shale_07.png","response":null,"trial_type":"image-keyboard-response","trial_index":169,"plugin_version":"2.1.0","time_elapsed":525390,"subject_id":"90680","group":"Group2","condition":"3_Rep","full_date":"2026-02-08T22:04:15.329Z","date":"2026-02-08","time":"22:04:15"},{"rt":null,"stimulus":"<p style=\"font-size: 50px; margin: 0; text-align: center;\">+</p>","response":null,"trial_type":"html-keyboard-response","trial_index":170,"plugin_version":"2.1.0","time_elapsed":526392,"subject_id":"90680","group":"Group2","condition":"3_Rep","full_date":"2026-02-08T22:04:15.329Z","date":"2026-02-08","time":"22:04:15"},{"task":"memory_phase","broad_category":"M","image_png":"M_Quartzite_15.png","image_id":287,"category_name":"Quartzite","category":18,"distinct_rating":2.19,"distinct_type":"Bottom","rt":null,"stimulus":"Stimuli_Rocks480/M_Quartzite_15.png","response":null,"trial_type":"image-keyboard-response","trial_index":171,"plugin_version":"2.1.0","time_elapsed":528908,"subject_id":"90680","group":"Group2","condition":"3_Rep","full_date":"2026-02-08T22:04:15.329Z","date":"2026-02-08","time":"22:04:15"},{"rt":null,"stimulus":"<p style=\"font-size: 50px; margin: 0; text-align: center;\">+</p>","response":null,"trial_type":"html-keyboard-response","trial_index":172,"plugin_version":"2.1.0","time_elapsed":529910,"subject_id":"90680","group":"Group2","condition":"3_Rep","full_date":"2026-02-08T22:04:15.329Z","date":"2026-02-08","time":"22:04:15"},{"task":"memory_phase","broad_category":"M","image_png":"M_Quartzite_07.png","image_id":279,"category_name":"Quartzite","category":18,"distinct_rating":1.97,"distinct_type":"Bottom","rt":null,"stimulus":"Stimuli_Rocks480/M_Quartzite_07.png","response":null,"trial_type":"image-keyboard-response","trial_index":173,"plugin_version":"2.1.0","time_elapsed":532426,"subject_id":"90680","group":"Group2","condition":"3_Rep","full_date":"2026-02-08T22:04:15.329Z","date":"2026-02-08","time":"22:04:15"},{"rt":null,"stimulus":"<p style=\"font-size: 50px; margin: 0; text-align: center;\">+</p>","response":null,"trial_type":"html-keyboard-response","trial_index":174,"plugin_version":"2.1.0","time_elapsed":533428,"subject_id":"90680","group":"Group2","condition":"3_Rep","full_date":"2026-02-08T22:04:15.329Z","date":"2026-02-08","time":"22:04:15"},{"task":"memory_phase","broad_category":"I","image_png":"I_Pegmatite_03.png","image_id":99,"category_name":"Pegmatite","category":7,"distinct_rating":7.24,"distinct_type":"Top","rt":null,"stimulus":"Stimuli_Rocks480/I_Pegmatite_03.png","response":null,"trial_type":"image-keyboard-response","trial_index":175,"plugin_version":"2.1.0","time_elapsed":535941,"subject_id":"90680","group":"Group2","condition":"3_Rep","full_date":"2026-02-08T22:04:15.329Z","date":"2026-02-08","time":"22:04:15"},{"rt":null,"stimulus":"<p style=\"font-size: 50px; margin: 0; text-align: center;\">+</p>","response":null,"trial_type":"html-keyboard-response","trial_index":176,"plugin_version":"2.1.0","time_elapsed":536944,"subject_id":"90680","group":"Group2","condition":"3_Rep","full_date":"2026-02-08T22:04:15.329Z","date":"2026-02-08","time":"22:04:15"},{"task":"memory_phase","broad_category":"M","image_png":"M_Phyllite_05.png","image_id":261,"category_name":"Phyllite","category":17,"distinct_rating":2.14,"distinct_type":"Bottom","rt":null,"stimulus":"Stimuli_Rocks480/M_Phyllite_05.png","response":null,"trial_type":"image-keyboard-response","trial_index":177,"plugin_version":"2.1.0","time_elapsed":539456,"subject_id":"90680","group":"Group2","condition":"3_Rep","full_date":"2026-02-08T22:04:15.329Z","date":"2026-02-08","time":"22:04:15"},{"rt":null,"stimulus":"<p style=\"font-size: 50px; margin: 0; text-align: center;\">+</p>","response":null,"trial_type":"html-keyboard-response","trial_index":178,"plugin_version":"2.1.0","time_elapsed":540458,"subject_id":"90680","group":"Group2","condition":"3_Rep","full_date":"2026-02-08T22:04:15.329Z","date":"2026-02-08","time":"22:04:15"},{"task":"memory_phase","broad_category":"S","image_png":"S_Chert_13.png","image_id":365,"category_name":"Chert","category":23,"distinct_rating":6.57,"distinct_type":"Top","rt":null,"stimulus":"Stimuli_Rocks480/S_Chert_13.png","response":null,"trial_type":"image-keyboard-response","trial_index":179,"plugin_version":"2.1.0","time_elapsed":542967,"subject_id":"90680","group":"Group2","condition":"3_Rep","full_date":"2026-02-08T22:04:15.329Z","date":"2026-02-08","time":"22:04:15"},{"rt":null,"stimulus":"<p style=\"font-size: 50px; margin: 0; text-align: center;\">+</p>","response":null,"trial_type":"html-keyboard-response","trial_index":180,"plugin_version":"2.1.0","time_elapsed":543969,"subject_id":"90680","group":"Group2","condition":"3_Rep","full_date":"2026-02-08T22:04:15.329Z","date":"2026-02-08","time":"22:04:15"},{"task":"memory_phase","broad_category":"S","image_png":"S_Shale_03.png","image_id":467,"category_name":"Shale","category":30,"distinct_rating":1.95,"distinct_type":"Bottom","rt":null,"stimulus":"Stimuli_Rocks480/S_Shale_03.png","response":null,"trial_type":"image-keyboard-response","trial_index":181,"plugin_version":"2.1.0","time_elapsed":546485,"subject_id":"90680","group":"Group2","condition":"3_Rep","full_date":"2026-02-08T22:04:15.329Z","date":"2026-02-08","time":"22:04:15"},{"rt":null,"stimulus":"<p style=\"font-size: 50px; margin: 0; text-align: center;\">+</p>","response":null,"trial_type":"html-keyboard-response","trial_index":182,"plugin_version":"2.1.0","time_elapsed":547487,"subject_id":"90680","group":"Group2","condition":"3_Rep","full_date":"2026-02-08T22:04:15.329Z","date":"2026-02-08","time":"22:04:15"},{"task":"memory_phase","broad_category":"M","image_png":"M_Quartzite_12.png","image_id":284,"category_name":"Quartzite","category":18,"distinct_rating":1.92,"distinct_type":"Bottom","rt":null,"stimulus":"Stimuli_Rocks480/M_Quartzite_12.png","response":null,"trial_type":"image-keyboard-response","trial_index":183,"plugin_version":"2.1.0","time_elapsed":550000,"subject_id":"90680","group":"Group2","condition":"3_Rep","full_date":"2026-02-08T22:04:15.329Z","date":"2026-02-08","time":"22:04:15"},{"rt":null,"stimulus":"<p style=\"font-size: 50px; margin: 0; text-align: center;\">+</p>","response":null,"trial_type":"html-keyboard-response","trial_index":184,"plugin_version":"2.1.0","time_elapsed":551002,"subject_id":"90680","group":"Group2","condition":"3_Rep","full_date":"2026-02-08T22:04:15.329Z","date":"2026-02-08","time":"22:04:15"},{"task":"memory_phase","broad_category":"I","image_png":"I_Basalt_08.png","image_id":24,"category_name":"Basalt","category":2,"distinct_rating":2.31,"distinct_type":"Bottom","rt":null,"stimulus":"Stimuli_Rocks480/I_Basalt_08.png","response":null,"trial_type":"image-keyboard-response","trial_index":185,"plugin_version":"2.1.0","time_elapsed":553521,"subject_id":"90680","group":"Group2","condition":"3_Rep","full_date":"2026-02-08T22:04:15.329Z","date":"2026-02-08","time":"22:04:15"},{"rt":null,"stimulus":"<p style=\"font-size: 50px; margin: 0; text-align: center;\">+</p>","response":null,"trial_type":"html-keyboard-response","trial_index":186,"plugin_version":"2.1.0","time_elapsed":554523,"subject_id":"90680","group":"Group2","condition":"3_Rep","full_date":"2026-02-08T22:04:15.329Z","date":"2026-02-08","time":"22:04:15"},{"task":"memory_phase","broad_category":"I","image_png":"I_Pumice_01.png","image_id":129,"category_name":"Pumice","category":9,"distinct_rating":3.25,"distinct_type":"Bottom","rt":null,"stimulus":"Stimuli_Rocks480/I_Pumice_01.png","response":null,"trial_type":"image-keyboard-response","trial_index":187,"plugin_version":"2.1.0","time_elapsed":557037,"subject_id":"90680","group":"Group2","condition":"3_Rep","full_date":"2026-02-08T22:04:15.329Z","date":"2026-02-08","time":"22:04:15"},{"rt":null,"stimulus":"<p style=\"font-size: 50px; margin: 0; text-align: center;\">+</p>","response":null,"trial_type":"html-keyboard-response","trial_index":188,"plugin_version":"2.1.0","time_elapsed":558039,"subject_id":"90680","group":"Group2","condition":"3_Rep","full_date":"2026-02-08T22:04:15.329Z","date":"2026-02-08","time":"22:04:15"},{"task":"memory_phase","broad_category":"I","image_png":"I_Gabbro_14.png","image_id":62,"category_name":"Gabbro","category":4,"distinct_rating":2.95,"distinct_type":"Bottom","rt":null,"stimulus":"Stimuli_Rocks480/I_Gabbro_14.png","response":null,"trial_type":"image-keyboard-response","trial_index":189,"plugin_version":"2.1.0","time_elapsed":560555,"subject_id":"90680","group":"Group2","condition":"3_Rep","full_date":"2026-02-08T22:04:15.329Z","date":"2026-02-08","time":"22:04:15"},{"rt":null,"stimulus":"<p style=\"font-size: 50px; margin: 0; text-align: center;\">+</p>","response":null,"trial_type":"html-keyboard-response","trial_index":190,"plugin_version":"2.1.0","time_elapsed":561557,"subject_id":"90680","group":"Group2","condition":"3_Rep","full_date":"2026-02-08T22:04:15.329Z","date":"2026-02-08","time":"22:04:15"},{"task":"memory_phase","broad_category":"M","image_png":"M_Slate_14.png","image_id":318,"category_name":"Slate","category":20,"distinct_rating":2.58,"distinct_type":"Bottom","rt":null,"stimulus":"Stimuli_Rocks480/M_Slate_14.png","response":null,"trial_type":"image-keyboard-response","trial_index":191,"plugin_version":"2.1.0","time_elapsed":564067,"subject_id":"90680","group":"Group2","condition":"3_Rep","full_date":"2026-02-08T22:04:15.329Z","date":"2026-02-08","time":"22:04:15"},{"rt":null,"stimulus":"<p style=\"font-size: 50px; margin: 0; text-align: center;\">+</p>","response":null,"trial_type":"html-keyboard-response","trial_index":192,"plugin_version":"2.1.0","time_elapsed":565070,"subject_id":"90680","group":"Group2","condition":"3_Rep","full_date":"2026-02-08T22:04:15.329Z","date":"2026-02-08","time":"22:04:15"},{"task":"memory_phase","broad_category":"I","image_png":"I_Pumice_13.png","image_id":141,"category_name":"Pumice","category":9,"distinct_rating":3.12,"distinct_type":"Bottom","rt":null,"stimulus":"Stimuli_Rocks480/I_Pumice_13.png","response":null,"trial_type":"image-keyboard-response","trial_index":193,"plugin_version":"2.1.0","time_elapsed":567585,"subject_id":"90680","group":"Group2","condition":"3_Rep","full_date":"2026-02-08T22:04:15.329Z","date":"2026-02-08","time":"22:04:15"},{"rt":null,"stimulus":"<p style=\"font-size: 50px; margin: 0; text-align: center;\">+</p>","response":null,"trial_type":"html-keyboard-response","trial_index":194,"plugin_version":"2.1.0","time_elapsed":568587,"subject_id":"90680","group":"Group2","condition":"3_Rep","full_date":"2026-02-08T22:04:15.329Z","date":"2026-02-08","time":"22:04:15"},{"task":"memory_phase","broad_category":"M","image_png":"M_Slate_10.png","image_id":314,"category_name":"Slate","category":20,"distinct_rating":1.94,"distinct_type":"Bottom","rt":null,"stimulus":"Stimuli_Rocks480/M_Slate_10.png","response":null,"trial_type":"image-keyboard-response","trial_index":195,"plugin_version":"2.1.0","time_elapsed":571099,"subject_id":"90680","group":"Group2","condition":"3_Rep","full_date":"2026-02-08T22:04:15.329Z","date":"2026-02-08","time":"22:04:15"},{"rt":null,"stimulus":"<p style=\"font-size: 50px; margin: 0; text-align: center;\">+</p>","response":null,"trial_type":"html-keyboard-response","trial_index":196,"plugin_version":"2.1.0","time_elapsed":572101,"subject_id":"90680","group":"Group2","condition":"3_Rep","full_date":"2026-02-08T22:04:15.329Z","date":"2026-02-08","time":"22:04:15"},{"task":"memory_phase","broad_category":"I","image_png":"I_Pumice_14.png","image_id":142,"category_name":"Pumice","category":9,"distinct_rating":3.22,"distinct_type":"Bottom","rt":null,"stimulus":"Stimuli_Rocks480/I_Pumice_14.png","response":null,"trial_type":"image-keyboard-response","trial_index":197,"plugin_version":"2.1.0","time_elapsed":574615,"subject_id":"90680","group":"Group2","condition":"3_Rep","full_date":"2026-02-08T22:04:15.329Z","date":"2026-02-08","time":"22:04:15"},{"rt":null,"stimulus":"<p style=\"font-size: 50px; margin: 0; text-align: center;\">+</p>","response":null,"trial_type":"html-keyboard-response","trial_index":198,"plugin_version":"2.1.0","time_elapsed":575617,"subject_id":"90680","group":"Group2","condition":"3_Rep","full_date":"2026-02-08T22:04:15.329Z","date":"2026-02-08","time":"22:04:15"},{"task":"memory_phase","broad_category":"I","image_png":"I_Andesite_09.png","image_id":9,"category_name":"Andesite","category":1,"distinct_rating":2.49,"distinct_type":"Bottom","rt":null,"stimulus":"Stimuli_Rocks480/I_Andesite_09.png","response":null,"trial_type":"image-keyboard-response","trial_index":199,"plugin_version":"2.1.0","time_elapsed":578130,"subject_id":"90680","group":"Group2","condition":"3_Rep","full_date":"2026-02-08T22:04:15.329Z","date":"2026-02-08","time":"22:04:15"},{"rt":null,"stimulus":"<p style=\"font-size: 50px; margin: 0; text-align: center;\">+</p>","response":null,"trial_type":"html-keyboard-response","trial_index":200,"plugin_version":"2.1.0","time_elapsed":579132,"subject_id":"90680","group":"Group2","condition":"3_Rep","full_date":"2026-02-08T22:04:15.329Z","date":"2026-02-08","time":"22:04:15"},{"task":"memory_phase","broad_category":"S","image_png":"S_Rock Salt_15.png","image_id":447,"category_name":"Rock Salt","category":28,"distinct_rating":7.79,"distinct_type":"Top","rt":null,"stimulus":"Stimuli_Rocks480/S_Rock Salt_15.png","response":null,"trial_type":"image-keyboard-response","trial_index":201,"plugin_version":"2.1.0","time_elapsed":581645,"subject_id":"90680","group":"Group2","condition":"3_Rep","full_date":"2026-02-08T22:04:15.329Z","date":"2026-02-08","time":"22:04:15"},{"rt":null,"stimulus":"<p style=\"font-size: 50px; margin: 0; text-align: center;\">+</p>","response":null,"trial_type":"html-keyboard-response","trial_index":202,"plugin_version":"2.1.0","time_elapsed":582647,"subject_id":"90680","group":"Group2","condition":"3_Rep","full_date":"2026-02-08T22:04:15.329Z","date":"2026-02-08","time":"22:04:15"},{"task":"memory_phase","broad_category":"I","image_png":"I_Andesite_04.png","image_id":4,"category_name":"Andesite","category":1,"distinct_rating":3.18,"distinct_type":"Bottom","rt":null,"stimulus":"Stimuli_Rocks480/I_Andesite_04.png","response":null,"trial_type":"image-keyboard-response","trial_index":203,"plugin_version":"2.1.0","time_elapsed":585158,"subject_id":"90680","group":"Group2","condition":"3_Rep","full_date":"2026-02-08T22:04:15.329Z","date":"2026-02-08","time":"22:04:15"},{"rt":null,"stimulus":"<p style=\"font-size: 50px; margin: 0; text-align: center;\">+</p>","response":null,"trial_type":"html-keyboard-response","trial_index":204,"plugin_version":"2.1.0","time_elapsed":586160,"subject_id":"90680","group":"Group2","condition":"3_Rep","full_date":"2026-02-08T22:04:15.329Z","date":"2026-02-08","time":"22:04:15"},{"task":"memory_phase","broad_category":"M","image_png":"M_Slate_04.png","image_id":308,"category_name":"Slate","category":20,"distinct_rating":2.2,"distinct_type":"Bottom","rt":null,"stimulus":"Stimuli_Rocks480/M_Slate_04.png","response":null,"trial_type":"image-keyboard-response","trial_index":205,"plugin_version":"2.1.0","time_elapsed":588671,"subject_id":"90680","group":"Group2","condition":"3_Rep","full_date":"2026-02-08T22:04:15.329Z","date":"2026-02-08","time":"22:04:15"},{"rt":null,"stimulus":"<p style=\"font-size: 50px; margin: 0; text-align: center;\">+</p>","response":null,"trial_type":"html-keyboard-response","trial_index":206,"plugin_version":"2.1.0","time_elapsed":589674,"subject_id":"90680","group":"Group2","condition":"3_Rep","full_date":"2026-02-08T22:04:15.329Z","date":"2026-02-08","time":"22:04:15"},{"task":"memory_phase","broad_category":"I","image_png":"I_Diorite_15.png","image_id":47,"category_name":"Diorite","category":3,"distinct_rating":3.05,"distinct_type":"Bottom","rt":null,"stimulus":"Stimuli_Rocks480/I_Diorite_15.png","response":null,"trial_type":"image-keyboard-response","trial_index":207,"plugin_version":"2.1.0","time_elapsed":592186,"subject_id":"90680","group":"Group2","condition":"3_Rep","full_date":"2026-02-08T22:04:15.329Z","date":"2026-02-08","time":"22:04:15"},{"rt":1542,"stimulus":"<p style=\"max-width: 760px; margin: auto; font-size: 35px; line-height: 1.5;\">\n                You have completed 2 study phases. \n                Now, we'll show you all the images again 1 more time.\n                <br><br>Press SPACE to continue\n              </p>","response":" ","trial_type":"html-keyboard-response","trial_index":208,"plugin_version":"2.1.0","time_elapsed":593730,"subject_id":"90680","group":"Group2","condition":"3_Rep","full_date":"2026-02-08T22:04:15.329Z","date":"2026-02-08","time":"22:04:15"},{"rt":null,"stimulus":"<p style=\"font-size: 50px; margin: 0; text-align: center;\">+</p>","response":null,"trial_type":"html-keyboard-response","trial_index":209,"plugin_version":"2.1.0","time_elapsed":594732,"subject_id":"90680","group":"Group2","condition":"3_Rep","full_date":"2026-02-08T22:04:15.329Z","date":"2026-02-08","time":"22:04:15"},{"task":"memory_phase","broad_category":"M","image_png":"M_Slate_10.png","image_id":314,"category_name":"Slate","category":20,"distinct_rating":1.94,"distinct_type":"Bottom","rt":null,"stimulus":"Stimuli_Rocks480/M_Slate_10.png","response":null,"trial_type":"image-keyboard-response","trial_index":210,"plugin_version":"2.1.0","time_elapsed":597238,"subject_id":"90680","group":"Group2","condition":"3_Rep","full_date":"2026-02-08T22:04:15.329Z","date":"2026-02-08","time":"22:04:15"},{"rt":null,"stimulus":"<p style=\"font-size: 50px; margin: 0; text-align: center;\">+</p>","response":null,"trial_type":"html-keyboard-response","trial_index":211,"plugin_version":"2.1.0","time_elapsed":598241,"subject_id":"90680","group":"Group2","condition":"3_Rep","full_date":"2026-02-08T22:04:15.329Z","date":"2026-02-08","time":"22:04:15"},{"task":"memory_phase","broad_category":"S","image_png":"S_Dolomite_07.png","image_id":391,"category_name":"Dolomite","category":25,"distinct_rating":1.73,"distinct_type":"Bottom","rt":null,"stimulus":"Stimuli_Rocks480/S_Dolomite_07.png","response":null,"trial_type":"image-keyboard-response","trial_index":212,"plugin_version":"2.1.0","time_elapsed":600756,"subject_id":"90680","group":"Group2","condition":"3_Rep","full_date":"2026-02-08T22:04:15.329Z","date":"2026-02-08","time":"22:04:15"},{"rt":null,"stimulus":"<p style=\"font-size: 50px; margin: 0; text-align: center;\">+</p>","response":null,"trial_type":"html-keyboard-response","trial_index":213,"plugin_version":"2.1.0","time_elapsed":601758,"subject_id":"90680","group":"Group2","condition":"3_Rep","full_date":"2026-02-08T22:04:15.329Z","date":"2026-02-08","time":"22:04:15"},{"task":"memory_phase","broad_category":"I","image_png":"I_Andesite_09.png","image_id":9,"category_name":"Andesite","category":1,"distinct_rating":2.49,"distinct_type":"Bottom","rt":null,"stimulus":"Stimuli_Rocks480/I_Andesite_09.png","response":null,"trial_type":"image-keyboard-response","trial_index":214,"plugin_version":"2.1.0","time_elapsed":604261,"subject_id":"90680","group":"Group2","condition":"3_Rep","full_date":"2026-02-08T22:04:15.329Z","date":"2026-02-08","time":"22:04:15"},{"rt":null,"stimulus":"<p style=\"font-size: 50px; margin: 0; text-align: center;\">+</p>","response":null,"trial_type":"html-keyboard-response","trial_index":215,"plugin_version":"2.1.0","time_elapsed":605263,"subject_id":"90680","group":"Group2","condition":"3_Rep","full_date":"2026-02-08T22:04:15.329Z","date":"2026-02-08","time":"22:04:15"},{"task":"memory_phase","broad_category":"I","image_png":"I_Rhyolite_05.png","image_id":149,"category_name":"Rhyolite","category":10,"distinct_rating":3.02,"distinct_type":"Bottom","rt":null,"stimulus":"Stimuli_Rocks480/I_Rhyolite_05.png","response":null,"trial_type":"image-keyboard-response","trial_index":216,"plugin_version":"2.1.0","time_elapsed":607780,"subject_id":"90680","group":"Group2","condition":"3_Rep","full_date":"2026-02-08T22:04:15.329Z","date":"2026-02-08","time":"22:04:15"},{"rt":null,"stimulus":"<p style=\"font-size: 50px; margin: 0; text-align: center;\">+</p>","response":null,"trial_type":"html-keyboard-response","trial_index":217,"plugin_version":"2.1.0","time_elapsed":608783,"subject_id":"90680","group":"Group2","condition":"3_Rep","full_date":"2026-02-08T22:04:15.329Z","date":"2026-02-08","time":"22:04:15"},{"task":"memory_phase","broad_category":"M","image_png":"M_Gneiss_10.png","image_id":202,"category_name":"Gneiss","category":13,"distinct_rating":3.09,"distinct_type":"Bottom","rt":null,"stimulus":"Stimuli_Rocks480/M_Gneiss_10.png","response":null,"trial_type":"image-keyboard-response","trial_index":218,"plugin_version":"2.1.0","time_elapsed":611297,"subject_id":"90680","group":"Group2","condition":"3_Rep","full_date":"2026-02-08T22:04:15.329Z","date":"2026-02-08","time":"22:04:15"},{"rt":null,"stimulus":"<p style=\"font-size: 50px; margin: 0; text-align: center;\">+</p>","response":null,"trial_type":"html-keyboard-response","trial_index":219,"plugin_version":"2.1.0","time_elapsed":612299,"subject_id":"90680","group":"Group2","condition":"3_Rep","full_date":"2026-02-08T22:04:15.329Z","date":"2026-02-08","time":"22:04:15"},{"task":"memory_phase","broad_category":"I","image_png":"I_Rhyolite_08.png","image_id":152,"category_name":"Rhyolite","category":10,"distinct_rating":1.38,"distinct_type":"Bottom","rt":null,"stimulus":"Stimuli_Rocks480/I_Rhyolite_08.png","response":null,"trial_type":"image-keyboard-response","trial_index":220,"plugin_version":"2.1.0","time_elapsed":614812,"subject_id":"90680","group":"Group2","condition":"3_Rep","full_date":"2026-02-08T22:04:15.329Z","date":"2026-02-08","time":"22:04:15"},{"rt":null,"stimulus":"<p style=\"font-size: 50px; margin: 0; text-align: center;\">+</p>","response":null,"trial_type":"html-keyboard-response","trial_index":221,"plugin_version":"2.1.0","time_elapsed":615814,"subject_id":"90680","group":"Group2","condition":"3_Rep","full_date":"2026-02-08T22:04:15.329Z","date":"2026-02-08","time":"22:04:15"},{"task":"memory_phase","broad_category":"I","image_png":"I_Pumice_01.png","image_id":129,"category_name":"Pumice","category":9,"distinct_rating":3.25,"distinct_type":"Bottom","rt":null,"stimulus":"Stimuli_Rocks480/I_Pumice_01.png","response":null,"trial_type":"image-keyboard-response","trial_index":222,"plugin_version":"2.1.0","time_elapsed":618317,"subject_id":"90680","group":"Group2","condition":"3_Rep","full_date":"2026-02-08T22:04:15.329Z","date":"2026-02-08","time":"22:04:15"},{"rt":null,"stimulus":"<p style=\"font-size: 50px; margin: 0; text-align: center;\">+</p>","response":null,"trial_type":"html-keyboard-response","trial_index":223,"plugin_version":"2.1.0","time_elapsed":619319,"subject_id":"90680","group":"Group2","condition":"3_Rep","full_date":"2026-02-08T22:04:15.329Z","date":"2026-02-08","time":"22:04:15"},{"task":"memory_phase","broad_category":"S","image_png":"S_Rock Salt_13.png","image_id":445,"category_name":"Rock Salt","category":28,"distinct_rating":7.58,"distinct_type":"Top","rt":null,"stimulus":"Stimuli_Rocks480/S_Rock Salt_13.png","response":null,"trial_type":"image-keyboard-response","trial_index":224,"plugin_version":"2.1.0","time_elapsed":621834,"subject_id":"90680","group":"Group2","condition":"3_Rep","full_date":"2026-02-08T22:04:15.329Z","date":"2026-02-08","time":"22:04:15"},{"rt":null,"stimulus":"<p style=\"font-size: 50px; margin: 0; text-align: center;\">+</p>","response":null,"trial_type":"html-keyboard-response","trial_index":225,"plugin_version":"2.1.0","time_elapsed":622837,"subject_id":"90680","group":"Group2","condition":"3_Rep","full_date":"2026-02-08T22:04:15.329Z","date":"2026-02-08","time":"22:04:15"},{"task":"memory_phase","broad_category":"M","image_png":"M_Marble_02.png","image_id":226,"category_name":"Marble","category":15,"distinct_rating":3.2,"distinct_type":"Bottom","rt":null,"stimulus":"Stimuli_Rocks480/M_Marble_02.png","response":null,"trial_type":"image-keyboard-response","trial_index":226,"plugin_version":"2.1.0","time_elapsed":625349,"subject_id":"90680","group":"Group2","condition":"3_Rep","full_date":"2026-02-08T22:04:15.329Z","date":"2026-02-08","time":"22:04:15"},{"rt":null,"stimulus":"<p style=\"font-size: 50px; margin: 0; text-align: center;\">+</p>","response":null,"trial_type":"html-keyboard-response","trial_index":227,"plugin_version":"2.1.0","time_elapsed":626351,"subject_id":"90680","group":"Group2","condition":"3_Rep","full_date":"2026-02-08T22:04:15.329Z","date":"2026-02-08","time":"22:04:15"},{"task":"memory_phase","broad_category":"I","image_png":"I_Gabbro_12.png","image_id":60,"category_name":"Gabbro","category":4,"distinct_rating":2.6,"distinct_type":"Bottom","rt":null,"stimulus":"Stimuli_Rocks480/I_Gabbro_12.png","response":null,"trial_type":"image-keyboard-response","trial_index":228,"plugin_version":"2.1.0","time_elapsed":628867,"subject_id":"90680","group":"Group2","condition":"3_Rep","full_date":"2026-02-08T22:04:15.329Z","date":"2026-02-08","time":"22:04:15"},{"rt":null,"stimulus":"<p style=\"font-size: 50px; margin: 0; text-align: center;\">+</p>","response":null,"trial_type":"html-keyboard-response","trial_index":229,"plugin_version":"2.1.0","time_elapsed":629869,"subject_id":"90680","group":"Group2","condition":"3_Rep","full_date":"2026-02-08T22:04:15.329Z","date":"2026-02-08","time":"22:04:15"},{"task":"memory_phase","broad_category":"I","image_png":"I_Obsidian_06.png","image_id":86,"category_name":"Obsidian","category":6,"distinct_rating":8.01,"distinct_type":"Top","rt":null,"stimulus":"Stimuli_Rocks480/I_Obsidian_06.png","response":null,"trial_type":"image-keyboard-response","trial_index":230,"plugin_version":"2.1.0","time_elapsed":632386,"subject_id":"90680","group":"Group2","condition":"3_Rep","full_date":"2026-02-08T22:04:15.329Z","date":"2026-02-08","time":"22:04:15"},{"rt":null,"stimulus":"<p style=\"font-size: 50px; margin: 0; text-align: center;\">+</p>","response":null,"trial_type":"html-keyboard-response","trial_index":231,"plugin_version":"2.1.0","time_elapsed":633388,"subject_id":"90680","group":"Group2","condition":"3_Rep","full_date":"2026-02-08T22:04:15.329Z","date":"2026-02-08","time":"22:04:15"},{"task":"memory_phase","broad_category":"M","image_png":"M_Marble_03.png","image_id":227,"category_name":"Marble","category":15,"distinct_rating":2.67,"distinct_type":"Bottom","rt":null,"stimulus":"Stimuli_Rocks480/M_Marble_03.png","response":null,"trial_type":"image-keyboard-response","trial_index":232,"plugin_version":"2.1.0","time_elapsed":635902,"subject_id":"90680","group":"Group2","condition":"3_Rep","full_date":"2026-02-08T22:04:15.329Z","date":"2026-02-08","time":"22:04:15"},{"rt":null,"stimulus":"<p style=\"font-size: 50px; margin: 0; text-align: center;\">+</p>","response":null,"trial_type":"html-keyboard-response","trial_index":233,"plugin_version":"2.1.0","time_elapsed":636904,"subject_id":"90680","group":"Group2","condition":"3_Rep","full_date":"2026-02-08T22:04:15.329Z","date":"2026-02-08","time":"22:04:15"},{"task":"memory_phase","broad_category":"I","image_png":"I_Gabbro_02.png","image_id":50,"category_name":"Gabbro","category":4,"distinct_rating":2.73,"distinct_type":"Bottom","rt":null,"stimulus":"Stimuli_Rocks480/I_Gabbro_02.png","response":null,"trial_type":"image-keyboard-response","trial_index":234,"plugin_version":"2.1.0","time_elapsed":639418,"subject_id":"90680","group":"Group2","condition":"3_Rep","full_date":"2026-02-08T22:04:15.329Z","date":"2026-02-08","time":"22:04:15"},{"rt":null,"stimulus":"<p style=\"font-size: 50px; margin: 0; text-align: center;\">+</p>","response":null,"trial_type":"html-keyboard-response","trial_index":235,"plugin_version":"2.1.0","time_elapsed":640420,"subject_id":"90680","group":"Group2","condition":"3_Rep","full_date":"2026-02-08T22:04:15.329Z","date":"2026-02-08","time":"22:04:15"},{"task":"memory_phase","broad_category":"I","image_png":"I_Diorite_01.png","image_id":33,"category_name":"Diorite","category":3,"distinct_rating":2.97,"distinct_type":"Bottom","rt":null,"stimulus":"Stimuli