[{"width":1463,"height":752,"webaudio":true,"browser":"chrome","browser_version":"143.0.0","mobile":false,"os":"Mac OS","fullscreen":true,"vsync_rate":57.15,"webcam":true,"microphone":true,"trial_type":"browser-check","trial_index":0,"plugin_version":"2.1.0","time_elapsed":1059,"subject_id":"90741","group":"Group2","condition":"1_Rep","full_date":"2026-02-08T19:10:12.952Z","date":"2026-02-08","time":"19:10:12"},{"success":true,"timeout":false,"failed_images":[],"failed_audio":[],"failed_video":[],"trial_type":"preload","trial_index":1,"plugin_version":"2.1.0","time_elapsed":5052,"subject_id":"90741","group":"Group2","condition":"1_Rep","full_date":"2026-02-08T19:10:12.952Z","date":"2026-02-08","time":"19:10:12"},{"rt":45397,"url":"SONA_consent_memorability.html","trial_type":"external-html","trial_index":2,"plugin_version":"2.1.0","time_elapsed":50555,"subject_id":"90741","group":"Group2","condition":"1_Rep","full_date":"2026-02-08T19:10:12.952Z","date":"2026-02-08","time":"19:10:12"},{"success":true,"rt":1947,"trial_type":"fullscreen","trial_index":3,"plugin_version":"2.1.0","time_elapsed":53505,"subject_id":"90741","group":"Group2","condition":"1_Rep","full_date":"2026-02-08T19:10:12.952Z","date":"2026-02-08","time":"19:10:12"},{"rt":25197,"stimulus":"<div style=\"max-width: 760px; margin: auto; font-size: 20px; line-height: 1.5;\">\n      <h1 style=\"text-align:center; font-size: 30px;\">Instructions</h1>\n      <p>\n        Welcome to the study on <b>visual memory</b>. This experiment consists of <b>two phases</b>: \n        a <b>study phase</b> and a <b>test phase</b>.\n      </p>\n      <p>\n        In the study phase, you will see a series of rock images along with their category labels.\n        The images will appear one at a time.\n        <b>Your task</b> is to learn the categories to which the rock images belong \n        and to remember each image as accurately as possible.\n      </p> \n      <p>\n        Note that you will see each image only <b>once</b> during the study phase. \n          So, please pay close attention and try to remember each image carefully.\n      </p>\n      <p>\n        After the study phase, <b>your memory will be tested</b>. \n        Additional instructions for the test phase will be provided at that time.\n      </p>\n      <p>\n        If your computer has multiple <b>language settings</b> (e.g., English and another language),\n        please make sure it is set to English before starting.\n      </p>\n      <p>\n        You can track your progress using the <b>completion bar</b> at the top of the screen. \n        Please note that the bar will refresh when the test phase begins \n        to give you an accurate sense of your progress in both phases.\n      </p> \n      <p>\n        Press the button below when you are ready to begin.\n      </p>\n    </div>","response":0,"trial_type":"html-button-response","trial_index":4,"plugin_version":"2.1.0","time_elapsed":78704,"subject_id":"90741","group":"Group2","condition":"1_Rep","full_date":"2026-02-08T19:10:12.952Z","date":"2026-02-08","time":"19:10:12"},{"rt":null,"stimulus":"<p style=\"font-size: 50px; margin: 0; text-align: center;\">+</p>","response":null,"trial_type":"html-keyboard-response","trial_index":5,"plugin_version":"2.1.0","time_elapsed":79708,"subject_id":"90741","group":"Group2","condition":"1_Rep","full_date":"2026-02-08T19:10:12.952Z","date":"2026-02-08","time":"19:10:12"},{"task":"memory_phase","broad_category":"M","image_png":"M_Slate_14.png","image_id":318,"category_name":"Slate","category":20,"distinct_rating":2.58,"distinct_type":"Bottom","rt":null,"stimulus":"Stimuli_Rocks480/M_Slate_14.png","response":null,"trial_type":"image-keyboard-response","trial_index":6,"plugin_version":"2.1.0","time_elapsed":82214,"subject_id":"90741","group":"Group2","condition":"1_Rep","full_date":"2026-02-08T19:10:12.952Z","date":"2026-02-08","time":"19:10:12"},{"rt":null,"stimulus":"<p style=\"font-size: 50px; margin: 0; text-align: center;\">+</p>","response":null,"trial_type":"html-keyboard-response","trial_index":7,"plugin_version":"2.1.0","time_elapsed":83216,"subject_id":"90741","group":"Group2","condition":"1_Rep","full_date":"2026-02-08T19:10:12.952Z","date":"2026-02-08","time":"19:10:12"},{"task":"memory_phase","broad_category":"I","image_png":"I_Peridotite_13.png","image_id":125,"category_name":"Peridotite","category":8,"distinct_rating":7.28,"distinct_type":"Top","rt":null,"stimulus":"Stimuli_Rocks480/I_Peridotite_13.png","response":null,"trial_type":"image-keyboard-response","trial_index":8,"plugin_version":"2.1.0","time_elapsed":85720,"subject_id":"90741","group":"Group2","condition":"1_Rep","full_date":"2026-02-08T19:10:12.952Z","date":"2026-02-08","time":"19:10:12"},{"rt":null,"stimulus":"<p style=\"font-size: 50px; margin: 0; text-align: center;\">+</p>","response":null,"trial_type":"html-keyboard-response","trial_index":9,"plugin_version":"2.1.0","time_elapsed":86723,"subject_id":"90741","group":"Group2","condition":"1_Rep","full_date":"2026-02-08T19:10:12.952Z","date":"2026-02-08","time":"19:10:12"},{"task":"memory_phase","broad_category":"I","image_png":"I_Obsidian_06.png","image_id":86,"category_name":"Obsidian","category":6,"distinct_rating":8.01,"distinct_type":"Top","rt":null,"stimulus":"Stimuli_Rocks480/I_Obsidian_06.png","response":null,"trial_type":"image-keyboard-response","trial_index":10,"plugin_version":"2.1.0","time_elapsed":89227,"subject_id":"90741","group":"Group2","condition":"1_Rep","full_date":"2026-02-08T19:10:12.952Z","date":"2026-02-08","time":"19:10:12"},{"rt":null,"stimulus":"<p style=\"font-size: 50px; margin: 0; text-align: center;\">+</p>","response":null,"trial_type":"html-keyboard-response","trial_index":11,"plugin_version":"2.1.0","time_elapsed":90230,"subject_id":"90741","group":"Group2","condition":"1_Rep","full_date":"2026-02-08T19:10:12.952Z","date":"2026-02-08","time":"19:10:12"},{"task":"memory_phase","broad_category":"M","image_png":"M_Phyllite_05.png","image_id":261,"category_name":"Phyllite","category":17,"distinct_rating":2.14,"distinct_type":"Bottom","rt":null,"stimulus":"Stimuli_Rocks480/M_Phyllite_05.png","response":null,"trial_type":"image-keyboard-response","trial_index":12,"plugin_version":"2.1.0","time_elapsed":92733,"subject_id":"90741","group":"Group2","condition":"1_Rep","full_date":"2026-02-08T19:10:12.952Z","date":"2026-02-08","time":"19:10:12"},{"rt":null,"stimulus":"<p style=\"font-size: 50px; margin: 0; text-align: center;\">+</p>","response":null,"trial_type":"html-keyboard-response","trial_index":13,"plugin_version":"2.1.0","time_elapsed":93735,"subject_id":"90741","group":"Group2","condition":"1_Rep","full_date":"2026-02-08T19:10:12.952Z","date":"2026-02-08","time":"19:10:12"},{"task":"memory_phase","broad_category":"I","image_png":"I_Basalt_08.png","image_id":24,"category_name":"Basalt","category":2,"distinct_rating":2.31,"distinct_type":"Bottom","rt":null,"stimulus":"Stimuli_Rocks480/I_Basalt_08.png","response":null,"trial_type":"image-keyboard-response","trial_index":14,"plugin_version":"2.1.0","time_elapsed":96238,"subject_id":"90741","group":"Group2","condition":"1_Rep","full_date":"2026-02-08T19:10:12.952Z","date":"2026-02-08","time":"19:10:12"},{"rt":null,"stimulus":"<p style=\"font-size: 50px; margin: 0; text-align: center;\">+</p>","response":null,"trial_type":"html-keyboard-response","trial_index":15,"plugin_version":"2.1.0","time_elapsed":97241,"subject_id":"90741","group":"Group2","condition":"1_Rep","full_date":"2026-02-08T19:10:12.952Z","date":"2026-02-08","time":"19:10:12"},{"task":"memory_phase","broad_category":"M","image_png":"M_Slate_10.png","image_id":314,"category_name":"Slate","category":20,"distinct_rating":1.94,"distinct_type":"Bottom","rt":null,"stimulus":"Stimuli_Rocks480/M_Slate_10.png","response":null,"trial_type":"image-keyboard-response","trial_index":16,"plugin_version":"2.1.0","time_elapsed":99744,"subject_id":"90741","group":"Group2","condition":"1_Rep","full_date":"2026-02-08T19:10:12.952Z","date":"2026-02-08","time":"19:10:12"},{"rt":null,"stimulus":"<p style=\"font-size: 50px; margin: 0; text-align: center;\">+</p>","response":null,"trial_type":"html-keyboard-response","trial_index":17,"plugin_version":"2.1.0","time_elapsed":100747,"subject_id":"90741","group":"Group2","condition":"1_Rep","full_date":"2026-02-08T19:10:12.952Z","date":"2026-02-08","time":"19:10:12"},{"task":"memory_phase","broad_category":"I","image_png":"I_Gabbro_02.png","image_id":50,"category_name":"Gabbro","category":4,"distinct_rating":2.73,"distinct_type":"Bottom","rt":null,"stimulus":"Stimuli_Rocks480/I_Gabbro_02.png","response":null,"trial_type":"image-keyboard-response","trial_index":18,"plugin_version":"2.1.0","time_elapsed":103250,"subject_id":"90741","group":"Group2","condition":"1_Rep","full_date":"2026-02-08T19:10:12.952Z","date":"2026-02-08","time":"19:10:12"},{"rt":null,"stimulus":"<p style=\"font-size: 50px; margin: 0; text-align: center;\">+</p>","response":null,"trial_type":"html-keyboard-response","trial_index":19,"plugin_version":"2.1.0","time_elapsed":104252,"subject_id":"90741","group":"Group2","condition":"1_Rep","full_date":"2026-02-08T19:10:12.952Z","date":"2026-02-08","time":"19:10:12"},{"task":"memory_phase","broad_category":"S","image_png":"S_Sandstone_08.png","image_id":456,"category_name":"Sandstone","category":29,"distinct_rating":1.5,"distinct_type":"Bottom","rt":null,"stimulus":"Stimuli_Rocks480/S_Sandstone_08.png","response":null,"trial_type":"image-keyboard-response","trial_index":20,"plugin_version":"2.1.0","time_elapsed":106756,"subject_id":"90741","group":"Group2","condition":"1_Rep","full_date":"2026-02-08T19:10:12.952Z","date":"2026-02-08","time":"19:10:12"},{"rt":null,"stimulus":"<p style=\"font-size: 50px; margin: 0; text-align: center;\">+</p>","response":null,"trial_type":"html-keyboard-response","trial_index":21,"plugin_version":"2.1.0","time_elapsed":107758,"subject_id":"90741","group":"Group2","condition":"1_Rep","full_date":"2026-02-08T19:10:12.952Z","date":"2026-02-08","time":"19:10:12"},{"task":"memory_phase","broad_category":"I","image_png":"I_Andesite_03.png","image_id":3,"category_name":"Andesite","category":1,"distinct_rating":3.17,"distinct_type":"Bottom","rt":null,"stimulus":"Stimuli_Rocks480/I_Andesite_03.png","response":null,"trial_type":"image-keyboard-response","trial_index":22,"plugin_version":"2.1.0","time_elapsed":110262,"subject_id":"90741","group":"Group2","condition":"1_Rep","full_date":"2026-02-08T19:10:12.952Z","date":"2026-02-08","time":"19:10:12"},{"rt":null,"stimulus":"<p style=\"font-size: 50px; margin: 0; text-align: center;\">+</p>","response":null,"trial_type":"html-keyboard-response","trial_index":23,"plugin_version":"2.1.0","time_elapsed":111265,"subject_id":"90741","group":"Group2","condition":"1_Rep","full_date":"2026-02-08T19:10:12.952Z","date":"2026-02-08","time":"19:10:12"},{"task":"memory_phase","broad_category":"M","image_png":"M_Quartzite_07.png","image_id":279,"category_name":"Quartzite","category":18,"distinct_rating":1.97,"distinct_type":"Bottom","rt":null,"stimulus":"Stimuli_Rocks480/M_Quartzite_07.png","response":null,"trial_type":"image-keyboard-response","trial_index":24,"plugin_version":"2.1.0","time_elapsed":113768,"subject_id":"90741","group":"Group2","condition":"1_Rep","full_date":"2026-02-08T19:10:12.952Z","date":"2026-02-08","time":"19:10:12"},{"rt":null,"stimulus":"<p style=\"font-size: 50px; margin: 0; text-align: center;\">+</p>","response":null,"trial_type":"html-keyboard-response","trial_index":25,"plugin_version":"2.1.0","time_elapsed":114771,"subject_id":"90741","group":"Group2","condition":"1_Rep","full_date":"2026-02-08T19:10:12.952Z","date":"2026-02-08","time":"19:10:12"},{"task":"memory_phase","broad_category":"S","image_png":"S_Dolomite_01.png","image_id":385,"category_name":"Dolomite","category":25,"distinct_rating":1.43,"distinct_type":"Bottom","rt":null,"stimulus":"Stimuli_Rocks480/S_Dolomite_01.png","response":null,"trial_type":"image-keyboard-response","trial_index":26,"plugin_version":"2.1.0","time_elapsed":117273,"subject_id":"90741","group":"Group2","condition":"1_Rep","full_date":"2026-02-08T19:10:12.952Z","date":"2026-02-08","time":"19:10:12"},{"rt":null,"stimulus":"<p style=\"font-size: 50px; margin: 0; text-align: center;\">+</p>","response":null,"trial_type":"html-keyboard-response","trial_index":27,"plugin_version":"2.1.0","time_elapsed":118276,"subject_id":"90741","group":"Group2","condition":"1_Rep","full_date":"2026-02-08T19:10:12.952Z","date":"2026-02-08","time":"19:10:12"},{"task":"memory_phase","broad_category":"I","image_png":"I_Basalt_10.png","image_id":26,"category_name":"Basalt","category":2,"distinct_rating":2.76,"distinct_type":"Bottom","rt":null,"stimulus":"Stimuli_Rocks480/I_Basalt_10.png","response":null,"trial_type":"image-keyboard-response","trial_index":28,"plugin_version":"2.1.0","time_elapsed":120779,"subject_id":"90741","group":"Group2","condition":"1_Rep","full_date":"2026-02-08T19:10:12.952Z","date":"2026-02-08","time":"19:10:12"},{"rt":null,"stimulus":"<p style=\"font-size: 50px; margin: 0; text-align: center;\">+</p>","response":null,"trial_type":"html-keyboard-response","trial_index":29,"plugin_version":"2.1.0","time_elapsed":121782,"subject_id":"90741","group":"Group2","condition":"1_Rep","full_date":"2026-02-08T19:10:12.952Z","date":"2026-02-08","time":"19:10:12"},{"task":"memory_phase","broad_category":"I","image_png":"I_Pumice_13.png","image_id":141,"category_name":"Pumice","category":9,"distinct_rating":3.12,"distinct_type":"Bottom","rt":null,"stimulus":"Stimuli_Rocks480/I_Pumice_13.png","response":null,"trial_type":"image-keyboard-response","trial_index":30,"plugin_version":"2.1.0","time_elapsed":124285,"subject_id":"90741","group":"Group2","condition":"1_Rep","full_date":"2026-02-08T19:10:12.952Z","date":"2026-02-08","time":"19:10:12"},{"rt":null,"stimulus":"<p style=\"font-size: 50px; margin: 0; text-align: center;\">+</p>","response":null,"trial_type":"html-keyboard-response","trial_index":31,"plugin_version":"2.1.0","time_elapsed":125286,"subject_id":"90741","group":"Group2","condition":"1_Rep","full_date":"2026-02-08T19:10:12.952Z","date":"2026-02-08","time":"19:10:12"},{"task":"memory_phase","broad_category":"I","image_png":"I_Rhyolite_05.png","image_id":149,"category_name":"Rhyolite","category":10,"distinct_rating":3.02,"distinct_type":"Bottom","rt":null,"stimulus":"Stimuli_Rocks480/I_Rhyolite_05.png","response":null,"trial_type":"image-keyboard-response","trial_index":32,"plugin_version":"2.1.0","time_elapsed":127789,"subject_id":"90741","group":"Group2","condition":"1_Rep","full_date":"2026-02-08T19:10:12.952Z","date":"2026-02-08","time":"19:10:12"},{"rt":null,"stimulus":"<p style=\"font-size: 50px; margin: 0; text-align: center;\">+</p>","response":null,"trial_type":"html-keyboard-response","trial_index":33,"plugin_version":"2.1.0","time_elapsed":128792,"subject_id":"90741","group":"Group2","condition":"1_Rep","full_date":"2026-02-08T19:10:12.952Z","date":"2026-02-08","time":"19:10:12"},{"task":"memory_phase","broad_category":"M","image_png":"M_Phyllite_13.png","image_id":269,"category_name":"Phyllite","category":17,"distinct_rating":2.8,"distinct_type":"Bottom","rt":null,"stimulus":"Stimuli_Rocks480/M_Phyllite_13.png","response":null,"trial_type":"image-keyboard-response","trial_index":34,"plugin_version":"2.1.0","time_elapsed":131295,"subject_id":"90741","group":"Group2","condition":"1_Rep","full_date":"2026-02-08T19:10:12.952Z","date":"2026-02-08","time":"19:10:12"},{"rt":null,"stimulus":"<p style=\"font-size: 50px; margin: 0; text-align: center;\">+</p>","response":null,"trial_type":"html-keyboard-response","trial_index":35,"plugin_version":"2.1.0","time_elapsed":132298,"subject_id":"90741","group":"Group2","condition":"1_Rep","full_date":"2026-02-08T19:10:12.952Z","date":"2026-02-08","time":"19:10:12"},{"task":"memory_phase","broad_category":"I","image_png":"I_Gabbro_14.png","image_id":62,"category_name":"Gabbro","category":4,"distinct_rating":2.95,"distinct_type":"Bottom","rt":null,"stimulus":"Stimuli_Rocks480/I_Gabbro_14.png","response":null,"trial_type":"image-keyboard-response","trial_index":36,"plugin_version":"2.1.0","time_elapsed":134800,"subject_id":"90741","group":"Group2","condition":"1_Rep","full_date":"2026-02-08T19:10:12.952Z","date":"2026-02-08","time":"19:10:12"},{"rt":null,"stimulus":"<p style=\"font-size: 50px; margin: 0; text-align: center;\">+</p>","response":null,"trial_type":"html-keyboard-response","trial_index":37,"plugin_version":"2.1.0","time_elapsed":135802,"subject_id":"90741","group":"Group2","condition":"1_Rep","full_date":"2026-02-08T19:10:12.952Z","date":"2026-02-08","time":"19:10:12"},{"task":"memory_phase","broad_category":"S","image_png":"S_Shale_07.png","image_id":471,"category_name":"Shale","category":30,"distinct_rating":2.73,"distinct_type":"Bottom","rt":null,"stimulus":"Stimuli_Rocks480/S_Shale_07.png","response":null,"trial_type":"image-keyboard-response","trial_index":38,"plugin_version":"2.1.0","time_elapsed":138306,"subject_id":"90741","group":"Group2","condition":"1_Rep","full_date":"2026-02-08T19:10:12.952Z","date":"2026-02-08","time":"19:10:12"},{"rt":null,"stimulus":"<p style=\"font-size: 50px; margin: 0; text-align: center;\">+</p>","response":null,"trial_type":"html-keyboard-response","trial_index":39,"plugin_version":"2.1.0","time_elapsed":139309,"subject_id":"90741","group":"Group2","condition":"1_Rep","full_date":"2026-02-08T19:10:12.952Z","date":"2026-02-08","time":"19:10:12"},{"task":"memory_phase","broad_category":"S","image_png":"S_Shale_02.png","image_id":466,"category_name":"Shale","category":30,"distinct_rating":2.9,"distinct_type":"Bottom","rt":null,"stimulus":"Stimuli_Rocks480/S_Shale_02.png","response":null,"trial_type":"image-keyboard-response","trial_index":40,"plugin_version":"2.1.0","time_elapsed":141812,"subject_id":"90741","group":"Group2","condition":"1_Rep","full_date":"2026-02-08T19:10:12.952Z","date":"2026-02-08","time":"19:10:12"},{"rt":null,"stimulus":"<p style=\"font-size: 50px; margin: 0; text-align: center;\">+</p>","response":null,"trial_type":"html-keyboard-response","trial_index":41,"plugin_version":"2.1.0","time_elapsed":142814,"subject_id":"90741","group":"Group2","condition":"1_Rep","full_date":"2026-02-08T19:10:12.952Z","date":"2026-02-08","time":"19:10:12"},{"task":"memory_phase","broad_category":"I","image_png":"I_Diorite_10.png","image_id":42,"category_name":"Diorite","category":3,"distinct_rating":2.84,"distinct_type":"Bottom","rt":null,"stimulus":"Stimuli_Rocks480/I_Diorite_10.png","response":null,"trial_type":"image-keyboard-response","trial_index":42,"plugin_version":"2.1.0","time_elapsed":145318,"subject_id":"90741","group":"Group2","condition":"1_Rep","full_date":"2026-02-08T19:10:12.952Z","date":"2026-02-08","time":"19:10:12"},{"rt":null,"stimulus":"<p style=\"font-size: 50px; margin: 0; text-align: center;\">+</p>","response":null,"trial_type":"html-keyboard-response","trial_index":43,"plugin_version":"2.1.0","time_elapsed":146320,"subject_id":"90741","group":"Group2","condition":"1_Rep","full_date":"2026-02-08T19:10:12.952Z","date":"2026-02-08","time":"19:10:12"},{"task":"memory_phase","broad_category":"S","image_png":"S_Rock Salt_15.png","image_id":447,"category_name":"Rock Salt","category":28,"distinct_rating":7.79,"distinct_type":"Top","rt":null,"stimulus":"Stimuli_Rocks480/S_Rock Salt_15.png","response":null,"trial_type":"image-keyboard-response","trial_index":44,"plugin_version":"2.1.0","time_elapsed":148824,"subject_id":"90741","group":"Group2","condition":"1_Rep","full_date":"2026-02-08T19:10:12.952Z","date":"2026-02-08","time":"19:10:12"},{"rt":null,"stimulus":"<p style=\"font-size: 50px; margin: 0; text-align: center;\">+</p>","response":null,"trial_type":"html-keyboard-response","trial_index":45,"plugin_version":"2.1.0","time_elapsed":149826,"subject_id":"90741","group":"Group2","condition":"1_Rep","full_date":"2026-02-08T19:10:12.952Z","date":"2026-02-08","time":"19:10:12"},{"task":"memory_phase","broad_category":"S","image_png":"S_Sandstone_11.png","image_id":459,"category_name":"Sandstone","category":29,"distinct_rating":1.82,"distinct_type":"Bottom","rt":null,"stimulus":"Stimuli_Rocks480/S_Sandstone_11.png","response":null,"trial_type":"image-keyboard-response","trial_index":46,"plugin_version":"2.1.0","time_elapsed":152329,"subject_id":"90741","group":"Group2","condition":"1_Rep","full_date":"2026-02-08T19:10:12.952Z","date":"2026-02-08","time":"19:10:12"},{"rt":null,"stimulus":"<p style=\"font-size: 50px; margin: 0; text-align: center;\">+</p>","response":null,"trial_type":"html-keyboard-response","trial_index":47,"plugin_version":"2.1.0","time_elapsed":153332,"subject_id":"90741","group":"Group2","condition":"1_Rep","full_date":"2026-02-08T19:10:12.952Z","date":"2026-02-08","time":"19:10:12"},{"task":"memory_phase","broad_category":"M","image_png":"M_Quartzite_12.png","image_id":284,"category_name":"Quartzite","category":18,"distinct_rating":1.92,"distinct_type":"Bottom","rt":null,"stimulus":"Stimuli_Rocks480/M_Quartzite_12.png","response":null,"trial_type":"image-keyboard-response","trial_index":48,"plugin_version":"2.1.0","time_elapsed":155836,"subject_id":"90741","group":"Group2","condition":"1_Rep","full_date":"2026-02-08T19:10:12.952Z","date":"2026-02-08","time":"19:10:12"},{"rt":null,"stimulus":"<p style=\"font-size: 50px; margin: 0; text-align: center;\">+</p>","response":null,"trial_type":"html-keyboard-response","trial_index":49,"plugin_version":"2.1.0","time_elapsed":156838,"subject_id":"90741","group":"Group2","condition":"1_Rep","full_date":"2026-02-08T19:10:12.952Z","date":"2026-02-08","time":"19:10:12"},{"task":"memory_phase","broad_category":"S","image_png":"S_Sandstone_04.png","image_id":452,"category_name":"Sandstone","category":29,"distinct_rating":1.8,"distinct_type":"Bottom","rt":null,"stimulus":"Stimuli_Rocks480/S_Sandstone_04.png","response":null,"trial_type":"image-keyboard-response","trial_index":50,"plugin_version":"2.1.0","time_elapsed":159342,"subject_id":"90741","group":"Group2","condition":"1_Rep","full_date":"2026-02-08T19:10:12.952Z","date":"2026-02-08","time":"19:10:12"},{"rt":null,"stimulus":"<p style=\"font-size: 50px; margin: 0; text-align: center;\">+</p>","response":null,"trial_type":"html-keyboard-response","trial_index":51,"plugin_version":"2.1.0","time_elapsed":160345,"subject_id":"90741","group":"Group2","condition":"1_Rep","full_date":"2026-02-08T19:10:12.952Z","date":"2026-02-08","time":"19:10:12"},{"task":"memory_phase","broad_category":"M","image_png":"M_Gneiss_14.png","image_id":206,"category_name":"Gneiss","category":13,"distinct_rating":3.41,"distinct_type":"Bottom","rt":null,"stimulus":"Stimuli_Rocks480/M_Gneiss_14.png","response":null,"trial_type":"image-keyboard-response","trial_index":52,"plugin_version":"2.1.0","time_elapsed":162848,"subject_id":"90741","group":"Group2","condition":"1_Rep","full_date":"2026-02-08T19:10:12.952Z","date":"2026-02-08","time":"19:10:12"},{"rt":null,"stimulus":"<p style=\"font-size: 50px; margin: 0; text-align: center;\">+</p>","response":null,"trial_type":"html-keyboard-response","trial_index":53,"plugin_version":"2.1.0","time_elapsed":163851,"subject_id":"90741","group":"Group2","condition":"1_Rep","full_date":"2026-02-08T19:10:12.952Z","date":"2026-02-08","time":"19:10:12"},{"task":"memory_phase","broad_category":"I","image_png":"I_Pegmatite_03.png","image_id":99,"category_name":"Pegmatite","category":7,"distinct_rating":7.24,"distinct_type":"Top","rt":null,"stimulus":"Stimuli_Rocks480/I_Pegmatite_03.png","response":null,"trial_type":"image-keyboard-response","trial_index":54,"plugin_version":"2.1.0","time_elapsed":166354,"subject_id":"90741","group":"Group2","condition":"1_Rep","full_date":"2026-02-08T19:10:12.952Z","date":"2026-02-08","time":"19:10:12"},{"rt":2057,"stimulus":"<p style=\"max-width: 760px; margin: auto; font-size: 35px; line-height: 1.5;\">\n                Press SPACE to continue study phase\n              </p>","response":" ","trial_type":"html-keyboard-response","trial_index":55,"plugin_version":"2.1.0","time_elapsed":168414,"subject_id":"90741","group":"Group2","condition":"1_Rep","full_date":"2026-02-08T19:10:12.952Z","date":"2026-02-08","time":"19:10:12"},{"rt":null,"stimulus":"<p style=\"font-size: 50px; margin: 0; text-align: center;\">+</p>","response":null,"trial_type":"html-keyboard-response","trial_index":56,"plugin_version":"2.1.0","time_elapsed":169417,"subject_id":"90741","group":"Group2","condition":"1_Rep","full_date":"2026-02-08T19:10:12.952Z","date":"2026-02-08","time":"19:10:12"},{"task":"memory_phase","broad_category":"S","image_png":"S_Shale_03.png","image_id":467,"category_name":"Shale","category":30,"distinct_rating":1.95,"distinct_type":"Bottom","rt":null,"stimulus":"Stimuli_Rocks480/S_Shale_03.png","response":null,"trial_type":"image-keyboard-response","trial_index":57,"plugin_version":"2.1.0","time_elapsed":171920,"subject_id":"90741","group":"Group2","condition":"1_Rep","full_date":"2026-02-08T19:10:12.952Z","date":"2026-02-08","time":"19:10:12"},{"rt":null,"stimulus":"<p style=\"font-size: 50px; margin: 0; text-align: center;\">+</p>","response":null,"trial_type":"html-keyboard-response","trial_index":58,"plugin_version":"2.1.0","time_elapsed":172922,"subject_id":"90741","group":"Group2","condition":"1_Rep","full_date":"2026-02-08T19:10:12.952Z","date":"2026-02-08","time":"19:10:12"},{"task":"memory_phase","broad_category":"S","image_png":"S_Chert_13.png","image_id":365,"category_name":"Chert","category":23,"distinct_rating":6.57,"distinct_type":"Top","rt":null,"stimulus":"Stimuli_Rocks480/S_Chert_13.png","response":null,"trial_type":"image-keyboard-response","trial_index":59,"plugin_version":"2.1.0","time_elapsed":175425,"subject_id":"90741","group":"Group2","condition":"1_Rep","full_date":"2026-02-08T19:10:12.952Z","date":"2026-02-08","time":"19:10:12"},{"rt":null,"stimulus":"<p style=\"font-size: 50px; margin: 0; text-align: center;\">+</p>","response":null,"trial_type":"html-keyboard-response","trial_index":60,"plugin_version":"2.1.0","time_elapsed":176427,"subject_id":"90741","group":"Group2","condition":"1_Rep","full_date":"2026-02-08T19:10:12.952Z","date":"2026-02-08","time":"19:10:12"},{"task":"memory_phase","broad_category":"M","image_png":"M_Quartzite_15.png","image_id":287,"category_name":"Quartzite","category":18,"distinct_rating":2.19,"distinct_type":"Bottom","rt":null,"stimulus":"Stimuli_Rocks480/M_Quartzite_15.png","response":null,"trial_type":"image-keyboard-response","trial_index":61,"plugin_version":"2.1.0","time_elapsed":178930,"subject_id":"90741","group":"Group2","condition":"1_Rep","full_date":"2026-02-08T19:10:12.952Z","date":"2026-02-08","time":"19:10:12"},{"rt":null,"stimulus":"<p style=\"font-size: 50px; margin: 0; text-align: center;\">+</p>","response":null,"trial_type":"html-keyboard-response","trial_index":62,"plugin_version":"2.1.0","time_elapsed":179933,"subject_id":"90741","group":"Group2","condition":"1_Rep","full_date":"2026-02-08T19:10:12.952Z","date":"2026-02-08","time":"19:10:12"},{"task":"memory_phase","broad_category":"I","image_png":"I_Diorite_01.png","image_id":33,"category_name":"Diorite","category":3,"distinct_rating":2.97,"distinct_type":"Bottom","rt":null,"stimulus":"Stimuli_Rocks480/I_Diorite_01.png","response":null,"trial_type":"image-keyboard-response","trial_index":63,"plugin_version":"2.1.0","time_elapsed":182437,"subject_id":"90741","group":"Group2","condition":"1_Rep","full_date":"2026-02-08T19:10:12.952Z","date":"2026-02-08","time":"19:10:12"},{"rt":null,"stimulus":"<p style=\"font-size: 50px; margin: 0; text-align: center;\">+</p>","response":null,"trial_type":"html-keyboard-response","trial_index":64,"plugin_version":"2.1.0","time_elapsed":183439,"subject_id":"90741","group":"Group2","condition":"1_Rep","full_date":"2026-02-08T19:10:12.952Z","date":"2026-02-08","time":"19:10:12"},{"task":"memory_phase","broad_category":"S","image_png":"S_Dolomite_07.png","image_id":391,"category_name":"Dolomite","category":25,"distinct_rating":1.73,"distinct_type":"Bottom","rt":null,"stimulus":"Stimuli_Rocks480/S_Dolomite_07.png","response":null,"trial_type":"image-keyboard-response","trial_index":65,"plugin_version":"2.1.0","time_elapsed":185942,"subject_id":"90741","group":"Group2","condition":"1_Rep","full_date":"2026-02-08T19:10:12.952Z","date":"2026-02-08","time":"19:10:12"},{"rt":null,"stimulus":"<p style=\"font-size: 50px; margin: 0; text-align: center;\">+</p>","response":null,"trial_type":"html-keyboard-response","trial_index":66,"plugin_version":"2.1.0","time_elapsed":186945,"subject_id":"90741","group":"Group2","condition":"1_Rep","full_date":"2026-02-08T19:10:12.952Z","date":"2026-02-08","time":"19:10:12"},{"task":"memory_phase","broad_category":"M","image_png":"M_Phyllite_02.png","image_id":258,"category_name":"Phyllite","category":17,"distinct_rating":2.89,"distinct_type":"Bottom","rt":null,"stimulus":"Stimuli_Rocks480/M_Phyllite_02.png","response":null,"trial_type":"image-keyboard-response","trial_index":67,"plugin_version":"2.1.0","time_elapsed":189447,"subject_id":"90741","group":"Group2","condition":"1_Rep","full_date":"2026-02-08T19:10:12.952Z","date":"2026-02-08","time":"19:10:12"},{"rt":null,"stimulus":"<p style=\"font-size: 50px; margin: 0; text-align: center;\">+</p>","response":null,"trial_type":"html-keyboard-response","trial_index":68,"plugin_version":"2.1.0","time_elapsed":190450,"subject_id":"90741","group":"Group2","condition":"1_Rep","full_date":"2026-02-08T19:10:12.952Z","date":"2026-02-08","time":"19:10:12"},{"task":"memory_phase","broad_category":"M","image_png":"M_Marble_03.png","image_id":227,"category_name":"Marble","category":15,"distinct_rating":2.67,"distinct_type":"Bottom","rt":null,"stimulus":"Stimuli_Rocks480/M_Marble_03.png","response":null,"trial_type":"image-keyboard-response","trial_index":69,"plugin_version":"2.1.0","time_elapsed":192953,"subject_id":"90741","group":"Group2","condition":"1_Rep","full_date":"2026-02-08T19:10:12.952Z","date":"2026-02-08","time":"19:10:12"},{"rt":null,"stimulus":"<p style=\"font-size: 50px; margin: 0; text-align: center;\">+</p>","response":null,"trial_type":"html-keyboard-response","trial_index":70,"plugin_version":"2.1.0","time_elapsed":193956,"subject_id":"90741","group":"Group2","condition":"1_Rep","full_date":"2026-02-08T19:10:12.952Z","date":"2026-02-08","time":"19:10:12"},{"task":"memory_phase","broad_category":"S","image_png":"S_Rock Salt_13.png","image_id":445,"category_name":"Rock Salt","category":28,"distinct_rating":7.58,"distinct_type":"Top","rt":null,"stimulus":"Stimuli_Rocks480/S_Rock Salt_13.png","response":null,"trial_type":"image-keyboard-response","trial_index":71,"plugin_version":"2.1.0","time_elapsed":196458,"subject_id":"90741","group":"Group2","condition":"1_Rep","full_date":"2026-02-08T19:10:12.952Z","date":"2026-02-08","time":"19:10:12"},{"rt":null,"stimulus":"<p style=\"font-size: 50px; margin: 0; text-align: center;\">+</p>","response":null,"trial_type":"html-keyboard-response","trial_index":72,"plugin_version":"2.1.0","time_elapsed":197460,"subject_id":"90741","group":"Group2","condition":"1_Rep","full_date":"2026-02-08T19:10:12.952Z","date":"2026-02-08","time":"19:10:12"},{"task":"memory_phase","broad_category":"M","image_png":"M_Gneiss_10.png","image_id":202,"category_name":"Gneiss","category":13,"distinct_rating":3.09,"distinct_type":"Bottom","rt":null,"stimulus":"Stimuli_Rocks480/M_Gneiss_10.png","response":null,"trial_type":"image-keyboard-response","trial_index":73,"plugin_version":"2.1.0","time_elapsed":199963,"subject_id":"90741","group":"Group2","condition":"1_Rep","full_date":"2026-02-08T19:10:12.952Z","date":"2026-02-08","time":"19:10:12"},{"rt":null,"stimulus":"<p style=\"font-size: 50px; margin: 0; text-align: center;\">+</p>","response":null,"trial_type":"html-keyboard-response","trial_index":74,"plugin_version":"2.1.0","time_elapsed":200966,"subject_id":"90741","group":"Group2","condition":"1_Rep","full_date":"2026-02-08T19:10:12.952Z","date":"2026-02-08","time":"19:10:12"},{"task":"memory_phase","broad_category":"I","image_png":"I_Pumice_01.png","image_id":129,"category_name":"Pumice","category":9,"distinct_rating":3.25,"distinct_type":"Bottom","rt":null,"stimulus":"Stimuli_Rocks480/I_Pumice_01.png","response":null,"trial_type":"image-keyboard-response","trial_index":75,"plugin_version":"2.1.0","time_elapsed":203469,"subject_id":"90741","group":"Group2","condition":"1_Rep","full_date":"2026-02-08T19:10:12.952Z","date":"2026-02-08","time":"19:10:12"},{"rt":null,"stimulus":"<p style=\"font-size: 50px; margin: 0; text-align: center;\">+</p>","response":null,"trial_type":"html-keyboard-response","trial_index":76,"plugin_version":"2.1.0","time_elapsed":204473,"subject_id":"90741","group":"Group2","condition":"1_Rep","full_date":"2026-02-08T19:10:12.952Z","date":"2026-02-08","time":"19:10:12"},{"task":"memory_phase","broad_category":"I","image_png":"I_Rhyolite_10.png","image_id":154,"category_name":"Rhyolite","category":10,"distinct_rating":2.88,"distinct_type":"Bottom","rt":null,"stimulus":"Stimuli_Rocks480/I_Rhyolite_10.png","response":null,"trial_type":"image-keyboard-response","trial_index":77,"plugin_version":"2.1.0","time_elapsed":206975,"subject_id":"90741","group":"Group2","condition":"1_Rep","full_date":"2026-02-08T19:10:12.952Z","date":"2026-02-08","time":"19:10:12"},{"rt":null,"stimulus":"<p style=\"font-size: 50px; margin: 0; text-align: center;\">+</p>","response":null,"trial_type":"html-keyboard-response","trial_index":78,"plugin_version":"2.1.0","time_elapsed":207978,"subject_id":"90741","group":"Group2","condition":"1_Rep","full_date":"2026-02-08T19:10:12.952Z","date":"2026-02-08","time":"19:10:12"},{"task":"memory_phase","broad_category":"I","image_png":"I_Diorite_15.png","image_id":47,"category_name":"Diorite","category":3,"distinct_rating":3.05,"distinct_type":"Bottom","rt":null,"stimulus":"Stimuli_Rocks480/I_Diorite_15.png","response":null,"trial_type":"image-keyboard-response","trial_index":79,"plugin_version":"2.1.0","time_elapsed":210481,"subject_id":"90741","group":"Group2","condition":"1_Rep","full_date":"2026-02-08T19:10:12.952Z","date":"2026-02-08","time":"19:10:12"},{"rt":null,"stimulus":"<p style=\"font-size: 50px; margin: 0; text-align: center;\">+</p>","response":null,"trial_type":"html-keyboard-response","trial_index":80,"plugin_version":"2.1.0","time_elapsed":211484,"subject_id":"90741","group":"Group2","condition":"1_Rep","full_date":"2026-02-08T19:10:12.952Z","date":"2026-02-08","time":"19:10:12"},{"task":"memory_phase","broad_category":"I","image_png":"I_Pumice_14.png","image_id":142,"category_name":"Pumice","category":9,"distinct_rating":3.22,"distinct_type":"Bottom","rt":null,"stimulus":"Stimuli_Rocks480/I_Pumice_14.png","response":null,"trial_type":"image-keyboard-response","trial_index":81,"plugin_version":"2.1.0","time_elapsed":213986,"subject_id":"90741","group":"Group2","condition":"1_Rep","full_date":"2026-02-08T19:10:12.952Z","date":"2026-02-08","time":"19:10:12"},{"rt":null,"stimulus":"<p style=\"font-size: 50px; margin: 0; text-align: center;\">+</p>","response":null,"trial_type":"html-keyboard-response","trial_index":82,"plugin_version":"2.1.0","time_elapsed":214989,"subject_id":"90741","group":"Group2","condition":"1_Rep","full_date":"2026-02-08T19:10:12.952Z","date":"2026-02-08","time":"19:10:12"},{"task":"memory_phase","broad_category":"M","image_png":"M_Slate_04.png","image_id":308,"category_name":"Slate","category":20,"distinct_rating":2.2,"distinct_type":"Bottom","rt":null,"stimulus":"Stimuli_Rocks480/M_Slate_04.png","response":null,"trial_type":"image-keyboard-response","trial_index":83,"plugin_version":"2.1.0","time_elapsed":217492,"subject_id":"90741","group":"Group2","condition":"1_Rep","full_date":"2026-02-08T19:10:12.952Z","date":"2026-02-08","time":"19:10:12"},{"rt":null,"stimulus":"<p style=\"font-size: 50px; margin: 0; text-align: center;\">+</p>","response":null,"trial_type":"html-keyboard-response","trial_index":84,"plugin_version":"2.1.0","time_elapsed":218494,"subject_id":"90741","group":"Group2","condition":"1_Rep","full_date":"2026-02-08T19:10:12.952Z","date":"2026-02-08","time":"19:10:12"},{"task":"memory_phase","broad_category":"M","image_png":"M_Marble_14.png","image_id":238,"category_name":"Marble","category":15,"distinct_rating":3.31,"distinct_type":"Bottom","rt":null,"stimulus":"Stimuli_Rocks480/M_Marble_14.png","response":null,"trial_type":"image-keyboard-response","trial_index":85,"plugin_version":"2.1.0","time_elapsed":220997,"subject_id":"90741","group":"Group2","condition":"1_Rep","full_date":"2026-02-08T19:10:12.952Z","date":"2026-02-08","time":"19:10:12"},{"rt":null,"stimulus":"<p style=\"font-size: 50px; margin: 0; text-align: center;\">+</p>","response":null,"trial_type":"html-keyboard-response","trial_index":86,"plugin_version":"2.1.0","time_elapsed":222000,"subject_id":"90741","group":"Group2","condition":"1_Rep","full_date":"2026-02-08T19:10:12.952Z","date":"2026-02-08","time":"19:10:12"},{"task":"memory_phase","broad_category":"S","image_png":"S_Conglomerate_14.png","image_id":382,"category_name":"Conglomerate","category":24,"distinct_rating":6.86,"distinct_type":"Top","rt":null,"stimulus":"Stimuli_Rocks480/S_Conglomerate_14.png","response":null,"trial_type":"image-keyboard-response","trial_index":87,"plugin_version":"2.1.0","time_elapsed":224503,"subject_id":"90741","group":"Group2","condition":"1_Rep","full_date":"2026-02-08T19:10:12.952Z","date":"2026-02-08","time":"19:10:12"},{"rt":null,"stimulus":"<p style=\"font-size: 50px; margin: 0; text-align: center;\">+</p>","response":null,"trial_type":"html-keyboard-response","trial_index":88,"plugin_version":"2.1.0","time_elapsed":225505,"subject_id":"90741","group":"Group2","condition":"1_Rep","full_date":"2026-02-08T19:10:12.952Z","date":"2026-02-08","time":"19:10:12"},{"task":"memory_phase","broad_category":"S","image_png":"S_Dolomite_16.png","image_id":400,"category_name":"Dolomite","category":25,"distinct_rating":1.71,"distinct_type":"Bottom","rt":null,"stimulus":"Stimuli_Rocks480/S_Dolomite_16.png","response":null,"trial_type":"image-keyboard-response","trial_index":89,"plugin_version":"2.1.0","time_elapsed":228008,"subject_id":"90741","group":"Group2","condition":"1_Rep","full_date":"2026-02-08T19:10:12.952Z","date":"2026-02-08","time":"19:10:12"},{"rt":null,"stimulus":"<p style=\"font-size: 50px; margin: 0; text-align: center;\">+</p>","response":null,"trial_type":"html-keyboard-response","trial_index":90,"plugin_version":"2.1.0","time_elapsed":229010,"subject_id":"90741","group":"Group2","condition":"1_Rep","full_date":"2026-02-08T19:10:12.952Z","date":"2026-02-08","time":"19:10:12"},{"task":"memory_phase","broad_category":"I","image_png":"I_Andesite_09.png","image_id":9,"category_name":"Andesite","category":1,"distinct_rating":2.49,"distinct_type":"Bottom","rt":null,"stimulus":"Stimuli_Rocks480/I_Andesite_09.png","response":null,"trial_type":"image-keyboard-response","trial_index":91,"plugin_version":"2.1.0","time_elapsed":231513,"subject_id":"90741","group":"Group2","condition":"1_Rep","full_date":"2026-02-08T19:10:12.952Z","date":"2026-02-08","time":"19:10:12"},{"rt":null,"stimulus":"<p style=\"font-size: 50px; margin: 0; text-align: center;\">+</p>","response":null,"trial_type":"html-keyboard-response","trial_index":92,"plugin_version":"2.1.0","time_elapsed":232516,"subject_id":"90741","group":"Group2","condition":"1_Rep","full_date":"2026-02-08T19:10:12.952Z","date":"2026-02-08","time":"19:10:12"},{"task":"memory_phase","broad_category":"M","image_png":"M_Marble_02.png","image_id":226,"category_name":"Marble","category":15,"distinct_rating":3.2,"distinct_type":"Bottom","rt":null,"stimulus":"Stimuli_Rocks480/M_Marble_02.png","response":null,"trial_type":"image-keyboard-response","trial_index":93,"plugin_version":"2.1.0","time_elapsed":235020,"subject_id":"90741","group":"Group2","condition":"1_Rep","full_date":"2026-02-08T19:10:12.952Z","date":"2026-02-08","time":"19:10:12"},{"rt":null,"stimulus":"<p style=\"font-size: 50px; margin: 0; text-align: center;\">+</p>","response":null,"trial_type":"html-keyboard-response","trial_index":94,"plugin_version":"2.1.0","time_elapsed":236022,"subject_id":"90741","group":"Group2","condition":"1_Rep","full_date":"2026-02-08T19:10:12.952Z","date":"2026-02-08","time":"19:10:12"},{"task":"memory_phase","broad_category":"I","image_png":"I_Andesite_04.png","image_id":4,"category_name":"Andesite","category":1,"distinct_rating":3.18,"distinct_type":"Bottom","rt":null,"stimulus":"Stimuli_Rocks480/I_Andesite_04.png","response":null,"trial_type":"image-keyboard-response","trial_index":95,"plugin_version":"2.1.0","time_elapsed":238525,"subject_id":"90741","group":"Group2","condition":"1_Rep","full_date":"2026-02-08T19:10:12.952Z","date":"2026-02-08","time":"19:10:12"},{"rt":null,"stimulus":"<p style=\"font-size: 50px; margin: 0; text-align: center;\">+</p>","response":null,"trial_type":"html-keyboard-response","trial_index":96,"plugin_version":"2.1.0","time_elapsed":239528,"subject_id":"90741","group":"Group2","condition":"1_Rep","full_date":"2026-02-08T19:10:12.952Z","date":"2026-02-08","time":"19:10:12"},{"task":"memory_phase","broad_category":"I","image_png":"I_Gabbro_12.png","image_id":60,"category_name":"Gabbro","category":4,"distinct_rating":2.6,"distinct_type":"Bottom","rt":null,"stimulus":"Stimuli_Rocks480/I_Gabbro_12.png","response":null,"trial_type":"image-keyboard-response","trial_index":97,"plugin_version":"2.1.0","time_elapsed":242031,"subject_id":"90741","group":"Group2","condition":"1_Rep","full_date":"2026-02-08T19:10:12.952Z","date":"2026-02-08","time":"19:10:12"},{"rt":null,"stimulus":"<p style=\"font-size: 50px; margin: 0; text-align: center;\">+</p>","response":null,"trial_type":"html-keyboard-response","trial_index":98,"plugin_version":"2.1.0","time_elapsed":243033,"subject_id":"90741","group":"Group2","condition":"1_Rep","full_date":"2026-02-08T19:10:12.952Z","date":"2026-02-08","time":"19:10:12"},{"task":"memory_phase","broad_category":"I","image_png":"I_Basalt_13.png","image_id":29,"category_name":"Basalt","category":2,"distinct_rating":2.68,"distinct_type":"Bottom","rt":null,"stimulus":"Stimuli_Rocks480/I_Basalt_13.png","response":null,"trial_type":"image-keyboard-response","trial_index":99,"plugin_version":"2.1.0","time_elapsed":245536,"subject_id":"90741","group":"Group2","condition":"1_Rep","full_date":"2026-02-08T19:10:12.952Z","date":"2026-02-08","time":"19:10:12"},{"rt":null,"stimulus":"<p style=\"font-size: 50px; margin: 0; text-align: center;\">+</p>","response":null,"trial_type":"html-keyboard-response","trial_index":100,"plugin_version":"2.1.0","time_elapsed":246538,"subject_id":"90741","group":"Group2","condition":"1_Rep","full_date":"2026-02-08T19:10:12.952Z","date":"2026-02-08","time":"19:10:12"},{"task":"memory_phase","broad_category":"I","image_png":"I_Pegmatite_11.png","image_id":107,"category_name":"Pegmatite","category":7,"distinct_rating":7.11,"distinct_type":"Top","rt":null,"stimulus":"Stimuli_Rocks480/I_Pegmatite_11.png","response":null,"trial_type":"image-keyboard-response","trial_index":101,"plugin_version":"2.1.0","time_elapsed":249042,"subject_id":"90741","group":"Group2","condition":"1_Rep","full_date":"2026-02-08T19:10:12.952Z","date":"2026-02-08","time":"19:10:12"},{"rt":null,"stimulus":"<p style=\"font-size: 50px; margin: 0; text-align: center;\">+</p>","response":null,"trial_type":"html-keyboard-response","trial_index":102,"plugin_version":"2.1.0","time_elapsed":250044,"subject_id":"90741","group":"Group2","condition":"1_Rep","full_date":"2026-02-08T19:10:12.952Z","date":"2026-02-08","time":"19:10:12"},{"task":"memory_phase","broad_category":"M","image_png":"M_Gneiss_15.png","image_id":207,"category_name":"Gneiss","category":13,"distinct_rating":3.11,"distinct_type":"Bottom","rt":null,"stimulus":"Stimuli_Rocks480/M_Gneiss_15.png","response":null,"trial_type":"image-keyboard-response","trial_index":103,"plugin_version":"2.1.0","time_elapsed":252547,"subject_id":"90741","group":"Group2","condition":"1_Rep","full_date":"2026-02-08T19:10:12.952Z","date":"2026-02-08","time":"19:10:12"},{"rt":null,"stimulus":"<p style=\"font-size: 50px; margin: 0; text-align: center;\">+</p>","response":null,"trial_type":"html-keyboard-response","trial_index":104,"plugin_version":"2.1.0","time_elapsed":253549,"subject_id":"90741","group":"Group2","condition":"1_Rep","full_date":"2026-02-08T19:10:12.952Z","date":"2026-02-08","time":"19:10:12"},{"task":"memory_phase","broad_category":"I","image_png":"I_Rhyolite_08.png","image_id":152,"category_name":"Rhyolite","category":10,"distinct_rating":1.38,"distinct_type":"Bottom","rt":null,"stimulus":"Stimuli_Rocks480/I_Rhyolite_08.png","response":null,"trial_type":"image-keyboard-response","trial_index":105,"plugin_version":"2.1.0","time_elapsed":256053,"subject_id":"90741","group":"Group2","condition":"1_Rep","full_date":"2026-02-08T19:10:12.952Z","date":"2026-02-08","time":"19:10:12"},{"rt":7431,"stimulus":"<div style=\"max-width: 760px; margin: auto; font-size: 20px; line-height: 1.5;\">\n      <h1 style=\"text-align:center; font-size: 30px;\">Instructions for the Test Phase</h1>\n      <p>\n        The study phase is now complete.\n      </p>\n      <p>\n        In the test phase, you will again see a series of rock images. \n        Some will be ones you saw before - during the study phase, while others will be new.  \n        <b>Your task</b> is to decide whether you have seen each image before by pressing the corresponding key on your keyboard:<br><br>\n          <b>A</b> - NO (you did not see this image before)<br>\n          <b>L</b> - YES (you saw this image before)<br><br>\n        The test will proceed at your own pace. You will receive feedback after each response.  \n        Please try to respond <b>as accurately as possible</b>.\n      </p>\n      <p>\n        <b>Reminder:</b> If your computer has multiple language settings (e.g., English and another language),\n        please ensure it is set to English during the test phase.\n      </p>\n      <p>\n        You can track your progress using the <b>completion bar</b> at the top of the screen.  \n        Note that it has been refreshed to reflect your progress during this final phase.\n      </p>\n      <p>\n        Press the button below when you are ready to continue.\n      </p>\n    </div>","response":0,"trial_type":"html-button-response","trial_index":106,"plugin_version":"2.1.0","time_elapsed":263487,"subject_id":"90741","group":"Group2","condition":"1_Rep","full_date":"2026-02-08T19:10:12.952Z","date":"2026-02-08","time":"19:10:12"},{"correct_response":"l","task":"test_phase","broad_category":"I","image_png":"I_Pumice_14.png","image_id":142,"category_name":"Pumice","category":9,"distinct_rating":3.22,"distinct_type":"Bottom","item_type":"Target","rt":2478,"stimulus":"Stimuli_Rocks480/I_Pumice_14.png","response":"l","trial_type":"image-keyboard-response","trial_index":107,"plugin_version":"2.1.0","time_elapsed":265967,"subject_id":"90741","group":"Group2","condition":"1_Rep","full_date":"2026-02-08T19:10:12.952Z","date":"2026-02-08","time":"19:10:12","cor_ans":true},{"trial_type":"html-keyboard-response","rt":null,"stimulus":"<p style=\"color: green; font-size: 50px; font-weight: bold;\">Correct</p>","response":null,"trial_index":108,"plugin_version":"2.1.0","time_elapsed":266469,"subject_id":"90741","group":"Group2","condition":"1_Rep","full_date":"2026-02-08T19:10:12.952Z","date":"2026-02-08","time":"19:10:12"},{"correct_response":"a","task":"test_phase","broad_category":"I","image_png":"I_Obsidian_05.png","image_id":85,"category_name":"Obsidian","category":6,"distinct_rating":7.32,"distinct_type":"Top","item_type":"Foil","rt":2495,"stimulus":"Stimuli_Rocks480/I_Obsidian_05.png","response":"a","trial_type":"image-keyboard-response","trial_index":109,"plugin_version":"2.1.0","time_elapsed":268966,"subject_id":"90741","group":"Group2","condition":"1_Rep","full_date":"2026-02-08T19:10:12.952Z","date":"2026-02-08","time":"19:10:12","cor_ans":true},{"trial_type":"html-keyboard-response","rt":null,"stimulus":"<p style=\"color: green; font-size: 50px; font-weight: bold;\">Correct</p>","response":null,"trial_index":110,"plugin_version":"2.1.0","time_elapsed":269468,"subject_id":"90741","group":"Group2","condition":"1_Rep","full_date":"2026-02-08T19:10:12.952Z","date":"2026-02-08","time":"19:10:12"},{"correct_response":"l","task":"test_phase","broad_category":"M","image_png":"M_Slate_14.png","image_id":318,"category_name":"Slate","category":20,"distinct_rating":2.58,"distinct_type":"Bottom","item_type":"Target","rt":777,"stimulus":"Stimuli_Rocks480/M_Slate_14.png","response":"l","trial_type":"image-keyboard-response","trial_index":111,"plugin_version":"2.1.0","time_elapsed":270246,"subject_id":"90741","group":"Group2","condition":"1_Rep","full_date":"2026-02-08T19:10:12.952Z","date":"2026-02-08","time":"19:10:12","cor_ans":true},{"trial_type":"html-keyboard-response","rt":null,"stimulus":"<p style=\"color: green; font-size: 50px; font-weight: bold;\">Correct</p>","response":null,"trial_index":112,"plugin_version":"2.1.0","time_elapsed":270747,"subject_id":"90741","group":"Group2","condition":"1_Rep","full_date":"2026-02-08T19:10:12.952Z","date":"2026-02-08","time":"19:10:12"},{"correct_response":"a","task":"test_phase","broad_category":"I","image_png":"I_Rhyolite_16.png","image_id":160,"category_name":"Rhyolite","category":10,"distinct_rating":2.19,"distinct_type":"Bottom","item_type":"Foil","rt":791,"stimulus":"Stimuli_Rocks480/I_Rhyolite_16.png","response":"l","trial_type":"image-keyboard-response","trial_index":113,"plugin_version":"2.1.0","time_elapsed":271540,"subject_id":"90741","group":"Group2","condition":"1_Rep","full_date":"2026-02-08T19:10:12.952Z","date":"2026-02-08","time":"19:10:12","cor_ans":false},{"trial_type":"html-keyboard-response","rt":null,"stimulus":"<p style=\"color: red; font-size: 50px; font-weight: bold;\">Incorrect</p>","response":null,"trial_index":114,"plugin_version":"2.1.0","time_elapsed":272042,"subject_id":"90741","group":"Group2","condition":"1_Rep","full_date":"2026-02-08T19:10:12.952Z","date":"2026-02-08","time":"19:10:12"},{"correct_response":"a","task":"test_phase","broad_category":"S","image_png":"S_Chert_10.png","image_id":362,"category_name":"Chert","category":23,"distinct_rating":7.17,"distinct_type":"Top","item_type":"Foil","rt":1015,"stimulus":"Stimuli_Rocks480/S_Chert_10.png","response":"a","trial_type":"image-keyboard-response","trial_index":115,"plugin_version":"2.1.0","time_elapsed":273058,"subject_id":"90741","group":"Group2","condition":"1_Rep","full_date":"2026-02-08T19:10:12.952Z","date":"2026-02-08","time":"19:10:12","cor_ans":true},{"trial_type":"html-keyboard-response","rt":null,"stimulus":"<p style=\"color: green; font-size: 50px; font-weight: bold;\">Correct</p>","response":null,"trial_index":116,"plugin_version":"2.1.0","time_elapsed":273560,"subject_id":"90741","group":"Group2","condition":"1_Rep","full_date":"2026-02-08T19:10:12.952Z","date":"2026-02-08","time":"19:10:12"},{"correct_response":"l","task":"test_phase","broad_category":"M","image_png":"M_Marble_02.png","image_id":226,"category_name":"Marble","category":15,"distinct_rating":3.2,"distinct_type":"Bottom","item_type":"Target","rt":807,"stimulus":"Stimuli_Rocks480/M_Marble_02.png","response":"l","trial_type":"image-keyboard-response","trial_index":117,"plugin_version":"2.1.0","time_elapsed":274368,"subject_id":"90741","group":"Group2","condition":"1_Rep","full_date":"2026-02-08T19:10:12.952Z","date":"2026-02-08","time":"19:10:12","cor_ans":true},{"trial_type":"html-keyboard-response","rt":null,"stimulus":"<p style=\"color: green; font-size: 50px; font-weight: bold;\">Correct</p>","response":null,"trial_index":118,"plugin_version":"2.1.0","time_elapsed":274869,"subject_id":"90741","group":"Group2","condition":"1_Rep","full_date":"2026-02-08T19:10:12.952Z","date":"2026-02-08","time":"19:10:12"},{"correct_response":"a","task":"test_phase","broad_category":"I","image_png":"I_Pegmatite_10.png","image_id":106,"category_name":"Pegmatite","category":7,"distinct_rating":7.66,"distinct_type":"Top","item_type":"Foil","rt":864,"stimulus":"Stimuli_Rocks480/I_Pegmatite_10.png","response":"a","trial_type":"image-keyboard-response","trial_index":119,"plugin_version":"2.1.0","time_elapsed":275734,"subject_id":"90741","group":"Group2","condition":"1_Rep","full_date":"2026-02-08T19:10:12.952Z","date":"2026-02-08","time":"19:10:12","cor_ans":true},{"trial_type":"html-keyboard-response","rt":null,"stimulus":"<p style=\"color: green; font-size: 50px; font-weight: bold;\">Correct</p>","response":null,"trial_index":120,"plugin_version":"2.1.0","time_elapsed":276236,"subject_id":"90741","group":"Group2","condition":"1_Rep","full_date":"2026-02-08T19:10:12.952Z","date":"2026-02-08","time":"19:10:12"},{"correct_response":"a","task":"test_phase","broad_category":"M","image_png":"M_Phyllite_10.png","image_id":266,"category_name":"Phyllite","category":17,"distinct_rating":2.6,"distinct_type":"Bottom","item_type":"Foil","rt":962,"stimulus":"Stimuli_Rocks480/M_Phyllite_10.png","response":"l","trial_type":"image-keyboard-response","trial_index":121,"plugin_version":"2.1.0","time_elapsed":277200,"subject_id":"90741","group":"Group2","condition":"1_Rep","full_date":"2026-02-08T19:10:12.952Z","date":"2026-02-08","time":"19:10:12","cor_ans":false},{"trial_type":"html-keyboard-response","rt":null,"stimulus":"<p style=\"color: red; font-size: 50px; font-weight: bold;\">Incorrect</p>","response":null,"trial_index":122,"plugin_version":"2.1.0","time_elapsed":277701,"subject_id":"90741","group":"Group2","condition":"1_Rep","full_date":"2026-02-08T19:10:12.952Z","date":"2026-02-08","time":"19:10:12"},{"correct_response":"l","task":"test_phase","broad_category":"I","image_png":"I_Basalt_08.png","image_id":24,"category_name":"Basalt","category":2,"distinct_rating":2.31,"distinct_type":"Bottom","item_type":"Target","rt":763,"stimulus":"Stimuli_Rocks480/I_Basalt_08.png","response":"l","trial_type":"image-keyboard-response","trial_index":123,"plugin_version":"2.1.0","time_elapsed":278466,"subject_id":"90741","group":"Group2","condition":"1_Rep","full_date":"2026-02-08T19:10:12.952Z","date":"2026-02-08","time":"19:10:12","cor_ans":true},{"trial_type":"html-keyboard-response","rt":null,"stimulus":"<p style=\"color: green; font-size: 50px; font-weight: bold;\">Correct</p>","response":null,"trial_index":124,"plugin_version":"2.1.0","time_elapsed":278968,"subject_id":"90741","group":"Group2","condition":"1_Rep","full_date":"2026-02-08T19:10:12.952Z","date":"2026-02-08","time":"19:10:12"},{"correct_response":"a","task":"test_phase","broad_category":"S","image_png":"S_Dolomite_13.png","image_id":397,"category_name":"Dolomite","category":25,"distinct_rating":1.77,"distinct_type":"Bottom","item_type":"Foil","rt":1047,"stimulus":"Stimuli_Rocks480/S_Dolomite_13.png","response":"l","trial_type":"image-keyboard-response","trial_index":125,"plugin_version":"2.1.0","time_elapsed":280016,"subject_id":"90741","group":"Group2","condition":"1_Rep","full_date":"2026-02-08T19:10:12.952Z","date":"2026-02-08","time":"19:10:12","cor_ans":false},{"trial_type":"html-keyboard-response","rt":null,"stimulus":"<p style=\"color: red; font-size: 50px; font-weight: bold;\">Incorrect</p>","response":null,"trial_index":126,"plugin_version":"2.1.0","time_elapsed":280517,"subject_id":"90741","group":"Group2","condition":"1_Rep","full_date":"2026-02-08T19:10:12.952Z","date":"2026-02-08","time":"19:10:12"},{"correct_response":"l","task":"test_phase","broad_category":"S","image_png":"S_Shale_03.png","image_id":467,"category_name":"Shale","category":30,"distinct_rating":1.95,"distinct_type":"Bottom","item_type":"Target","rt":1143,"stimulus":"Stimuli_Rocks480/S_Shale_03.png","response":"l","trial_type":"image-keyboard-response","trial_index":127,"plugin_version":"2.1.0","time_elapsed":281662,"subject_id":"90741","group":"Group2","condition":"1_Rep","full_date":"2026-02-08T19:10:12.952Z","date":"2026-02-08","time":"19:10:12","cor_ans":true},{"trial_type":"html-keyboard-response","rt":null,"stimulus":"<p style=\"color: green; font-size: 50px; font-weight: bold;\">Correct</p>","response":null,"trial_index":128,"plugin_version":"2.1.0","time_elapsed":282164,"subject_id":"90741","group":"Group2","condition":"1_Rep","full_date":"2026-02-08T19:10:12.952Z","date":"2026-02-08","time":"19:10:12"},{"correct_response":"l","task":"test_phase","broad_category":"M","image_png":"M_Marble_03.png","image_id":227,"category_name":"Marble","category":15,"distinct_rating":2.67,"distinct_type":"Bottom","item_type":"Target","rt":2702,"stimulus":"Stimuli_Rocks480/M_Marble_03.png","response":"l","trial_type":"image-keyboard-response","trial_index":129,"plugin_version":"2.1.0","time_elapsed":284867,"subject_id":"90741","group":"Group2","condition":"1_Rep","full_date":"2026-02-08T19:10:12.952Z","date":"2026-02-08","time":"19:10:12","cor_ans":true},{"trial_type":"html-keyboard-response","rt":null,"stimulus":"<p style=\"color: green; font-size: 50px; font-weight: bold;\">Correct</p>","response":null,"trial_index":130,"plugin_version":"2.1.0","time_elapsed":285368,"subject_id":"90741","group":"Group2","condition":"1_Rep","full_date":"2026-02-08T19:10:12.952Z","date":"2026-02-08","time":"19:10:12"},{"correct_response":"l","task":"test_phase","broad_category":"S","image_png":"S_Rock Salt_15.png","image_id":447,"category_name":"Rock Salt","category":28,"distinct_rating":7.79,"distinct_type":"Top","item_type":"Target","rt":769,"stimulus":"Stimuli_Rocks480/S_Rock Salt_15.png","response":"l","trial_type":"image-keyboard-response","trial_index":131,"plugin_version":"2.1.0","time_elapsed":286138,"subject_id":"90741","group":"Group2","condition":"1_Rep","full_date":"2026-02-08T19:10:12.952Z","date":"2026-02-08","time":"19:10:12","cor_ans":true},{"trial_type":"html-keyboard-response","rt":null,"stimulus":"<p style=\"color: green; font-size: 50px; font-weight: bold;\">Correct</p>","response":null,"trial_index":132,"plugin_version":"2.1.0","time_elapsed":286640,"subject_id":"90741","group":"Group2","condition":"1_Rep","full_date":"2026-02-08T19:10:12.952Z","date":"2026-02-08","time":"19:10:12"},{"correct_response":"l","task":"test_phase","broad_category":"I","image_png":"I_Pegmatite_03.png","image_id":99,"category_name":"Pegmatite","category":7,"distinct_rating":7.24,"distinct_type":"Top","item_type":"Target","rt":890,"stimulus":"Stimuli_Rocks480/I_Pegmatite_03.png","response":"l","trial_type":"image-keyboard-response","trial_index":133,"plugin_version":"2.1.0","time_elapsed":287531,"subject_id":"90741","group":"Group2","condition":"1_Rep","full_date":"2026-02-08T19:10:12.952Z","date":"2026-02-08","time":"19:10:12","cor_ans":true},{"trial_type":"html-keyboard-response","rt":null,"stimulus":"<p style=\"color: green; font-size: 50px; font-weight: bold;\">Correct</p>","response":null,"trial_index":134,"plugin_version":"2.1.0","time_elapsed":288032,"subject_id":"90741","group":"Group2","condition":"1_Rep","full_date":"2026-02-08T19:10:12.952Z","date":"2026-02-08","time":"19:10:12"},{"correct_response":"l","task":"test_phase","broad_category":"I","image_png":"I_Rhyolite_10.png","image_id":154,"category_name":"Rhyolite","category":10,"distinct_rating":2.88,"distinct_type":"Bottom","item_type":"Target","rt":1045,"stimulus":"Stimuli_Rocks480/I_Rhyolite_10.png","response":"l","trial_type":"image-keyboard-response","trial_index":135,"plugin_version":"2.1.0","time_elapsed":289079,"subject_id":"90741","group":"Group2","condition":"1_Rep","full_date":"2026-02-08T19:10:12.952Z","date":"2026-02-08","time":"19:10:12","cor_ans":true},{"trial_type":"html-keyboard-response","rt":null,"stimulus":"<p style=\"color: green; font-size: 50px; font-weight: bold;\">Correct</p>","response":null,"trial_index":136,"plugin_version":"2.1.0","time_elapsed":289581,"subject_id":"90741","group":"Group2","condition":"1_Rep","full_date":"2026-02-08T19:10:12.952Z","date":"2026-02-08","time":"19:10:12"},{"correct_response":"a","task":"test_phase","broad_category":"I","image_png":"I_Pumice_08.png","image_id":136,"category_name":"Pumice","category":9,"distinct_rating":3.1,"distinct_type":"Bottom","item_type":"Foil","rt":843,"stimulus":"Stimuli_Rocks480/I_Pumice_08.png","response":"a","trial_type":"image-keyboard-response","trial_index":137,"plugin_version":"2.1.0","time_elapsed":290425,"subject_id":"90741","group":"Group2","condition":"1_Rep","full_date":"2026-02-08T19:10:12.952Z","date":"2026-02-08","time":"19:10:12","cor_ans":true},{"trial_type":"html-keyboard-response","rt":null,"stimulus":"<p style=\"color: green; font-size: 50px; font-weight: bold;\">Correct</p>","response":null,"trial_index":138,"plugin_version":"2.1.0","time_elapsed":290927,"subject_id":"90741","group":"Group2","condition":"1_Rep","full_date":"2026-02-08T19:10:12.952Z","date":"2026-02-08","time":"19:10:12"},{"correct_response":"l","task":"test_phase","broad_category":"S","image_png":"S_Dolomite_07.png","image_id":391,"category_name":"Dolomite","category":25,"distinct_rating":1.73,"distinct_type":"Bottom","item_type":"Target","rt":901,"stimulus":"Stimuli_Rocks480/S_Dolomite_07.png","response":"l","trial_type":"image-keyboard-response","trial_index":139,"plugin_version":"2.1.0","time_elapsed":291829,"subject_id":"90741","group":"Group2","condition":"1_Rep","full_date":"2026-02-08T19:10:12.952Z","date":"2026-02-08","time":"19:10:12","cor_ans":true},{"trial_type":"html-keyboard-response","rt":null,"stimulus":"<p style=\"color: green; font-size: 50px; font-weight: bold;\">Correct</p>","response":null,"trial_index":140,"plugin_version":"2.1.0","time_elapsed":292331,"subject_id":"90741","group":"Group2","condition":"1_Rep","full_date":"2026-02-08T19:10:12.952Z","date":"2026-02-08","time":"19:10:12"},{"correct_response":"l","task":"test_phase","broad_category":"M","image_png":"M_Slate_04.png","image_id":308,"category_name":"Slate","category":20,"distinct_rating":2.2,"distinct_type":"Bottom","item_type":"Target","rt":670,"stimulus":"Stimuli_Rocks480/M_Slate_04.png","response":"l","trial_type":"image-keyboard-response","trial_index":141,"plugin_version":"2.1.0","time_elapsed":293002,"subject_id":"90741","group":"Group2","condition":"1_Rep","full_date":"2026-02-08T19:10:12.952Z","date":"2026-02-08","time":"19:10:12","cor_ans":true},{"trial_type":"html-keyboard-response","rt":null,"stimulus":"<p style=\"color: green; font-size: 50px; font-weight: bold;\">Correct</p>","response":null,"trial_index":142,"plugin_version":"2.1.0","time_elapsed":293504,"subject_id":"90741","group":"Group2","condition":"1_Rep","full_date":"2026-02-08T19:10:12.952Z","date":"2026-02-08","time":"19:10:12"},{"correct_response":"l","task":"test_phase","broad_category":"M","image_png":"M_Phyllite_13.png","image_id":269,"category_name":"Phyllite","category":17,"distinct_rating":2.8,"distinct_type":"Bottom","item_type":"Target","rt":680,"stimulus":"Stimuli_Rocks480/M_Phyllite_13.png","response":"l","trial_type":"image-keyboard-response","trial_index":143,"plugin_version":"2.1.0","time_elapsed":294185,"subject_id":"90741","group":"Group2","condition":"1_Rep","full_date":"2026-02-08T19:10:12.952Z","date":"2026-02-08","time":"19:10:12","cor_ans":true},{"trial_type":"html-keyboard-response","rt":null,"stimulus":"<p style=\"color: green; font-size: 50px; font-weight: bold;\">Correct</p>","response":null,"trial_index":144,"plugin_version":"2.1.0","time_elapsed":294686,"subject_id":"90741","group":"Group2","condition":"1_Rep","full_date":"2026-02-08T19:10:12.952Z","date":"2026-02-08","time":"19:10:12"},{"correct_response":"l","task":"test_phase","broad_category":"I","image_png":"I_Andesite_04.png","image_id":4,"category_name":"Andesite","category":1,"distinct_rating":3.18,"distinct_type":"Bottom","item_type":"Target","rt":712,"stimulus":"Stimuli_Rocks480/I_Andesite_04.png","response":"l","trial_type":"image-keyboard-response","trial_index":145,"plugin_version":"2.1.0","time_elapsed":295400,"subject_id":"90741","group":"Group2","condition":"1_Rep","full_date":"2026-02-08T19:10:12.952Z","date":"2026-02-08","time":"19:10:12","cor_ans":true},{"trial_type":"html-keyboard-response","rt":null,"stimulus":"<p style=\"color: green; font-size: 50px; font-weight: bold;\">Correct</p>","response":null,"trial_index":146,"plugin_version":"2.1.0","time_elapsed":295901,"subject_id":"90741","group":"Group2","condition":"1_Rep","full_date":"2026-02-08T19:10:12.952Z","date":"2026-02-08","time":"19:10:12"},{"correct_response":"a","task":"test_phase","broad_category":"I","image_png":"I_Gabbro_11.png","image_id":59,"category_name":"Gabbro","category":4,"distinct_rating":1.99,"distinct_type":"Bottom","item_type":"Foil","rt":745,"stimulus":"Stimuli_Rocks480/I_Gabbro_11.png","response":"l","trial_type":"image-keyboard-response","trial_index":147,"plugin_version":"2.1.0","time_elapsed":296647,"subject_id":"90741","group":"Group2","condition":"1_Rep","full_date":"2026-02-08T19:10:12.952Z","date":"2026-02-08","time":"19:10:12","cor_ans":false},{"trial_type":"html-keyboard-response","rt":null,"stimulus":"<p style=\"color: red; font-size: 50px; font-weight: bold;\">Incorrect</p>","response":null,"trial_index":148,"plugin_version":"2.1.0","time_elapsed":297149,"subject_id":"90741","group":"Group2","condition":"1_Rep","full_date":"2026-02-08T19:10:12.952Z","date":"2026-02-08","time":"19:10:12"},{"correct_response":"l","task":"test_phase","broad_category":"I","image_png":"I_Rhyolite_08.png","image_id":152,"category_name":"Rhyolite","category":10,"distinct_rating":1.38,"distinct_type":"Bottom","item_type":"Target","rt":934,"stimulus":"Stimuli_Rocks480/I_Rhyolite_08.png","response":"l","trial_type":"image-keyboard-response","trial_index":149,"plugin_version":"2.1.0","time_elapsed":298084,"subject_id":"90741","group":"Group2","condition":"1_Rep","full_date":"2026-02-08T19:10:12.952Z","date":"2026-02-08","time":"19:10:12","cor_ans":true},{"trial_type":"html-keyboard-response","rt":null,"stimulus":"<p style=\"color: green; font-size: 50px; font-weight: bold;\">Correct</p>","response":null,"trial_index":150,"plugin_version":"2.1.0","time_elapsed":298585,"subject_id":"90741","group":"Group2","condition":"1_Rep","full_date":"2026-02-08T19:10:12.952Z","date":"2026-02-08","time":"19:10:12"},{"correct_response":"l","task":"test_phase","broad_category":"S","image_png":"S_Dolomite_01.png","image_id":385,"category_name":"Dolomite","category":25,"distinct_rating":1.43,"distinct_type":"Bottom","item_type":"Target","rt":2939,"stimulus":"Stimuli_Rocks480/S_Dolomite_01.png","response":"l","trial_type":"image-keyboard-response","trial_index":151,"plugin_version":"2.1.0","time_elapsed":301527,"subject_id":"90741","group":"Group2","condition":"1_Rep","full_date":"2026-02-08T19:10:12.952Z","date":"2026-02-08","time":"19:10:12","cor_ans":true},{"trial_type":"html-keyboard-response","rt":null,"stimulus":"<p style=\"color: green; font-size: 50px; font-weight: bold;\">Correct</p>","response":null,"trial_index":152,"plugin_version":"2.1.0","time_elapsed":302029,"subject_id":"90741","group":"Group2","condition":"1_Rep","full_date":"2026-02-08T19:10:12.952Z","date":"2026-02-08","time":"19:10:12"},{"correct_response":"l","task":"test_phase","broad_category":"S","image_png":"S_Sandstone_04.png","image_id":452,"category_name":"Sandstone","category":29,"distinct_rating":1.8,"distinct_type":"Bottom","item_type":"Target","rt":709,"stimulus":"Stimuli_Rocks480/S_Sandstone_04.png","response":"l","trial_type":"image-keyboard-response","trial_index":153,"plugin_version":"2.1.0","time_elapsed":302739,"subject_id":"90741","group":"Group2","condition":"1_Rep","full_date":"2026-02-08T19:10:12.952Z","date":"2026-02-08","time":"19:10:12","cor_ans":true},{"trial_type":"html-keyboard-response","rt":null,"stimulus":"<p style=\"color: green; font-size: 50px; font-weight: bold;\">Correct</p>","response":null,"trial_index":154,"plugin_version":"2.1.0","time_elapsed":303241,"subject_id":"90741","group":"Group2","condition":"1_Rep","full_date":"2026-02-08T19:10:12.952Z","date":"2026-02-08","time":"19:10:12"},{"correct_response":"a","task":"test_phase","broad_category":"I","image_png":"I_Basalt_09.png","image_id":25,"category_name":"Basalt","category":2,"distinct_rating":1.89,"distinct_type":"Bottom","item_type":"Foil","rt":1256,"stimulus":"Stimuli_Rocks480/I_Basalt_09.png","response":"l","trial_type":"image-keyboard-response","trial_index":155,"plugin_version":"2.1.0","time_elapsed":304498,"subject_id":"90741","group":"Group2","condition":"1_Rep","full_date":"2026-02-08T19:10:12.952Z","date":"2026-02-08","time":"19:10:12","cor_ans":false},{"trial_type":"html-keyboard-response","rt":null,"stimulus":"<p style=\"color: red; font-size: 50px; font-weight: bold;\">Incorrect</p>","response":null,"trial_index":156,"plugin_version":"2.1.0","time_elapsed":305000,"subject_id":"90741","group":"Group2","condition":"1_Rep","full_date":"2026-02-08T19:10:12.952Z","date":"2026-02-08","time":"19:10:12"},{"correct_response":"l","task":"test_phase","broad_category":"S","image_png":"S_Sandstone_08.png","image_id":456,"category_name":"Sandstone","category":29,"distinct_rating":1.5,"distinct_type":"Bottom","item_type":"Target","rt":876,"stimulus":"Stimuli_Rocks480/S_Sandstone_08.png","response":"l","trial_type":"image-keyboard-response","trial_index":157,"plugin_version":"2.1.0","time_elapsed":305877,"subject_id":"90741","group":"Group2","condition":"1_Rep","full_date":"2026-02-08T19:10:12.952Z","date":"2026-02-08","time":"19:10:12","cor_ans":true},{"trial_type":"html-keyboard-response","rt":null,"stimulus":"<p style=\"color: green; font-size: 50px; font-weight: bold;\">Correct</p>","response":null,"trial_index":158,"plugin_version":"2.1.0","time_elapsed":306379,"subject_id":"90741","group":"Group2","condition":"1_Rep","full_date":"2026-02-08T19:10:12.952Z","date":"2026-02-08","time":"19:10:12"},{"correct_response":"l","task":"test_phase","broad_category":"I","image_png":"I_Diorite_10.png","image_id":42,"category_name":"Diorite","category":3,"distinct_rating":2.84,"distinct_type":"Bottom","item_type":"Target","rt":731,"stimulus":"Stimuli_Rocks480/I_Diorite_10.png","response":"l","trial_type":"image-keyboard-response","trial_index":159,"plugin_version":"2.1.0","time_elapsed":307111,"subject_id":"90741","group":"Group2","condition":"1_Rep","full_date":"2026-02-08T19:10:12.952Z","date":"2026-02-08","time":"19:10:12","cor_ans":true},{"trial_type":"html-keyboard-response","rt":null,"stimulus":"<p style=\"color: green; font-size: 50px; font-weight: bold;\">Correct</p>","response":null,"trial_index":160,"plugin_version":"2.1.0","time_elapsed":307613,"subject_id":"90741","group":"Group2","condition":"1_Rep","full_date":"2026-02-08T19:10:12.952Z","date":"2026-02-08","time":"19:10:12"},{"correct_response":"a","task":"test_phase","broad_category":"M","image_png":"M_Marble_16.png","image_id":240,"category_name":"Marble","category":15,"distinct_rating":2.57,"distinct_type":"Bottom","item_type":"Foil","rt":848,"stimulus":"Stimuli_Rocks480/M_Marble_16.png","response":"l","trial_type":"image-keyboard-response","trial_index":161,"plugin_version":"2.1.0","time_elapsed":308462,"subject_id":"90741","group":"Group2","condition":"1_Rep","full_date":"2026-02-08T19:10:12.952Z","date":"2026-02-08","time":"19:10:12","cor_ans":false},{"trial_type":"html-keyboard-response","rt":null,"stimulus":"<p style=\"color: red; font-size: 50px; font-weight: bold;\">Incorrect</p>","response":null,"trial_index":162,"plugin_version":"2.1.0","time_elapsed":308963,"subject_id":"90741","group":"Group2","condition":"1_Rep","full_date":"2026-02-08T19:10:12.952Z","date":"2026-02-08","time":"19:10:12"},{"correct_response":"l","task":"test_phase","broad_category":"I","image_png":"I_Basalt_13.png","image_id":29,"category_name":"Basalt","category":2,"distinct_rating":2.68,"distinct_type":"Bottom","item_type":"Target","rt":870,"stimulus":"Stimuli_Rocks480/I_Basalt_13.png","response":"l","trial_type":"image-keyboard-response","trial_index":163,"plugin_version":"2.1.0","time_elapsed":309835,"subject_id":"90741","group":"Group2","condition":"1_Rep","full_date":"2026-02-08T19:10:12.952Z","date":"2026-02-08","time":"19:10:12","cor_ans":true},{"trial_type":"html-keyboard-response","rt":null,"stimulus":"<p style=\"color: green; font-size: 50px; font-weight: bold;\">Correct</p>","response":null,"trial_index":164,"plugin_version":"2.1.0","time_elapsed":310336,"subject_id":"90741","group":"Group2","condition":"1_Rep","full_date":"2026-02-08T19:10:12.952Z","date":"2026-02-08","time":"19:10:12"},{"correct_response":"l","task":"test_phase","broad_category":"M","image_png":"M_Gneiss_15.png","image_id":207,"category_name":"Gneiss","category":13,"distinct_rating":3.11,"distinct_type":"Bottom","item_type":"Target","rt":837,"stimulus":"Stimuli_Rocks480/M_Gneiss_15.png","response":"l","trial_type":"image-keyboard-response","trial_index":165,"plugin_version":"2.1.0","time_elapsed":311174,"subject_id":"90741","group":"Group2","condition":"1_Rep","full_date":"2026-02-08T19:10:12.952Z","date":"2026-02-08","time":"19:10:12","cor_ans":true},{"trial_type":"html-keyboard-response","rt":null,"stimulus":"<p style=\"color: green; font-size: 50px; font-weight: bold;\">Correct</p>","response":null,"trial_index":166,"plugin_version":"2.1.0","time_elapsed":311675,"subject_id":"90741","group":"Group2","condition":"1_Rep","full_date":"2026-02-08T19:10:12.952Z","date":"2026-02-08","time":"19:10:12"},{"correct_response":"a","task":"test_phase","broad_category":"I","image_png":"I_Diorite_03.png","image_id":35,"category_name":"Diorite","category":3,"distinct_rating":3.14,"distinct_type":"Bottom","item_type":"Foil","rt":1432,"stimulus":"Stimuli_Rocks480/I_Diorite_03.png","response":"l","trial_type":"image-keyboard-response","trial_index":167,"plugin_version":"2.1.0","time_elapsed":313109,"subject_id":"90741","group":"Group2","condition":"1_Rep","full_date":"2026-02-08T19:10:12.952Z","date":"2026-02-08","time":"19:10:12","cor_ans":false},{"trial_type":"html-keyboard-response","rt":null,"stimulus":"<p style=\"color: red; font-size: 50px; font-weight: bold;\">Incorrect</p>","response":null,"trial_index":168,"plugin_version":"2.1.0","time_elapsed":313610,"subject_id":"90741","group":"Group2","condition":"1_Rep","full_date":"2026-02-08T19:10:12.952Z","date":"2026-02-08","time":"19:10:12"},{"correct_response":"l","task":"test_phase","broad_category":"M","image_png":"M_Gneiss_10.png","image_id":202,"category_name":"Gneiss","category":13,"distinct_rating":3.09,"distinct_type":"Bottom","item_type":"Target","rt":1415,"stimulus":"Stimuli_Rocks480/M_Gneiss_10.png","response":"l","trial_type":"image-keyboard-response","trial_index":169,"plugin_version":"2.1.0","time_elapsed":315026,"subject_id":"90741","group":"Group2","condition":"1_Rep","full_date":"2026-02-08T19:10:12.952Z","date":"2026-02-08","time":"19:10:12","cor_ans":true},{"trial_type":"html-keyboard-response","rt":null,"stimulus":"<p style=\"color: green; font-size: 50px; font-weight: bold;\">Correct</p>","response":null,"trial_index":170,"plugin_version":"2.1.0","time_elapsed":315528,"subject_id":"90741","group":"Group2","condition":"1_Rep","full_date":"2026-02-08T19:10:12.952Z","date":"2026-02-08","time":"19:10:12"},{"correct_response":"l","task":"test_phase","broad_category":"M","image_png":"M_Slate_10.png","image_id":314,"category_name":"Slate","category":20,"distinct_rating":1.94,"distinct_type":"Bottom","item_type":"Target","rt":1407,"stimulus":"Stimuli_Rocks480/M_Slate_10.png","response":"l","trial_type":"image-keyboard-response","trial_index":171,"plugin_version":"2.1.0","time_elapsed":316936,"subject_id":"90741","group":"Group2","condition":"1_Rep","full_date":"2026-02-08T19:10:12.952Z","date":"2026-02-08","time":"19:10:12","cor_ans":true},{"trial_type":"html-keyboard-response","rt":null,"stimulus":"<p style=\"color: green; font-size: 50px; font-weight: bold;\">Correct</p>","response":null,"trial_index":172,"plugin_version":"2.1.0","time_elapsed":317438,"subject_id":"90741","group":"Group2","condition":"1_Rep","full_date":"2026-02-08T19:10:12.952Z","date":"2026-02-08","time":"19:10:12"},{"correct_response":"a","task":"test_phase","broad_category":"M","image_png":"M_Marble_04.png","image_id":228,"category_name":"Marble","category":15,"distinct_rating":3.15,"distinct_type":"Bottom","item_type":"Foil","rt":930,"stimulus":"Stimuli_Rocks480/M_Marble_04.png","response":"l","trial_type":"image-keyboard-response","trial_index":173,"plugin_version":"2.1.0","time_elapsed":318370,"subject_id":"90741","group":"Group2","condition":"1_Rep","full_date":"2026-02-08T19:10:12.952Z","date":"2026-02-08","time":"19:10:12","cor_ans":false},{"trial_type":"html-keyboard-response","rt":null,"stimulus":"<p style=\"color: red; font-size: 50px; font-weight: bold;\">Incorrect</p>","response":null,"trial_index":174,"plugin_version":"2.1.0","time_elapsed":318872,"subject_id":"90741","group":"Group2","condition":"1_Rep","full_date":"2026-02-08T19:10:12.952Z","date":"2026-02-08","time":"19:10:12"},{"correct_response":"l","task":"test_phase","broad_category":"M","image_png":"M_Phyllite_02.png","image_id":258,"category_name":"Phyllite","category":17,"distinct_rating":2.89,"distinct_type":"Bottom","item_type":"Target","rt":570,"stimulus":"Stimuli_Rocks480/M_Phyllite_02.png","response":"l","trial_type":"image-keyboard-response","trial_index":175,"plugin_version":"2.1.0","time_elapsed":319444,"subject_id":"90741","group":"Group2","condition":"1_Rep","full_date":"2026-02-08T19:10:12.952Z","date":"2026-02-08","time":"19:10:12","cor_ans":true},{"trial_type":"html-keyboard-response","rt":null,"stimulus":"<p style=\"color: green; font-size: 50px; font-weight: bold;\">Correct</p>","response":null,"trial_index":176,"plugin_version":"2.1.0","time_elapsed":319946,"subject_id":"90741","group":"Group2","condition":"1_Rep","full_date":"2026-02-08T19:10:12.952Z","date":"2026-02-08","time":"19:10:12"},{"correct_response":"a","task":"test_phase","broad_category":"S","image_png":"S_Sandstone_16.png","image_id":464,"category_name":"Sandstone","category":29,"distinct_rating":1.93,"distinct_type":"Bottom","item_type":"Foil","rt":771,"stimulus":"Stimuli_Rocks480/S_Sandstone_16.png","response":"a","trial_type":"image-keyboard-response","trial_index":177,"plugin_version":"2.1.0","time_elapsed":320718,"subject_id":"90741","group":"Group2","condition":"1_Rep","full_date":"2026-02-08T19:10:12.952Z","date":"2026-02-08","time":"19:10:12","cor_ans":true},{"trial_type":"html-keyboard-response","rt":null,"stimulus":"<p style=\"color: green; font-size: 50px; font-weight: bold;\">Correct</p>","response":null,"trial_index":178,"plugin_version":"2.1.0","time_elapsed":321220,"subject_id":"90741","group":"Group2","condition":"1_Rep","full_date":"2026-02-08T19:10:12.952Z","date":"2026-02-08","time":"19:10:12"},{"correct_response":"a","task":"test_phase","broad_category":"M","image_png":"M_Slate_11.png","image_id":315,"category_name":"Slate","category":20,"distinct_rating":2.75,"distinct_type":"Bottom","item_type":"Foil","rt":847,"stimulus":"Stimuli_Rocks480/M_Slate_11.png","response":"l","trial_type":"image-keyboard-response","trial_index":179,"plugin_version":"2.1.0","time_elapsed":322069,"subject_id":"90741","group":"Group2","condition":"1_Rep","full_date":"2026-02-08T19:10:12.952Z","date":"2026-02-08","time":"19:10:12","cor_ans":false},{"trial_type":"html-keyboard-response","rt":null,"stimulus":"<p style=\"color: red; font-size: 50px; font-weight: bold;\">Incorrect</p>","response":null,"trial_index":180,"plugin_version":"2.1.0","time_elapsed":322570,"subject_id":"90741","group":"Group2","condition":"1_Rep","full_date":"2026-02-08T19:10:12.952Z","date":"2026-02-08","time":"19:10:12"},{"correct_response":"l","task":"test_phase","broad_category":"I","image_png":"I_Diorite_01.png","image_id":33,"category_name":"Diorite","category":3,"distinct_rating":2.97,"distinct_type":"Bottom","item_type":"Target","rt":701,"stimulus":"Stimuli_Rocks480/I_Diorite_01.png","response":"l","trial_type":"image-keyboard-response","trial_index":181,"plugin_version":"2.1.0","time_elapsed":323272,"subject_id":"90741","group":"Group2","condition":"1_Rep","full_date":"2026-02-08T19:10:12.952Z","date":"2026-02-08","time":"19:10:12","cor_ans":true},{"trial_type":"html-keyboard-response","rt":null,"stimulus":"<p style=\"color: green; font-size: 50px; font-weight: bold;\">Correct</p>","response":null,"trial_index":182,"plugin_version":"2.1.0","time_elapsed":323774,"subject_id":"90741","group":"Group2","condition":"1_Rep","full_date":"2026-02-08T19:10:12.952Z","date":"2026-02-08","time":"19:10:12"},{"correct_response":"l","task":"test_phase","broad_category":"I","image_png":"I_Basalt_10.png","image_id":26,"category_name":"Basalt","category":2,"distinct_rating":2.76,"distinct_type":"Bottom","item_type":"Target","rt":856,"stimulus":"Stimuli_Rocks480/I_Basalt_10.png","response":"l","trial_type":"image-keyboard-response","trial_index":183,"plugin_version":"2.1.0","time_elapsed":324631,"subject_id":"90741","group":"Group2","condition":"1_Rep","full_date":"2026-02-08T19:10:12.952Z","date":"2026-02-08","time":"19:10:12","cor_ans":true},{"trial_type":"html-keyboard-response","rt":null,"stimulus":"<p style=\"color: green; font-size: 50px; font-weight: bold;\">Correct</p>","response":null,"trial_index":184,"plugin_version":"2.1.0","time_elapsed":325133,"subject_id":"90741","group":"Group2","condition":"1_Rep","full_date":"2026-02-08T19:10:12.952Z","date":"2026-02-08","time":"19:10:12"},{"correct_response":"a","task":"test_phase","broad_category":"I","image_png":"I_Andesite_06.png","image_id":6,"category_name":"Andesite","category":1,"distinct_rating":3.17,"distinct_type":"Bottom","item_type":"Foil","rt":877,"stimulus":"Stimuli_Rocks480/I_Andesite_06.png","response":"a","trial_type":"image-keyboard-response","trial_index":185,"plugin_version":"2.1.0","time_elapsed":326011,"subject_id":"90741","group":"Group2","condition":"1_Rep","full_date":"2026-02-08T19:10:12.952Z","date":"2026-02-08","time":"19:10:12","cor_ans":true},{"trial_type":"html-keyboard-response","rt":null,"stimulus":"<p style=\"color: green; font-size: 50px; font-weight: bold;\">Correct</p>","response":null,"trial_index":186,"plugin_version":"2.1.0","time_elapsed":326513,"subject_id":"90741","group":"Group2","condition":"1_Rep","full_date":"2026-02-08T19:10:12.952Z","date":"2026-02-08","time":"19:10:12"},{"correct_response":"a","task":"test_phase","broad_category":"S","image_png":"S_Dolomite_14.png","image_id":398,"category_name":"Dolomite","category":25,"distinct_rating":1.43,"distinct_type":"Bottom","item_type":"Foil","rt":738,"stimulus":"Stimuli_Rocks480/S_Dolomite_14.png","response":"l","trial_type":"image-keyboard-response","trial_index":187,"plugin_version":"2.1.0","time_elapsed":327252,"subject_id":"90741","group":"Group2","condition":"1_Rep","full_date":"2026-02-08T19:10:12.952Z","date":"2026-02-08","time":"19:10:12","cor_ans":false},{"trial_type":"html-keyboard-response","rt":null,"stimulus":"<p style=\"color: red; font-size: 50px; font-weight: bold;\">Incorrect</p>","response":null,"trial_index":188,"plugin_version":"2.1.0","time_elapsed":327753,"subject_id":"90741","group":"Group2","condition":"1_Rep","full_date":"2026-02-08T19:10:12.952Z","date":"2026-02-08","time":"19:10:12"},{"correct_response":"a","task":"test_phase","broad_category":"I","image_png":"I_Gabbro_08.png","image_id":56,"category_name":"Gabbro","category":4,"distinct_rating":3.02,"distinct_type":"Bottom","item_type":"Foil","rt":862,"stimulus":"Stimuli_Rocks480/I_Gabbro_08.png","response":"l","trial_type":"image-keyboard-response","trial_index":189,"plugin_version":"2.1.0","time_elapsed":328616,"subject_id":"90741","group":"Group2","condition":"1_Rep","full_date":"2026-02-08T19:10:12.952Z","date":"2026-02-08","time":"19:10:12","cor_ans":false},{"trial_type":"html-keyboard-response","rt":null,"stimulus":"<p style=\"color: red; font-size: 50px; font-weight: bold;\">Incorrect</p>","response":null,"trial_index":190,"plugin_version":"2.1.0","time_elapsed":329117,"subject_id":"90741","group":"Group2","condition":"1_Rep","full_date":"2026-02-08T19:10:12.952Z","date":"2026-02-08","time":"19:10:12"},{"correct_response":"a","task":"test_phase","broad_category":"S","image_png":"S_Dolomite_12.png","image_id":396,"category_name":"Dolomite","category":25,"distinct_rating":1.85,"distinct_type":"Bottom","item_type":"Foil","rt":676,"stimulus":"Stimuli_Rocks480/S_Dolomite_12.png","response":"a","trial_type":"image-keyboard-response","trial_index":191,"plugin_version":"2.1.0","time_elapsed":329795,"subject_id":"90741","group":"Group2","condition":"1_Rep","full_date":"2026-02-08T19:10:12.952Z","date":"2026-02-08","time":"19:10:12","cor_ans":true},{"trial_type":"html-keyboard-response","rt":null,"stimulus":"<p style=\"color: green; font-size: 50px; font-weight: bold;\">Correct</p>","response":null,"trial_index":192,"plugin_version":"2.1.0","time_elapsed":330296,"subject_id":"90741","group":"Group2","condition":"1_Rep","full_date":"2026-02-08T19:10:12.952Z","date":"2026-02-08","time":"19:10:12"},{"correct_response":"a","task":"test_phase","broad_category":"S","image_png":"S_Conglomerate_05.png","image_id":373,"category_name":"Conglomerate","category":24,"distinct_rating":7.32,"distinct_type":"Top","item_type":"Foil","rt":783,"stimulus":"Stimuli_Rocks480/S_Conglomerate_05.png","response":"a","trial_type":"image-keyboard-response","trial_index":193,"plugin_version":"2.1.0","time_elapsed":331080,"subject_id":"90741","group":"Group2","condition":"1_Rep","full_date":"2026-02-08T19:10:12.952Z","date":"2026-02-08","time":"19:10:12","cor_ans":true},{"trial_type":"html-keyboard-response","rt":null,"stimulus":"<p style=\"color: green; font-size: 50px; font-weight: bold;\">Correct</p>","response":null,"trial_index":194,"plugin_version":"2.1.0","time_elapsed":331581,"subject_id":"90741","group":"Group2","condition":"1_Rep","full_date":"2026-02-08T19:10:12.952Z","date":"2026-02-08","time":"19:10:12"},{"correct_response":"a","task":"test_phase","broad_category":"S","image_png":"S_Sandstone_03.png","image_id":451,"category_name":"Sandstone","category":29,"distinct_rating":1.86,"distinct_type":"Bottom","item_type":"Foil","rt":587,"stimulus":"Stimuli_Rocks480/S_Sandstone_03.png","response":"a","trial_type":"image-keyboard-response","trial_index":195,"plugin_version":"2.1.0","time_elapsed":332170,"subject_id":"90741","group":"Group2","condition":"1_Rep","full_date":"2026-02-08T19:10:12.952Z","date":"2026-02-08","time":"19:10:12","cor_ans":true},{"trial_type":"html-keyboard-response","rt":null,"stimulus":"<p style=\"color: green; font-size: 50px; font-weight: bold;\">Correct</p>","response":null,"trial_index":196,"plugin_version":"2.1.0","time_elapsed":332672,"subject_id":"90741","group":"Group2","condition":"1_Rep","full_date":"2026-02-08T19:10:12.952Z","date":"2026-02-08","time":"19:10:12"},{"correct_response":"l","task":"test_phase","broad_category":"I","image_png":"I_Gabbro_14.png","image_id":62,"category_name":"Gabbro","category":4,"distinct_rating":2.95,"distinct_type":"Bottom","item_type":"Target","rt":644,"stimulus":"Stimuli_Rocks480/I_Gabbro_14.png","response":"a","trial_type":"image-keyboard-response","trial_index":197,"plugin_version":"2.1.0","time_elapsed":333317,"subject_id":"90741","group":"Group2","condition":"1_Rep","full_date":"2026-02-08T19:10:12.952Z","date":"2026-02-08","time":"19:10:12","cor_ans":false},{"trial_type":"html-keyboard-response","rt":null,"stimulus":"<p style=\"color: red; font-size: 50px; font-weight: bold;\">Incorrect</p>","response":null,"trial_index":198,"plugin_version":"2.1.0","time_elapsed":333819,"subject_id":"90741","group":"Group2","condition":"1_Rep","full_date":"2026-02-08T19:10:12.952Z","date":"2026-02-08","time":"19:10:12"},{"correct_response":"a","task":"test_phase","broad_category":"I","image_png":"I_Pumice_11.png","image_id":139,"category_name":"Pumice","category":9,"distinct_rating":1.74,"distinct_type":"Bottom","item_type":"Foil","rt":678,"stimulus":"Stimuli_Rocks480/I_Pumice_11.png","response":"l","trial_type":"image-keyboard-response","trial_index":199,"plugin_version":"2.1.0","time_elapsed":334498,"subject_id":"90741","group":"Group2","condition":"1_Rep","full_date":"2026-02-08T19:10:12.952Z","date":"2026-02-08","time":"19:10:12","cor_ans":false},{"trial_type":"html-keyboard-response","rt":null,"stimulus":"<p style=\"color: red; font-size: 50px; font-weight: bold;\">Incorrect</p>","response":null,"trial_index":200,"plugin_version":"2.1.0","time_elapsed":334999,"subject_id":"90741","group":"Group2","condition":"1_Rep","full_date":"2026-02-08T19:10:12.952Z","date":"2026-02-08","time":"19:10:12"},{"correct_response":"a","task":"test_phase","broad_category":"I","image_png":"I_Rhyolite_14.png","image_id":158,"category_name":"Rhyolite","category":10,"distinct_rating":2.59,"distinct_type":"Bottom","item_type":"Foil","rt":612,"stimulus":"Stimuli_Rocks480/I_Rhyolite_14.png","response":"l","trial_type":"image-keyboard-response","trial_index":201,"plugin_version":"2.1.0","time_elapsed":335613,"subject_id":"90741","group":"Group2","condition":"1_Rep","full_date":"2026-02-08T19:10:12.952Z","date":"2026-02-08","time":"19:10:12","cor_ans":false},{"trial_type":"html-keyboard-response","rt":null,"stimulus":"<p style=\"color: red; font-size: 50px; font-weight: bold;\">Incorrect</p>","response":null,"trial_index":202,"plugin_version":"2.1.0","time_elapsed":336115,"subject_id":"90741","group":"Group2","condition":"1_Rep","full_date":"2026-02-08T19:10:12.952Z","date":"2026-02-08","time":"19:10:12"},{"correct_response":"l","task":"test_phase","broad_category":"I","image_png":"I_Andesite_03.png","image_id":3,"category_name":"Andesite","category":1,"distinct_rating":3.17,"distinct_type":"Bottom","item_type":"Target","rt":634,"stimulus":"Stimuli_Rocks480/I_Andesite_03.png","response":"a","trial_type":"image-keyboard-response","trial_index":203,"plugin_version":"2.1.0","time_elapsed":336749,"subject_id":"90741","group":"Group2","condition":"1_Rep","full_date":"2026-02-08T19:10:12.952Z","date":"2026-02-08","time":"19:10:12","cor_ans":false},{"trial_type":"html-keyboard-response","rt":null,"stimulus":"<p style=\"color: red; font-size: 50px; font-weight: bold;\">Incorrect</p>","response":null,"trial_index":204,"plugin_version":"2.1.0","time_elapsed":337251,"subject_id":"90741","group":"Group2","condition":"1_Rep","full_date":"2026-02-08T19:10:12.952Z","date":"2026-02-08","time":"19:10:12"},{"correct_response":"l","task":"test_phase","broad_category":"S","image_png":"S_Dolomite_16.png","image_id":400,"category_name":"Dolomite","category":25,"distinct_rating":1.71,"distinct_type":"Bottom","item_type":"Target","rt":871,"stimulus":"Stimuli_Rocks480/S_Dolomite_16.png","response":"l","trial_type":"image-keyboard-response","trial_index":205,"plugin_version":"2.1.0","time_elapsed":338123,"subject_id":"90741","group":"Group2","condition":"1_Rep","full_date":"2026-02-08T19:10:12.952Z","date":"2026-02-08","time":"19:10:12","cor_ans":true},{"trial_type":"html-keyboard-response","rt":null,"stimulus":"<p style=\"color: green; font-size: 50px; font-weight: bold;\">Correct</p>","response":null,"trial_index":206,"plugin_version":"2.1.0","time_elapsed":338625,"subject_id":"90741","group":"Group2","condition":"1_Rep","full_date":"2026-02-08T19:10:12.952Z","date":"2026-02-08","time":"19:10:12"},{"correct_response":"a","task":"test_phase","broad_category":"M","image_png":"M_Gneiss_06.png","image_id":198,"category_name":"Gneiss","category":13,"distinct_rating":2.65,"distinct_type":"Bottom","item_type":"Foil","rt":824,"stimulus":"Stimuli_Rocks480/M_Gneiss_06.png","response":"a","trial_type":"image-keyboard-response","trial_index":207,"plugin_version":"2.1.0","time_elapsed":339450,"subject_id":"90741","group":"Group2","condition":"1_Rep","full_date":"2026-02-08T19:10:12.952Z","date":"2026-02-08","time":"19:10:12","cor_ans":true},{"trial_type":"html-keyboard-response","rt":null,"stimulus":"<p style=\"color: green; font-size: 50px; font-weight: bold;\">Correct</p>","response":null,"trial_index":208,"plugin_version":"2.1.0","time_elapsed":339952,"subject_id":"90741","group":"Group2","condition":"1_Rep","full_date":"2026-02-08T19:10:12.952Z","date":"2026-02-08","time":"19:10:12"},{"correct_response":"l","task":"test_phase","broad_category":"M","image_png":"M_Gneiss_14.png","image_id":206,"category_name":"Gneiss","category":13,"distinct_rating":3.41,"distinct_type":"Bottom","item_type":"Target","rt":1503,"stimulus":"Stimuli_Rocks480/M_Gneiss_14.png","response":"a","trial_type":"image-keyboard-response","trial_index":209,"plugin_version":"2.1.0","time_elapsed":341457,"subject_id":"90741","group":"Group2","condition":"1_Rep","full_date":"2026-02-08T19:10:12.952Z","date":"2026-02-08","time":"19:10:12","cor_ans":false},{"trial_type":"html-keyboard-response","rt":null,"stimulus":"<p style=\"color: red; font-size: 50px; font-weight: bold;\">Incorrect</p>","response":null,"trial_index":210,"plugin_version":"2.1.0","time_elapsed":341959,"subject_id":"90741","group":"Group2","condition":"1_Rep","full_date":"2026-02-08T19:10:12.952Z","date":"2026-02-08","time":"19:10:12"},{"correct_response":"l","task":"test_phase","broad_category":"S","image_png":"S_Chert_13.png","image_id":365,"category_name":"Chert","category":23,"distinct_rating":6.57,"distinct_type":"Top","item_type":"Target","rt":718,"stimulus":"Stimuli_Rocks480/S_Chert_13.png","response":"l","trial_type":"image-keyboard-response","trial_index":211,"plugin_version":"2.1.0","time_elapsed":342677,"subject_id":"90741","group":"Group2","condition":"1_Rep","full_date":"2026-02-08T19:10:12.952Z","date":"2026-02-08","time":"19:10:12","cor_ans":true},{"trial_type":"html-keyboard-response","rt":null,"stimulus":"<p style=\"color: green; font-size: 50px; font-weight: bold;\">Correct</p>","response":null,"trial_index":212,"plugin_version":"2.1.0","time_elapsed":343178,"subject_id":"90741","group":"Group2","condition":"1_Rep","full_date":"2026-02-08T19:10:12.952Z","date":"2026-02-08","time":"19:10:12"},{"correct_response":"l","task":"test_phase","broad_category":"I","image_png":"I_Pumice_01.png","image_id":129,"category_name":"Pumice","category":9,"distinct_rating":3.25,"distinct_type":"Bottom","item_type":"Target","rt":944,"stimulus":"Stimuli_Rocks480/I_Pumice_01.png","response":"l","trial_type":"image-keyboard-response","trial_index":213,"plugin_version":"2.1.0","time_elapsed":344124,"subject_id":"90741","group":"Group2","condition":"1_Rep","full_date":"2026-02-08T19:10:12.952Z","date":"2026-02-08","time":"19:10:12","cor_ans":true},{"trial_type":"html-keyboard-response","rt":null,"stimulus":"<p style=\"color: green; font-size: 50px; font-weight: bold;\">Correct</p>","response":null,"trial_index":214,"plugin_version":"2.1.0","time_elapsed":344625,"subject_id":"90741","group":"Group2","condition":"1_Rep","full_date":"2026-02-08T19:10:12.952Z","date":"2026-02-08","time":"19:10:12"},{"correct_response":"a","task":"test_phase","broad_category":"I","image_png":"I_Pegmatite_16.png","image_id":112,"category_name":"Pegmatite","category":7,"distinct_rating":7.03,"distinct_type":"Top","item_type":"Foil","rt":1547,"stimulus":"Stimuli_Rocks480/I_Pegmatite_16.png","response":"l","trial_type":"image-keyboard-response","trial_index":215,"plugin_version":"2.1.0","time_elapsed":346174,"subject_id":"90741","group":"Group2","condition":"1_Rep","full_date":"2026-02-08T19:10:12.952Z","date":"2026-02-08","time":"19:10:12","cor_ans":false},{"trial_type":"html-keyboard-response","rt":null,"stimulus":"<p style=\"color: red; font-size: 50px; font-weight: bold;\">Incorrect</p>","response":null,"trial_index":216,"plugin_version":"2.1.0","time_elapsed":346676,"subject_id":"90741","group":"Group2","condition":"1_Rep","full_date":"2026-02-08T19:10:12.952Z","date":"2026-02-08","time":"19:10:12"},{"correct_response":"a","task":"test_phase","broad_category":"S","image_png":"S_Sandstone_15.png","image_id":463,"category_name":"Sandstone","category":29,"distinct_rating":2,"distinct_type":"Bottom","item_type":"Foil","rt":741,"stimulus":"Stimuli_Rocks480/S_Sandstone_15.png","response":"l","trial_type":"image-keyboard-response","trial_index":217,"plugin_version":"2.1.0","time_elapsed":347417,"subject_id":"90741","group":"Group2","condition":"1_Rep","full_date":"2026-02-08T19:10:12.952Z","date":"2026-02-08","time":"19:10:12","cor_ans":false},{"trial_type":"html-keyboard-response","rt":null,"stimulus":"<p style=\"color: red; font-size: 50px; font-weight: bold;\">Incorrect</p>","response":null,"trial_index":218,"plugin_version":"2.1.0","time_elapsed":347919,"subject_id":"90741","group":"Group2","condition":"1_Rep","full_date":"2026-02-08T19:10:12.952Z","date":"2026-02-08","time":"19:10:12"},{"correct_response":"l","task":"test_phase","broad_category":"S","image_png":"S_Shale_07.png","image_id":471,"category_name":"Shale","category":30,"distinct_rating":2.73,"distinct_type":"Bottom","item_type":"Target","rt":716,"stimulus":"Stimuli_Rocks480/S_Shale_07.png","response":"l","trial_type":"image-keyboard-response","trial_index":219,"plugin_version":"2.1.0","time_elapsed":348636,"subject_id":"90741","group":"Group2","condition":"1_Rep","full_date":"2026-02-08T19:10:12.952Z","date":"2026-02-08","time":"19:10:12","cor_ans":true},{"trial_type":"html-keyboard-response","rt":null,"stimulus":"<p style=\"color: green; font-size: 50px; font-weight: bold;\">Correct</p>","response":null,"trial_index":220,"plugin_version":"2.1.0","time_elapsed":349137,"subject_id":"90741","group":"Group2","condition":"1_Rep","full_date":"2026-02-08T19:10:12.952Z","date":"2026-02-08","time":"19:10:12"},{"correct_response":"a","task":"test_phase","broad_category":"S","image_png":"S_Shale_01.png","image_id":465,"category_name":"Shale","category":30,"distinct_rating":2.7,"distinct_type":"Bottom","item_type":"Foil","rt":604,"stimulus":"Stimuli_Rocks480/S_Shale_01.png","response":"a","trial_type":"image-keyboard-response","trial_index":221,"plugin_version":"2.1.0","time_elapsed":349743,"subject_id":"90741","group":"Group2","condition":"1_Rep","full_date":"2026-02-08T19:10:12.952Z","date":"2026-02-08","time":"19:10:12","cor_ans":true},{"trial_type":"html-keyboard-response","rt":null,"stimulus":"<p style=\"color: green; font-size: 50px; font-weight: bold;\">Correct</p>","response":null,"trial_index":222,"plugin_version":"2.1.0","time_elapsed":350245,"subject_id":"90741","group":"Group2","condition":"1_Rep","full_date":"2026-02-08T19:10:12.952Z","date":"2026-02-08","time":"19:10:12"},{"correct_response":"a","task":"test_phase","broad_category":"I","image_png":"I_Gabbro_16.png","image_id":64,"category_name":"Gabbro","category":4,"distinct_rating":2.52,"distinct_type":"Bottom","item_type":"Foil","rt":1193,"stimulus":"Stimuli_Rocks480/I_Gabbro_16.png","response":"l","trial_type":"image-keyboard-response","trial_index":223,"plugin_version":"2.1.0","time_elapsed":351439,"subject_id":"90741","group":"Group2","condition":"1_Rep","full_date":"2026-02-08T19:10:12.952Z","date":"2026-02-08","time":"19:10:12","cor_ans":false},{"trial_type":"html-keyboard-response","rt":null,"stimulus":"<p style=\"color: red; font-size: 50px; font-weight: bold;\">Incorrect</p>","response":null,"trial_index":224,"plugin_version":"2.1.0","time_elapsed":351941,"subject_id":"90741","group":"Group2","condition":"1_Rep","full_date":"2026-02-08T19:10:12.952Z","date":"2026-02-08","time":"19:10:12"},{"correct_response":"a","task":"test_phase","broad_category":"M","image_png":"M_Quartzite_13.png","imag