[{"width":1427,"height":753,"webaudio":true,"browser":"safari","browser_version":"26.2.0","mobile":false,"os":"Mac OS","fullscreen":true,"vsync_rate":60.36,"webcam":true,"microphone":true,"trial_type":"browser-check","trial_index":0,"plugin_version":"2.1.0","time_elapsed":997,"subject_id":"91373","group":"Group2","condition":"1_Rep","full_date":"2026-03-14T16:15:02.651Z","date":"2026-03-14","time":"16:15:02"},{"success":true,"timeout":false,"failed_images":[],"failed_audio":[],"failed_video":[],"trial_type":"preload","trial_index":1,"plugin_version":"2.1.0","time_elapsed":184003,"subject_id":"91373","group":"Group2","condition":"1_Rep","full_date":"2026-03-14T16:15:02.651Z","date":"2026-03-14","time":"16:15:02"},{"rt":6530,"url":"SONA_consent_memorability.html","trial_type":"external-html","trial_index":2,"plugin_version":"2.1.0","time_elapsed":190648,"subject_id":"91373","group":"Group2","condition":"1_Rep","full_date":"2026-03-14T16:15:02.651Z","date":"2026-03-14","time":"16:15:02"},{"success":true,"rt":1012,"trial_type":"fullscreen","trial_index":3,"plugin_version":"2.1.0","time_elapsed":192664,"subject_id":"91373","group":"Group2","condition":"1_Rep","full_date":"2026-03-14T16:15:02.651Z","date":"2026-03-14","time":"16:15:02"},{"rt":1597,"stimulus":"<div style=\"max-width: 760px; margin: auto; font-size: 20px; line-height: 1.5;\">\n      <h1 style=\"text-align:center; font-size: 30px;\">Instructions</h1>\n      <p>\n        Welcome to the study on <b>visual memory</b>. This experiment consists of <b>two phases</b>: \n        a <b>study phase</b> and a <b>test phase</b>.\n      </p>\n      <p>\n        In the study phase, you will see a series of rock images along with their category labels.\n        The images will appear one at a time.\n        <b>Your task</b> is to learn the categories to which the rock images belong \n        and to remember each image as accurately as possible.\n      </p> \n      <p>\n        Note that you will see each image only <b>once</b> during the study phase. \n          So, please pay close attention and try to remember each image carefully.\n      </p>\n      <p>\n        After the study phase, <b>your memory will be tested</b>. \n        Additional instructions for the test phase will be provided at that time.\n      </p>\n      <p>\n        If your computer has multiple <b>language settings</b> (e.g., English and another language),\n        please make sure it is set to English before starting.\n      </p>\n      <p>\n        You can track your progress using the <b>completion bar</b> at the top of the screen. \n        Please note that the bar will refresh when the test phase begins \n        to give you an accurate sense of your progress in both phases.\n      </p> \n      <p>\n        Press the button below when you are ready to begin.\n      </p>\n    </div>","response":0,"trial_type":"html-button-response","trial_index":4,"plugin_version":"2.1.0","time_elapsed":194263,"subject_id":"91373","group":"Group2","condition":"1_Rep","full_date":"2026-03-14T16:15:02.651Z","date":"2026-03-14","time":"16:15:02"},{"rt":null,"stimulus":"<p style=\"font-size: 50px; margin: 0; text-align: center;\">+</p>","response":null,"trial_type":"html-keyboard-response","trial_index":5,"plugin_version":"2.1.0","time_elapsed":195268,"subject_id":"91373","group":"Group2","condition":"1_Rep","full_date":"2026-03-14T16:15:02.651Z","date":"2026-03-14","time":"16:15:02"},{"task":"memory_phase","broad_category":"I","image_png":"I_Pumice_01.png","image_id":129,"category_name":"Pumice","category":9,"distinct_rating":3.25,"distinct_type":"Bottom","rt":null,"stimulus":"Stimuli_Rocks480/I_Pumice_01.png","response":null,"trial_type":"image-keyboard-response","trial_index":6,"plugin_version":"2.1.0","time_elapsed":197783,"subject_id":"91373","group":"Group2","condition":"1_Rep","full_date":"2026-03-14T16:15:02.651Z","date":"2026-03-14","time":"16:15:02"},{"rt":null,"stimulus":"<p style=\"font-size: 50px; margin: 0; text-align: center;\">+</p>","response":null,"trial_type":"html-keyboard-response","trial_index":7,"plugin_version":"2.1.0","time_elapsed":198785,"subject_id":"91373","group":"Group2","condition":"1_Rep","full_date":"2026-03-14T16:15:02.651Z","date":"2026-03-14","time":"16:15:02"},{"task":"memory_phase","broad_category":"S","image_png":"S_Dolomite_07.png","image_id":391,"category_name":"Dolomite","category":25,"distinct_rating":1.73,"distinct_type":"Bottom","rt":null,"stimulus":"Stimuli_Rocks480/S_Dolomite_07.png","response":null,"trial_type":"image-keyboard-response","trial_index":8,"plugin_version":"2.1.0","time_elapsed":201299,"subject_id":"91373","group":"Group2","condition":"1_Rep","full_date":"2026-03-14T16:15:02.651Z","date":"2026-03-14","time":"16:15:02"},{"rt":null,"stimulus":"<p style=\"font-size: 50px; margin: 0; text-align: center;\">+</p>","response":null,"trial_type":"html-keyboard-response","trial_index":9,"plugin_version":"2.1.0","time_elapsed":202302,"subject_id":"91373","group":"Group2","condition":"1_Rep","full_date":"2026-03-14T16:15:02.651Z","date":"2026-03-14","time":"16:15:02"},{"task":"memory_phase","broad_category":"I","image_png":"I_Basalt_08.png","image_id":24,"category_name":"Basalt","category":2,"distinct_rating":2.31,"distinct_type":"Bottom","rt":null,"stimulus":"Stimuli_Rocks480/I_Basalt_08.png","response":null,"trial_type":"image-keyboard-response","trial_index":10,"plugin_version":"2.1.0","time_elapsed":204821,"subject_id":"91373","group":"Group2","condition":"1_Rep","full_date":"2026-03-14T16:15:02.651Z","date":"2026-03-14","time":"16:15:02"},{"rt":null,"stimulus":"<p style=\"font-size: 50px; margin: 0; text-align: center;\">+</p>","response":null,"trial_type":"html-keyboard-response","trial_index":11,"plugin_version":"2.1.0","time_elapsed":205823,"subject_id":"91373","group":"Group2","condition":"1_Rep","full_date":"2026-03-14T16:15:02.651Z","date":"2026-03-14","time":"16:15:02"},{"task":"memory_phase","broad_category":"I","image_png":"I_Pegmatite_03.png","image_id":99,"category_name":"Pegmatite","category":7,"distinct_rating":7.24,"distinct_type":"Top","rt":null,"stimulus":"Stimuli_Rocks480/I_Pegmatite_03.png","response":null,"trial_type":"image-keyboard-response","trial_index":12,"plugin_version":"2.1.0","time_elapsed":208339,"subject_id":"91373","group":"Group2","condition":"1_Rep","full_date":"2026-03-14T16:15:02.651Z","date":"2026-03-14","time":"16:15:02"},{"rt":null,"stimulus":"<p style=\"font-size: 50px; margin: 0; text-align: center;\">+</p>","response":null,"trial_type":"html-keyboard-response","trial_index":13,"plugin_version":"2.1.0","time_elapsed":209341,"subject_id":"91373","group":"Group2","condition":"1_Rep","full_date":"2026-03-14T16:15:02.651Z","date":"2026-03-14","time":"16:15:02"},{"task":"memory_phase","broad_category":"S","image_png":"S_Rock Salt_15.png","image_id":447,"category_name":"Rock Salt","category":28,"distinct_rating":7.79,"distinct_type":"Top","rt":null,"stimulus":"Stimuli_Rocks480/S_Rock Salt_15.png","response":null,"trial_type":"image-keyboard-response","trial_index":14,"plugin_version":"2.1.0","time_elapsed":211854,"subject_id":"91373","group":"Group2","condition":"1_Rep","full_date":"2026-03-14T16:15:02.651Z","date":"2026-03-14","time":"16:15:02"},{"rt":null,"stimulus":"<p style=\"font-size: 50px; margin: 0; text-align: center;\">+</p>","response":null,"trial_type":"html-keyboard-response","trial_index":15,"plugin_version":"2.1.0","time_elapsed":212856,"subject_id":"91373","group":"Group2","condition":"1_Rep","full_date":"2026-03-14T16:15:02.651Z","date":"2026-03-14","time":"16:15:02"},{"task":"memory_phase","broad_category":"S","image_png":"S_Shale_07.png","image_id":471,"category_name":"Shale","category":30,"distinct_rating":2.73,"distinct_type":"Bottom","rt":null,"stimulus":"Stimuli_Rocks480/S_Shale_07.png","response":null,"trial_type":"image-keyboard-response","trial_index":16,"plugin_version":"2.1.0","time_elapsed":215370,"subject_id":"91373","group":"Group2","condition":"1_Rep","full_date":"2026-03-14T16:15:02.651Z","date":"2026-03-14","time":"16:15:02"},{"rt":null,"stimulus":"<p style=\"font-size: 50px; margin: 0; text-align: center;\">+</p>","response":null,"trial_type":"html-keyboard-response","trial_index":17,"plugin_version":"2.1.0","time_elapsed":216372,"subject_id":"91373","group":"Group2","condition":"1_Rep","full_date":"2026-03-14T16:15:02.651Z","date":"2026-03-14","time":"16:15:02"},{"task":"memory_phase","broad_category":"I","image_png":"I_Rhyolite_08.png","image_id":152,"category_name":"Rhyolite","category":10,"distinct_rating":1.38,"distinct_type":"Bottom","rt":null,"stimulus":"Stimuli_Rocks480/I_Rhyolite_08.png","response":null,"trial_type":"image-keyboard-response","trial_index":18,"plugin_version":"2.1.0","time_elapsed":218887,"subject_id":"91373","group":"Group2","condition":"1_Rep","full_date":"2026-03-14T16:15:02.651Z","date":"2026-03-14","time":"16:15:02"},{"rt":null,"stimulus":"<p style=\"font-size: 50px; margin: 0; text-align: center;\">+</p>","response":null,"trial_type":"html-keyboard-response","trial_index":19,"plugin_version":"2.1.0","time_elapsed":219889,"subject_id":"91373","group":"Group2","condition":"1_Rep","full_date":"2026-03-14T16:15:02.651Z","date":"2026-03-14","time":"16:15:02"},{"task":"memory_phase","broad_category":"I","image_png":"I_Diorite_15.png","image_id":47,"category_name":"Diorite","category":3,"distinct_rating":3.05,"distinct_type":"Bottom","rt":null,"stimulus":"Stimuli_Rocks480/I_Diorite_15.png","response":null,"trial_type":"image-keyboard-response","trial_index":20,"plugin_version":"2.1.0","time_elapsed":222401,"subject_id":"91373","group":"Group2","condition":"1_Rep","full_date":"2026-03-14T16:15:02.651Z","date":"2026-03-14","time":"16:15:02"},{"rt":null,"stimulus":"<p style=\"font-size: 50px; margin: 0; text-align: center;\">+</p>","response":null,"trial_type":"html-keyboard-response","trial_index":21,"plugin_version":"2.1.0","time_elapsed":223404,"subject_id":"91373","group":"Group2","condition":"1_Rep","full_date":"2026-03-14T16:15:02.651Z","date":"2026-03-14","time":"16:15:02"},{"task":"memory_phase","broad_category":"M","image_png":"M_Quartzite_12.png","image_id":284,"category_name":"Quartzite","category":18,"distinct_rating":1.92,"distinct_type":"Bottom","rt":null,"stimulus":"Stimuli_Rocks480/M_Quartzite_12.png","response":null,"trial_type":"image-keyboard-response","trial_index":22,"plugin_version":"2.1.0","time_elapsed":225918,"subject_id":"91373","group":"Group2","condition":"1_Rep","full_date":"2026-03-14T16:15:02.651Z","date":"2026-03-14","time":"16:15:02"},{"rt":null,"stimulus":"<p style=\"font-size: 50px; margin: 0; text-align: center;\">+</p>","response":null,"trial_type":"html-keyboard-response","trial_index":23,"plugin_version":"2.1.0","time_elapsed":226920,"subject_id":"91373","group":"Group2","condition":"1_Rep","full_date":"2026-03-14T16:15:02.651Z","date":"2026-03-14","time":"16:15:02"},{"task":"memory_phase","broad_category":"S","image_png":"S_Sandstone_08.png","image_id":456,"category_name":"Sandstone","category":29,"distinct_rating":1.5,"distinct_type":"Bottom","rt":null,"stimulus":"Stimuli_Rocks480/S_Sandstone_08.png","response":null,"trial_type":"image-keyboard-response","trial_index":24,"plugin_version":"2.1.0","time_elapsed":229434,"subject_id":"91373","group":"Group2","condition":"1_Rep","full_date":"2026-03-14T16:15:02.651Z","date":"2026-03-14","time":"16:15:02"},{"rt":null,"stimulus":"<p style=\"font-size: 50px; margin: 0; text-align: center;\">+</p>","response":null,"trial_type":"html-keyboard-response","trial_index":25,"plugin_version":"2.1.0","time_elapsed":230436,"subject_id":"91373","group":"Group2","condition":"1_Rep","full_date":"2026-03-14T16:15:02.651Z","date":"2026-03-14","time":"16:15:02"},{"task":"memory_phase","broad_category":"M","image_png":"M_Marble_03.png","image_id":227,"category_name":"Marble","category":15,"distinct_rating":2.67,"distinct_type":"Bottom","rt":null,"stimulus":"Stimuli_Rocks480/M_Marble_03.png","response":null,"trial_type":"image-keyboard-response","trial_index":26,"plugin_version":"2.1.0","time_elapsed":232951,"subject_id":"91373","group":"Group2","condition":"1_Rep","full_date":"2026-03-14T16:15:02.651Z","date":"2026-03-14","time":"16:15:02"},{"rt":null,"stimulus":"<p style=\"font-size: 50px; margin: 0; text-align: center;\">+</p>","response":null,"trial_type":"html-keyboard-response","trial_index":27,"plugin_version":"2.1.0","time_elapsed":233953,"subject_id":"91373","group":"Group2","condition":"1_Rep","full_date":"2026-03-14T16:15:02.651Z","date":"2026-03-14","time":"16:15:02"},{"task":"memory_phase","broad_category":"M","image_png":"M_Gneiss_14.png","image_id":206,"category_name":"Gneiss","category":13,"distinct_rating":3.41,"distinct_type":"Bottom","rt":null,"stimulus":"Stimuli_Rocks480/M_Gneiss_14.png","response":null,"trial_type":"image-keyboard-response","trial_index":28,"plugin_version":"2.1.0","time_elapsed":236466,"subject_id":"91373","group":"Group2","condition":"1_Rep","full_date":"2026-03-14T16:15:02.651Z","date":"2026-03-14","time":"16:15:02"},{"rt":null,"stimulus":"<p style=\"font-size: 50px; margin: 0; text-align: center;\">+</p>","response":null,"trial_type":"html-keyboard-response","trial_index":29,"plugin_version":"2.1.0","time_elapsed":237468,"subject_id":"91373","group":"Group2","condition":"1_Rep","full_date":"2026-03-14T16:15:02.651Z","date":"2026-03-14","time":"16:15:02"},{"task":"memory_phase","broad_category":"S","image_png":"S_Sandstone_04.png","image_id":452,"category_name":"Sandstone","category":29,"distinct_rating":1.8,"distinct_type":"Bottom","rt":null,"stimulus":"Stimuli_Rocks480/S_Sandstone_04.png","response":null,"trial_type":"image-keyboard-response","trial_index":30,"plugin_version":"2.1.0","time_elapsed":239980,"subject_id":"91373","group":"Group2","condition":"1_Rep","full_date":"2026-03-14T16:15:02.651Z","date":"2026-03-14","time":"16:15:02"},{"rt":null,"stimulus":"<p style=\"font-size: 50px; margin: 0; text-align: center;\">+</p>","response":null,"trial_type":"html-keyboard-response","trial_index":31,"plugin_version":"2.1.0","time_elapsed":240983,"subject_id":"91373","group":"Group2","condition":"1_Rep","full_date":"2026-03-14T16:15:02.651Z","date":"2026-03-14","time":"16:15:02"},{"task":"memory_phase","broad_category":"I","image_png":"I_Obsidian_06.png","image_id":86,"category_name":"Obsidian","category":6,"distinct_rating":8.01,"distinct_type":"Top","rt":null,"stimulus":"Stimuli_Rocks480/I_Obsidian_06.png","response":null,"trial_type":"image-keyboard-response","trial_index":32,"plugin_version":"2.1.0","time_elapsed":243502,"subject_id":"91373","group":"Group2","condition":"1_Rep","full_date":"2026-03-14T16:15:02.651Z","date":"2026-03-14","time":"16:15:02"},{"rt":null,"stimulus":"<p style=\"font-size: 50px; margin: 0; text-align: center;\">+</p>","response":null,"trial_type":"html-keyboard-response","trial_index":33,"plugin_version":"2.1.0","time_elapsed":244505,"subject_id":"91373","group":"Group2","condition":"1_Rep","full_date":"2026-03-14T16:15:02.651Z","date":"2026-03-14","time":"16:15:02"},{"task":"memory_phase","broad_category":"I","image_png":"I_Basalt_10.png","image_id":26,"category_name":"Basalt","category":2,"distinct_rating":2.76,"distinct_type":"Bottom","rt":null,"stimulus":"Stimuli_Rocks480/I_Basalt_10.png","response":null,"trial_type":"image-keyboard-response","trial_index":34,"plugin_version":"2.1.0","time_elapsed":247019,"subject_id":"91373","group":"Group2","condition":"1_Rep","full_date":"2026-03-14T16:15:02.651Z","date":"2026-03-14","time":"16:15:02"},{"rt":null,"stimulus":"<p style=\"font-size: 50px; margin: 0; text-align: center;\">+</p>","response":null,"trial_type":"html-keyboard-response","trial_index":35,"plugin_version":"2.1.0","time_elapsed":248021,"subject_id":"91373","group":"Group2","condition":"1_Rep","full_date":"2026-03-14T16:15:02.651Z","date":"2026-03-14","time":"16:15:02"},{"task":"memory_phase","broad_category":"I","image_png":"I_Pumice_13.png","image_id":141,"category_name":"Pumice","category":9,"distinct_rating":3.12,"distinct_type":"Bottom","rt":null,"stimulus":"Stimuli_Rocks480/I_Pumice_13.png","response":null,"trial_type":"image-keyboard-response","trial_index":36,"plugin_version":"2.1.0","time_elapsed":250536,"subject_id":"91373","group":"Group2","condition":"1_Rep","full_date":"2026-03-14T16:15:02.651Z","date":"2026-03-14","time":"16:15:02"},{"rt":null,"stimulus":"<p style=\"font-size: 50px; margin: 0; text-align: center;\">+</p>","response":null,"trial_type":"html-keyboard-response","trial_index":37,"plugin_version":"2.1.0","time_elapsed":251538,"subject_id":"91373","group":"Group2","condition":"1_Rep","full_date":"2026-03-14T16:15:02.651Z","date":"2026-03-14","time":"16:15:02"},{"task":"memory_phase","broad_category":"I","image_png":"I_Andesite_04.png","image_id":4,"category_name":"Andesite","category":1,"distinct_rating":3.18,"distinct_type":"Bottom","rt":null,"stimulus":"Stimuli_Rocks480/I_Andesite_04.png","response":null,"trial_type":"image-keyboard-response","trial_index":38,"plugin_version":"2.1.0","time_elapsed":254052,"subject_id":"91373","group":"Group2","condition":"1_Rep","full_date":"2026-03-14T16:15:02.651Z","date":"2026-03-14","time":"16:15:02"},{"rt":null,"stimulus":"<p style=\"font-size: 50px; margin: 0; text-align: center;\">+</p>","response":null,"trial_type":"html-keyboard-response","trial_index":39,"plugin_version":"2.1.0","time_elapsed":255054,"subject_id":"91373","group":"Group2","condition":"1_Rep","full_date":"2026-03-14T16:15:02.651Z","date":"2026-03-14","time":"16:15:02"},{"task":"memory_phase","broad_category":"M","image_png":"M_Slate_04.png","image_id":308,"category_name":"Slate","category":20,"distinct_rating":2.2,"distinct_type":"Bottom","rt":null,"stimulus":"Stimuli_Rocks480/M_Slate_04.png","response":null,"trial_type":"image-keyboard-response","trial_index":40,"plugin_version":"2.1.0","time_elapsed":257565,"subject_id":"91373","group":"Group2","condition":"1_Rep","full_date":"2026-03-14T16:15:02.651Z","date":"2026-03-14","time":"16:15:02"},{"rt":null,"stimulus":"<p style=\"font-size: 50px; margin: 0; text-align: center;\">+</p>","response":null,"trial_type":"html-keyboard-response","trial_index":41,"plugin_version":"2.1.0","time_elapsed":258568,"subject_id":"91373","group":"Group2","condition":"1_Rep","full_date":"2026-03-14T16:15:02.651Z","date":"2026-03-14","time":"16:15:02"},{"task":"memory_phase","broad_category":"S","image_png":"S_Sandstone_11.png","image_id":459,"category_name":"Sandstone","category":29,"distinct_rating":1.82,"distinct_type":"Bottom","rt":null,"stimulus":"Stimuli_Rocks480/S_Sandstone_11.png","response":null,"trial_type":"image-keyboard-response","trial_index":42,"plugin_version":"2.1.0","time_elapsed":261086,"subject_id":"91373","group":"Group2","condition":"1_Rep","full_date":"2026-03-14T16:15:02.651Z","date":"2026-03-14","time":"16:15:02"},{"rt":null,"stimulus":"<p style=\"font-size: 50px; margin: 0; text-align: center;\">+</p>","response":null,"trial_type":"html-keyboard-response","trial_index":43,"plugin_version":"2.1.0","time_elapsed":262089,"subject_id":"91373","group":"Group2","condition":"1_Rep","full_date":"2026-03-14T16:15:02.651Z","date":"2026-03-14","time":"16:15:02"},{"task":"memory_phase","broad_category":"I","image_png":"I_Andesite_09.png","image_id":9,"category_name":"Andesite","category":1,"distinct_rating":2.49,"distinct_type":"Bottom","rt":null,"stimulus":"Stimuli_Rocks480/I_Andesite_09.png","response":null,"trial_type":"image-keyboard-response","trial_index":44,"plugin_version":"2.1.0","time_elapsed":264603,"subject_id":"91373","group":"Group2","condition":"1_Rep","full_date":"2026-03-14T16:15:02.651Z","date":"2026-03-14","time":"16:15:02"},{"rt":null,"stimulus":"<p style=\"font-size: 50px; margin: 0; text-align: center;\">+</p>","response":null,"trial_type":"html-keyboard-response","trial_index":45,"plugin_version":"2.1.0","time_elapsed":265605,"subject_id":"91373","group":"Group2","condition":"1_Rep","full_date":"2026-03-14T16:15:02.651Z","date":"2026-03-14","time":"16:15:02"},{"task":"memory_phase","broad_category":"I","image_png":"I_Gabbro_02.png","image_id":50,"category_name":"Gabbro","category":4,"distinct_rating":2.73,"distinct_type":"Bottom","rt":null,"stimulus":"Stimuli_Rocks480/I_Gabbro_02.png","response":null,"trial_type":"image-keyboard-response","trial_index":46,"plugin_version":"2.1.0","time_elapsed":268118,"subject_id":"91373","group":"Group2","condition":"1_Rep","full_date":"2026-03-14T16:15:02.651Z","date":"2026-03-14","time":"16:15:02"},{"rt":null,"stimulus":"<p style=\"font-size: 50px; margin: 0; text-align: center;\">+</p>","response":null,"trial_type":"html-keyboard-response","trial_index":47,"plugin_version":"2.1.0","time_elapsed":269120,"subject_id":"91373","group":"Group2","condition":"1_Rep","full_date":"2026-03-14T16:15:02.651Z","date":"2026-03-14","time":"16:15:02"},{"task":"memory_phase","broad_category":"S","image_png":"S_Rock Salt_13.png","image_id":445,"category_name":"Rock Salt","category":28,"distinct_rating":7.58,"distinct_type":"Top","rt":null,"stimulus":"Stimuli_Rocks480/S_Rock Salt_13.png","response":null,"trial_type":"image-keyboard-response","trial_index":48,"plugin_version":"2.1.0","time_elapsed":271636,"subject_id":"91373","group":"Group2","condition":"1_Rep","full_date":"2026-03-14T16:15:02.651Z","date":"2026-03-14","time":"16:15:02"},{"rt":null,"stimulus":"<p style=\"font-size: 50px; margin: 0; text-align: center;\">+</p>","response":null,"trial_type":"html-keyboard-response","trial_index":49,"plugin_version":"2.1.0","time_elapsed":272638,"subject_id":"91373","group":"Group2","condition":"1_Rep","full_date":"2026-03-14T16:15:02.651Z","date":"2026-03-14","time":"16:15:02"},{"task":"memory_phase","broad_category":"I","image_png":"I_Rhyolite_05.png","image_id":149,"category_name":"Rhyolite","category":10,"distinct_rating":3.02,"distinct_type":"Bottom","rt":null,"stimulus":"Stimuli_Rocks480/I_Rhyolite_05.png","response":null,"trial_type":"image-keyboard-response","trial_index":50,"plugin_version":"2.1.0","time_elapsed":275155,"subject_id":"91373","group":"Group2","condition":"1_Rep","full_date":"2026-03-14T16:15:02.651Z","date":"2026-03-14","time":"16:15:02"},{"rt":null,"stimulus":"<p style=\"font-size: 50px; margin: 0; text-align: center;\">+</p>","response":null,"trial_type":"html-keyboard-response","trial_index":51,"plugin_version":"2.1.0","time_elapsed":276157,"subject_id":"91373","group":"Group2","condition":"1_Rep","full_date":"2026-03-14T16:15:02.651Z","date":"2026-03-14","time":"16:15:02"},{"task":"memory_phase","broad_category":"I","image_png":"I_Basalt_13.png","image_id":29,"category_name":"Basalt","category":2,"distinct_rating":2.68,"distinct_type":"Bottom","rt":null,"stimulus":"Stimuli_Rocks480/I_Basalt_13.png","response":null,"trial_type":"image-keyboard-response","trial_index":52,"plugin_version":"2.1.0","time_elapsed":278672,"subject_id":"91373","group":"Group2","condition":"1_Rep","full_date":"2026-03-14T16:15:02.651Z","date":"2026-03-14","time":"16:15:02"},{"rt":null,"stimulus":"<p style=\"font-size: 50px; margin: 0; text-align: center;\">+</p>","response":null,"trial_type":"html-keyboard-response","trial_index":53,"plugin_version":"2.1.0","time_elapsed":279673,"subject_id":"91373","group":"Group2","condition":"1_Rep","full_date":"2026-03-14T16:15:02.651Z","date":"2026-03-14","time":"16:15:02"},{"task":"memory_phase","broad_category":"M","image_png":"M_Phyllite_05.png","image_id":261,"category_name":"Phyllite","category":17,"distinct_rating":2.14,"distinct_type":"Bottom","rt":null,"stimulus":"Stimuli_Rocks480/M_Phyllite_05.png","response":null,"trial_type":"image-keyboard-response","trial_index":54,"plugin_version":"2.1.0","time_elapsed":282186,"subject_id":"91373","group":"Group2","condition":"1_Rep","full_date":"2026-03-14T16:15:02.651Z","date":"2026-03-14","time":"16:15:02"},{"rt":1984,"stimulus":"<p style=\"max-width: 760px; margin: auto; font-size: 35px; line-height: 1.5;\">\n                Press SPACE to continue study phase\n              </p>","response":" ","trial_type":"html-keyboard-response","trial_index":55,"plugin_version":"2.1.0","time_elapsed":284172,"subject_id":"91373","group":"Group2","condition":"1_Rep","full_date":"2026-03-14T16:15:02.651Z","date":"2026-03-14","time":"16:15:02"},{"rt":null,"stimulus":"<p style=\"font-size: 50px; margin: 0; text-align: center;\">+</p>","response":null,"trial_type":"html-keyboard-response","trial_index":56,"plugin_version":"2.1.0","time_elapsed":285174,"subject_id":"91373","group":"Group2","condition":"1_Rep","full_date":"2026-03-14T16:15:02.651Z","date":"2026-03-14","time":"16:15:02"},{"task":"memory_phase","broad_category":"M","image_png":"M_Quartzite_15.png","image_id":287,"category_name":"Quartzite","category":18,"distinct_rating":2.19,"distinct_type":"Bottom","rt":null,"stimulus":"Stimuli_Rocks480/M_Quartzite_15.png","response":null,"trial_type":"image-keyboard-response","trial_index":57,"plugin_version":"2.1.0","time_elapsed":287691,"subject_id":"91373","group":"Group2","condition":"1_Rep","full_date":"2026-03-14T16:15:02.651Z","date":"2026-03-14","time":"16:15:02"},{"rt":null,"stimulus":"<p style=\"font-size: 50px; margin: 0; text-align: center;\">+</p>","response":null,"trial_type":"html-keyboard-response","trial_index":58,"plugin_version":"2.1.0","time_elapsed":288693,"subject_id":"91373","group":"Group2","condition":"1_Rep","full_date":"2026-03-14T16:15:02.651Z","date":"2026-03-14","time":"16:15:02"},{"task":"memory_phase","broad_category":"I","image_png":"I_Diorite_10.png","image_id":42,"category_name":"Diorite","category":3,"distinct_rating":2.84,"distinct_type":"Bottom","rt":null,"stimulus":"Stimuli_Rocks480/I_Diorite_10.png","response":null,"trial_type":"image-keyboard-response","trial_index":59,"plugin_version":"2.1.0","time_elapsed":291207,"subject_id":"91373","group":"Group2","condition":"1_Rep","full_date":"2026-03-14T16:15:02.651Z","date":"2026-03-14","time":"16:15:02"},{"rt":null,"stimulus":"<p style=\"font-size: 50px; margin: 0; text-align: center;\">+</p>","response":null,"trial_type":"html-keyboard-response","trial_index":60,"plugin_version":"2.1.0","time_elapsed":292209,"subject_id":"91373","group":"Group2","condition":"1_Rep","full_date":"2026-03-14T16:15:02.651Z","date":"2026-03-14","time":"16:15:02"},{"task":"memory_phase","broad_category":"M","image_png":"M_Marble_02.png","image_id":226,"category_name":"Marble","category":15,"distinct_rating":3.2,"distinct_type":"Bottom","rt":null,"stimulus":"Stimuli_Rocks480/M_Marble_02.png","response":null,"trial_type":"image-keyboard-response","trial_index":61,"plugin_version":"2.1.0","time_elapsed":294723,"subject_id":"91373","group":"Group2","condition":"1_Rep","full_date":"2026-03-14T16:15:02.651Z","date":"2026-03-14","time":"16:15:02"},{"rt":null,"stimulus":"<p style=\"font-size: 50px; margin: 0; text-align: center;\">+</p>","response":null,"trial_type":"html-keyboard-response","trial_index":62,"plugin_version":"2.1.0","time_elapsed":295725,"subject_id":"91373","group":"Group2","condition":"1_Rep","full_date":"2026-03-14T16:15:02.651Z","date":"2026-03-14","time":"16:15:02"},{"task":"memory_phase","broad_category":"S","image_png":"S_Chert_13.png","image_id":365,"category_name":"Chert","category":23,"distinct_rating":6.57,"distinct_type":"Top","rt":null,"stimulus":"Stimuli_Rocks480/S_Chert_13.png","response":null,"trial_type":"image-keyboard-response","trial_index":63,"plugin_version":"2.1.0","time_elapsed":298236,"subject_id":"91373","group":"Group2","condition":"1_Rep","full_date":"2026-03-14T16:15:02.651Z","date":"2026-03-14","time":"16:15:02"},{"rt":null,"stimulus":"<p style=\"font-size: 50px; margin: 0; text-align: center;\">+</p>","response":null,"trial_type":"html-keyboard-response","trial_index":64,"plugin_version":"2.1.0","time_elapsed":299238,"subject_id":"91373","group":"Group2","condition":"1_Rep","full_date":"2026-03-14T16:15:02.651Z","date":"2026-03-14","time":"16:15:02"},{"task":"memory_phase","broad_category":"M","image_png":"M_Phyllite_13.png","image_id":269,"category_name":"Phyllite","category":17,"distinct_rating":2.8,"distinct_type":"Bottom","rt":null,"stimulus":"Stimuli_Rocks480/M_Phyllite_13.png","response":null,"trial_type":"image-keyboard-response","trial_index":65,"plugin_version":"2.1.0","time_elapsed":301751,"subject_id":"91373","group":"Group2","condition":"1_Rep","full_date":"2026-03-14T16:15:02.651Z","date":"2026-03-14","time":"16:15:02"},{"rt":null,"stimulus":"<p style=\"font-size: 50px; margin: 0; text-align: center;\">+</p>","response":null,"trial_type":"html-keyboard-response","trial_index":66,"plugin_version":"2.1.0","time_elapsed":302754,"subject_id":"91373","group":"Group2","condition":"1_Rep","full_date":"2026-03-14T16:15:02.651Z","date":"2026-03-14","time":"16:15:02"},{"task":"memory_phase","broad_category":"I","image_png":"I_Diorite_01.png","image_id":33,"category_name":"Diorite","category":3,"distinct_rating":2.97,"distinct_type":"Bottom","rt":null,"stimulus":"Stimuli_Rocks480/I_Diorite_01.png","response":null,"trial_type":"image-keyboard-response","trial_index":67,"plugin_version":"2.1.0","time_elapsed":305271,"subject_id":"91373","group":"Group2","condition":"1_Rep","full_date":"2026-03-14T16:15:02.651Z","date":"2026-03-14","time":"16:15:02"},{"rt":null,"stimulus":"<p style=\"font-size: 50px; margin: 0; text-align: center;\">+</p>","response":null,"trial_type":"html-keyboard-response","trial_index":68,"plugin_version":"2.1.0","time_elapsed":306273,"subject_id":"91373","group":"Group2","condition":"1_Rep","full_date":"2026-03-14T16:15:02.651Z","date":"2026-03-14","time":"16:15:02"},{"task":"memory_phase","broad_category":"I","image_png":"I_Gabbro_12.png","image_id":60,"category_name":"Gabbro","category":4,"distinct_rating":2.6,"distinct_type":"Bottom","rt":null,"stimulus":"Stimuli_Rocks480/I_Gabbro_12.png","response":null,"trial_type":"image-keyboard-response","trial_index":69,"plugin_version":"2.1.0","time_elapsed":308790,"subject_id":"91373","group":"Group2","condition":"1_Rep","full_date":"2026-03-14T16:15:02.651Z","date":"2026-03-14","time":"16:15:02"},{"rt":null,"stimulus":"<p style=\"font-size: 50px; margin: 0; text-align: center;\">+</p>","response":null,"trial_type":"html-keyboard-response","trial_index":70,"plugin_version":"2.1.0","time_elapsed":309792,"subject_id":"91373","group":"Group2","condition":"1_Rep","full_date":"2026-03-14T16:15:02.651Z","date":"2026-03-14","time":"16:15:02"},{"task":"memory_phase","broad_category":"I","image_png":"I_Andesite_03.png","image_id":3,"category_name":"Andesite","category":1,"distinct_rating":3.17,"distinct_type":"Bottom","rt":null,"stimulus":"Stimuli_Rocks480/I_Andesite_03.png","response":null,"trial_type":"image-keyboard-response","trial_index":71,"plugin_version":"2.1.0","time_elapsed":312303,"subject_id":"91373","group":"Group2","condition":"1_Rep","full_date":"2026-03-14T16:15:02.651Z","date":"2026-03-14","time":"16:15:02"},{"rt":null,"stimulus":"<p style=\"font-size: 50px; margin: 0; text-align: center;\">+</p>","response":null,"trial_type":"html-keyboard-response","trial_index":72,"plugin_version":"2.1.0","time_elapsed":313305,"subject_id":"91373","group":"Group2","condition":"1_Rep","full_date":"2026-03-14T16:15:02.651Z","date":"2026-03-14","time":"16:15:02"},{"task":"memory_phase","broad_category":"M","image_png":"M_Quartzite_07.png","image_id":279,"category_name":"Quartzite","category":18,"distinct_rating":1.97,"distinct_type":"Bottom","rt":null,"stimulus":"Stimuli_Rocks480/M_Quartzite_07.png","response":null,"trial_type":"image-keyboard-response","trial_index":73,"plugin_version":"2.1.0","time_elapsed":315821,"subject_id":"91373","group":"Group2","condition":"1_Rep","full_date":"2026-03-14T16:15:02.651Z","date":"2026-03-14","time":"16:15:02"},{"rt":null,"stimulus":"<p style=\"font-size: 50px; margin: 0; text-align: center;\">+</p>","response":null,"trial_type":"html-keyboard-response","trial_index":74,"plugin_version":"2.1.0","time_elapsed":316823,"subject_id":"91373","group":"Group2","condition":"1_Rep","full_date":"2026-03-14T16:15:02.651Z","date":"2026-03-14","time":"16:15:02"},{"task":"memory_phase","broad_category":"M","image_png":"M_Marble_14.png","image_id":238,"category_name":"Marble","category":15,"distinct_rating":3.31,"distinct_type":"Bottom","rt":null,"stimulus":"Stimuli_Rocks480/M_Marble_14.png","response":null,"trial_type":"image-keyboard-response","trial_index":75,"plugin_version":"2.1.0","time_elapsed":319338,"subject_id":"91373","group":"Group2","condition":"1_Rep","full_date":"2026-03-14T16:15:02.651Z","date":"2026-03-14","time":"16:15:02"},{"rt":null,"stimulus":"<p style=\"font-size: 50px; margin: 0; text-align: center;\">+</p>","response":null,"trial_type":"html-keyboard-response","trial_index":76,"plugin_version":"2.1.0","time_elapsed":320340,"subject_id":"91373","group":"Group2","condition":"1_Rep","full_date":"2026-03-14T16:15:02.651Z","date":"2026-03-14","time":"16:15:02"},{"task":"memory_phase","broad_category":"M","image_png":"M_Slate_14.png","image_id":318,"category_name":"Slate","category":20,"distinct_rating":2.58,"distinct_type":"Bottom","rt":null,"stimulus":"Stimuli_Rocks480/M_Slate_14.png","response":null,"trial_type":"image-keyboard-response","trial_index":77,"plugin_version":"2.1.0","time_elapsed":322852,"subject_id":"91373","group":"Group2","condition":"1_Rep","full_date":"2026-03-14T16:15:02.651Z","date":"2026-03-14","time":"16:15:02"},{"rt":null,"stimulus":"<p style=\"font-size: 50px; margin: 0; text-align: center;\">+</p>","response":null,"trial_type":"html-keyboard-response","trial_index":78,"plugin_version":"2.1.0","time_elapsed":323854,"subject_id":"91373","group":"Group2","condition":"1_Rep","full_date":"2026-03-14T16:15:02.651Z","date":"2026-03-14","time":"16:15:02"},{"task":"memory_phase","broad_category":"M","image_png":"M_Gneiss_15.png","image_id":207,"category_name":"Gneiss","category":13,"distinct_rating":3.11,"distinct_type":"Bottom","rt":null,"stimulus":"Stimuli_Rocks480/M_Gneiss_15.png","response":null,"trial_type":"image-keyboard-response","trial_index":79,"plugin_version":"2.1.0","time_elapsed":326366,"subject_id":"91373","group":"Group2","condition":"1_Rep","full_date":"2026-03-14T16:15:02.651Z","date":"2026-03-14","time":"16:15:02"},{"rt":null,"stimulus":"<p style=\"font-size: 50px; margin: 0; text-align: center;\">+</p>","response":null,"trial_type":"html-keyboard-response","trial_index":80,"plugin_version":"2.1.0","time_elapsed":327369,"subject_id":"91373","group":"Group2","condition":"1_Rep","full_date":"2026-03-14T16:15:02.651Z","date":"2026-03-14","time":"16:15:02"},{"task":"memory_phase","broad_category":"M","image_png":"M_Slate_10.png","image_id":314,"category_name":"Slate","category":20,"distinct_rating":1.94,"distinct_type":"Bottom","rt":null,"stimulus":"Stimuli_Rocks480/M_Slate_10.png","response":null,"trial_type":"image-keyboard-response","trial_index":81,"plugin_version":"2.1.0","time_elapsed":329879,"subject_id":"91373","group":"Group2","condition":"1_Rep","full_date":"2026-03-14T16:15:02.651Z","date":"2026-03-14","time":"16:15:02"},{"rt":null,"stimulus":"<p style=\"font-size: 50px; margin: 0; text-align: center;\">+</p>","response":null,"trial_type":"html-keyboard-response","trial_index":82,"plugin_version":"2.1.0","time_elapsed":330881,"subject_id":"91373","group":"Group2","condition":"1_Rep","full_date":"2026-03-14T16:15:02.651Z","date":"2026-03-14","time":"16:15:02"},{"task":"memory_phase","broad_category":"M","image_png":"M_Phyllite_02.png","image_id":258,"category_name":"Phyllite","category":17,"distinct_rating":2.89,"distinct_type":"Bottom","rt":null,"stimulus":"Stimuli_Rocks480/M_Phyllite_02.png","response":null,"trial_type":"image-keyboard-response","trial_index":83,"plugin_version":"2.1.0","time_elapsed":333397,"subject_id":"91373","group":"Group2","condition":"1_Rep","full_date":"2026-03-14T16:15:02.651Z","date":"2026-03-14","time":"16:15:02"},{"rt":null,"stimulus":"<p style=\"font-size: 50px; margin: 0; text-align: center;\">+</p>","response":null,"trial_type":"html-keyboard-response","trial_index":84,"plugin_version":"2.1.0","time_elapsed":334399,"subject_id":"91373","group":"Group2","condition":"1_Rep","full_date":"2026-03-14T16:15:02.651Z","date":"2026-03-14","time":"16:15:02"},{"task":"memory_phase","broad_category":"M","image_png":"M_Gneiss_10.png","image_id":202,"category_name":"Gneiss","category":13,"distinct_rating":3.09,"distinct_type":"Bottom","rt":null,"stimulus":"Stimuli_Rocks480/M_Gneiss_10.png","response":null,"trial_type":"image-keyboard-response","trial_index":85,"plugin_version":"2.1.0","time_elapsed":336916,"subject_id":"91373","group":"Group2","condition":"1_Rep","full_date":"2026-03-14T16:15:02.651Z","date":"2026-03-14","time":"16:15:02"},{"rt":null,"stimulus":"<p style=\"font-size: 50px; margin: 0; text-align: center;\">+</p>","response":null,"trial_type":"html-keyboard-response","trial_index":86,"plugin_version":"2.1.0","time_elapsed":337918,"subject_id":"91373","group":"Group2","condition":"1_Rep","full_date":"2026-03-14T16:15:02.651Z","date":"2026-03-14","time":"16:15:02"},{"task":"memory_phase","broad_category":"S","image_png":"S_Shale_02.png","image_id":466,"category_name":"Shale","category":30,"distinct_rating":2.9,"distinct_type":"Bottom","rt":null,"stimulus":"Stimuli_Rocks480/S_Shale_02.png","response":null,"trial_type":"image-keyboard-response","trial_index":87,"plugin_version":"2.1.0","time_elapsed":340431,"subject_id":"91373","group":"Group2","condition":"1_Rep","full_date":"2026-03-14T16:15:02.651Z","date":"2026-03-14","time":"16:15:02"},{"rt":null,"stimulus":"<p style=\"font-size: 50px; margin: 0; text-align: center;\">+</p>","response":null,"trial_type":"html-keyboard-response","trial_index":88,"plugin_version":"2.1.0","time_elapsed":341433,"subject_id":"91373","group":"Group2","condition":"1_Rep","full_date":"2026-03-14T16:15:02.651Z","date":"2026-03-14","time":"16:15:02"},{"task":"memory_phase","broad_category":"I","image_png":"I_Pegmatite_11.png","image_id":107,"category_name":"Pegmatite","category":7,"distinct_rating":7.11,"distinct_type":"Top","rt":null,"stimulus":"Stimuli_Rocks480/I_Pegmatite_11.png","response":null,"trial_type":"image-keyboard-response","trial_index":89,"plugin_version":"2.1.0","time_elapsed":343953,"subject_id":"91373","group":"Group2","condition":"1_Rep","full_date":"2026-03-14T16:15:02.651Z","date":"2026-03-14","time":"16:15:02"},{"rt":null,"stimulus":"<p style=\"font-size: 50px; margin: 0; text-align: center;\">+</p>","response":null,"trial_type":"html-keyboard-response","trial_index":90,"plugin_version":"2.1.0","time_elapsed":344955,"subject_id":"91373","group":"Group2","condition":"1_Rep","full_date":"2026-03-14T16:15:02.651Z","date":"2026-03-14","time":"16:15:02"},{"task":"memory_phase","broad_category":"I","image_png":"I_Pumice_14.png","image_id":142,"category_name":"Pumice","category":9,"distinct_rating":3.22,"distinct_type":"Bottom","rt":null,"stimulus":"Stimuli_Rocks480/I_Pumice_14.png","response":null,"trial_type":"image-keyboard-response","trial_index":91,"plugin_version":"2.1.0","time_elapsed":347470,"subject_id":"91373","group":"Group2","condition":"1_Rep","full_date":"2026-03-14T16:15:02.651Z","date":"2026-03-14","time":"16:15:02"},{"rt":null,"stimulus":"<p style=\"font-size: 50px; margin: 0; text-align: center;\">+</p>","response":null,"trial_type":"html-keyboard-response","trial_index":92,"plugin_version":"2.1.0","time_elapsed":348471,"subject_id":"91373","group":"Group2","condition":"1_Rep","full_date":"2026-03-14T16:15:02.651Z","date":"2026-03-14","time":"16:15:02"},{"task":"memory_phase","broad_category":"I","image_png":"I_Rhyolite_10.png","image_id":154,"category_name":"Rhyolite","category":10,"distinct_rating":2.88,"distinct_type":"Bottom","rt":null,"stimulus":"Stimuli_Rocks480/I_Rhyolite_10.png","response":null,"trial_type":"image-keyboard-response","trial_index":93,"plugin_version":"2.1.0","time_elapsed":350994,"subject_id":"91373","group":"Group2","condition":"1_Rep","full_date":"2026-03-14T16:15:02.651Z","date":"2026-03-14","time":"16:15:02"},{"rt":null,"stimulus":"<p style=\"font-size: 50px; margin: 0; text-align: center;\">+</p>","response":null,"trial_type":"html-keyboard-response","trial_index":94,"plugin_version":"2.1.0","time_elapsed":351997,"subject_id":"91373","group":"Group2","condition":"1_Rep","full_date":"2026-03-14T16:15:02.651Z","date":"2026-03-14","time":"16:15:02"},{"task":"memory_phase","broad_category":"S","image_png":"S_Shale_03.png","image_id":467,"category_name":"Shale","category":30,"distinct_rating":1.95,"distinct_type":"Bottom","rt":null,"stimulus":"Stimuli_Rocks480/S_Shale_03.png","response":null,"trial_type":"image-keyboard-response","trial_index":95,"plugin_version":"2.1.0","time_elapsed":354514,"subject_id":"91373","group":"Group2","condition":"1_Rep","full_date":"2026-03-14T16:15:02.651Z","date":"2026-03-14","time":"16:15:02"},{"rt":null,"stimulus":"<p style=\"font-size: 50px; margin: 0; text-align: center;\">+</p>","response":null,"trial_type":"html-keyboard-response","trial_index":96,"plugin_version":"2.1.0","time_elapsed":355516,"subject_id":"91373","group":"Group2","condition":"1_Rep","full_date":"2026-03-14T16:15:02.651Z","date":"2026-03-14","time":"16:15:02"},{"task":"memory_phase","broad_category":"S","image_png":"S_Dolomite_01.png","image_id":385,"category_name":"Dolomite","category":25,"distinct_rating":1.43,"distinct_type":"Bottom","rt":null,"stimulus":"Stimuli_Rocks480/S_Dolomite_01.png","response":null,"trial_type":"image-keyboard-response","trial_index":97,"plugin_version":"2.1.0","time_elapsed":358034,"subject_id":"91373","group":"Group2","condition":"1_Rep","full_date":"2026-03-14T16:15:02.651Z","date":"2026-03-14","time":"16:15:02"},{"rt":null,"stimulus":"<p style=\"font-size: 50px; margin: 0; text-align: center;\">+</p>","response":null,"trial_type":"html-keyboard-response","trial_index":98,"plugin_version":"2.1.0","time_elapsed":359035,"subject_id":"91373","group":"Group2","condition":"1_Rep","full_date":"2026-03-14T16:15:02.651Z","date":"2026-03-14","time":"16:15:02"},{"task":"memory_phase","broad_category":"I","image_png":"I_Gabbro_14.png","image_id":62,"category_name":"Gabbro","category":4,"distinct_rating":2.95,"distinct_type":"Bottom","rt":null,"stimulus":"Stimuli_Rocks480/I_Gabbro_14.png","response":null,"trial_type":"image-keyboard-response","trial_index":99,"plugin_version":"2.1.0","time_elapsed":361552,"subject_id":"91373","group":"Group2","condition":"1_Rep","full_date":"2026-03-14T16:15:02.651Z","date":"2026-03-14","time":"16:15:02"},{"rt":null,"stimulus":"<p style=\"font-size: 50px; margin: 0; text-align: center;\">+</p>","response":null,"trial_type":"html-keyboard-response","trial_index":100,"plugin_version":"2.1.0","time_elapsed":362554,"subject_id":"91373","group":"Group2","condition":"1_Rep","full_date":"2026-03-14T16:15:02.651Z","date":"2026-03-14","time":"16:15:02"},{"task":"memory_phase","broad_category":"S","image_png":"S_Dolomite_16.png","image_id":400,"category_name":"Dolomite","category":25,"distinct_rating":1.71,"distinct_type":"Bottom","rt":null,"stimulus":"Stimuli_Rocks480/S_Dolomite_16.png","response":null,"trial_type":"image-keyboard-response","trial_index":101,"plugin_version":"2.1.0","time_elapsed":365068,"subject_id":"91373","group":"Group2","condition":"1_Rep","full_date":"2026-03-14T16:15:02.651Z","date":"2026-03-14","time":"16:15:02"},{"rt":null,"stimulus":"<p style=\"font-size: 50px; margin: 0; text-align: center;\">+</p>","response":null,"trial_type":"html-keyboard-response","trial_index":102,"plugin_version":"2.1.0","time_elapsed":366069,"subject_id":"91373","group":"Group2","condition":"1_Rep","full_date":"2026-03-14T16:15:02.651Z","date":"2026-03-14","time":"16:15:02"},{"task":"memory_phase","broad_category":"S","image_png":"S_Conglomerate_14.png","image_id":382,"category_name":"Conglomerate","category":24,"distinct_rating":6.86,"distinct_type":"Top","rt":null,"stimulus":"Stimuli_Rocks480/S_Conglomerate_14.png","response":null,"trial_type":"image-keyboard-response","trial_index":103,"plugin_version":"2.1.0","time_elapsed":368583,"subject_id":"91373","group":"Group2","condition":"1_Rep","full_date":"2026-03-14T16:15:02.651Z","date":"2026-03-14","time":"16:15:02"},{"rt":null,"stimulus":"<p style=\"font-size: 50px; margin: 0; text-align: center;\">+</p>","response":null,"trial_type":"html-keyboard-response","trial_index":104,"plugin_version":"2.1.0","time_elapsed":369585,"subject_id":"91373","group":"Group2","condition":"1_Rep","full_date":"2026-03-14T16:15:02.651Z","date":"2026-03-14","time":"16:15:02"},{"task":"memory_phase","broad_category":"I","image_png":"I_Peridotite_13.png","image_id":125,"category_name":"Peridotite","category":8,"distinct_rating":7.28,"distinct_type":"Top","rt":null,"stimulus":"Stimuli_Rocks480/I_Peridotite_13.png","response":null,"trial_type":"image-keyboard-response","trial_index":105,"plugin_version":"2.1.0","time_elapsed":372102,"subject_id":"91373","group":"Group2","condition":"1_Rep","full_date":"2026-03-14T16:15:02.651Z","date":"2026-03-14","time":"16:15:02"},{"rt":26288,"stimulus":"<div style=\"max-width: 760px; margin: auto; font-size: 20px; line-height: 1.5;\">\n      <h1 style=\"text-align:center; font-size: 30px;\">Instructions for the Test Phase</h1>\n      <p>\n        The study phase is now complete.\n      </p>\n      <p>\n        In the test phase, you will again see a series of rock images. \n        Some will be ones you saw before - during the study phase, while others will be new.  \n        <b>Your task</b> is to decide whether you have seen each image before by pressing the corresponding key on your keyboard:<br><br>\n          <b>A</b> - NO (you did not see this image before)<br>\n          <b>L</b> - YES (you saw this image before)<br><br>\n        The test will proceed at your own pace. You will receive feedback after each response.  \n        Please try to respond <b>as accurately as possible</b>.\n      </p>\n      <p>\n        <b>Reminder:</b> If your computer has multiple language settings (e.g., English and another language),\n        please ensure it is set to English during the test phase.\n      </p>\n      <p>\n        You can track your progress using the <b>completion bar</b> at the top of the screen.  \n        Note that it has been refreshed to reflect your progress during this final phase.\n      </p>\n      <p>\n        Press the button below when you are ready to continue.\n      </p>\n    </div>","response":0,"trial_type":"html-button-response","trial_index":106,"plugin_version":"2.1.0","time_elapsed":398392,"subject_id":"91373","group":"Group2","condition":"1_Rep","full_date":"2026-03-14T16:15:02.651Z","date":"2026-03-14","time":"16:15:02"},{"correct_response":"a","task":"test_phase","broad_category":"M","image_png":"M_Slate_11.png","image_id":315,"category_name":"Slate","category":20,"distinct_rating":2.75,"distinct_type":"Bottom","item_type":"Foil","rt":2546,"stimulus":"Stimuli_Rocks480/M_Slate_11.png","response":"l","trial_type":"image-keyboard-response","trial_index":107,"plugin_version":"2.1.0","time_elapsed":400950,"subject_id":"91373","group":"Group2","condition":"1_Rep","full_date":"2026-03-14T16:15:02.651Z","date":"2026-03-14","time":"16:15:02","cor_ans":false},{"trial_type":"html-keyboard-response","rt":null,"stimulus":"<p style=\"color: red; font-size: 50px; font-weight: bold;\">Incorrect</p>","response":null,"trial_index":108,"plugin_version":"2.1.0","time_elapsed":401452,"subject_id":"91373","group":"Group2","condition":"1_Rep","full_date":"2026-03-14T16:15:02.651Z","date":"2026-03-14","time":"16:15:02"},{"correct_response":"a","task":"test_phase","broad_category":"I","image_png":"I_Pumice_12.png","image_id":140,"category_name":"Pumice","category":9,"distinct_rating":2.97,"distinct_type":"Bottom","item_type":"Foil","rt":2264,"stimulus":"Stimuli_Rocks480/I_Pumice_12.png","response":"a","trial_type":"image-keyboard-response","trial_index":109,"plugin_version":"2.1.0","time_elapsed":403727,"subject_id":"91373","group":"Group2","condition":"1_Rep","full_date":"2026-03-14T16:15:02.651Z","date":"2026-03-14","time":"16:15:02","cor_ans":true},{"trial_type":"html-keyboard-response","rt":null,"stimulus":"<p style=\"color: green; font-size: 50px; font-weight: bold;\">Correct</p>","response":null,"trial_index":110,"plugin_version":"2.1.0","time_elapsed":404229,"subject_id":"91373","group":"Group2","condition":"1_Rep","full_date":"2026-03-14T16:15:02.651Z","date":"2026-03-14","time":"16:15:02"},{"correct_response":"a","task":"test_phase","broad_category":"S","image_png":"S_Dolomite_13.png","image_id":397,"category_name":"Dolomite","category":25,"distinct_rating":1.77,"distinct_type":"Bottom","item_type":"Foil","rt":897,"stimulus":"Stimuli_Rocks480/S_Dolomite_13.png","response":"l","trial_type":"image-keyboard-response","trial_index":111,"plugin_version":"2.1.0","time_elapsed":405140,"subject_id":"91373","group":"Group2","condition":"1_Rep","full_date":"2026-03-14T16:15:02.651Z","date":"2026-03-14","time":"16:15:02","cor_ans":false},{"trial_type":"html-keyboard-response","rt":null,"stimulus":"<p style=\"color: red; font-size: 50px; font-weight: bold;\">Incorrect</p>","response":null,"trial_index":112,"plugin_version":"2.1.0","time_elapsed":405642,"subject_id":"91373","group":"Group2","condition":"1_Rep","full_date":"2026-03-14T16:15:02.651Z","date":"2026-03-14","time":"16:15:02"},{"correct_response":"a","task":"test_phase","broad_category":"M","image_png":"M_Phyllite_10.png","image_id":266,"category_name":"Phyllite","category":17,"distinct_rating":2.6,"distinct_type":"Bottom","item_type":"Foil","rt":4402,"stimulus":"Stimuli_Rocks480/M_Phyllite_10.png","response":"a","trial_type":"image-keyboard-response","trial_index":113,"plugin_version":"2.1.0","time_elapsed":410055,"subject_id":"91373","group":"Group2","condition":"1_Rep","full_date":"2026-03-14T16:15:02.651Z","date":"2026-03-14","time":"16:15:02","cor_ans":true},{"trial_type":"html-keyboard-response","rt":null,"stimulus":"<p style=\"color: green; font-size: 50px; font-weight: bold;\">Correct</p>","response":null,"trial_index":114,"plugin_version":"2.1.0","time_elapsed":410558,"subject_id":"91373","group":"Group2","condition":"1_Rep","full_date":"2026-03-14T16:15:02.651Z","date":"2026-03-14","time":"16:15:02"},{"correct_response":"l","task":"test_phase","broad_category":"S","image_png":"S_Rock Salt_13.png","image_id":445,"category_name":"Rock Salt","category":28,"distinct_rating":7.58,"distinct_type":"Top","item_type":"Target","rt":976,"stimulus":"Stimuli_Rocks480/S_Rock Salt_13.png","response":"l","trial_type":"image-keyboard-response","trial_index":115,"plugin_version":"2.1.0","time_elapsed":411548,"subject_id":"91373","group":"Group2","condition":"1_Rep","full_date":"2026-03-14T16:15:02.651Z","date":"2026-03-14","time":"16:15:02","cor_ans":true},{"trial_type":"html-keyboard-response","rt":null,"stimulus":"<p style=\"color: green; font-size: 50px; font-weight: bold;\">Correct</p>","response":null,"trial_index":116,"plugin_version":"2.1.0","time_elapsed":412051,"subject_id":"91373","group":"Group2","condition":"1_Rep","full_date":"2026-03-14T16:15:02.651Z","date":"2026-03-14","time":"16:15:02"},{"correct_response":"a","task":"test_phase","broad_category":"I","image_png":"I_Andesite_10.png","image_id":10,"category_name":"Andesite","category":1,"distinct_rating":3.15,"distinct_type":"Bottom","item_type":"Foil","rt":1247,"stimulus":"Stimuli_Rocks480/I_Andesite_10.png","response":"a","trial_type":"image-keyboard-response","trial_index":117,"plugin_version":"2.1.0","time_elapsed":413307,"subject_id":"91373","group":"Group2","condition":"1_Rep","full_date":"2026-03-14T16:15:02.651Z","date":"2026-03-14","time":"16:15:02","cor_ans":true},{"trial_type":"html-keyboard-response","rt":null,"stimulus":"<p style=\"color: green; font-size: 50px; font-weight: bold;\">Correct</p>","response":null,"trial_index":118,"plugin_version":"2.1.0","time_elapsed":413810,"subject_id":"91373","group":"Group2","condition":"1_Rep","full_date":"2026-03-14T16:15:02.651Z","date":"2026-03-14","time":"16:15:02"},{"correct_response":"a","task":"test_phase","broad_category":"I","image_png":"I_Pegmatite_10.png","image_id":106,"category_name":"Pegmatite","category":7,"distinct_rating":7.66,"distinct_type":"Top","item_type":"Foil","rt":792,"stimulus":"Stimuli_Rocks480/I_Pegmatite_10.png","response":"a","trial_type":"image-keyboard-response","trial_index":119,"plugin_version":"2.1.0","time_elapsed":414614,"subject_id":"91373","group":"Group2","condition":"1_Rep","full_date":"2026-03-14T16:15:02.651Z","date":"2026-03-14","time":"16:15:02","cor_ans":true},{"trial_type":"html-keyboard-response","rt":null,"stimulus":"<p style=\"color: green; font-size: 50px; font-weight: bold;\">Correct</p>","response":null,"trial_index":120,"plugin_version":"2.1.0","time_elapsed":415116,"subject_id":"91373","group":"Group2","condition":"1_Rep","full_date":"2026-03-14T16:15:02.651Z","date":"2026-03-14","time":"16:15:02"},{"correct_response":"a","task":"test_phase","broad_category":"S","image_png":"S_Conglomerate_05.png","image_id":373,"category_name":"Conglomerate","category":24,"distinct_rating":7.32,"distinct_type":"Top","item_type":"Foil","rt":867,"stimulus":"Stimuli_Rocks480/S_Conglomerate_05.png","response":"a","trial_type":"image-keyboard-response","trial_index":121,"plugin_version":"2.1.0","time_elapsed":415997,"subject_id":"91373","group":"Group2","condition":"1_Rep","full_date":"2026-03-14T16:15:02.651Z","date":"2026-03-14","time":"16:15:02","cor_ans":true},{"trial_type":"html-keyboard-response","rt":null,"stimulus":"<p style=\"color: green; font-size: 50px; font-weight: bold;\">Correct</p>","response":null,"trial_index":122,"plugin_version":"2.1.0","time_elapsed":416499,"subject_id":"91373","group":"Group2","condition":"1_Rep","full_date":"2026-03-14T16:15:02.651Z","date":"2026-03-14","time":"16:15:02"},{"correct_response":"l","task":"test_phase","broad_category":"M","image_png":"M_Marble_14.png","image_id":238,"category_name":"Marble","category":15,"distinct_rating":3.31,"distinct_type":"Bottom","item_type":"Target","rt":863,"stimulus":"Stimuli_Rocks480/M_Marble_14.png","response":"l","trial_type":"image-keyboard-response","trial_index":123,"plugin_version":"2.1.0","time_elapsed":417375,"subject_id":"91373","group":"Group2","condition":"1_Rep","full_date":"2026-03-14T16:15:02.651Z","date":"2026-03-14","time":"16:15:02","cor_ans":true},{"trial_type":"html-keyboard-response","rt":null,"stimulus":"<p style=\"color: green; font-size: 50px; font-weight: bold;\">Correct</p>","response":null,"trial_index":124,"plugin_version":"2.1.0","time_elapsed":417877,"subject_id":"91373","group":"Group2","condition":"1_Rep","full_date":"2026-03-14T16:15:02.651Z","date":"2026-03-14","time":"16:15:02"},{"correct_response":"l","task":"test_phase","broad_category":"I","image_png":"I_Gabbro_02.png","image_id":50,"category_name":"Gabbro","category":4,"distinct_rating":2.73,"distinct_type":"Bottom","item_type":"Target","rt":858,"stimulus":"Stimuli_Rocks480/I_Gabbro_02.png","response":"l","trial_type":"image-keyboard-response","trial_index":125,"plugin_version":"2.1.0","time_elapsed":418748,"subject_id":"91373","group":"Group2","condition":"1_Rep","full_date":"2026-03-14T16:15:02.651Z","date":"2026-03-14","time":"16:15:02","cor_ans":true},{"trial_type":"html-keyboard-response","rt":null,"stimulus":"<p style=\"color: green; font-size: 50px; font-weight: bold;\">Correct</p>","response":null,"trial_index":126,"plugin_version":"2.1.0","time_elapsed":419250,"subject_id":"91373","group":"Group2","condition":"1_Rep","full_date":"2026-03-14T16:15:02.651Z","date":"2026-03-14","time":"16:15:02"},{"correct_response":"l","task":"test_phase","broad_category":"M","image_png":"M_Marble_02.png","image_id":226,"category_name":"Marble","category":15,"distinct_rating":3.2,"distinct_type":"Bottom","item_type":"Target","rt":795,"stimulus":"Stimuli_Rocks480/M_Marble_02.png","response":"l","trial_type":"image-keyboard-response","trial_index":127,"plugin_version":"2.1.0","time_elapsed":420058,"subject_id":"91373","group":"Group2","condition":"1_Rep","full_date":"2026-03-14T16:15:02.651Z","date":"2026-03-14","time":"16:15:02","cor_ans":true},{"trial_type":"html-keyboard-response","rt":null,"stimulus":"<p style=\"color: green; font-size: 50px; font-weight: bold;\">Correct</p>","response":null,"trial_index":128,"plugin_version":"2.1.0","time_elapsed":420559,"subject_id":"91373","group":"Group2","condition":"1_Rep","full_date":"2026-03-14T16:15:02.651Z","date":"2026-03-14","time":"16:15:02"},{"correct_response":"l","task":"test_phase","broad_category":"S","image_png":"S_Conglomerate_14.png","image_id":382,"category_name":"Conglomerate","category":24,"distinct_rating":6.86,"distinct_type":"Top","item_type":"Target","rt":790,"stimulus":"Stimuli_Rocks480/S_Conglomerate_14.png","response":"l","trial_type":"image-keyboard-response","trial_index":129,"plugin_version":"2.1.0","time_elapsed":421352,"subject_id":"91373","group":"Group2","condition":"1_Rep","full_date":"2026-03-14T16:15:02.651Z","date":"2026-03-14","time":"16:15:02","cor_ans":true},{"trial_type":"html-keyboard-response","rt":null,"stimulus":"<p style=\"color: green; font-size: 50px; font-weight: bold;\">Correct</p>","response":null,"trial_index":130,"plugin_version":"2.1.0","time_elapsed":421853,"subject_id":"91373","group":"Group2","condition":"1_Rep","full_date":"2026-03-14T16:15:02.651Z","date":"2026-03-14","time":"16:15:02"},{"correct_response":"l","task":"test_phase","broad_category":"I","image_png":"I_Rhyolite_10.png","image_id":154,"category_name":"Rhyolite","category":10,"distinct_rating":2.88,"distinct_type":"Bottom","item_type":"Target","rt":875,"stimulus":"Stimuli_Rocks480/I_Rhyolite_10.png","response":"l","trial_type":"image-keyboard-response","trial_index":131,"plugin_version":"2.1.0","time_elapsed":422729,"subject_id":"91373","group":"Group2","condition":"1_Rep","full_date":"2026-03-14T16:15:02.651Z","date":"2026-03-14","time":"16:15:02","cor_ans":true},{"trial_type":"html-keyboard-response","rt":null,"stimulus":"<p style=\"color: green; font-size: 50px; font-weight: bold;\">Correct</p>","response":null,"trial_index":132,"plugin_version":"2.1.0","time_elapsed":423231,"subject_id":"91373","group":"Group2","condition":"1_Rep","full_date":"2026-03-14T16:15:02.651Z","date":"2026-03-14","time":"16:15:02"},{"correct_response":"l","task":"test_phase","broad_category":"I","image_png":"I_Peridotite_13.png","image_id":125,"category_name":"Peridotite","category":8,"distinct_rating":7.28,"distinct_type":"Top","item_type":"Target","rt":890,"stimulus":"Stimuli_Rocks480/I_Peridotite_13.png","response":"l","trial_type":"image-keyboard-response","trial_index":133,"plugin_version":"2.1.0","time_elapsed":424123,"subject_id":"91373","group":"Group2","condition":"1_Rep","full_date":"2026-03-14T16:15:02.651Z","date":"2026-03-14","time":"16:15:02","cor_ans":true},{"trial_type":"html-keyboard-response","rt":null,"stimulus":"<p style=\"color: green; font-size: 50px; font-weight: bold;\">Correct</p>","response":null,"trial_index":134,"plugin_version":"2.1.0","time_elapsed":424626,"subject_id":"91373","group":"Group2","condition":"1_Rep","full_date":"2026-03-14T16:15:02.651Z","date":"2026-03-14","time":"16:15:02"},{"correct_response":"a","task":"test_phase","broad_category":"I","image_png":"I_Rhyolite_11.png","image_id":155,"category_name":"Rhyolite","category":10,"distinct_rating":1.73,"distinct_type":"Bottom","item_type":"Foil","rt":2326,"stimulus":"Stimuli_Rocks480/I_Rhyolite_11.png","response":"l","trial_type":"image-keyboard-response","trial_index":135,"plugin_version":"2.1.0","time_elapsed":426963,"subject_id":"91373","group":"Group2","condition":"1_Rep","full_date":"2026-03-14T16:15:02.651Z","date":"2026-03-14","time":"16:15:02","cor_ans":false},{"trial_type":"html-keyboard-response","rt":null,"stimulus":"<p style=\"color: red; font-size: 50px; font-weight: bold;\">Incorrect</p>","response":null,"trial_index":136,"plugin_version":"2.1.0","time_elapsed":427465,"subject_id":"91373","group":"Group2","condition":"1_Rep","full_date":"2026-03-14T16:15:02.651Z","date":"2026-03-14","time":"16:15:02"},{"correct_response":"l","task":"test_phase","broad_category":"M","image_png":"M_Phyllite_05.png","image_id":261,"category_name":"Phyllite","category":17,"distinct_rating":2.14,"distinct_type":"Bottom","item_type":"Target","rt":1034,"stimulus":"Stimuli_Rocks480/M_Phyllite_05.png","response":"l","trial_type":"image-keyboard-response","trial_index":137,"plugin_version":"2.1.0","time_elapsed":428511,"subject_id":"91373","group":"Group2","condition":"1_Rep","full_date":"2026-03-14T16:15:02.651Z","date":"2026-03-14","time":"16:15:02","cor_ans":true},{"trial_type":"html-keyboard-response","rt":null,"stimulus":"<p style=\"color: green; font-size: 50px; font-weight: bold;\">Correct</p>","response":null,"trial_index":138,"plugin_version":"2.1.0","time_elapsed":429013,"subject_id":"91373","group":"Group2","condition":"1_Rep","full_date":"2026-03-14T16:15:02.651Z","date":"2026-03-14","time":"16:15:02"},{"correct_response":"a","task":"test_phase","broad_category":"S","image_png":"S_Rock Salt_01.png","image_id":433,"category_name":"Rock Salt","category":28,"distinct_rating":7.18,"distinct_type":"Top","item_type":"Foil","rt":1171,"stimulus":"Stimuli_Rocks480/S_Rock Salt_01.png","response":"a","trial_type":"image-keyboard-response","trial_index":139,"plugin_version":"2.1.0","time_elapsed":430199,"subject_id":"91373","group":"Group2","condition":"1_Rep","full_date":"2026-03-14T16:15:02.651Z","date":"2026-03-14","time":"16:15:02","cor_ans":true},{"trial_type":"html-keyboard-response","rt":null,"stimulus":"<p style=\"color: green; font-size: 50px; font-weight: bold;\">Correct</p>","response":null,"trial_index":140,"plugin_version":"2.1.0","time_elapsed":430701,"subject_id":"91373","group":"Group2","condition":"1_Rep","full_date":"2026-03-14T16:15:02.651Z","date":"2026-03-14","time":"16:15:02"},{"correct_response":"l","task":"test_phase","broad_category":"M","image_png":"M_Quartzite_12.png","image_id":284,"category_name":"Quartzite","category":18,"distinct_rating":1.92,"distinct_type":"Bottom","item_type":"Target","rt":1251,"stimulus":"Stimuli_Rocks480/M_Quartzite_12.png","response":"l","trial_type":"image-keyboard-response","trial_index":141,"plugin_version":"2.1.0","time_elapsed":431964,"subject_id":"91373","group":"Group2","condition":"1_Rep","full_date":"2026-03-14T16:15:02.651Z","date":"2026-03-14","time":"16:15:02","cor_ans":true},{"trial_type":"html-keyboard-response","rt":null,"stimulus":"<p style=\"color: green; font-size: 50px; font-weight: bold;\">Correct</p>","response":null,"trial_index":142,"plugin_version":"2.1.0","time_elapsed":432466,"subject_id":"91373","group":"Group2","condition":"1_Rep","full_date":"2026-03-14T16:15:02.651Z","date":"2026-03-14","time":"16:15:02"},{"correct_response":"a","task":"test_phase","broad_category":"I","image_png":"I_Diorite_04.png","image_id":36,"category_name":"Diorite","category":3,"distinct_rating":2.98,"distinct_type":"Bottom","item_type":"Foil","rt":1594,"stimulus":"Stimuli_Rocks480/I_Diorite_04.png","response":"l","trial_type":"image-keyboard-response","trial_index":143,"plugin_version":"2.1.0","time_elapsed":434073,"subject_id":"91373","group":"Group2","condition":"1_Rep","full_date":"2026-03-14T16:15:02.651Z","date":"2026-03-14","time":"16:15:02","cor_ans":false},{"trial_type":"html-keyboard-response","rt":null,"stimulus":"<p style=\"color: red; font-size: 50px; font-weight: bold;\">Incorrect</p>","response":null,"trial_index":144,"plugin_version":"2.1.0","time_elapsed":434575,"subject_id":"91373","group":"Group2","condition":"1_Rep","full_date":"2026-03-14T16:15:02.651Z","date":"2026-03-14","time":"16:15:02"},{"correct_response":"a","task":"test_phase","broad_category":"I","image_png":"I_Obsidian_05.png","image_id":85,"category_name":"Obsidian","category":6,"distinct_rating":7.32,"distinct_type":"Top","item_type":"Foil","rt":855,"stimulus":"Stimuli_Rocks480/I_Obsidian_05.png","response":"a","trial_type":"image-keyboard-response","trial_index":145,"plugin_version":"2.1.0","time_elapsed":435447,"subject_id":"91373","group":"Group2","condition":"1_Rep","full_date":"2026-03-14T16:15:02.651Z","date":"2026-03-14","time":"16:15:02","cor_ans":true},{"trial_type":"html-keyboard-response","rt":null,"stimulus":"<p style=\"color: green; font-size: 50px; font-weight: bold;\">Correct</p>","response":null,"trial_index":146,"plugin_version":"2.1.0","time_elapsed":435951,"subject_id":"91373","group":"Group2","condition":"1_Rep","full_date":"2026-03-14T16:15:02.651Z","date":"2026-03-14","time":"16:15:02"},{"correct_response":"l","task":"test_phase","broad_category":"I","image_png":"I_Pumice_13.png","image_id":141,"category_name":"Pumice","category":9,"distinct_rating":3.12,"distinct_type":"Bottom","item_type":"Target","rt":839,"stimulus":"Stimuli_Rocks480/I_Pumice_13.png","response":"l","trial_type":"image-keyboard-response","trial_index":147,"plugin_version":"2.1.0","time_elapsed":436805,"subject_id":"91373","group":"Group2","condition":"1_Rep","full_date":"2026-03-14T16:15:02.651Z","date":"2026-03-14","time":"16:15:02","cor_ans":true},{"trial_type":"html-keyboard-response","rt":null,"stimulus":"<p style=\"color: green; font-size: 50px; font-weight: bold;\">Correct</p>","response":null,"trial_index":148,"plugin_version":"2.1.0","time_elapsed":437307,"subject_id":"91373","group":"Group2","condition":"1_Rep","full_date":"2026-03-14T16:15:02.651Z","date":"2026-03-14","time":"16:15:02"},{"correct_response":"l","task":"test_phase","broad_category":"S","image_png":"S_Shale_02.png","image_id":466,"category_name":"Shale","category":30,"distinct_rating":2.9,"distinct_type":"Bottom","item_type":"Target","rt":2052,"stimulus":"Stimuli_Rocks480/S_Shale_02.png","response":"a","trial_type":"image-keyboard-response","trial_index":149,"plugin_version":"2.1.0","time_elapsed":439373,"subject_id":"91373","group":"Group2","condition":"1_Rep","full_date":"2026-03-14T16:15:02.651Z","date":"2026-03-14","time":"16:15:02","cor_ans":false},{"trial_type":"html-keyboard-response","rt":null,"stimulus":"<p style=\"color: red; font-size: 50px; font-weight: bold;\">Incorrect</p>","response":null,"trial_index":150,"plugin_version":"2.1.0","time_elapsed":439876,"subject_id":"91373","group":"Group2","condition":"1_Rep","full_date":"2026-03-14T16:15:02.651Z","date":"2026-03-14","time":"16:15:02"},{"correct_response":"l","task":"test_phase","broad_category":"M","image_png":"M_Gneiss_14.png","image_id":206,"category_name":"Gneiss","category":13,"distinct_rating":3.41,"distinct_type":"Bottom","item_type":"Target","rt":1962,"stimulus":"Stimuli_Rocks480/M_Gneiss_14.png","response":"l","trial_type":"image-keyboard-response","trial_index":151,"plugin_version":"2.1.0","time_elapsed":441851,"subject_id":"91373","group":"Group2","condition":"1_Rep","full_date":"2026-03-14T16:15:02.651Z","date":"2026-03-14","time":"16:15:02","cor_ans":true},{"trial_type":"html-keyboard-response","rt":null,"stimulus":"<p style=\"color: green; font-size: 50px; font-weight: bold;\">Correct</p>","response":null,"trial_index":152,"plugin_version":"2.1.0","time_elapsed":442352,"subject_id":"91373","group":"Group2","condition":"1_Rep","full_date":"2026-03-14T16:15:02.651Z","date":"2026-03-14","time":"16:15:02"},{"correct_response":"l","task":"test_phase","broad_category":"I","image_png":"I_Rhyolite_08.png","image_id":152,"category_name":"Rhyolite","category":10,"distinct_rating":1.38,"distinct_type":"Bottom","item_type":"Target","rt":1094,"stimulus":"Stimuli_Rocks480/I_Rhyolite_08.png","response":"l","trial_type":"image-keyboard-response","trial_index":153,"plugin_version":"2.1.0","time_elapsed":443460,"subject_id":"91373","group":"Group2","condition":"1_Rep","full_date":"2026-03-14T16:15:02.651Z","date":"2026-03-14","time":"16:15:02","cor_ans":true},{"trial_type":"html-keyboard-response","rt":null,"stimulus":"<p style=\"color: green; font-size: 50px; font-weight: bold;\">Correct</p>","response":null,"trial_index":154,"plugin_version":"2.1.0","time_elapsed":443962,"subject_id":"91373","group":"Group2","condition":"1_Rep","full_date":"2026-03-14T16:15:02.651Z","date":"2026-03-14","time":"16:15:02"},{"correct_response":"a","task":"test_phase","broad_category":"S","image_png":"S_Shale_01.png","image_id":465,"category_name":"Shale","category":30,"distinct_rating":2.7,"distinct_type":"Bottom","item_type":"Foil","rt":815,"stimulus":"Stimuli_Rocks480/S_Shale_01.png","response":"l","trial_type":"image-keyboard-response","trial_index":155,"plugin_version":"2.1.0","time_elapsed":444790,"subject_id":"91373","group":"Group2","condition":"1_Rep","full_date":"2026-03-14T16:15:02.651Z","date":"2026-03-14","time":"16:15:02","cor_ans":false},{"trial_type":"html-keyboard-response","rt":null,"stimulus":"<p style=\"color: red; font-size: 50px; font-weight: bold;\">Incorrect</p>","response":null,"trial_index":156,"plugin_version":"2.1.0","time_elapsed":445293,"subject_id":"91373","group":"Group2","condition":"1_Rep","full_date":"2026-03-14T16:15:02.651Z","date":"2026-03-14","time":"16:15:02"},{"correct_response":"a","task":"test_phase","broad_category":"M","image_png":"M_Phyllite_03.png","image_id":259,"category_name":"Phyllite","category":17,"distinct_rating":2.5,"distinct_type":"Bottom","item_type":"Foil","rt":853,"stimulus":"Stimuli_Rocks480/M_Phyllite_03.png","response":"a","trial_type":"image-keyboard-response","trial_index":157,"plugin_version":"2.1.0","time_elapsed":446159,"subject_id":"91373","group":"Group2","condition":"1_Rep","full_date":"2026-03-14T16:15:02.651Z","date":"2026-03-14","time":"16:15:02","cor_ans":true},{"trial_type":"html-keyboard-response","rt":null,"stimulus":"<p style=\"color: green; font-size: 50px; font-weight: bold;\">Correct</p>","response":null,"trial_index":158,"plugin_version":"2.1.0","time_elapsed":446661,"subject_id":"91373","group":"Group2","condition":"1_Rep","full_date":"2026-03-14T16:15:02.651Z","date":"2026-03-14","time":"16:15:02"},{"correct_response":"a","task":"test_phase","broad_category":"M","image_png":"M_Phyllite_07.png","image_id":263,"category_name":"Phyllite","category":17,"distinct_rating":2.59,"distinct_type":"Bottom","item_type":"Foil","rt":923,"stimulus":"Stimuli_Rocks480/M_Phyllite_07.png","response":"l","trial_type":"image-keyboard-response","trial_index":159,"plugin_version":"2.1.0","time_elapsed":447596,"subject_id":"91373","group":"Group2","condition":"1_Rep","full_date":"2026-03-14T16:15:02.651Z","date":"2026-03-14","time":"16:15:02","cor_ans":false},{"trial_type":"html-keyboard-response","rt":null,"stimulus":"<p style=\"color: red; font-size: 50px; font-weight: bold;\">Incorrect</p>","response":null,"trial_index":160,"plugin_version":"2.1.0","time_elapsed":448098,"subject_id":"91373","group":"Group2","condition":"1_Rep","full_date":"2026-03-14T16:15:02.651Z","date":"2026-03-14","time":"16:15:02"},{"correct_response":"a","task":"test_phase","broad_category":"S","image_png":"S_Dolomite_14.png","image_id":398,"category_name":"Dolomite","category":25,"distinct_rating":1.43,"distinct_type":"Bottom","item_type":"Foil","rt":902,"stimulus":"Stimuli_Rocks480/S_Dolomite_14.png","response":"l","trial_type":"image-keyboard-response","trial_index":161,"plugin_version":"2.1.0","time_elapsed":449014,"subject_id":"91373","group":"Group2","condition":"1_Rep","full_date":"2026-03-14T16:15:02.651Z","date":"2026-03-14","time":"16:15:02","cor_ans":false},{"trial_type":"html-keyboard-response","rt":null,"stimulus":"<p style=\"color: red; font-size: 50px; font-weight: bold;\">Incorrect</p>","response":null,"trial_index":162,"plugin_version":"2.1.0","time_elapsed":449516,"subject_id":"91373","group":"Group2","condition":"1_Rep","full_date":"2026-03-14T16:15:02.651Z","date":"2026-03-14","time":"16:15:02"},{"correct_response":"l","task":"test_phase","broad_category":"M","image_png":"M_Slate_04.png","image_id":308,"category_name":"Slate","category":20,"distinct_rating":2.2,"distinct_type":"Bottom","item_type":"Target","rt":757,"stimulus":"Stimuli_Rocks480/M_Slate_04.png","response":"l","trial_type":"image-keyboard-response","trial_index":163,"plugin_version":"2.1.0","time_elapsed":450284,"subject_id":"91373","group":"Group2","condition":"1_Rep","full_date":"2026-03-14T16:15:02.651Z","date":"2026-03-14","time":"16:15:02","cor_ans":true},{"trial_type":"html-keyboard-response","rt":null,"stimulus":"<p style=\"color: green; font-size: 50px; font-weight: bold;\">Correct</p>","response":null,"trial_index":164,"plugin_version":"2.1.0","time_elapsed":450785,"subject_id":"91373","group":"Group2","condition":"1_Rep","full_date":"2026-03-14T16:15:02.651Z","date":"2026-03-14","time":"16:15:02"},{"correct_response":"l","task":"test_phase","broad_category":"S","image_png":"S_Sandstone_11.png","image_id":459,"category_name":"Sandstone","category":29,"distinct_rating":1.82,"distinct_type":"Bottom","item_type":"Target","rt":1300,"stimulus":"Stimuli_Rocks480/S_Sandstone_11.png","response":"a","trial_type":"image-keyboard-response","trial_index":165,"plugin_version":"2.1.0","time_elapsed":452106,"subject_id":"91373","group":"Group2","condition":"1_Rep","full_date":"2026-03-14T16:15:02.651Z","date":"2026-03-14","time":"16:15:02","cor_ans":false},{"trial_type":"html-keyboard-response","rt":null,"stimulus":"<p style=\"color: red; font-size: 50px; font-weight: bold;\">Incorrect</p>","response":null,"trial_index":166,"plugin_version":"2.1.0","time_elapsed":452608,"subject_id":"91373","group":"Group2","condition":"1_Rep","full_date":"2026-03-14T16:15:02.651Z","date":"2026-03-14","time":"16:15:02"},{"correct_response":"a","task":"test_phase","broad_category":"I","image_png":"I_Diorite_05.png","image_id":37,"category_name":"Diorite","category":3,"distinct_rating":3.08,"distinct_type":"Bottom","item_type":"Foil","rt":830,"stimulus":"Stimuli_Rocks480/I_Diorite_05.png","response":"l","trial_type":"image-keyboard-response","trial_index":167,"plugin_version":"2.1.0","time_elapsed":453451,"subject_id":"91373","group":"Group2","condition":"1_Rep","full_date":"2026-03-14T16:15:02.651Z","date":"2026-03-14","time":"16:15:02","cor_ans":false},{"trial_type":"html-keyboard-response","rt":null,"stimulus":"<p style=\"color: red; font-size: 50px; font-weight: bold;\">Incorrect</p>","response":null,"trial_index":168,"plugin_version":"2.1.0","time_elapsed":453954,"subject_id":"91373","group":"Group2","condition":"1_Rep","full_date":"2026-03-14T16:15:02.651Z","date":"2026-03-14","time":"16:15:02"},{"correct_response":"l","task":"test_phase","broad_category":"I","image_png":"I_Andesite_09.png","image_id":9,"category_name":"Andesite","category":1,"distinct_rating":2.49,"distinct_type":"Bottom","item_type":"Target","rt":1453,"stimulus":"Stimuli_Rocks480/I_Andesite_09.png","response":"l","trial_type":"image-keyboard-response","trial_index":169,"plugin_version":"2.1.0","time_elapsed":455419,"subject_id":"91373","group":"Group2","condition":"1_Rep","full_date":"2026-03-14T16:15:02.651Z","date":"2026-03-14","time":"16:15:02","cor_ans":true},{"trial_type":"html-keyboard-response","rt":null,"stimulus":"<p style=\"color: green; font-size: 50px; font-weight: bold;\">Correct</p>","response":null,"trial_index":170,"plugin_version":"2.1.0","time_elapsed":455921,"subject_id":"91373","group":"Group2","condition":"1_Rep","full_date":"2026-03-14T16:15:02.651Z","date":"2026-03-14","time":"16:15:02"},{"correct_response":"a","task":"test_phase","broad_category":"M","image_png":"M_Marble_16.png","image_id":240,"category_name":"Marble","category":15,"distinct_rating":2.57,"distinct_type":"Bottom","item_type":"Foil","rt":1076,"stimulus":"Stimuli_Rocks480/M_Marble_16.png","response":"a","trial_type":"image-keyboard-response","trial_index":171,"plugin_version":"2.1.0","time_elapsed":457011,"subject_id":"91373","group":"Group2","condition":"1_Rep","full_date":"2026-03-14T16:15:02.651Z","date":"2026-03-14","time":"16:15:02","cor_ans":true},{"trial_type":"html-keyboard-response","rt":null,"stimulus":"<p style=\"color: green; font-size: 50px; font-weight: bold;\">Correct</p>","response":null,"trial_index":172,"plugin_version":"2.1.0","time_elapsed":457513,"subject_id":"91373","group":"Group2","condition":"1_Rep","full_date":"2026-03-14T16:15:02.651Z","date":"2026-03-14","time":"16:15:02"},{"correct_response":"a","task":"test_phase","broad_category":"I","image_png":"I_Pegmatite_16.png","image_id":112,"category_name":"Pegmatite","category":7,"distinct_rating":7.03,"distinct_type":"Top","item_type":"Foil","rt":789,"stimulus":"Stimuli_Rocks480/I_Pegmatite_16.png","response":"a","trial_type":"image-keyboard-response","trial_index":173,"plugin_version":"2.1.0","time_elapsed":458317,"subject_id":"91373","group":"Group2","condition":"1_Rep","full_date":"2026-03-14T16:15:02.651Z","date":"2026-03-14","time":"16:15:02","cor_ans":true},{"trial_type":"html-keyboard-response","rt":null,"stimulus":"<p style=\"color: green; font-size: 50px; font-weight: bold;\">Correct</p>","response":null,"trial_index":174,"plugin_version":"2.1.0","time_elapsed":458819,"subject_id":"91373","group":"Group2","condition":"1_Rep","full_date":"2026-03-14T16:15:02.651Z","date":"2026-03-14","time":"16:15:02"},{"correct_response":"l","task":"test_phase","broad_category":"I","image_png":"I_Pegmatite_03.png","image_id":99,"category_name":"Pegmatite","category":7,"distinct_rating":7.24,"distinct_type":"Top","item_type":"Target","rt":796,"stimulus":"Stimuli_Rocks480/I_Pegmatite_03.png","response":"l","trial_type":"image-keyboard-response","trial_index":175,"plugin_version":"2.1.0","time_elapsed":459628,"subject_id":"91373","group":"Group2","condition":"1_Rep","full_date":"2026-03-14T16:15:02.651Z","date":"2026-03-14","time":"16:15:02","cor_ans":true},{"trial_type":"html-keyboard-response","rt":null,"stimulus":"<p style=\"color: green; font-size: 50px; font-weight: bold;\">Correct</p>","response":null,"trial_index":176,"plugin_version":"2.1.0","time_elapsed":460130,"subject_id":"91373","group":"Group2","condition":"1_Rep","full_date":"2026-03-14T16:15:02.651Z","date":"2026-03-14","time":"16:15:02"},{"correct_response":"l","task":"test_phase","broad_category":"I","image_png":"I_Obsidian_06.png","image_id":86,"category_name":"Obsidian","category":6,"distinct_rating":8.01,"distinct_type":"Top","item_type":"Target","rt":640,"stimulus":"Stimuli_Rocks480/I_Obsidian_06.png","response":"l","trial_type":"image-keyboard-response","trial_index":177,"plugin_version":"2.1.0","time_elapsed":460787,"subject_id":"91373","group":"Group2","condition":"1_Rep","full_date":"2026-03-14T16:15:02.651Z","date":"2026-03-14","time":"16:15:02","cor_ans":true},{"trial_type":"html-keyboard-response","rt":null,"stimulus":"<p style=\"color: green; font-size: 50px; font-weight: bold;\">Correct</p>","response":null,"trial_index":178,"plugin_version":"2.1.0","time_elapsed":461289,"subject_id":"91373","group":"Group2","condition":"1_Rep","full_date":"2026-03-14T16:15:02.651Z","date":"2026-03-14","time":"16:15:02"},{"correct_response":"a","task":"test_phase","broad_category":"M","image_png":"M_Quartzite_13.png","image_id":285,"category_name":"Quartzite","category":18,"distinct_rating":2.27,"distinct_type":"Bottom","item_type":"Foil","rt":1171,"stimulus":"Stimuli_Rocks480/M_Quartzite_13.png","response":"l","trial_type":"image-keyboard-response","trial_index":179,"plugin_version":"2.1.0","time_elapsed":462471,"subject_id":"91373","group":"Group2","condition":"1_Rep","full_date":"2026-03-14T16:15:02.651Z","date":"2026-03-14","time":"16:15:02","cor_ans":false},{"trial_type":"html-keyboard-response","rt":null,"stimulus":"<p style=\"color: red; font-size: 50px; font-weight: bold;\">Incorrect</p>","response":null,"trial_index":180,"plugin_version":"2.1.0","time_elapsed":462974,"subject_id":"91373","group":"Group2","condition":"1_Rep","full_date":"2026-03-14T16:15:02.651Z","date":"2026-03-14","time":"16:15:02"},{"correct_response":"l","task":"test_phase","broad_category":"I","image_png":"I_Gabbro_12.png","image_id":60,"category_name":"Gabbro","category":4,"distinct_rating":2.6,"distinct_type":"Bottom","item_type":"Target","rt":812,"stimulus":"Stimuli_Rocks480/I_Gabbro_12.png","response":"l","trial_type":"image-keyboard-response","trial_index":181,"plugin_version":"2.1.0","time_elapsed":463803,"subject_id":"91373","group":"Group2","condition":"1_Rep","full_date":"2026-03-14T16:15:02.651Z","date":"2026-03-14","time":"16:15:02","cor_ans":true},{"trial_type":"html-keyboard-response","rt":null,"stimulus":"<p style=\"color: green; font-size: 50px; font-weight: bold;\">Correct</p>","response":null,"trial_index":182,"plugin_version":"2.1.0","time_elapsed":464304,"subject_id":"91373","group":"Group2","condition":"1_Rep","full_date":"2026-03-14T16:15:02.651Z","date":"2026-03-14","time":"16:15:02"},{"correct_response":"l","task":"test_phase","broad_category":"S","image_png":"S_Sandstone_04.png","image_id":452,"category_name":"Sandstone","category":29,"distinct_rating":1.8,"distinct_type":"Bottom","item_type":"Target","rt":1058,"stimulus":"Stimuli_Rocks480/S_Sandstone_04.png","response":"a","trial_type":"image-keyboard-response","trial_index":183,"plugin_version":"2.1.0","time_elapsed":465376,"subject_id":"91373","group":"Group2","condition":"1_Rep","full_date":"2026-03-14T16:15:02.651Z","date":"2026-03-14","time":"16:15:02","cor_ans":false},{"trial_type":"html-keyboard-response","rt":null,"stimulus":"<p style=\"color: red; font-size: 50px; font-weight: bold;\">Incorrect</p>","response":null,"trial_index":184,"plugin_version":"2.1.0","time_elapsed":465879,"subject_id":"91373","group":"Group2","condition":"1_Rep","full_date":"2026-03-14T16:15:02.651Z","date":"2026-03-14","time":"16:15:02"},{"correct_response":"a","task":"test_phase","broad_category":"S","image_png":"S_Sandstone_15.png","image_id":463,"category_name":"Sandstone","category":29,"distinct_rating":2,"distinct_type":"Bottom","item_type":"Foil","rt":920,"stimulus":"Stimuli_Rocks480/S_Sandstone_15.png","response":"a","trial_type":"image-keyboard-response","trial_index":185,"plugin_version":"2.1.0","time_elapsed":466815,"subject_id":"91373","group":"Group2","condition":"1_Rep","full_date":"2026-03-14T16:15:02.651Z","date":"2026-03-14","time":"16:15:02","cor_ans":true},{"trial_type":"html-keyboard-response","rt":null,"stimulus":"<p style=\"color: green; font-size: 50px; font-weight: bold;\">Correct</p>","response":null,"trial_index":186,"plugin_version":"2.1.0","time_elapsed":467317,"subject_id":"91373","group":"Group2","condition":"1_Rep","full_date":"2026-03-14T16:15:02.651Z","date":"2026-03-14","time":"16:15:02"},{"correct_response":"a","task":"test_phase","broad_category":"S","image_png":"S_Breccia_11.png","image_id":347,"category_name":"Breccia","category":22,"distinct_rating":6.7,"distinct_type":"Top","item_type":"Foil","rt":992,"stimulus":"Stimuli_Rocks480/S_Breccia_11.png","response":"a","trial_type":"image-keyboard-response","trial_index":187,"plugin_version":"2.1.0","time_elapsed":468328,"subject_id":"91373","group":"Group2","condition":"1_Rep","full_date":"2026-03-14T16:15:02.651Z","date":"2026-03-14","time":"16:15:02","cor_ans":true},{"trial_type":"html-keyboard-response","rt":null,"stimulus":"<p style=\"color: green; font-size: 50px; font-weight: bold;\">Correct</p>","response":null,"trial_index":188,"plugin_version":"2.1.0","time_elapsed":468831,"subject_id":"91373","group":"Group2","condition":"1_Rep","full_date":"2026-03-14T16:15:02.651Z","date":"2026-03-14","time":"16:15:02"},{"correct_response":"a","task":"test_phase","broad_category":"I","image_png":"I_Basalt_02.png","image_id":18,"category_name":"Basalt","category":2,"distinct_rating":1.84,"distinct_type":"Bottom","item_type":"Foil","rt":697,"stimulus":"Stimuli_Rocks480/I_Basalt_02.png","response":"l","trial_type":"image-keyboard-response","trial_index":189,"plugin_version":"2.1.0","time_elapsed":469540,"subject_id":"91373","group":"Group2","condition":"1_Rep","full_date":"2026-03-14T16:15:02.651Z","date":"2026-03-14","time":"16:15:02","cor_ans":false},{"trial_type":"html-keyboard-response","rt":null,"stimulus":"<p style=\"color: red; font-size: 50px; font-weight: bold;\">Incorrect</p>","response":null,"trial_index":190,"plugin_version":"2.1.0","time_elapsed":470042,"subject_id":"91373","group":"Group2","condition":"1_Rep","full_date":"2026-03-14T16:15:02.651Z","date":"2026-03-14","time":"16:15:02"},{"correct_response":"a","task":"test_phase","broad_category":"I","image_png":"I_Basalt_09.png","image_id":25,"category_name":"Basalt","category":2,"distinct_rating":1.89,"distinct_type":"Bottom","item_type":"Foil","rt":752,"stimulus":"Stimuli_Rocks480/I_Basalt_09.png","response":"l","trial_type":"image-keyboard-response","trial_index":191,"plugin_version":"2.1.0","time_elapsed":470805,"subject_id":"91373","group":"Group2","condition":"1_Rep","full_date":"2026-03-14T16:15:02.651Z","date":"2026-03-14","time":"16:15:02","cor_ans":false},{"trial_type":"html-keyboard-response","rt":null,"stimulus":"<p style=\"color: red; font-size: 50px; font-weight: bold;\">Incorrect</p>","response":null,"trial_index":192,"plugin_version":"2.1.0","time_elapsed":471308,"subject_id":"91373","group":"Group2","condition":"1_Rep","full_date":"2026-03-14T16:15:02.651Z","date":"2026-03-14","time":"16:15:02"},{"correct_response":"l","task":"test_phase","broad_category":"M","image_png":"M_Slate_14.png","image_id":318,"category_name":"Slate","category":20,"distinct_rating":2.58,"distinct_type":"Bottom","item_type":"Target","rt":665,"stimulus":"Stimuli_Rocks480/M_Slate_14.png","response":"l","trial_type":"image-keyboard-response","trial_index":193,"plugin_version":"2.1.0","time_elapsed":471984,"subject_id":"91373","group":"Group2","condition":"1_Rep","full_date":"2026-03-14T16:15:02.651Z","date":"2026-03-14","time":"16:15:02","cor_ans":true},{"trial_type":"html-keyboard-response","rt":null,"stimulus":"<p style=\"color: green; font-size: 50px; font-weight: bold;\">Correct</p>","response":null,"trial_index":194,"plugin_version":"2.1.0","time_elapsed":472487,"subject_id":"91373","group":"Group2","condition":"1_Rep","full_date":"2026-03-14T16:15:02.651Z","date":"2026-03-14","time":"16:15:02"},{"correct_response":"a","task":"test_phase","broad_category":"S","image_png":"S_Sandstone_03.png","image_id":451,"category_name":"Sandstone","category":29,"distinct_rating":1.86,"distinct_type":"Bottom","item_type":"Foil","rt":1149,"stimulus":"Stimuli_Rocks480/S_Sandstone_03.png","response":"a","trial_type":"image-keyboard-response","trial_index":195,"plugin_version":"2.1.0","time_elapsed":473651,"subject_id":"91373","group":"Group2","condition":"1_Rep","full_date":"2026-03-14T16:15:02.651Z","date":"2026-03-14","time":"16:15:02","cor_ans":true},{"trial_type":"html-keyboard-response","rt":null,"stimulus":"<p style=\"color: green; font-size: 50px; font-weight: bold;\">Correct</p>","response":null,"trial_index":196,"plugin_version":"2.1.0","time_elapsed":474154,"subject_id":"91373","group":"Group2","condition":"1_Rep","full_date":"2026-03-14T16:15:02.651Z","date":"2026-03-14","time":"16:15:02"},{"correct_response":"l","task":"test_phase","broad_category":"I","image_png":"I_Pegmatite_11.png","image_id":107,"category_name":"Pegmatite","category":7,"distinct_rating":7.11,"distinct_type":"Top","item_type":"Target","rt":933,"stimulus":"Stimuli_Rocks480/I_Pegmatite_11.png","response":"l","trial_type":"image-keyboard-response","trial_index":197,"plugin_version":"2.1.0","time_elapsed":475105,"subject_id":"91373","group":"Group2","condition":"1_Rep","full_date":"2026-03-14T16:15:02.651Z","date":"2026-03-14","time":"16:15:02","cor_ans":true},{"trial_type":"html-keyboard-response","rt":null,"stimulus":"<p style=\"color: green; font-size: 50px; font-weight: bold;\">Correct</p>","response":null,"trial_index":198,"plugin_version":"2.1.0","time_elapsed":475608,"subject_id":"91373","group":"Group2","condition":"1_Rep","full_date":"2026-03-14T16:15:02.651Z","date":"2026-03-14","time":"16:15:02"},{"correct_response":"l","task":"test_phase","broad_category":"M","image_png":"M_Slate_10.png","image_id":314,"category_name":"Slate","category":20,"distinct_rating":1.94,"distinct_type":"Bottom","item_type":"Target","rt":2196,"stimulus":"Stimuli_Rocks480/M_Slate_10.png","response":"a","trial_type":"image-keyboard-response","trial_index":199,"plugin_version":"2.1.0","time_elapsed":477813,"subject_id":"91373","group":"Group2","condition":"1_Rep","full_date":"2026-03-14T16:15:02.651Z","date":"2026-03-14","time":"16:15:02","cor_ans":false},{"trial_type":"html-keyboard-response","rt":null,"stimulus":"<p style=\"color: red; font-size: 50px; font-weight: bold;\">Incorrect</p>","response":null,"trial_index":200,"plugin_version":"2.1.0","time_elapsed":478316,"subject_id":"91373","group":"Group2","condition":"1_Rep","full_date":"2026-03-14T16:15:02.651Z","date":"2026-03-14","time":"16:15:02"},{"correct_response":"l","task":"test_phase","broad_category":"S","image_png":"S_Rock Salt_15.png","image_id":447,"category_name":"Rock Salt","category":28,"distinct_rating":7.79,"distinct_type":"Top","item_type":"Target","rt":713,"stimulus":"Stimuli_Rocks480/S_Rock Salt_15.png","response":"l","trial_type":"image-keyboard-response","trial_index":201,"plugin_version":"2.1.0","time_elapsed":479043,"subject_id":"91373","group":"Group2","condition":"1_Rep","full_date":"2026-03-14T16:15:02.651Z","date":"2026-03-14","time":"16:15:02","cor_ans":true},{"trial_type":"html-keyboard-response","rt":null,"stimulus":"<p style=\"color: green; font-size: 50px; font-weight: bold;\">Correct</p>","response":null,"trial_index":202,"plugin_version":"2.1.0","time_elapsed":479545,"subject_id":"91373","group":"Group2","condition":"1_Rep","full_date":"2026-03-14T16:15:02.651Z","date":"2026-03-14","time":"16:15:02"},{"correct_response":"l","task":"test_phase","broad_category":"I","image_png":"I_Basalt_08.png","image_id":24,"category_name":"Basalt","category":2,"distinct_rating":2.31,"distinct_type":"Bottom","item_type":"Target","rt":721,"stimulus":"Stimuli_Rocks480/I_Basalt_08.png","response":"a","trial_type":"image-keyboard-response","trial_index":203,"plugin_version":"2.1.0","time_elapsed":480287,"subject_id":"91373","group":"Group2","condition":"1_Rep","full_date":"2026-03-14T16:15:02.651Z","date":"2026-03-14","time":"16:15:02","cor_ans":false},{"trial_type":"html-keyboard-response","rt":null,"stimulus":"<p style=\"color: red; font-size: 50px; font-weight: bold;\">Incorrect</p>","response":null,"trial_index":204,"plugin_version":"2.1.0","time_elapsed":480789,"subject_id":"91373","group":"Group2","condition":"1_Rep","full_date":"2026-03-14T16:15:02.651Z","date":"2026-03-14","time":"16:15:02"},{"correct_response":"l","task":"test_phase","broad_category":"I","image_png":"I_Basalt_10.png","image_id":26,"category_name":"Basalt","category":2,"distinct_rating":2.76,"distinct_type":"Bottom","item_type":"Target","rt":837,"stimulus":"Stimuli_Rocks480/I_Basalt_10.png","response":"l","trial_type":"image-keyboard-response","trial_index":205,"plugin_version":"2.1.0","time_elapsed":481640,"subject_id":"91373","group":"Group2","condition":"1_Rep","full_date":"2026-03-14T16:15:02.651Z","date":"2026-03-14","time":"16:15:02","cor_ans":true},{"trial_type":"html-keyboard-response","rt":null,"stimulus":"<p style=\"color: green; font-size: 50px; font-weight: bold;\">Correct</p>","response":null,"trial_index":206,"plugin_version":"2.1.0","time_elapsed":482142,"subject_id":"91373","group":"Group2","condition":"1_Rep","full_date":"2026-03-14T16:15:02.651Z","date":"2026-03-14","time":"16:15:02"},{"correct_response":"a","task":"test_phase","broad_category":"S","image_png":"S_Shale_12.png","image_id":476,"category_name":"Shale","category":30,"distinct_rating":2.48,"distinct_type":"Bottom","item_type":"Foil","rt":1888,"stimulus":"Stimuli_Rocks480/S_Shale_12.png","response":"l","trial_type":"image-keyboard-response","trial_index":207,"plugin_version":"2.1.0","time_elapsed":484045,"subject_id":"91373","group":"Group2","condition":"1_Rep","full_date":"2026-03-14T16:15:02.651Z","date":"2026-03-14","time":"16:15:02","cor_ans":false},{"trial_type":"html-keyboard-response","rt":null,"stimulus":"<p style=\"color: red; font-size: 50px; font-weight: bold;\">Incorrect</p>","response":null,"trial_index":208,"plugin_version":"2.1.0","time_elapsed":484547,"subject_id":"91373","group":"Group2","condition":"1_Rep","full_date":"2026-03-14T16:15:02.651Z","date":"2026-03-14","time":"16:15:02"},{"correct_response":"a","task":"test_phase","broad_category":"S","image_png":"S_Rock Gypsum_04.png","image_id":420,"category_name":"Rock Gypsum","category":27,"distinct_rating":7.61,"distinct_type":"Top","item_type":"Foil","rt":1254,"stimulus":"Stimuli_Rocks480/S_Rock Gypsum_04.png","response":"a","trial_type":"image-keyboard-response","trial_index":209,"plugin_version":"2.1.0","time_elapsed":485804,"subject_id":"91373","group":"Group2","condition":"1_Rep","full_date":"2026-03-14T16:15:02.651Z","date":"2026-03-14","time":"16:15:02","cor_ans":true},{"trial_type":"html-keyboard-response","rt":null,"stimulus":"<p style=\"color: green; font-size: 50px; font-weight: bold;\">Correct</p>","response":null,"trial_index":210,"plugin_version":"2.1.0","time_elapsed":486306,"subject_id":"91373","group":"Group2","condition":"1_Rep","full_date":"2026-03-14T16:15:02.651Z","date":"2026-03-14","time":"16:15:02"},{"correct_response":"l","task":"test_phase","broad_category":"I","image_png":"I_Diorite_15.png","image_id":47,"category_name":"Diorite","category":3,"distinct_rating":3.05,"distinct_type":"Bottom","item_type":"Target","rt":1270,"stimulus":"Stimuli_Rocks480/I_Diorite_15.png","response":"l","trial_type":"image-keyboard-response","trial_index":211,"plugin_version":"2.1.0","time_elapsed":487579,"subject_id":"91373","group":"Group2","condition":"1_Rep","full_date":"2026-03-14T16:15:02.651Z","date":"2026-03-14","time":"16:15:02","cor_ans":true},{"trial_type":"html-keyboard-response","rt":null,"stimulus":"<p style=\"color: green; font-size: 50px; font-weight: bold;\">Correct</p>","response":null,"trial_index":212,"plugin_version":"2.1.0","time_elapsed":488081,"subject_id":"91373","group":"Group2","condition":"1_Rep","full_date":"2026-03-14T16:15:02.651Z","date":"2026-03-14","time":"16:15:02"},{"correct_response":"l","task":"test_phase","broad_category":"S","image_png":"S_Shale_07.png","image_id":471,"category_name":"Shale","category":30,"distinct_rating":2.73,"distinct_type":"Bottom","item_type":"Target","rt":1312,"stimulus":"Stimuli_Rocks480/S_Shale_07.png","response":"a","trial_type":"image-keyboard-response","trial_index":213,"plugin_version":"2.1.0","time_elapsed":489395,"subject_id":"91373","group":"Group2","condition":"1_Rep","full_date":"2026-03-14T16:15:02.651Z","date":"2026-03-14","time":"16:15:02","cor_ans":false},{"trial_type":"html-keyboard-response","rt":null,"stimulus":"<p style=\"color: red; font-size: 50px; font-weight: bold;\">Incorrect</p>","response":null,"trial_index":214,"plugin_version":"2.1.0","time_elapsed":489897,"subject_id":"91373","group":"Group2","condition":"1_Rep","full_date":"2026-03-14T16:15:02.651Z","date":"2026-03-14","time":"16:15:02"},{"correct_response":"a","task":"test_phase","broad_category":"M","image_png":"M_Slate_15.png","image_id":319,"category_name":"Slate","category":20,"distinct_rating":2.13,"distinct_type":"Bottom","item_type":"Foil","rt":974,"stimulus":"Stimuli_Rocks480/M_Slate_15.png","response":"l","trial_type":"image-keyboard-response","trial_index":215,"plugin_version":"2.1.0","time_elapsed":490873,"subject_id":"91373","group":"Group2","condition":"1_Rep","full_date":"2026-03-14T16:15:02.651Z","date":"2026-03-14","time":"16:15:02","cor_ans":false},{"trial_type":"html-keyboard-response","rt":null,"stimulus":"<p style=\"color: red; font-size: 50px; font-weight: bold;\">Incorrect</p>","response":null,"trial_index":216,"plugin_version":"2.1.0","time_elapsed":491375,"subject_id":"91373","group":"Group2","condition":"1_Rep","full_date":"2026-03-14T16:15:02.651Z","date":"2026-03-14","time":"16:15:02"},{"correct_response":"a","task":"test_phase","broad_category":"S","image_png":"S_Sandstone_16.png","image_id":464,"category_name":"Sandstone","category":29,"distinct_rating":1.93,"distinct_type":"Bottom","item_type":"Foil","rt":1153,"stimulus":"Stimuli_Rocks480/S_Sandstone_16.png","response":"l","trial_type":"image-keyboard-response","trial_index":217,"plugin_version":"2.1.0","time_elapsed":492531,"subject_id":"91373","group":"Group2","condition":"1_Rep","full_date":"2026-03-14T16:15:02.651Z","date":"2026-03-14","time":"16:15:02","cor_ans":false},{"trial_type":"html-keyboard-response","rt":null,"stimulus":"<p style=\"color: red; font-size: 50px; font-weight: bold;\">Incorrect</p>","response":null,"trial_index":218,"plugin_version":"2.1.0","time_elapsed":493032,"subject_id":"91373","group":"Group2","condition":"1_Rep","full_date":"2026-03-14T16:15:02.651Z","date":"2026-03-14","time":"16:15:02"},{"correct_response":"l","task":"test_phase","broad_category":"S","image_png":"S_Dolomite_07.png","image_id":391,"category_name":"Dolomite","category":25,"distinct_rating":1.73,"distinct_type":"Bottom","item_type":"Target","rt":759,"stimulus":"Stimuli_Rocks480/S_Dolomite_07.png","response":"a","trial_type":"image-keyboard-response","trial_index":219,"plugin_version":"2.1.0","time_elapsed":493803,"subject_id":"91373","group":"Group2","condition":"1_Rep","full_date":"2026-03-14T16:15:02.651Z","date":"2026-03-14","time":"16:15:02","cor_ans":false},{"trial_type":"html-keyboard-response","rt":null,"stimulus":"<p style=\"color: red; font-size: 50px; font-weight: bold;\">Incorrect</p>","response":null,"trial_index":220,"plugin_version":"2.1.0","time_elapsed":494305,"subject_id":"91373","group":"Group2","condition":"1_Rep","full_date":"2026-03-14T16:15:02.651Z","date":"2026-03-14","time":"16:15:02"},{"correct_response":"l","task":"test_phase","broad_category":"S","image_png":"S_Shale_03.png","image_id":467,"category_name":"Shale","category":30,"distinct_rating":1.95,"distinct_type":"Bottom","item_type":"Target","rt":3357,"stimulus":"Stimuli_Rocks480/S_Shale_03.png","response":"a","trial_type":"image-keyboard-response","trial_index":221,"plugin_version":"2.1.0","time_elapsed":497679,"subject_id":"91373","group":"Group2","condition":"1_Rep","full_date":"2026-03-14T16:15:02.651Z","date":"2026-03-14","time":"16:15:02","cor_ans":false},{"trial_type":"html-keyboard-response","rt":null,"stimulus":"<p style=\"color: red; font-size: 50px; font-weight: bold;\">Incorrect</p>","response":null,"trial_index":222,"plugin_version":"2.1.0","time_elapsed":498181,"subject_id":"91373","group":"Group2","condition":"1_Rep","full_date":"2026-03-14T16:15:02.651Z","date":"2026-03-14","time":"16:15:02"},{"correct_response":"a","task":"test_phase","broad_category":"I","image_png":"I_Rhyolite_14.png","image_id":158,"category_name":"Rhyolite","category":10,"distinct_rating":2.59,"distinct_type":"Bottom","item_type":"Foil","rt":1739,"stimulus":"Stimuli_Rocks480/I_Rhyolite_14.png","response":"l","trial_type":"image-keyboard-response","trial_index":223,"plugin_version":"2.1.0","time_elapsed":499933,"subject_id":"91373","group":"Group2","condition":"1_Rep","full_date":"2026-03-14T16:15:02.651Z","date":"2026-03-14","time":"16:15:02","cor_ans":false},{"trial_type":"html-keyboard-response","rt":null,"stimulus":"<p style=\"color: red; font-size: 50px; font-weight: bold;\">Incorrect</p>","response":null,"trial_index":224,"plugin_version":"2.1.0","time_elapsed":500435,"subject_id":"91373","group":"Group2","condition":"1_Rep","full_date":"2026-03-14T16:15:02.651Z","date":"2026-03-14","time":"16:15:02"},{"correct_res