[{"width":1504,"height":868,"webaudio":true,"browser":"chrome","browser_version":"144.0.0","mobile":false,"os":"Windows 10","fullscreen":true,"vsync_rate":58.7,"webcam":true,"microphone":true,"trial_type":"browser-check","trial_index":0,"plugin_version":"2.1.0","time_elapsed":1032,"subject_id":"91216","group":"Group1","condition":"1_Rep","full_date":"2026-01-24T01:03:58.453Z","date":"2026-01-24","time":"01:03:58"},{"success":true,"timeout":false,"failed_images":[],"failed_audio":[],"failed_video":[],"trial_type":"preload","trial_index":1,"plugin_version":"2.1.0","time_elapsed":2599,"subject_id":"91216","group":"Group1","condition":"1_Rep","full_date":"2026-01-24T01:03:58.453Z","date":"2026-01-24","time":"01:03:58"},{"rt":5365,"url":"SONA_consent_memorability.html","trial_type":"external-html","trial_index":2,"plugin_version":"2.1.0","time_elapsed":8024,"subject_id":"91216","group":"Group1","condition":"1_Rep","full_date":"2026-01-24T01:03:58.453Z","date":"2026-01-24","time":"01:03:58"},{"success":true,"rt":2157,"trial_type":"fullscreen","trial_index":3,"plugin_version":"2.1.0","time_elapsed":11195,"subject_id":"91216","group":"Group1","condition":"1_Rep","full_date":"2026-01-24T01:03:58.453Z","date":"2026-01-24","time":"01:03:58"},{"rt":1961,"stimulus":"<div style=\"max-width: 760px; margin: auto; font-size: 20px; line-height: 1.5;\">\n      <h1 style=\"text-align:center; font-size: 30px;\">Instructions</h1>\n      <p>\n        Welcome to the study on <b>visual memory</b>. This experiment consists of <b>two phases</b>: \n        a <b>study phase</b> and a <b>test phase</b>.\n      </p>\n      <p>\n        In the study phase, you will see a series of rock images along with their category labels.\n        The images will appear one at a time.\n        <b>Your task</b> is to learn the categories to which the rock images belong \n        and to remember each image as accurately as possible.\n      </p> \n      <p>\n        Note that you will see each image only <b>once</b> during the study phase. \n          So, please pay close attention and try to remember each image carefully.\n      </p>\n      <p>\n        After the study phase, <b>your memory will be tested</b>. \n        Additional instructions for the test phase will be provided at that time.\n      </p>\n      <p>\n        If your computer has multiple <b>language settings</b> (e.g., English and another language),\n        please make sure it is set to English before starting.\n      </p>\n      <p>\n        You can track your progress using the <b>completion bar</b> at the top of the screen. \n        Please note that the bar will refresh when the test phase begins \n        to give you an accurate sense of your progress in both phases.\n      </p> \n      <p>\n        Press the button below when you are ready to begin.\n      </p>\n    </div>","response":0,"trial_type":"html-button-response","trial_index":4,"plugin_version":"2.1.0","time_elapsed":13161,"subject_id":"91216","group":"Group1","condition":"1_Rep","full_date":"2026-01-24T01:03:58.453Z","date":"2026-01-24","time":"01:03:58"},{"rt":null,"stimulus":"<p style=\"font-size: 50px; margin: 0; text-align: center;\">+</p>","response":null,"trial_type":"html-keyboard-response","trial_index":5,"plugin_version":"2.1.0","time_elapsed":14168,"subject_id":"91216","group":"Group1","condition":"1_Rep","full_date":"2026-01-24T01:03:58.453Z","date":"2026-01-24","time":"01:03:58"},{"task":"memory_phase","broad_category":"S","image_png":"S_Shale_12.png","image_id":476,"category_name":"Shale","category":30,"distinct_rating":2.48,"distinct_type":"Bottom","rt":null,"stimulus":"Stimuli_Rocks480/S_Shale_12.png","response":null,"trial_type":"image-keyboard-response","trial_index":6,"plugin_version":"2.1.0","time_elapsed":16693,"subject_id":"91216","group":"Group1","condition":"1_Rep","full_date":"2026-01-24T01:03:58.453Z","date":"2026-01-24","time":"01:03:58"},{"rt":null,"stimulus":"<p style=\"font-size: 50px; margin: 0; text-align: center;\">+</p>","response":null,"trial_type":"html-keyboard-response","trial_index":7,"plugin_version":"2.1.0","time_elapsed":17710,"subject_id":"91216","group":"Group1","condition":"1_Rep","full_date":"2026-01-24T01:03:58.453Z","date":"2026-01-24","time":"01:03:58"},{"task":"memory_phase","broad_category":"M","image_png":"M_Quartzite_13.png","image_id":285,"category_name":"Quartzite","category":18,"distinct_rating":2.27,"distinct_type":"Bottom","rt":null,"stimulus":"Stimuli_Rocks480/M_Quartzite_13.png","response":null,"trial_type":"image-keyboard-response","trial_index":8,"plugin_version":"2.1.0","time_elapsed":20219,"subject_id":"91216","group":"Group1","condition":"1_Rep","full_date":"2026-01-24T01:03:58.453Z","date":"2026-01-24","time":"01:03:58"},{"rt":null,"stimulus":"<p style=\"font-size: 50px; margin: 0; text-align: center;\">+</p>","response":null,"trial_type":"html-keyboard-response","trial_index":9,"plugin_version":"2.1.0","time_elapsed":21236,"subject_id":"91216","group":"Group1","condition":"1_Rep","full_date":"2026-01-24T01:03:58.453Z","date":"2026-01-24","time":"01:03:58"},{"task":"memory_phase","broad_category":"M","image_png":"M_Slate_03.png","image_id":307,"category_name":"Slate","category":20,"distinct_rating":1.87,"distinct_type":"Bottom","rt":null,"stimulus":"Stimuli_Rocks480/M_Slate_03.png","response":null,"trial_type":"image-keyboard-response","trial_index":10,"plugin_version":"2.1.0","time_elapsed":23744,"subject_id":"91216","group":"Group1","condition":"1_Rep","full_date":"2026-01-24T01:03:58.453Z","date":"2026-01-24","time":"01:03:58"},{"rt":null,"stimulus":"<p style=\"font-size: 50px; margin: 0; text-align: center;\">+</p>","response":null,"trial_type":"html-keyboard-response","trial_index":11,"plugin_version":"2.1.0","time_elapsed":24762,"subject_id":"91216","group":"Group1","condition":"1_Rep","full_date":"2026-01-24T01:03:58.453Z","date":"2026-01-24","time":"01:03:58"},{"task":"memory_phase","broad_category":"M","image_png":"M_Quartzite_05.png","image_id":277,"category_name":"Quartzite","category":18,"distinct_rating":2.23,"distinct_type":"Bottom","rt":null,"stimulus":"Stimuli_Rocks480/M_Quartzite_05.png","response":null,"trial_type":"image-keyboard-response","trial_index":12,"plugin_version":"2.1.0","time_elapsed":27273,"subject_id":"91216","group":"Group1","condition":"1_Rep","full_date":"2026-01-24T01:03:58.453Z","date":"2026-01-24","time":"01:03:58"},{"rt":null,"stimulus":"<p style=\"font-size: 50px; margin: 0; text-align: center;\">+</p>","response":null,"trial_type":"html-keyboard-response","trial_index":13,"plugin_version":"2.1.0","time_elapsed":28282,"subject_id":"91216","group":"Group1","condition":"1_Rep","full_date":"2026-01-24T01:03:58.453Z","date":"2026-01-24","time":"01:03:58"},{"task":"memory_phase","broad_category":"I","image_png":"I_Basalt_09.png","image_id":25,"category_name":"Basalt","category":2,"distinct_rating":1.89,"distinct_type":"Bottom","rt":null,"stimulus":"Stimuli_Rocks480/I_Basalt_09.png","response":null,"trial_type":"image-keyboard-response","trial_index":14,"plugin_version":"2.1.0","time_elapsed":30797,"subject_id":"91216","group":"Group1","condition":"1_Rep","full_date":"2026-01-24T01:03:58.453Z","date":"2026-01-24","time":"01:03:58"},{"rt":null,"stimulus":"<p style=\"font-size: 50px; margin: 0; text-align: center;\">+</p>","response":null,"trial_type":"html-keyboard-response","trial_index":15,"plugin_version":"2.1.0","time_elapsed":31812,"subject_id":"91216","group":"Group1","condition":"1_Rep","full_date":"2026-01-24T01:03:58.453Z","date":"2026-01-24","time":"01:03:58"},{"task":"memory_phase","broad_category":"S","image_png":"S_Dolomite_13.png","image_id":397,"category_name":"Dolomite","category":25,"distinct_rating":1.77,"distinct_type":"Bottom","rt":null,"stimulus":"Stimuli_Rocks480/S_Dolomite_13.png","response":null,"trial_type":"image-keyboard-response","trial_index":16,"plugin_version":"2.1.0","time_elapsed":34317,"subject_id":"91216","group":"Group1","condition":"1_Rep","full_date":"2026-01-24T01:03:58.453Z","date":"2026-01-24","time":"01:03:58"},{"rt":null,"stimulus":"<p style=\"font-size: 50px; margin: 0; text-align: center;\">+</p>","response":null,"trial_type":"html-keyboard-response","trial_index":17,"plugin_version":"2.1.0","time_elapsed":35321,"subject_id":"91216","group":"Group1","condition":"1_Rep","full_date":"2026-01-24T01:03:58.453Z","date":"2026-01-24","time":"01:03:58"},{"task":"memory_phase","broad_category":"M","image_png":"M_Slate_11.png","image_id":315,"category_name":"Slate","category":20,"distinct_rating":2.75,"distinct_type":"Bottom","rt":null,"stimulus":"Stimuli_Rocks480/M_Slate_11.png","response":null,"trial_type":"image-keyboard-response","trial_index":18,"plugin_version":"2.1.0","time_elapsed":37837,"subject_id":"91216","group":"Group1","condition":"1_Rep","full_date":"2026-01-24T01:03:58.453Z","date":"2026-01-24","time":"01:03:58"},{"rt":null,"stimulus":"<p style=\"font-size: 50px; margin: 0; text-align: center;\">+</p>","response":null,"trial_type":"html-keyboard-response","trial_index":19,"plugin_version":"2.1.0","time_elapsed":38844,"subject_id":"91216","group":"Group1","condition":"1_Rep","full_date":"2026-01-24T01:03:58.453Z","date":"2026-01-24","time":"01:03:58"},{"task":"memory_phase","broad_category":"S","image_png":"S_Shale_08.png","image_id":472,"category_name":"Shale","category":30,"distinct_rating":2.55,"distinct_type":"Bottom","rt":null,"stimulus":"Stimuli_Rocks480/S_Shale_08.png","response":null,"trial_type":"image-keyboard-response","trial_index":20,"plugin_version":"2.1.0","time_elapsed":41358,"subject_id":"91216","group":"Group1","condition":"1_Rep","full_date":"2026-01-24T01:03:58.453Z","date":"2026-01-24","time":"01:03:58"},{"rt":null,"stimulus":"<p style=\"font-size: 50px; margin: 0; text-align: center;\">+</p>","response":null,"trial_type":"html-keyboard-response","trial_index":21,"plugin_version":"2.1.0","time_elapsed":42360,"subject_id":"91216","group":"Group1","condition":"1_Rep","full_date":"2026-01-24T01:03:58.453Z","date":"2026-01-24","time":"01:03:58"},{"task":"memory_phase","broad_category":"M","image_png":"M_Marble_04.png","image_id":228,"category_name":"Marble","category":15,"distinct_rating":3.15,"distinct_type":"Bottom","rt":null,"stimulus":"Stimuli_Rocks480/M_Marble_04.png","response":null,"trial_type":"image-keyboard-response","trial_index":22,"plugin_version":"2.1.0","time_elapsed":44865,"subject_id":"91216","group":"Group1","condition":"1_Rep","full_date":"2026-01-24T01:03:58.453Z","date":"2026-01-24","time":"01:03:58"},{"rt":null,"stimulus":"<p style=\"font-size: 50px; margin: 0; text-align: center;\">+</p>","response":null,"trial_type":"html-keyboard-response","trial_index":23,"plugin_version":"2.1.0","time_elapsed":45868,"subject_id":"91216","group":"Group1","condition":"1_Rep","full_date":"2026-01-24T01:03:58.453Z","date":"2026-01-24","time":"01:03:58"},{"task":"memory_phase","broad_category":"S","image_png":"S_Dolomite_14.png","image_id":398,"category_name":"Dolomite","category":25,"distinct_rating":1.43,"distinct_type":"Bottom","rt":null,"stimulus":"Stimuli_Rocks480/S_Dolomite_14.png","response":null,"trial_type":"image-keyboard-response","trial_index":24,"plugin_version":"2.1.0","time_elapsed":48379,"subject_id":"91216","group":"Group1","condition":"1_Rep","full_date":"2026-01-24T01:03:58.453Z","date":"2026-01-24","time":"01:03:58"},{"rt":null,"stimulus":"<p style=\"font-size: 50px; margin: 0; text-align: center;\">+</p>","response":null,"trial_type":"html-keyboard-response","trial_index":25,"plugin_version":"2.1.0","time_elapsed":49393,"subject_id":"91216","group":"Group1","condition":"1_Rep","full_date":"2026-01-24T01:03:58.453Z","date":"2026-01-24","time":"01:03:58"},{"task":"memory_phase","broad_category":"S","image_png":"S_Dolomite_12.png","image_id":396,"category_name":"Dolomite","category":25,"distinct_rating":1.85,"distinct_type":"Bottom","rt":null,"stimulus":"Stimuli_Rocks480/S_Dolomite_12.png","response":null,"trial_type":"image-keyboard-response","trial_index":26,"plugin_version":"2.1.0","time_elapsed":51900,"subject_id":"91216","group":"Group1","condition":"1_Rep","full_date":"2026-01-24T01:03:58.453Z","date":"2026-01-24","time":"01:03:58"},{"rt":null,"stimulus":"<p style=\"font-size: 50px; margin: 0; text-align: center;\">+</p>","response":null,"trial_type":"html-keyboard-response","trial_index":27,"plugin_version":"2.1.0","time_elapsed":52913,"subject_id":"91216","group":"Group1","condition":"1_Rep","full_date":"2026-01-24T01:03:58.453Z","date":"2026-01-24","time":"01:03:58"},{"task":"memory_phase","broad_category":"S","image_png":"S_Rock Salt_01.png","image_id":433,"category_name":"Rock Salt","category":28,"distinct_rating":7.18,"distinct_type":"Top","rt":null,"stimulus":"Stimuli_Rocks480/S_Rock Salt_01.png","response":null,"trial_type":"image-keyboard-response","trial_index":28,"plugin_version":"2.1.0","time_elapsed":55425,"subject_id":"91216","group":"Group1","condition":"1_Rep","full_date":"2026-01-24T01:03:58.453Z","date":"2026-01-24","time":"01:03:58"},{"rt":null,"stimulus":"<p style=\"font-size: 50px; margin: 0; text-align: center;\">+</p>","response":null,"trial_type":"html-keyboard-response","trial_index":29,"plugin_version":"2.1.0","time_elapsed":56429,"subject_id":"91216","group":"Group1","condition":"1_Rep","full_date":"2026-01-24T01:03:58.453Z","date":"2026-01-24","time":"01:03:58"},{"task":"memory_phase","broad_category":"I","image_png":"I_Andesite_06.png","image_id":6,"category_name":"Andesite","category":1,"distinct_rating":3.17,"distinct_type":"Bottom","rt":null,"stimulus":"Stimuli_Rocks480/I_Andesite_06.png","response":null,"trial_type":"image-keyboard-response","trial_index":30,"plugin_version":"2.1.0","time_elapsed":58947,"subject_id":"91216","group":"Group1","condition":"1_Rep","full_date":"2026-01-24T01:03:58.453Z","date":"2026-01-24","time":"01:03:58"},{"rt":null,"stimulus":"<p style=\"font-size: 50px; margin: 0; text-align: center;\">+</p>","response":null,"trial_type":"html-keyboard-response","trial_index":31,"plugin_version":"2.1.0","time_elapsed":59955,"subject_id":"91216","group":"Group1","condition":"1_Rep","full_date":"2026-01-24T01:03:58.453Z","date":"2026-01-24","time":"01:03:58"},{"task":"memory_phase","broad_category":"I","image_png":"I_Gabbro_08.png","image_id":56,"category_name":"Gabbro","category":4,"distinct_rating":3.02,"distinct_type":"Bottom","rt":null,"stimulus":"Stimuli_Rocks480/I_Gabbro_08.png","response":null,"trial_type":"image-keyboard-response","trial_index":32,"plugin_version":"2.1.0","time_elapsed":62474,"subject_id":"91216","group":"Group1","condition":"1_Rep","full_date":"2026-01-24T01:03:58.453Z","date":"2026-01-24","time":"01:03:58"},{"rt":null,"stimulus":"<p style=\"font-size: 50px; margin: 0; text-align: center;\">+</p>","response":null,"trial_type":"html-keyboard-response","trial_index":33,"plugin_version":"2.1.0","time_elapsed":63482,"subject_id":"91216","group":"Group1","condition":"1_Rep","full_date":"2026-01-24T01:03:58.453Z","date":"2026-01-24","time":"01:03:58"},{"task":"memory_phase","broad_category":"I","image_png":"I_Diorite_03.png","image_id":35,"category_name":"Diorite","category":3,"distinct_rating":3.14,"distinct_type":"Bottom","rt":null,"stimulus":"Stimuli_Rocks480/I_Diorite_03.png","response":null,"trial_type":"image-keyboard-response","trial_index":34,"plugin_version":"2.1.0","time_elapsed":65989,"subject_id":"91216","group":"Group1","condition":"1_Rep","full_date":"2026-01-24T01:03:58.453Z","date":"2026-01-24","time":"01:03:58"},{"rt":null,"stimulus":"<p style=\"font-size: 50px; margin: 0; text-align: center;\">+</p>","response":null,"trial_type":"html-keyboard-response","trial_index":35,"plugin_version":"2.1.0","time_elapsed":66999,"subject_id":"91216","group":"Group1","condition":"1_Rep","full_date":"2026-01-24T01:03:58.453Z","date":"2026-01-24","time":"01:03:58"},{"task":"memory_phase","broad_category":"I","image_png":"I_Diorite_05.png","image_id":37,"category_name":"Diorite","category":3,"distinct_rating":3.08,"distinct_type":"Bottom","rt":null,"stimulus":"Stimuli_Rocks480/I_Diorite_05.png","response":null,"trial_type":"image-keyboard-response","trial_index":36,"plugin_version":"2.1.0","time_elapsed":69505,"subject_id":"91216","group":"Group1","condition":"1_Rep","full_date":"2026-01-24T01:03:58.453Z","date":"2026-01-24","time":"01:03:58"},{"rt":null,"stimulus":"<p style=\"font-size: 50px; margin: 0; text-align: center;\">+</p>","response":null,"trial_type":"html-keyboard-response","trial_index":37,"plugin_version":"2.1.0","time_elapsed":70512,"subject_id":"91216","group":"Group1","condition":"1_Rep","full_date":"2026-01-24T01:03:58.453Z","date":"2026-01-24","time":"01:03:58"},{"task":"memory_phase","broad_category":"M","image_png":"M_Gneiss_13.png","image_id":205,"category_name":"Gneiss","category":13,"distinct_rating":3.26,"distinct_type":"Bottom","rt":null,"stimulus":"Stimuli_Rocks480/M_Gneiss_13.png","response":null,"trial_type":"image-keyboard-response","trial_index":38,"plugin_version":"2.1.0","time_elapsed":73020,"subject_id":"91216","group":"Group1","condition":"1_Rep","full_date":"2026-01-24T01:03:58.453Z","date":"2026-01-24","time":"01:03:58"},{"rt":null,"stimulus":"<p style=\"font-size: 50px; margin: 0; text-align: center;\">+</p>","response":null,"trial_type":"html-keyboard-response","trial_index":39,"plugin_version":"2.1.0","time_elapsed":74030,"subject_id":"91216","group":"Group1","condition":"1_Rep","full_date":"2026-01-24T01:03:58.453Z","date":"2026-01-24","time":"01:03:58"},{"task":"memory_phase","broad_category":"I","image_png":"I_Obsidian_05.png","image_id":85,"category_name":"Obsidian","category":6,"distinct_rating":7.32,"distinct_type":"Top","rt":null,"stimulus":"Stimuli_Rocks480/I_Obsidian_05.png","response":null,"trial_type":"image-keyboard-response","trial_index":40,"plugin_version":"2.1.0","time_elapsed":76546,"subject_id":"91216","group":"Group1","condition":"1_Rep","full_date":"2026-01-24T01:03:58.453Z","date":"2026-01-24","time":"01:03:58"},{"rt":null,"stimulus":"<p style=\"font-size: 50px; margin: 0; text-align: center;\">+</p>","response":null,"trial_type":"html-keyboard-response","trial_index":41,"plugin_version":"2.1.0","time_elapsed":77552,"subject_id":"91216","group":"Group1","condition":"1_Rep","full_date":"2026-01-24T01:03:58.453Z","date":"2026-01-24","time":"01:03:58"},{"task":"memory_phase","broad_category":"I","image_png":"I_Rhyolite_14.png","image_id":158,"category_name":"Rhyolite","category":10,"distinct_rating":2.59,"distinct_type":"Bottom","rt":null,"stimulus":"Stimuli_Rocks480/I_Rhyolite_14.png","response":null,"trial_type":"image-keyboard-response","trial_index":42,"plugin_version":"2.1.0","time_elapsed":80053,"subject_id":"91216","group":"Group1","condition":"1_Rep","full_date":"2026-01-24T01:03:58.453Z","date":"2026-01-24","time":"01:03:58"},{"rt":null,"stimulus":"<p style=\"font-size: 50px; margin: 0; text-align: center;\">+</p>","response":null,"trial_type":"html-keyboard-response","trial_index":43,"plugin_version":"2.1.0","time_elapsed":81068,"subject_id":"91216","group":"Group1","condition":"1_Rep","full_date":"2026-01-24T01:03:58.453Z","date":"2026-01-24","time":"01:03:58"},{"task":"memory_phase","broad_category":"S","image_png":"S_Sandstone_15.png","image_id":463,"category_name":"Sandstone","category":29,"distinct_rating":2,"distinct_type":"Bottom","rt":null,"stimulus":"Stimuli_Rocks480/S_Sandstone_15.png","response":null,"trial_type":"image-keyboard-response","trial_index":44,"plugin_version":"2.1.0","time_elapsed":83574,"subject_id":"91216","group":"Group1","condition":"1_Rep","full_date":"2026-01-24T01:03:58.453Z","date":"2026-01-24","time":"01:03:58"},{"rt":null,"stimulus":"<p style=\"font-size: 50px; margin: 0; text-align: center;\">+</p>","response":null,"trial_type":"html-keyboard-response","trial_index":45,"plugin_version":"2.1.0","time_elapsed":84589,"subject_id":"91216","group":"Group1","condition":"1_Rep","full_date":"2026-01-24T01:03:58.453Z","date":"2026-01-24","time":"01:03:58"},{"task":"memory_phase","broad_category":"I","image_png":"I_Pegmatite_10.png","image_id":106,"category_name":"Pegmatite","category":7,"distinct_rating":7.66,"distinct_type":"Top","rt":null,"stimulus":"Stimuli_Rocks480/I_Pegmatite_10.png","response":null,"trial_type":"image-keyboard-response","trial_index":46,"plugin_version":"2.1.0","time_elapsed":87092,"subject_id":"91216","group":"Group1","condition":"1_Rep","full_date":"2026-01-24T01:03:58.453Z","date":"2026-01-24","time":"01:03:58"},{"rt":null,"stimulus":"<p style=\"font-size: 50px; margin: 0; text-align: center;\">+</p>","response":null,"trial_type":"html-keyboard-response","trial_index":47,"plugin_version":"2.1.0","time_elapsed":88106,"subject_id":"91216","group":"Group1","condition":"1_Rep","full_date":"2026-01-24T01:03:58.453Z","date":"2026-01-24","time":"01:03:58"},{"task":"memory_phase","broad_category":"I","image_png":"I_Basalt_01.png","image_id":17,"category_name":"Basalt","category":2,"distinct_rating":1.92,"distinct_type":"Bottom","rt":null,"stimulus":"Stimuli_Rocks480/I_Basalt_01.png","response":null,"trial_type":"image-keyboard-response","trial_index":48,"plugin_version":"2.1.0","time_elapsed":90616,"subject_id":"91216","group":"Group1","condition":"1_Rep","full_date":"2026-01-24T01:03:58.453Z","date":"2026-01-24","time":"01:03:58"},{"rt":null,"stimulus":"<p style=\"font-size: 50px; margin: 0; text-align: center;\">+</p>","response":null,"trial_type":"html-keyboard-response","trial_index":49,"plugin_version":"2.1.0","time_elapsed":91628,"subject_id":"91216","group":"Group1","condition":"1_Rep","full_date":"2026-01-24T01:03:58.453Z","date":"2026-01-24","time":"01:03:58"},{"task":"memory_phase","broad_category":"I","image_png":"I_Pumice_11.png","image_id":139,"category_name":"Pumice","category":9,"distinct_rating":1.74,"distinct_type":"Bottom","rt":null,"stimulus":"Stimuli_Rocks480/I_Pumice_11.png","response":null,"trial_type":"image-keyboard-response","trial_index":50,"plugin_version":"2.1.0","time_elapsed":94144,"subject_id":"91216","group":"Group1","condition":"1_Rep","full_date":"2026-01-24T01:03:58.453Z","date":"2026-01-24","time":"01:03:58"},{"rt":null,"stimulus":"<p style=\"font-size: 50px; margin: 0; text-align: center;\">+</p>","response":null,"trial_type":"html-keyboard-response","trial_index":51,"plugin_version":"2.1.0","time_elapsed":95153,"subject_id":"91216","group":"Group1","condition":"1_Rep","full_date":"2026-01-24T01:03:58.453Z","date":"2026-01-24","time":"01:03:58"},{"task":"memory_phase","broad_category":"I","image_png":"I_Basalt_02.png","image_id":18,"category_name":"Basalt","category":2,"distinct_rating":1.84,"distinct_type":"Bottom","rt":null,"stimulus":"Stimuli_Rocks480/I_Basalt_02.png","response":null,"trial_type":"image-keyboard-response","trial_index":52,"plugin_version":"2.1.0","time_elapsed":97663,"subject_id":"91216","group":"Group1","condition":"1_Rep","full_date":"2026-01-24T01:03:58.453Z","date":"2026-01-24","time":"01:03:58"},{"rt":null,"stimulus":"<p style=\"font-size: 50px; margin: 0; text-align: center;\">+</p>","response":null,"trial_type":"html-keyboard-response","trial_index":53,"plugin_version":"2.1.0","time_elapsed":98675,"subject_id":"91216","group":"Group1","condition":"1_Rep","full_date":"2026-01-24T01:03:58.453Z","date":"2026-01-24","time":"01:03:58"},{"task":"memory_phase","broad_category":"M","image_png":"M_Phyllite_03.png","image_id":259,"category_name":"Phyllite","category":17,"distinct_rating":2.5,"distinct_type":"Bottom","rt":null,"stimulus":"Stimuli_Rocks480/M_Phyllite_03.png","response":null,"trial_type":"image-keyboard-response","trial_index":54,"plugin_version":"2.1.0","time_elapsed":101178,"subject_id":"91216","group":"Group1","condition":"1_Rep","full_date":"2026-01-24T01:03:58.453Z","date":"2026-01-24","time":"01:03:58"},{"rt":2347,"stimulus":"<p style=\"max-width: 760px; margin: auto; font-size: 35px; line-height: 1.5;\">\n                Press SPACE to continue study phase\n              </p>","response":" ","trial_type":"html-keyboard-response","trial_index":55,"plugin_version":"2.1.0","time_elapsed":103527,"subject_id":"91216","group":"Group1","condition":"1_Rep","full_date":"2026-01-24T01:03:58.453Z","date":"2026-01-24","time":"01:03:58"},{"rt":null,"stimulus":"<p style=\"font-size: 50px; margin: 0; text-align: center;\">+</p>","response":null,"trial_type":"html-keyboard-response","trial_index":56,"plugin_version":"2.1.0","time_elapsed":104530,"subject_id":"91216","group":"Group1","condition":"1_Rep","full_date":"2026-01-24T01:03:58.453Z","date":"2026-01-24","time":"01:03:58"},{"task":"memory_phase","broad_category":"I","image_png":"I_Gabbro_11.png","image_id":59,"category_name":"Gabbro","category":4,"distinct_rating":1.99,"distinct_type":"Bottom","rt":null,"stimulus":"Stimuli_Rocks480/I_Gabbro_11.png","response":null,"trial_type":"image-keyboard-response","trial_index":57,"plugin_version":"2.1.0","time_elapsed":107045,"subject_id":"91216","group":"Group1","condition":"1_Rep","full_date":"2026-01-24T01:03:58.453Z","date":"2026-01-24","time":"01:03:58"},{"rt":null,"stimulus":"<p style=\"font-size: 50px; margin: 0; text-align: center;\">+</p>","response":null,"trial_type":"html-keyboard-response","trial_index":58,"plugin_version":"2.1.0","time_elapsed":108048,"subject_id":"91216","group":"Group1","condition":"1_Rep","full_date":"2026-01-24T01:03:58.453Z","date":"2026-01-24","time":"01:03:58"},{"task":"memory_phase","broad_category":"M","image_png":"M_Slate_15.png","image_id":319,"category_name":"Slate","category":20,"distinct_rating":2.13,"distinct_type":"Bottom","rt":null,"stimulus":"Stimuli_Rocks480/M_Slate_15.png","response":null,"trial_type":"image-keyboard-response","trial_index":59,"plugin_version":"2.1.0","time_elapsed":110564,"subject_id":"91216","group":"Group1","condition":"1_Rep","full_date":"2026-01-24T01:03:58.453Z","date":"2026-01-24","time":"01:03:58"},{"rt":null,"stimulus":"<p style=\"font-size: 50px; margin: 0; text-align: center;\">+</p>","response":null,"trial_type":"html-keyboard-response","trial_index":60,"plugin_version":"2.1.0","time_elapsed":111578,"subject_id":"91216","group":"Group1","condition":"1_Rep","full_date":"2026-01-24T01:03:58.453Z","date":"2026-01-24","time":"01:03:58"},{"task":"memory_phase","broad_category":"I","image_png":"I_Pegmatite_16.png","image_id":112,"category_name":"Pegmatite","category":7,"distinct_rating":7.03,"distinct_type":"Top","rt":null,"stimulus":"Stimuli_Rocks480/I_Pegmatite_16.png","response":null,"trial_type":"image-keyboard-response","trial_index":61,"plugin_version":"2.1.0","time_elapsed":114080,"subject_id":"91216","group":"Group1","condition":"1_Rep","full_date":"2026-01-24T01:03:58.453Z","date":"2026-01-24","time":"01:03:58"},{"rt":null,"stimulus":"<p style=\"font-size: 50px; margin: 0; text-align: center;\">+</p>","response":null,"trial_type":"html-keyboard-response","trial_index":62,"plugin_version":"2.1.0","time_elapsed":115096,"subject_id":"91216","group":"Group1","condition":"1_Rep","full_date":"2026-01-24T01:03:58.453Z","date":"2026-01-24","time":"01:03:58"},{"task":"memory_phase","broad_category":"I","image_png":"I_Pumice_12.png","image_id":140,"category_name":"Pumice","category":9,"distinct_rating":2.97,"distinct_type":"Bottom","rt":null,"stimulus":"Stimuli_Rocks480/I_Pumice_12.png","response":null,"trial_type":"image-keyboard-response","trial_index":63,"plugin_version":"2.1.0","time_elapsed":117615,"subject_id":"91216","group":"Group1","condition":"1_Rep","full_date":"2026-01-24T01:03:58.453Z","date":"2026-01-24","time":"01:03:58"},{"rt":null,"stimulus":"<p style=\"font-size: 50px; margin: 0; text-align: center;\">+</p>","response":null,"trial_type":"html-keyboard-response","trial_index":64,"plugin_version":"2.1.0","time_elapsed":118633,"subject_id":"91216","group":"Group1","condition":"1_Rep","full_date":"2026-01-24T01:03:58.453Z","date":"2026-01-24","time":"01:03:58"},{"task":"memory_phase","broad_category":"M","image_png":"M_Marble_06.png","image_id":230,"category_name":"Marble","category":15,"distinct_rating":3.4,"distinct_type":"Bottom","rt":null,"stimulus":"Stimuli_Rocks480/M_Marble_06.png","response":null,"trial_type":"image-keyboard-response","trial_index":65,"plugin_version":"2.1.0","time_elapsed":121148,"subject_id":"91216","group":"Group1","condition":"1_Rep","full_date":"2026-01-24T01:03:58.453Z","date":"2026-01-24","time":"01:03:58"},{"rt":null,"stimulus":"<p style=\"font-size: 50px; margin: 0; text-align: center;\">+</p>","response":null,"trial_type":"html-keyboard-response","trial_index":66,"plugin_version":"2.1.0","time_elapsed":122165,"subject_id":"91216","group":"Group1","condition":"1_Rep","full_date":"2026-01-24T01:03:58.453Z","date":"2026-01-24","time":"01:03:58"},{"task":"memory_phase","broad_category":"S","image_png":"S_Shale_01.png","image_id":465,"category_name":"Shale","category":30,"distinct_rating":2.7,"distinct_type":"Bottom","rt":null,"stimulus":"Stimuli_Rocks480/S_Shale_01.png","response":null,"trial_type":"image-keyboard-response","trial_index":67,"plugin_version":"2.1.0","time_elapsed":124680,"subject_id":"91216","group":"Group1","condition":"1_Rep","full_date":"2026-01-24T01:03:58.453Z","date":"2026-01-24","time":"01:03:58"},{"rt":null,"stimulus":"<p style=\"font-size: 50px; margin: 0; text-align: center;\">+</p>","response":null,"trial_type":"html-keyboard-response","trial_index":68,"plugin_version":"2.1.0","time_elapsed":125696,"subject_id":"91216","group":"Group1","condition":"1_Rep","full_date":"2026-01-24T01:03:58.453Z","date":"2026-01-24","time":"01:03:58"},{"task":"memory_phase","broad_category":"S","image_png":"S_Conglomerate_05.png","image_id":373,"category_name":"Conglomerate","category":24,"distinct_rating":7.32,"distinct_type":"Top","rt":null,"stimulus":"Stimuli_Rocks480/S_Conglomerate_05.png","response":null,"trial_type":"image-keyboard-response","trial_index":69,"plugin_version":"2.1.0","time_elapsed":128216,"subject_id":"91216","group":"Group1","condition":"1_Rep","full_date":"2026-01-24T01:03:58.453Z","date":"2026-01-24","time":"01:03:58"},{"rt":null,"stimulus":"<p style=\"font-size: 50px; margin: 0; text-align: center;\">+</p>","response":null,"trial_type":"html-keyboard-response","trial_index":70,"plugin_version":"2.1.0","time_elapsed":129232,"subject_id":"91216","group":"Group1","condition":"1_Rep","full_date":"2026-01-24T01:03:58.453Z","date":"2026-01-24","time":"01:03:58"},{"task":"memory_phase","broad_category":"S","image_png":"S_Sandstone_16.png","image_id":464,"category_name":"Sandstone","category":29,"distinct_rating":1.93,"distinct_type":"Bottom","rt":null,"stimulus":"Stimuli_Rocks480/S_Sandstone_16.png","response":null,"trial_type":"image-keyboard-response","trial_index":71,"plugin_version":"2.1.0","time_elapsed":131741,"subject_id":"91216","group":"Group1","condition":"1_Rep","full_date":"2026-01-24T01:03:58.453Z","date":"2026-01-24","time":"01:03:58"},{"rt":null,"stimulus":"<p style=\"font-size: 50px; margin: 0; text-align: center;\">+</p>","response":null,"trial_type":"html-keyboard-response","trial_index":72,"plugin_version":"2.1.0","time_elapsed":132746,"subject_id":"91216","group":"Group1","condition":"1_Rep","full_date":"2026-01-24T01:03:58.453Z","date":"2026-01-24","time":"01:03:58"},{"task":"memory_phase","broad_category":"I","image_png":"I_Rhyolite_11.png","image_id":155,"category_name":"Rhyolite","category":10,"distinct_rating":1.73,"distinct_type":"Bottom","rt":null,"stimulus":"Stimuli_Rocks480/I_Rhyolite_11.png","response":null,"trial_type":"image-keyboard-response","trial_index":73,"plugin_version":"2.1.0","time_elapsed":135264,"subject_id":"91216","group":"Group1","condition":"1_Rep","full_date":"2026-01-24T01:03:58.453Z","date":"2026-01-24","time":"01:03:58"},{"rt":null,"stimulus":"<p style=\"font-size: 50px; margin: 0; text-align: center;\">+</p>","response":null,"trial_type":"html-keyboard-response","trial_index":74,"plugin_version":"2.1.0","time_elapsed":136279,"subject_id":"91216","group":"Group1","condition":"1_Rep","full_date":"2026-01-24T01:03:58.453Z","date":"2026-01-24","time":"01:03:58"},{"task":"memory_phase","broad_category":"M","image_png":"M_Gneiss_05.png","image_id":197,"category_name":"Gneiss","category":13,"distinct_rating":2.97,"distinct_type":"Bottom","rt":null,"stimulus":"Stimuli_Rocks480/M_Gneiss_05.png","response":null,"trial_type":"image-keyboard-response","trial_index":75,"plugin_version":"2.1.0","time_elapsed":138793,"subject_id":"91216","group":"Group1","condition":"1_Rep","full_date":"2026-01-24T01:03:58.453Z","date":"2026-01-24","time":"01:03:58"},{"rt":null,"stimulus":"<p style=\"font-size: 50px; margin: 0; text-align: center;\">+</p>","response":null,"trial_type":"html-keyboard-response","trial_index":76,"plugin_version":"2.1.0","time_elapsed":139803,"subject_id":"91216","group":"Group1","condition":"1_Rep","full_date":"2026-01-24T01:03:58.453Z","date":"2026-01-24","time":"01:03:58"},{"task":"memory_phase","broad_category":"M","image_png":"M_Quartzite_08.png","image_id":280,"category_name":"Quartzite","category":18,"distinct_rating":2.15,"distinct_type":"Bottom","rt":null,"stimulus":"Stimuli_Rocks480/M_Quartzite_08.png","response":null,"trial_type":"image-keyboard-response","trial_index":77,"plugin_version":"2.1.0","time_elapsed":142314,"subject_id":"91216","group":"Group1","condition":"1_Rep","full_date":"2026-01-24T01:03:58.453Z","date":"2026-01-24","time":"01:03:58"},{"rt":null,"stimulus":"<p style=\"font-size: 50px; margin: 0; text-align: center;\">+</p>","response":null,"trial_type":"html-keyboard-response","trial_index":78,"plugin_version":"2.1.0","time_elapsed":143329,"subject_id":"91216","group":"Group1","condition":"1_Rep","full_date":"2026-01-24T01:03:58.453Z","date":"2026-01-24","time":"01:03:58"},{"task":"memory_phase","broad_category":"S","image_png":"S_Breccia_11.png","image_id":347,"category_name":"Breccia","category":22,"distinct_rating":6.7,"distinct_type":"Top","rt":null,"stimulus":"Stimuli_Rocks480/S_Breccia_11.png","response":null,"trial_type":"image-keyboard-response","trial_index":79,"plugin_version":"2.1.0","time_elapsed":145847,"subject_id":"91216","group":"Group1","condition":"1_Rep","full_date":"2026-01-24T01:03:58.453Z","date":"2026-01-24","time":"01:03:58"},{"rt":null,"stimulus":"<p style=\"font-size: 50px; margin: 0; text-align: center;\">+</p>","response":null,"trial_type":"html-keyboard-response","trial_index":80,"plugin_version":"2.1.0","time_elapsed":146861,"subject_id":"91216","group":"Group1","condition":"1_Rep","full_date":"2026-01-24T01:03:58.453Z","date":"2026-01-24","time":"01:03:58"},{"task":"memory_phase","broad_category":"M","image_png":"M_Phyllite_07.png","image_id":263,"category_name":"Phyllite","category":17,"distinct_rating":2.59,"distinct_type":"Bottom","rt":null,"stimulus":"Stimuli_Rocks480/M_Phyllite_07.png","response":null,"trial_type":"image-keyboard-response","trial_index":81,"plugin_version":"2.1.0","time_elapsed":149374,"subject_id":"91216","group":"Group1","condition":"1_Rep","full_date":"2026-01-24T01:03:58.453Z","date":"2026-01-24","time":"01:03:58"},{"rt":null,"stimulus":"<p style=\"font-size: 50px; margin: 0; text-align: center;\">+</p>","response":null,"trial_type":"html-keyboard-response","trial_index":82,"plugin_version":"2.1.0","time_elapsed":150381,"subject_id":"91216","group":"Group1","condition":"1_Rep","full_date":"2026-01-24T01:03:58.453Z","date":"2026-01-24","time":"01:03:58"},{"task":"memory_phase","broad_category":"M","image_png":"M_Gneiss_06.png","image_id":198,"category_name":"Gneiss","category":13,"distinct_rating":2.65,"distinct_type":"Bottom","rt":null,"stimulus":"Stimuli_Rocks480/M_Gneiss_06.png","response":null,"trial_type":"image-keyboard-response","trial_index":83,"plugin_version":"2.1.0","time_elapsed":152889,"subject_id":"91216","group":"Group1","condition":"1_Rep","full_date":"2026-01-24T01:03:58.453Z","date":"2026-01-24","time":"01:03:58"},{"rt":null,"stimulus":"<p style=\"font-size: 50px; margin: 0; text-align: center;\">+</p>","response":null,"trial_type":"html-keyboard-response","trial_index":84,"plugin_version":"2.1.0","time_elapsed":153892,"subject_id":"91216","group":"Group1","condition":"1_Rep","full_date":"2026-01-24T01:03:58.453Z","date":"2026-01-24","time":"01:03:58"},{"task":"memory_phase","broad_category":"I","image_png":"I_Pumice_08.png","image_id":136,"category_name":"Pumice","category":9,"distinct_rating":3.1,"distinct_type":"Bottom","rt":null,"stimulus":"Stimuli_Rocks480/I_Pumice_08.png","response":null,"trial_type":"image-keyboard-response","trial_index":85,"plugin_version":"2.1.0","time_elapsed":156410,"subject_id":"91216","group":"Group1","condition":"1_Rep","full_date":"2026-01-24T01:03:58.453Z","date":"2026-01-24","time":"01:03:58"},{"rt":null,"stimulus":"<p style=\"font-size: 50px; margin: 0; text-align: center;\">+</p>","response":null,"trial_type":"html-keyboard-response","trial_index":86,"plugin_version":"2.1.0","time_elapsed":157427,"subject_id":"91216","group":"Group1","condition":"1_Rep","full_date":"2026-01-24T01:03:58.453Z","date":"2026-01-24","time":"01:03:58"},{"task":"memory_phase","broad_category":"S","image_png":"S_Sandstone_03.png","image_id":451,"category_name":"Sandstone","category":29,"distinct_rating":1.86,"distinct_type":"Bottom","rt":null,"stimulus":"Stimuli_Rocks480/S_Sandstone_03.png","response":null,"trial_type":"image-keyboard-response","trial_index":87,"plugin_version":"2.1.0","time_elapsed":159946,"subject_id":"91216","group":"Group1","condition":"1_Rep","full_date":"2026-01-24T01:03:58.453Z","date":"2026-01-24","time":"01:03:58"},{"rt":null,"stimulus":"<p style=\"font-size: 50px; margin: 0; text-align: center;\">+</p>","response":null,"trial_type":"html-keyboard-response","trial_index":88,"plugin_version":"2.1.0","time_elapsed":160949,"subject_id":"91216","group":"Group1","condition":"1_Rep","full_date":"2026-01-24T01:03:58.453Z","date":"2026-01-24","time":"01:03:58"},{"task":"memory_phase","broad_category":"S","image_png":"S_Chert_10.png","image_id":362,"category_name":"Chert","category":23,"distinct_rating":7.17,"distinct_type":"Top","rt":null,"stimulus":"Stimuli_Rocks480/S_Chert_10.png","response":null,"trial_type":"image-keyboard-response","trial_index":89,"plugin_version":"2.1.0","time_elapsed":163464,"subject_id":"91216","group":"Group1","condition":"1_Rep","full_date":"2026-01-24T01:03:58.453Z","date":"2026-01-24","time":"01:03:58"},{"rt":null,"stimulus":"<p style=\"font-size: 50px; margin: 0; text-align: center;\">+</p>","response":null,"trial_type":"html-keyboard-response","trial_index":90,"plugin_version":"2.1.0","time_elapsed":164482,"subject_id":"91216","group":"Group1","condition":"1_Rep","full_date":"2026-01-24T01:03:58.453Z","date":"2026-01-24","time":"01:03:58"},{"task":"memory_phase","broad_category":"I","image_png":"I_Diorite_04.png","image_id":36,"category_name":"Diorite","category":3,"distinct_rating":2.98,"distinct_type":"Bottom","rt":null,"stimulus":"Stimuli_Rocks480/I_Diorite_04.png","response":null,"trial_type":"image-keyboard-response","trial_index":91,"plugin_version":"2.1.0","time_elapsed":166999,"subject_id":"91216","group":"Group1","condition":"1_Rep","full_date":"2026-01-24T01:03:58.453Z","date":"2026-01-24","time":"01:03:58"},{"rt":null,"stimulus":"<p style=\"font-size: 50px; margin: 0; text-align: center;\">+</p>","response":null,"trial_type":"html-keyboard-response","trial_index":92,"plugin_version":"2.1.0","time_elapsed":168012,"subject_id":"91216","group":"Group1","condition":"1_Rep","full_date":"2026-01-24T01:03:58.453Z","date":"2026-01-24","time":"01:03:58"},{"task":"memory_phase","broad_category":"I","image_png":"I_Rhyolite_16.png","image_id":160,"category_name":"Rhyolite","category":10,"distinct_rating":2.19,"distinct_type":"Bottom","rt":null,"stimulus":"Stimuli_Rocks480/I_Rhyolite_16.png","response":null,"trial_type":"image-keyboard-response","trial_index":93,"plugin_version":"2.1.0","time_elapsed":170526,"subject_id":"91216","group":"Group1","condition":"1_Rep","full_date":"2026-01-24T01:03:58.453Z","date":"2026-01-24","time":"01:03:58"},{"rt":null,"stimulus":"<p style=\"font-size: 50px; margin: 0; text-align: center;\">+</p>","response":null,"trial_type":"html-keyboard-response","trial_index":94,"plugin_version":"2.1.0","time_elapsed":171541,"subject_id":"91216","group":"Group1","condition":"1_Rep","full_date":"2026-01-24T01:03:58.453Z","date":"2026-01-24","time":"01:03:58"},{"task":"memory_phase","broad_category":"M","image_png":"M_Phyllite_10.png","image_id":266,"category_name":"Phyllite","category":17,"distinct_rating":2.6,"distinct_type":"Bottom","rt":null,"stimulus":"Stimuli_Rocks480/M_Phyllite_10.png","response":null,"trial_type":"image-keyboard-response","trial_index":95,"plugin_version":"2.1.0","time_elapsed":174049,"subject_id":"91216","group":"Group1","condition":"1_Rep","full_date":"2026-01-24T01:03:58.453Z","date":"2026-01-24","time":"01:03:58"},{"rt":null,"stimulus":"<p style=\"font-size: 50px; margin: 0; text-align: center;\">+</p>","response":null,"trial_type":"html-keyboard-response","trial_index":96,"plugin_version":"2.1.0","time_elapsed":175064,"subject_id":"91216","group":"Group1","condition":"1_Rep","full_date":"2026-01-24T01:03:58.453Z","date":"2026-01-24","time":"01:03:58"},{"task":"memory_phase","broad_category":"I","image_png":"I_Andesite_08.png","image_id":8,"category_name":"Andesite","category":1,"distinct_rating":1.95,"distinct_type":"Bottom","rt":null,"stimulus":"Stimuli_Rocks480/I_Andesite_08.png","response":null,"trial_type":"image-keyboard-response","trial_index":97,"plugin_version":"2.1.0","time_elapsed":177583,"subject_id":"91216","group":"Group1","condition":"1_Rep","full_date":"2026-01-24T01:03:58.453Z","date":"2026-01-24","time":"01:03:58"},{"rt":null,"stimulus":"<p style=\"font-size: 50px; margin: 0; text-align: center;\">+</p>","response":null,"trial_type":"html-keyboard-response","trial_index":98,"plugin_version":"2.1.0","time_elapsed":178592,"subject_id":"91216","group":"Group1","condition":"1_Rep","full_date":"2026-01-24T01:03:58.453Z","date":"2026-01-24","time":"01:03:58"},{"task":"memory_phase","broad_category":"I","image_png":"I_Andesite_10.png","image_id":10,"category_name":"Andesite","category":1,"distinct_rating":3.15,"distinct_type":"Bottom","rt":null,"stimulus":"Stimuli_Rocks480/I_Andesite_10.png","response":null,"trial_type":"image-keyboard-response","trial_index":99,"plugin_version":"2.1.0","time_elapsed":181100,"subject_id":"91216","group":"Group1","condition":"1_Rep","full_date":"2026-01-24T01:03:58.453Z","date":"2026-01-24","time":"01:03:58"},{"rt":null,"stimulus":"<p style=\"font-size: 50px; margin: 0; text-align: center;\">+</p>","response":null,"trial_type":"html-keyboard-response","trial_index":100,"plugin_version":"2.1.0","time_elapsed":182115,"subject_id":"91216","group":"Group1","condition":"1_Rep","full_date":"2026-01-24T01:03:58.453Z","date":"2026-01-24","time":"01:03:58"},{"task":"memory_phase","broad_category":"M","image_png":"M_Marble_16.png","image_id":240,"category_name":"Marble","category":15,"distinct_rating":2.57,"distinct_type":"Bottom","rt":null,"stimulus":"Stimuli_Rocks480/M_Marble_16.png","response":null,"trial_type":"image-keyboard-response","trial_index":101,"plugin_version":"2.1.0","time_elapsed":184628,"subject_id":"91216","group":"Group1","condition":"1_Rep","full_date":"2026-01-24T01:03:58.453Z","date":"2026-01-24","time":"01:03:58"},{"rt":null,"stimulus":"<p style=\"font-size: 50px; margin: 0; text-align: center;\">+</p>","response":null,"trial_type":"html-keyboard-response","trial_index":102,"plugin_version":"2.1.0","time_elapsed":185644,"subject_id":"91216","group":"Group1","condition":"1_Rep","full_date":"2026-01-24T01:03:58.453Z","date":"2026-01-24","time":"01:03:58"},{"task":"memory_phase","broad_category":"I","image_png":"I_Gabbro_16.png","image_id":64,"category_name":"Gabbro","category":4,"distinct_rating":2.52,"distinct_type":"Bottom","rt":null,"stimulus":"Stimuli_Rocks480/I_Gabbro_16.png","response":null,"trial_type":"image-keyboard-response","trial_index":103,"plugin_version":"2.1.0","time_elapsed":188146,"subject_id":"91216","group":"Group1","condition":"1_Rep","full_date":"2026-01-24T01:03:58.453Z","date":"2026-01-24","time":"01:03:58"},{"rt":null,"stimulus":"<p style=\"font-size: 50px; margin: 0; text-align: center;\">+</p>","response":null,"trial_type":"html-keyboard-response","trial_index":104,"plugin_version":"2.1.0","time_elapsed":189165,"subject_id":"91216","group":"Group1","condition":"1_Rep","full_date":"2026-01-24T01:03:58.453Z","date":"2026-01-24","time":"01:03:58"},{"task":"memory_phase","broad_category":"S","image_png":"S_Rock Gypsum_04.png","image_id":420,"category_name":"Rock Gypsum","category":27,"distinct_rating":7.61,"distinct_type":"Top","rt":null,"stimulus":"Stimuli_Rocks480/S_Rock Gypsum_04.png","response":null,"trial_type":"image-keyboard-response","trial_index":105,"plugin_version":"2.1.0","time_elapsed":191673,"subject_id":"91216","group":"Group1","condition":"1_Rep","full_date":"2026-01-24T01:03:58.453Z","date":"2026-01-24","time":"01:03:58"},{"rt":2392,"stimulus":"<div style=\"max-width: 760px; margin: auto; font-size: 20px; line-height: 1.5;\">\n      <h1 style=\"text-align:center; font-size: 30px;\">Instructions for the Test Phase</h1>\n      <p>\n        The study phase is now complete.\n      </p>\n      <p>\n        In the test phase, you will again see a series of rock images. \n        Some will be ones you saw before - during the study phase, while others will be new.  \n        <b>Your task</b> is to decide whether you have seen each image before by pressing the corresponding key on your keyboard:<br><br>\n          <b>A</b> - NO (you did not see this image before)<br>\n          <b>L</b> - YES (you saw this image before)<br><br>\n        The test will proceed at your own pace. You will receive feedback after each response.  \n        Please try to respond <b>as accurately as possible</b>.\n      </p>\n      <p>\n        <b>Reminder:</b> If your computer has multiple language settings (e.g., English and another language),\n        please ensure it is set to English during the test phase.\n      </p>\n      <p>\n        You can track your progress using the <b>completion bar</b> at the top of the screen.  \n        Note that it has been refreshed to reflect your progress during this final phase.\n      </p>\n      <p>\n        Press the button below when you are ready to continue.\n      </p>\n    </div>","response":0,"trial_type":"html-button-response","trial_index":106,"plugin_version":"2.1.0","time_elapsed":194070,"subject_id":"91216","group":"Group1","condition":"1_Rep","full_date":"2026-01-24T01:03:58.453Z","date":"2026-01-24","time":"01:03:58"},{"correct_response":"a","task":"test_phase","broad_category":"I","image_png":"I_Andesite_09.png","image_id":9,"category_name":"Andesite","category":1,"distinct_rating":2.49,"distinct_type":"Bottom","item_type":"Foil","rt":4448,"stimulus":"Stimuli_Rocks480/I_Andesite_09.png","response":"l","trial_type":"image-keyboard-response","trial_index":107,"plugin_version":"2.1.0","time_elapsed":198521,"subject_id":"91216","group":"Group1","condition":"1_Rep","full_date":"2026-01-24T01:03:58.453Z","date":"2026-01-24","time":"01:03:58","cor_ans":false},{"trial_type":"html-keyboard-response","rt":null,"stimulus":"<p style=\"color: red; font-size: 50px; font-weight: bold;\">Incorrect</p>","response":null,"trial_index":108,"plugin_version":"2.1.0","time_elapsed":199028,"subject_id":"91216","group":"Group1","condition":"1_Rep","full_date":"2026-01-24T01:03:58.453Z","date":"2026-01-24","time":"01:03:58"},{"correct_response":"l","task":"test_phase","broad_category":"I","image_png":"I_Rhyolite_16.png","image_id":160,"category_name":"Rhyolite","category":10,"distinct_rating":2.19,"distinct_type":"Bottom","item_type":"Target","rt":1855,"stimulus":"Stimuli_Rocks480/I_Rhyolite_16.png","response":"l","trial_type":"image-keyboard-response","trial_index":109,"plugin_version":"2.1.0","time_elapsed":200885,"subject_id":"91216","group":"Group1","condition":"1_Rep","full_date":"2026-01-24T01:03:58.453Z","date":"2026-01-24","time":"01:03:58","cor_ans":true},{"trial_type":"html-keyboard-response","rt":null,"stimulus":"<p style=\"color: green; font-size: 50px; font-weight: bold;\">Correct</p>","response":null,"trial_index":110,"plugin_version":"2.1.0","time_elapsed":201396,"subject_id":"91216","group":"Group1","condition":"1_Rep","full_date":"2026-01-24T01:03:58.453Z","date":"2026-01-24","time":"01:03:58"},{"correct_response":"a","task":"test_phase","broad_category":"M","image_png":"M_Marble_14.png","image_id":238,"category_name":"Marble","category":15,"distinct_rating":3.31,"distinct_type":"Bottom","item_type":"Foil","rt":1413,"stimulus":"Stimuli_Rocks480/M_Marble_14.png","response":"l","trial_type":"image-keyboard-response","trial_index":111,"plugin_version":"2.1.0","time_elapsed":202812,"subject_id":"91216","group":"Group1","condition":"1_Rep","full_date":"2026-01-24T01:03:58.453Z","date":"2026-01-24","time":"01:03:58","cor_ans":false},{"trial_type":"html-keyboard-response","rt":null,"stimulus":"<p style=\"color: red; font-size: 50px; font-weight: bold;\">Incorrect</p>","response":null,"trial_index":112,"plugin_version":"2.1.0","time_elapsed":203328,"subject_id":"91216","group":"Group1","condition":"1_Rep","full_date":"2026-01-24T01:03:58.453Z","date":"2026-01-24","time":"01:03:58"},{"correct_response":"l","task":"test_phase","broad_category":"I","image_png":"I_Andesite_10.png","image_id":10,"category_name":"Andesite","category":1,"distinct_rating":3.15,"distinct_type":"Bottom","item_type":"Target","rt":1739,"stimulus":"Stimuli_Rocks480/I_Andesite_10.png","response":"l","trial_type":"image-keyboard-response","trial_index":113,"plugin_version":"2.1.0","time_elapsed":205068,"subject_id":"91216","group":"Group1","condition":"1_Rep","full_date":"2026-01-24T01:03:58.453Z","date":"2026-01-24","time":"01:03:58","cor_ans":true},{"trial_type":"html-keyboard-response","rt":null,"stimulus":"<p style=\"color: green; font-size: 50px; font-weight: bold;\">Correct</p>","response":null,"trial_index":114,"plugin_version":"2.1.0","time_elapsed":205581,"subject_id":"91216","group":"Group1","condition":"1_Rep","full_date":"2026-01-24T01:03:58.453Z","date":"2026-01-24","time":"01:03:58"},{"correct_response":"l","task":"test_phase","broad_category":"S","image_png":"S_Dolomite_13.png","image_id":397,"category_name":"Dolomite","category":25,"distinct_rating":1.77,"distinct_type":"Bottom","item_type":"Target","rt":1788,"stimulus":"Stimuli_Rocks480/S_Dolomite_13.png","response":"l","trial_type":"image-keyboard-response","trial_index":115,"plugin_version":"2.1.0","time_elapsed":207372,"subject_id":"91216","group":"Group1","condition":"1_Rep","full_date":"2026-01-24T01:03:58.453Z","date":"2026-01-24","time":"01:03:58","cor_ans":true},{"trial_type":"html-keyboard-response","rt":null,"stimulus":"<p style=\"color: green; font-size: 50px; font-weight: bold;\">Correct</p>","response":null,"trial_index":116,"plugin_version":"2.1.0","time_elapsed":207883,"subject_id":"91216","group":"Group1","condition":"1_Rep","full_date":"2026-01-24T01:03:58.453Z","date":"2026-01-24","time":"01:03:58"},{"correct_response":"l","task":"test_phase","broad_category":"I","image_png":"I_Basalt_09.png","image_id":25,"category_name":"Basalt","category":2,"distinct_rating":1.89,"distinct_type":"Bottom","item_type":"Target","rt":2129,"stimulus":"Stimuli_Rocks480/I_Basalt_09.png","response":"l","trial_type":"image-keyboard-response","trial_index":117,"plugin_version":"2.1.0","time_elapsed":210015,"subject_id":"91216","group":"Group1","condition":"1_Rep","full_date":"2026-01-24T01:03:58.453Z","date":"2026-01-24","time":"01:03:58","cor_ans":true},{"trial_type":"html-keyboard-response","rt":null,"stimulus":"<p style=\"color: green; font-size: 50px; font-weight: bold;\">Correct</p>","response":null,"trial_index":118,"plugin_version":"2.1.0","time_elapsed":210532,"subject_id":"91216","group":"Group1","condition":"1_Rep","full_date":"2026-01-24T01:03:58.453Z","date":"2026-01-24","time":"01:03:58"},{"correct_response":"l","task":"test_phase","broad_category":"S","image_png":"S_Shale_12.png","image_id":476,"category_name":"Shale","category":30,"distinct_rating":2.48,"distinct_type":"Bottom","item_type":"Target","rt":1297,"stimulus":"Stimuli_Rocks480/S_Shale_12.png","response":"l","trial_type":"image-keyboard-response","trial_index":119,"plugin_version":"2.1.0","time_elapsed":211831,"subject_id":"91216","group":"Group1","condition":"1_Rep","full_date":"2026-01-24T01:03:58.453Z","date":"2026-01-24","time":"01:03:58","cor_ans":true},{"trial_type":"html-keyboard-response","rt":null,"stimulus":"<p style=\"color: green; font-size: 50px; font-weight: bold;\">Correct</p>","response":null,"trial_index":120,"plugin_version":"2.1.0","time_elapsed":212344,"subject_id":"91216","group":"Group1","condition":"1_Rep","full_date":"2026-01-24T01:03:58.453Z","date":"2026-01-24","time":"01:03:58"},{"correct_response":"a","task":"test_phase","broad_category":"I","image_png":"I_Basalt_08.png","image_id":24,"category_name":"Basalt","category":2,"distinct_rating":2.31,"distinct_type":"Bottom","item_type":"Foil","rt":2323,"stimulus":"Stimuli_Rocks480/I_Basalt_08.png","response":"a","trial_type":"image-keyboard-response","trial_index":121,"plugin_version":"2.1.0","time_elapsed":214669,"subject_id":"91216","group":"Group1","condition":"1_Rep","full_date":"2026-01-24T01:03:58.453Z","date":"2026-01-24","time":"01:03:58","cor_ans":true},{"trial_type":"html-keyboard-response","rt":null,"stimulus":"<p style=\"color: green; font-size: 50px; font-weight: bold;\">Correct</p>","response":null,"trial_index":122,"plugin_version":"2.1.0","time_elapsed":215186,"subject_id":"91216","group":"Group1","condition":"1_Rep","full_date":"2026-01-24T01:03:58.453Z","date":"2026-01-24","time":"01:03:58"},{"correct_response":"a","task":"test_phase","broad_category":"S","image_png":"S_Sandstone_04.png","image_id":452,"category_name":"Sandstone","category":29,"distinct_rating":1.8,"distinct_type":"Bottom","item_type":"Foil","rt":911,"stimulus":"Stimuli_Rocks480/S_Sandstone_04.png","response":"l","trial_type":"image-keyboard-response","trial_index":123,"plugin_version":"2.1.0","time_elapsed":216101,"subject_id":"91216","group":"Group1","condition":"1_Rep","full_date":"2026-01-24T01:03:58.453Z","date":"2026-01-24","time":"01:03:58","cor_ans":false},{"trial_type":"html-keyboard-response","rt":null,"stimulus":"<p style=\"color: red; font-size: 50px; font-weight: bold;\">Incorrect</p>","response":null,"trial_index":124,"plugin_version":"2.1.0","time_elapsed":216605,"subject_id":"91216","group":"Group1","condition":"1_Rep","full_date":"2026-01-24T01:03:58.453Z","date":"2026-01-24","time":"01:03:58"},{"correct_response":"l","task":"test_phase","broad_category":"S","image_png":"S_Chert_10.png","image_id":362,"category_name":"Chert","category":23,"distinct_rating":7.17,"distinct_type":"Top","item_type":"Target","rt":1869,"stimulus":"Stimuli_Rocks480/S_Chert_10.png","response":"l","trial_type":"image-keyboard-response","trial_index":125,"plugin_version":"2.1.0","time_elapsed":218476,"subject_id":"91216","group":"Group1","condition":"1_Rep","full_date":"2026-01-24T01:03:58.453Z","date":"2026-01-24","time":"01:03:58","cor_ans":true},{"trial_type":"html-keyboard-response","rt":null,"stimulus":"<p style=\"color: green; font-size: 50px; font-weight: bold;\">Correct</p>","response":null,"trial_index":126,"plugin_version":"2.1.0","time_elapsed":218984,"subject_id":"91216","group":"Group1","condition":"1_Rep","full_date":"2026-01-24T01:03:58.453Z","date":"2026-01-24","time":"01:03:58"},{"correct_response":"a","task":"test_phase","broad_category":"M","image_png":"M_Marble_02.png","image_id":226,"category_name":"Marble","category":15,"distinct_rating":3.2,"distinct_type":"Bottom","item_type":"Foil","rt":860,"stimulus":"Stimuli_Rocks480/M_Marble_02.png","response":"l","trial_type":"image-keyboard-response","trial_index":127,"plugin_version":"2.1.0","time_elapsed":219847,"subject_id":"91216","group":"Group1","condition":"1_Rep","full_date":"2026-01-24T01:03:58.453Z","date":"2026-01-24","time":"01:03:58","cor_ans":false},{"trial_type":"html-keyboard-response","rt":null,"stimulus":"<p style=\"color: red; font-size: 50px; font-weight: bold;\">Incorrect</p>","response":null,"trial_index":128,"plugin_version":"2.1.0","time_elapsed":220350,"subject_id":"91216","group":"Group1","condition":"1_Rep","full_date":"2026-01-24T01:03:58.453Z","date":"2026-01-24","time":"01:03:58"},{"correct_response":"a","task":"test_phase","broad_category":"I","image_png":"I_Peridotite_13.png","image_id":125,"category_name":"Peridotite","category":8,"distinct_rating":7.28,"distinct_type":"Top","item_type":"Foil","rt":1868,"stimulus":"Stimuli_Rocks480/I_Peridotite_13.png","response":"a","trial_type":"image-keyboard-response","trial_index":129,"plugin_version":"2.1.0","time_elapsed":222219,"subject_id":"91216","group":"Group1","condition":"1_Rep","full_date":"2026-01-24T01:03:58.453Z","date":"2026-01-24","time":"01:03:58","cor_ans":true},{"trial_type":"html-keyboard-response","rt":null,"stimulus":"<p style=\"color: green; font-size: 50px; font-weight: bold;\">Correct</p>","response":null,"trial_index":130,"plugin_version":"2.1.0","time_elapsed":222731,"subject_id":"91216","group":"Group1","condition":"1_Rep","full_date":"2026-01-24T01:03:58.453Z","date":"2026-01-24","time":"01:03:58"},{"correct_response":"l","task":"test_phase","broad_category":"I","image_png":"I_Diorite_05.png","image_id":37,"category_name":"Diorite","category":3,"distinct_rating":3.08,"distinct_type":"Bottom","item_type":"Target","rt":1001,"stimulus":"Stimuli_Rocks480/I_Diorite_05.png","response":"l","trial_type":"image-keyboard-response","trial_index":131,"plugin_version":"2.1.0","time_elapsed":223734,"subject_id":"91216","group":"Group1","condition":"1_Rep","full_date":"2026-01-24T01:03:58.453Z","date":"2026-01-24","time":"01:03:58","cor_ans":true},{"trial_type":"html-keyboard-response","rt":null,"stimulus":"<p style=\"color: green; font-size: 50px; font-weight: bold;\">Correct</p>","response":null,"trial_index":132,"plugin_version":"2.1.0","time_elapsed":224249,"subject_id":"91216","group":"Group1","condition":"1_Rep","full_date":"2026-01-24T01:03:58.453Z","date":"2026-01-24","time":"01:03:58"},{"correct_response":"a","task":"test_phase","broad_category":"I","image_png":"I_Rhyolite_08.png","image_id":152,"category_name":"Rhyolite","category":10,"distinct_rating":1.38,"distinct_type":"Bottom","item_type":"Foil","rt":2606,"stimulus":"Stimuli_Rocks480/I_Rhyolite_08.png","response":"l","trial_type":"image-keyboard-response","trial_index":133,"plugin_version":"2.1.0","time_elapsed":226858,"subject_id":"91216","group":"Group1","condition":"1_Rep","full_date":"2026-01-24T01:03:58.453Z","date":"2026-01-24","time":"01:03:58","cor_ans":false},{"trial_type":"html-keyboard-response","rt":null,"stimulus":"<p style=\"color: red; font-size: 50px; font-weight: bold;\">Incorrect</p>","response":null,"trial_index":134,"plugin_version":"2.1.0","time_elapsed":227366,"subject_id":"91216","group":"Group1","condition":"1_Rep","full_date":"2026-01-24T01:03:58.453Z","date":"2026-01-24","time":"01:03:58"},{"correct_response":"l","task":"test_phase","broad_category":"M","image_png":"M_Gneiss_06.png","image_id":198,"category_name":"Gneiss","category":13,"distinct_rating":2.65,"distinct_type":"Bottom","item_type":"Target","rt":3204,"stimulus":"Stimuli_Rocks480/M_Gneiss_06.png","response":"l","trial_type":"image-keyboard-response","trial_index":135,"plugin_version":"2.1.0","time_elapsed":230573,"subject_id":"91216","group":"Group1","condition":"1_Rep","full_date":"2026-01-24T01:03:58.453Z","date":"2026-01-24","time":"01:03:58","cor_ans":true},{"trial_type":"html-keyboard-response","rt":null,"stimulus":"<p style=\"color: green; font-size: 50px; font-weight: bold;\">Correct</p>","response":null,"trial_index":136,"plugin_version":"2.1.0","time_elapsed":231079,"subject_id":"91216","group":"Group1","condition":"1_Rep","full_date":"2026-01-24T01:03:58.453Z","date":"2026-01-24","time":"01:03:58"},{"correct_response":"l","task":"test_phase","broad_category":"I","image_png":"I_Pumice_12.png","image_id":140,"category_name":"Pumice","category":9,"distinct_rating":2.97,"distinct_type":"Bottom","item_type":"Target","rt":1912,"stimulus":"Stimuli_Rocks480/I_Pumice_12.png","response":"a","trial_type":"image-keyboard-response","trial_index":137,"plugin_version":"2.1.0","time_elapsed":232994,"subject_id":"91216","group":"Group1","condition":"1_Rep","full_date":"2026-01-24T01:03:58.453Z","date":"2026-01-24","time":"01:03:58","cor_ans":false},{"trial_type":"html-keyboard-response","rt":null,"stimulus":"<p style=\"color: red; font-size: 50px; font-weight: bold;\">Incorrect</p>","response":null,"trial_index":138,"plugin_version":"2.1.0","time_elapsed":233499,"subject_id":"91216","group":"Group1","condition":"1_Rep","full_date":"2026-01-24T01:03:58.453Z","date":"2026-01-24","time":"01:03:58"},{"correct_response":"a","task":"test_phase","broad_category":"I","image_png":"I_Rhyolite_10.png","image_id":154,"category_name":"Rhyolite","category":10,"distinct_rating":2.88,"distinct_type":"Bottom","item_type":"Foil","rt":881,"stimulus":"Stimuli_Rocks480/I_Rhyolite_10.png","response":"l","trial_type":"image-keyboard-response","trial_index":139,"plugin_version":"2.1.0","time_elapsed":234382,"subject_id":"91216","group":"Group1","condition":"1_Rep","full_date":"2026-01-24T01:03:58.453Z","date":"2026-01-24","time":"01:03:58","cor_ans":false},{"trial_type":"html-keyboard-response","rt":null,"stimulus":"<p style=\"color: red; font-size: 50px; font-weight: bold;\">Incorrect</p>","response":null,"trial_index":140,"plugin_version":"2.1.0","time_elapsed":234897,"subject_id":"91216","group":"Group1","condition":"1_Rep","full_date":"2026-01-24T01:03:58.453Z","date":"2026-01-24","time":"01:03:58"},{"correct_response":"a","task":"test_phase","broad_category":"S","image_png":"S_Shale_03.png","image_id":467,"category_name":"Shale","category":30,"distinct_rating":1.95,"distinct_type":"Bottom","item_type":"Foil","rt":986,"stimulus":"Stimuli_Rocks480/S_Shale_03.png","response":"a","trial_type":"image-keyboard-response","trial_index":141,"plugin_version":"2.1.0","time_elapsed":235885,"subject_id":"91216","group":"Group1","condition":"1_Rep","full_date":"2026-01-24T01:03:58.453Z","date":"2026-01-24","time":"01:03:58","cor_ans":true},{"trial_type":"html-keyboard-response","rt":null,"stimulus":"<p style=\"color: green; font-size: 50px; font-weight: bold;\">Correct</p>","response":null,"trial_index":142,"plugin_version":"2.1.0","time_elapsed":236397,"subject_id":"91216","group":"Group1","condition":"1_Rep","full_date":"2026-01-24T01:03:58.453Z","date":"2026-01-24","time":"01:03:58"},{"correct_response":"a","task":"test_phase","broad_category":"M","image_png":"M_Marble_03.png","image_id":227,"category_name":"Marble","category":15,"distinct_rating":2.67,"distinct_type":"Bottom","item_type":"Foil","rt":2041,"stimulus":"Stimuli_Rocks480/M_Marble_03.png","response":"a","trial_type":"image-keyboard-response","trial_index":143,"plugin_version":"2.1.0","time_elapsed":238440,"subject_id":"91216","group":"Group1","condition":"1_Rep","full_date":"2026-01-24T01:03:58.453Z","date":"2026-01-24","time":"01:03:58","cor_ans":true},{"trial_type":"html-keyboard-response","rt":null,"stimulus":"<p style=\"color: green; font-size: 50px; font-weight: bold;\">Correct</p>","response":null,"trial_index":144,"plugin_version":"2.1.0","time_elapsed":238948,"subject_id":"91216","group":"Group1","condition":"1_Rep","full_date":"2026-01-24T01:03:58.453Z","date":"2026-01-24","time":"01:03:58"},{"correct_response":"l","task":"test_phase","broad_category":"S","image_png":"S_Rock Salt_01.png","image_id":433,"category_name":"Rock Salt","category":28,"distinct_rating":7.18,"distinct_type":"Top","item_type":"Target","rt":1305,"stimulus":"Stimuli_Rocks480/S_Rock Salt_01.png","response":"l","trial_type":"image-keyboard-response","trial_index":145,"plugin_version":"2.1.0","time_elapsed":240255,"subject_id":"91216","group":"Group1","condition":"1_Rep","full_date":"2026-01-24T01:03:58.453Z","date":"2026-01-24","time":"01:03:58","cor_ans":true},{"trial_type":"html-keyboard-response","rt":null,"stimulus":"<p style=\"color: green; font-size: 50px; font-weight: bold;\">Correct</p>","response":null,"trial_index":146,"plugin_version":"2.1.0","time_elapsed":240766,"subject_id":"91216","group":"Group1","condition":"1_Rep","full_date":"2026-01-24T01:03:58.453Z","date":"2026-01-24","time":"01:03:58"},{"correct_response":"a","task":"test_phase","broad_category":"S","image_png":"S_Conglomerate_14.png","image_id":382,"category_name":"Conglomerate","category":24,"distinct_rating":6.86,"distinct_type":"Top","item_type":"Foil","rt":1180,"stimulus":"Stimuli_Rocks480/S_Conglomerate_14.png","response":"a","trial_type":"image-keyboard-response","trial_index":147,"plugin_version":"2.1.0","time_elapsed":241950,"subject_id":"91216","group":"Group1","condition":"1_Rep","full_date":"2026-01-24T01:03:58.453Z","date":"2026-01-24","time":"01:03:58","cor_ans":true},{"trial_type":"html-keyboard-response","rt":null,"stimulus":"<p style=\"color: green; font-size: 50px; font-weight: bold;\">Correct</p>","response":null,"trial_index":148,"plugin_version":"2.1.0","time_elapsed":242462,"subject_id":"91216","group":"Group1","condition":"1_Rep","full_date":"2026-01-24T01:03:58.453Z","date":"2026-01-24","time":"01:03:58"},{"correct_response":"a","task":"test_phase","broad_category":"S","image_png":"S_Rock Salt_15.png","image_id":447,"category_name":"Rock Salt","category":28,"distinct_rating":7.79,"distinct_type":"Top","item_type":"Foil","rt":2477,"stimulus":"Stimuli_Rocks480/S_Rock Salt_15.png","response":"a","trial_type":"image-keyboard-response","trial_index":149,"plugin_version":"2.1.0","time_elapsed":244942,"subject_id":"91216","group":"Group1","condition":"1_Rep","full_date":"2026-01-24T01:03:58.453Z","date":"2026-01-24","time":"01:03:58","cor_ans":true},{"trial_type":"html-keyboard-response","rt":null,"stimulus":"<p style=\"color: green; font-size: 50px; font-weight: bold;\">Correct</p>","response":null,"trial_index":150,"plugin_version":"2.1.0","time_elapsed":245445,"subject_id":"91216","group":"Group1","condition":"1_Rep","full_date":"2026-01-24T01:03:58.453Z","date":"2026-01-24","time":"01:03:58"},{"correct_response":"a","task":"test_phase","broad_category":"I","image_png":"I_Basalt_13.png","image_id":29,"category_name":"Basalt","category":2,"distinct_rating":2.68,"distinct_type":"Bottom","item_type":"Foil","rt":1108,"stimulus":"Stimuli_Rocks480/I_Basalt_13.png","response":"l","trial_type":"image-keyboard-response","trial_index":151,"plugin_version":"2.1.0","time_elapsed":246555,"subject_id":"91216","group":"Group1","condition":"1_Rep","full_date":"2026-01-24T01:03:58.453Z","date":"2026-01-24","time":"01:03:58","cor_ans":false},{"trial_type":"html-keyboard-response","rt":null,"stimulus":"<p style=\"color: red; font-size: 50px; font-weight: bold;\">Incorrect</p>","response":null,"trial_index":152,"plugin_version":"2.1.0","time_elapsed":247062,"subject_id":"91216","group":"Group1","condition":"1_Rep","full_date":"2026-01-24T01:03:58.453Z","date":"2026-01-24","time":"01:03:58"},{"correct_response":"a","task":"test_phase","broad_category":"S","image_png":"S_Sandstone_08.png","image_id":456,"category_name":"Sandstone","category":29,"distinct_rating":1.5,"distinct_type":"Bottom","item_type":"Foil","rt":1600,"stimulus":"Stimuli_Rocks480/S_Sandstone_08.png","response":"l","trial_type":"image-keyboard-response","trial_index":153,"plugin_version":"2.1.0","time_elapsed":248664,"subject_id":"91216","group":"Group1","condition":"1_Rep","full_date":"2026-01-24T01:03:58.453Z","date":"2026-01-24","time":"01:03:58","cor_ans":false},{"trial_type":"html-keyboard-response","rt":null,"stimulus":"<p style=\"color: red; font-size: 50px; font-weight: bold;\">Incorrect</p>","response":null,"trial_index":154,"plugin_version":"2.1.0","time_elapsed":249169,"subject_id":"91216","group":"Group1","condition":"1_Rep","full_date":"2026-01-24T01:03:58.453Z","date":"2026-01-24","time":"01:03:58"},{"correct_response":"a","task":"test_phase","broad_category":"I","image_png":"I_Basalt_10.png","image_id":26,"category_name":"Basalt","category":2,"distinct_rating":2.76,"distinct_type":"Bottom","item_type":"Foil","rt":1168,"stimulus":"Stimuli_Rocks480/I_Basalt_10.png","response":"l","trial_type":"image-keyboard-response","trial_index":155,"plugin_version":"2.1.0","time_elapsed":250341,"subject_id":"91216","group":"Group1","condition":"1_Rep","full_date":"2026-01-24T01:03:58.453Z","date":"2026-01-24","time":"01:03:58","cor_ans":false},{"trial_type":"html-keyboard-response","rt":null,"stimulus":"<p style=\"color: red; font-size: 50px; font-weight: bold;\">Incorrect</p>","response":null,"trial_index":156,"plugin_version":"2.1.0","time_elapsed":250845,"subject_id":"91216","group":"Group1","condition":"1_Rep","full_date":"2026-01-24T01:03:58.453Z","date":"2026-01-24","time":"01:03:58"},{"correct_response":"l","task":"test_phase","broad_category":"S","image_png":"S_Rock Gypsum_04.png","image_id":420,"category_name":"Rock Gypsum","category":27,"distinct_rating":7.61,"distinct_type":"Top","item_type":"Target","rt":1216,"stimulus":"Stimuli_Rocks480/S_Rock Gypsum_04.png","response":"l","trial_type":"image-keyboard-response","trial_index":157,"plugin_version":"2.1.0","time_elapsed":252064,"subject_id":"91216","group":"Group1","condition":"1_Rep","full_date":"2026-01-24T01:03:58.453Z","date":"2026-01-24","time":"01:03:58","cor_ans":true},{"trial_type":"html-keyboard-response","rt":null,"stimulus":"<p style=\"color: green; font-size: 50px; font-weight: bold;\">Correct</p>","response":null,"trial_index":158,"plugin_version":"2.1.0","time_elapsed":252581,"subject_id":"91216","group":"Group1","condition":"1_Rep","full_date":"2026-01-24T01:03:58.453Z","date":"2026-01-24","time":"01:03:58"},{"correct_response":"a","task":"test_phase","broad_category":"I","image_png":"I_Gabbro_14.png","image_id":62,"category_name":"Gabbro","category":4,"distinct_rating":2.95,"distinct_type":"Bottom","item_type":"Foil","rt":952,"stimulus":"Stimuli_Rocks480/I_Gabbro_14.png","response":"l","trial_type":"image-keyboard-response","trial_index":159,"plugin_version":"2.1.0","time_elapsed":253535,"subject_id":"91216","group":"Group1","condition":"1_Rep","full_date":"2026-01-24T01:03:58.453Z","date":"2026-01-24","time":"01:03:58","cor_ans":false},{"trial_type":"html-keyboard-response","rt":null,"stimulus":"<p style=\"color: red; font-size: 50px; font-weight: bold;\">Incorrect</p>","response":null,"trial_index":160,"plugin_version":"2.1.0","time_elapsed":254049,"subject_id":"91216","group":"Group1","condition":"1_Rep","full_date":"2026-01-24T01:03:58.453Z","date":"2026-01-24","time":"01:03:58"},{"correct_response":"l","task":"test_phase","broad_category":"I","image_png":"I_Pegmatite_10.png","image_id":106,"category_name":"Pegmatite","category":7,"distinct_rating":7.66,"distinct_type":"Top","item_type":"Target","rt":2287,"stimulus":"Stimuli_Rocks480/I_Pegmatite_10.png","response":"a","trial_type":"image-keyboard-response","trial_index":161,"plugin_version":"2.1.0","time_elapsed":256338,"subject_id":"91216","group":"Group1","condition":"1_Rep","full_date":"2026-01-24T01:03:58.453Z","date":"2026-01-24","time":"01:03:58","cor_ans":false},{"trial_type":"html-keyboard-response","rt":null,"stimulus":"<p style=\"color: red; font-size: 50px; font-weight: bold;\">Incorrect</p>","response":null,"trial_index":162,"plugin_version":"2.1.0","time_elapsed":256855,"subject_id":"91216","group":"Group1","condition":"1_Rep","full_date":"2026-01-24T01:03:58.453Z","date":"2026-01-24","time":"01:03:58"},{"correct_response":"l","task":"test_phase","broad_category":"S","image_png":"S_Sandstone_15.png","image_id":463,"category_name":"Sandstone","category":29,"distinct_rating":2,"distinct_type":"Bottom","item_type":"Target","rt":1054,"stimulus":"Stimuli_Rocks480/S_Sandstone_15.png","response":"l","trial_type":"image-keyboard-response","trial_index":163,"plugin_version":"2.1.0","time_elapsed":257912,"subject_id":"91216","group":"Group1","condition":"1_Rep","full_date":"2026-01-24T01:03:58.453Z","date":"2026-01-24","time":"01:03:58","cor_ans":true},{"trial_type":"html-keyboard-response","rt":null,"stimulus":"<p style=\"color: green; font-size: 50px; font-weight: bold;\">Correct</p>","response":null,"trial_index":164,"plugin_version":"2.1.0","time_elapsed":258421,"subject_id":"91216","group":"Group1","condition":"1_Rep","full_date":"2026-01-24T01:03:58.453Z","date":"2026-01-24","time":"01:03:58"},{"correct_response":"a","task":"test_phase","broad_category":"M","image_png":"M_Phyllite_02.png","image_id":258,"category_name":"Phyllite","category":17,"distinct_rating":2.89,"distinct_type":"Bottom","item_type":"Foil","rt":1612,"stimulus":"Stimuli_Rocks480/M_Phyllite_02.png","response":"l","trial_type":"image-keyboard-response","trial_index":165,"plugin_version":"2.1.0","time_elapsed":260035,"subject_id":"91216","group":"Group1","condition":"1_Rep","full_date":"2026-01-24T01:03:58.453Z","date":"2026-01-24","time":"01:03:58","cor_ans":false},{"trial_type":"html-keyboard-response","rt":null,"stimulus":"<p style=\"color: red; font-size: 50px; font-weight: bold;\">Incorrect</p>","response":null,"trial_index":166,"plugin_version":"2.1.0","time_elapsed":260549,"subject_id":"91216","group":"Group1","condition":"1_Rep","full_date":"2026-01-24T01:03:58.453Z","date":"2026-01-24","time":"01:03:58"},{"correct_response":"l","task":"test_phase","broad_category":"M","image_png":"M_Slate_03.png","image_id":307,"category_name":"Slate","category":20,"distinct_rating":1.87,"distinct_type":"Bottom","item_type":"Target","rt":1133,"stimulus":"Stimuli_Rocks480/M_Slate_03.png","response":"l","trial_type":"image-keyboard-response","trial_index":167,"plugin_version":"2.1.0","time_elapsed":261686,"subject_id":"91216","group":"Group1","condition":"1_Rep","full_date":"2026-01-24T01:03:58.453Z","date":"2026-01-24","time":"01:03:58","cor_ans":true},{"trial_type":"html-keyboard-response","rt":null,"stimulus":"<p style=\"color: green; font-size: 50px; font-weight: bold;\">Correct</p>","response":null,"trial_index":168,"plugin_version":"2.1.0","time_elapsed":262198,"subject_id":"91216","group":"Group1","condition":"1_Rep","full_date":"2026-01-24T01:03:58.453Z","date":"2026-01-24","time":"01:03:58"},{"correct_response":"l","task":"test_phase","broad_category":"I","image_png":"I_Pumice_11.png","image_id":139,"category_name":"Pumice","category":9,"distinct_rating":1.74,"distinct_type":"Bottom","item_type":"Target","rt":977,"stimulus":"Stimuli_Rocks480/I_Pumice_11.png","response":"l","trial_type":"image-keyboard-response","trial_index":169,"plugin_version":"2.1.0","time_elapsed":263178,"subject_id":"91216","group":"Group1","condition":"1_Rep","full_date":"2026-01-24T01:03:58.453Z","date":"2026-01-24","time":"01:03:58","cor_ans":true},{"trial_type":"html-keyboard-response","rt":null,"stimulus":"<p style=\"color: green; font-size: 50px; font-weight: bold;\">Correct</p>","response":null,"trial_index":170,"plugin_version":"2.1.0","time_elapsed":263682,"subject_id":"91216","group":"Group1","condition":"1_Rep","full_date":"2026-01-24T01:03:58.453Z","date":"2026-01-24","time":"01:03:58"},{"correct_response":"l","task":"test_phase","broad_category":"I","image_png":"I_Gabbro_08.png","image_id":56,"category_name":"Gabbro","category":4,"distinct_rating":3.02,"distinct_type":"Bottom","item_type":"Target","rt":1188,"stimulus":"Stimuli_Rocks480/I_Gabbro_08.png","response":"l","trial_type":"image-keyboard-response","trial_index":171,"plugin_version":"2.1.0","time_elapsed":264874,"subject_id":"91216","group":"Group1","condition":"1_Rep","full_date":"2026-01-24T01:03:58.453Z","date":"2026-01-24","time":"01:03:58","cor_ans":true},{"trial_type":"html-keyboard-response","rt":null,"stimulus":"<p style=\"color: green; font-size: 50px; font-weight: bold;\">Correct</p>","response":null,"trial_index":172,"plugin_version":"2.1.0","time_elapsed":265382,"subject_id":"91216","group":"Group1","condition":"1_Rep","full_date":"2026-01-24T01:03:58.453Z","date":"2026-01-24","time":"01:03:58"},{"correct_response":"a","task":"test_phase","broad_category":"M","image_png":"M_Gneiss_15.png","image_id":207,"category_name":"Gneiss","category":13,"distinct_rating":3.11,"distinct_type":"Bottom","item_type":"Foil","rt":1634,"stimulus":"Stimuli_Rocks480/M_Gneiss_15.png","response":"a","trial_type":"image-keyboard-response","trial_index":173,"plugin_version":"2.1.0","time_elapsed":267019,"subject_id":"91216","group":"Group1","condition":"1_Rep","full_date":"2026-01-24T01:03:58.453Z","date":"2026-01-24","time":"01:03:58","cor_ans":true},{"trial_type":"html-keyboard-response","rt":null,"stimulus":"<p style=\"color: green; font-size: 50px; font-weight: bold;\">Correct</p>","response":null,"trial_index":174,"plugin_version":"2.1.0","time_elapsed":267533,"subject_id":"91216","group":"Group1","condition":"1_Rep","full_date":"2026-01-24T01:03:58.453Z","date":"2026-01-24","time":"01:03:58"},{"correct_response":"a","task":"test_phase","broad_category":"M","image_png":"M_Quartzite_12.png","image_id":284,"category_name":"Quartzite","category":18,"distinct_rating":1.92,"distinct_type":"Bottom","item_type":"Foil","rt":1952,"stimulus":"Stimuli_Rocks480/M_Quartzite_12.png","response":"a","trial_type":"image-keyboard-response","trial_index":175,"plugin_version":"2.1.0","time_elapsed":269489,"subject_id":"91216","group":"Group1","condition":"1_Rep","full_date":"2026-01-24T01:03:58.453Z","date":"2026-01-24","time":"01:03:58","cor_ans":true},{"trial_type":"html-keyboard-response","rt":null,"stimulus":"<p style=\"color: green; font-size: 50px; font-weight: bold;\">Correct</p>","response":null,"trial_index":176,"plugin_version":"2.1.0","time_elapsed":269996,"subject_id":"91216","group":"Group1","condition":"1_Rep","full_date":"2026-01-24T01:03:58.453Z","date":"2026-01-24","time":"01:03:58"},{"correct_response":"a","task":"test_phase","broad_category":"M","image_png":"M_Quartzite_07.png","image_id":279,"category_name":"Quartzite","category":18,"distinct_rating":1.97,"distinct_type":"Bottom","item_type":"Foil","rt":1801,"stimulus":"Stimuli_Rocks480/M_Quartzite_07.png","response":"a","trial_type":"image-keyboard-response","trial_index":177,"plugin_version":"2.1.0","time_elapsed":271798,"subject_id":"91216","group":"Group1","condition":"1_Rep","full_date":"2026-01-24T01:03:58.453Z","date":"2026-01-24","time":"01:03:58","cor_ans":true},{"trial_type":"html-keyboard-response","rt":null,"stimulus":"<p style=\"color: green; font-size: 50px; font-weight: bold;\">Correct</p>","response":null,"trial_index":178,"plugin_version":"2.1.0","time_elapsed":272315,"subject_id":"91216","group":"Group1","condition":"1_Rep","full_date":"2026-01-24T01:03:58.453Z","date":"2026-01-24","time":"01:03:58"},{"correct_response":"l","task":"test_phase","broad_category":"I","image_png":"I_Andesite_06.png","image_id":6,"category_name":"Andesite","category":1,"distinct_rating":3.17,"distinct_type":"Bottom","item_type":"Target","rt":1810,"stimulus":"Stimuli_Rocks480/I_Andesite_06.png","response":"a","trial_type":"image-keyboard-response","trial_index":179,"plugin_version":"2.1.0","time_elapsed":274128,"subject_id":"91216","group":"Group1","condition":"1_Rep","full_date":"2026-01-24T01:03:58.453Z","date":"2026-01-24","time":"01:03:58","cor_ans":false},{"trial_type":"html-keyboard-response","rt":null,"stimulus":"<p style=\"color: red; font-size: 50px; font-weight: bold;\">Incorrect</p>","response":null,"trial_index":180,"plugin_version":"2.1.0","time_elapsed":274644,"subject_id":"91216","group":"Group1","condition":"1_Rep","full_date":"2026-01-24T01:03:58.453Z","date":"2026-01-24","time":"01:03:58"},{"correct_response":"a","task":"test_phase","broad_category":"I","image_png":"I_Pumice_01.png","image_id":129,"category_name":"Pumice","category":9,"distinct_rating":3.25,"distinct_type":"Bottom","item_type":"Foil","rt":1156,"stimulus":"Stimuli_Rocks480/I_Pumice_01.png","response":"l","trial_type":"image-keyboard-response","trial_index":181,"plugin_version":"2.1.0","time_elapsed":275802,"subject_id":"91216","group":"Group1","condition":"1_Rep","full_date":"2026-01-24T01:03:58.453Z","date":"2026-01-24","time":"01:03:58","cor_ans":false},{"trial_type":"html-keyboard-response","rt":null,"stimulus":"<p style=\"color: red; font-size: 50px; font-weight: bold;\">Incorrect</p>","response":null,"trial_index":182,"plugin_version":"2.1.0","time_elapsed":276309,"subject_id":"91216","group":"Group1","condition":"1_Rep","full_date":"2026-01-24T01:03:58.453Z","date":"2026-01-24","time":"01:03:58"},{"correct_response":"l","task":"test_phase","broad_category":"I","image_png":"I_Gabbro_11.png","image_id":59,"category_name":"Gabbro","category":4,"distinct_rating":1.99,"distinct_type":"Bottom","item_type":"Target","rt":1139,"stimulus":"Stimuli_Rocks480/I_Gabbro_11.png","response":"a","trial_type":"image-keyboard-response","trial_index":183,"plugin_version":"2.1.0","time_elapsed":277450,"subject_id":"91216","group":"Group1","condition":"1_Rep","full_date":"2026-01-24T01:03:58.453Z","date":"2026-01-24","time":"01:03:58","cor_ans":false},{"trial_type":"html-keyboard-response","rt":null,"stimulus":"<p style=\"color: red; font-size: 50px; font-weight: bold;\">Incorrect</p>","response":null,"trial_index":184,"plugin_version":"2.1.0","time_elapsed":277961,"subject_id":"91216","group":"Group1","condition":"1_Rep","full_date":"2026-01-24T01:03:58.453Z","date":"2026-01-24","time":"01:03:58"},{"correct_response":"a","task":"test_phase","broad_category":"S","image_png":"S_Sandstone_11.png","image_id":459,"category_name":"Sandstone","category":29,"distinct_rating":1.82,"distinct_type":"Bottom","item_type":"Foil","rt":1047,"stimulus":"Stimuli_Rocks480/S_Sandstone_11.png","response":"l","trial_type":"image-keyboard-response","trial_index":185,"plugin_version":"2.1.0","time_elapsed":279011,"subject_id":"91216","group":"Group1","condition":"1_Rep","full_date":"2026-01-24T01:03:58.453Z","date":"2026-01-24","time":"01:03:58","cor_ans":false},{"trial_type":"html-keyboard-response","rt":null,"stimulus":"<p style=\"color: red; font-size: 50px; font-weight: bold;\">Incorrect</p>","response":null,"trial_index":186,"plugin_version":"2.1.0","time_elapsed":279516,"subject_id":"91216","group":"Group1","condition":"1_Rep","full_date":"2026-01-24T01:03:58.453Z","date":"2026-01-24","time":"01:03:58"},{"correct_response":"a","task":"test_phase","broad_category":"S","image_png":"S_Chert_13.png","image_id":365,"category_name":"Chert","category":23,"distinct_rating":6.57,"distinct_type":"Top","item_type":"Foil","rt":1673,"stimulus":"Stimuli_Rocks480/S_Chert_13.png","response":"a","trial_type":"image-keyboard-response","trial_index":187,"plugin_version":"2.1.0","time_elapsed":281193,"subject_id":"91216","group":"Group1","condition":"1_Rep","full_date":"2026-01-24T01:03:58.453Z","date":"2026-01-24","time":"01:03:58","cor_ans":true},{"trial_type":"html-keyboard-response","rt":null,"stimulus":"<p style=\"color: green; font-size: 50px; font-weight: bold;\">Correct</p>","response":null,"trial_index":188,"plugin_version":"2.1.0","time_elapsed":281699,"subject_id":"91216","group":"Group1","condition":"1_Rep","full_date":"2026-01-24T01:03:58.453Z","date":"2026-01-24","time":"01:03:58"},{"correct_response":"l","task":"test_phase","broad_category":"M","image_png":"M_Phyllite_03.png","image_id":259,"category_name":"Phyllite","category":17,"distinct_rating":2.5,"distinct_type":"Bottom","item_type":"Target","rt":3818,"stimulus":"Stimuli_Rocks480/M_Phyllite_03.png","response":"l","trial_type":"image-keyboard-response","trial_index":189,"plugin_version":"2.1.0","time_elapsed":285519,"subject_id":"91216","group":"Group1","condition":"1_Rep","full_date":"2026-01-24T01:03:58.453Z","date":"2026-01-24","time":"01:03:58","cor_ans":true},{"trial_type":"html-keyboard-response","rt":null,"stimulus":"<p style=\"color: green; font-size: 50px; font-weight: bold;\">Correct</p>","response":null,"trial_index":190,"plugin_version":"2.1.0","time_elapsed":286033,"subject_id":"91216","group":"Group1","condition":"1_Rep","full_date":"2026-01-24T01:03:58.453Z","date":"2026-01-24","time":"01:03:58"},{"correct_response":"a","task":"test_phase","broad_category":"I","image_png":"I_Pegmatite_11.png","image_id":107,"category_name":"Pegmatite","category":7,"distinct_rating":7.11,"distinct_type":"Top","item_type":"Foil","rt":1340,"stimulus":"Stimuli_Rocks480/I_Pegmatite_11.png","response":"a","trial_type":"image-keyboard-response","trial_index":191,"plugin_version":"2.1.0","time_elapsed":287375,"subject_id":"91216","group":"Group1","condition":"1_Rep","full_date":"2026-01-24T01:03:58.453Z","date":"2026-01-24","time":"01:03:58","cor_ans":true},{"trial_type":"html-keyboard-response","rt":null,"stimulus":"<p style=\"color: green; font-size: 50px; font-weight: bold;\">Correct</p>","response":null,"trial_index":192,"plugin_version":"2.1.0","time_elapsed":287878,"subject_id":"91216","group":"Group1","condition":"1_Rep","full_date":"2026-01-24T01:03:58.453Z","date":"2026-01-24","time":"01:03:58"},{"correct_response":"l","task":"test_phase","broad_category":"M","image_png":"M_Marble_06.png","image_id":230,"category_name":"Marble","category":15,"distinct_rating":3.4,"distinct_type":"Bottom","item_type":"Target","rt":985,"stimulus":"Stimuli_Rocks480/M_Marble_06.png","response":"l","trial_type":"image-keyboard-response","trial_index":193,"plugin_version":"2.1.0","time_elapsed":288866,"subject_id":"91216","group":"Group1","condition":"1_Rep","full_date":"2026-01-24T01:03:58.453Z","date":"2026-01-24","time":"01:03:58","cor_ans":true},{"trial_type":"html-keyboard-response","rt":null,"stimulus":"<p style=\"color: green; font-size: 50px; font-weight: bold;\">Correct</p>","response":null,"trial_index":194,"plugin_version":"2.1.0","time_elapsed":289383,"subject_id":"91216","group":"Group1","condition":"1_Rep","full_date":"2026-01-24T01:03:58.453Z","date":"2026-01-24","time":"01:03:58"},{"correct_response":"a","task":"test_phase","broad_category":"I","image_png":"I_Pumice_13.png","image_id":141,"category_name":"Pumice","category":9,"distinct_rating":3.12,"distinct_type":"Bottom","item_type":"Foil","rt":984,"stimulus":"Stimuli_Rocks480/I_Pumice_13.png","response":"l","trial_type":"image-keyboard-response","trial_index":195,"plugin_version":"2.1.0","time_elapsed":290369,"subject_id":"91216","group":"Group1","condition":"1_Rep","full_date":"2026-01-24T01:03:58.453Z","date":"2026-01-24","time":"01:03:58","cor_ans":false},{"trial_type":"html-keyboard-response","rt":null,"stimulus":"<p style=\"color: red; font-size: 50px; font-weight: bold;\">Incorrect</p>","response":null,"trial_index":196,"plugin_version":"2.1.0","time_elapsed":290881,"subject_id":"91216","group":"Group1","condition":"1_Rep","full_date":"2026-01-24T01:03:58.453Z","date":"2026-01-24","time":"01:03:58"},{"correct_response":"a","task":"test_phase","broad_category":"I","image_png":"I_Pumice_14.png","image_id":142,"category_name":"Pumice","category":9,"distinct_rating":3.22,"distinct_type":"Bottom","item_type":"Foil","rt":1406,"stimulus":"Stimuli_Rocks480/I_Pumice_14.png","response":"a","trial_type":"image-keyboard-response","trial_index":197,"plugin_version":"2.1.0","time_elapsed":292289,"subject_id":"91216","group":"Group1","condition":"1_Rep","full_date":"2026-01-24T01:03:58.453Z","date":"2026-01-24","time":"01:03:58","cor_ans":true},{"trial_type":"html-keyboard-response","rt":null,"stimulus":"<p style=\"color: green; font-size: 50px; font-weight: bold;\">Correct</p>","response":null,"trial_index":198,"plugin_version":"2.1.0","time_elapsed":292799,"subject_id":"91216","group":"Group1","condition":"1_Rep","full_date":"2026-01-24T01:03:58.453Z","date":"2026-01-24","time":"01:03:58"},{"correct_response":"a","task":"test_phase","broad_category":"M","image_png":"M_Slate_04.png","image_id":308,"category_name":"Slate","category":20,"distinct_rating":2.2,"distinct_type":"Bottom","item_type":"Foil","rt":1237,"stimulus":"Stimuli_Rocks480/M_Slate_04.png","response":"l","trial_type":"image-keyboard-response","trial_index":199,"plugin_version":"2.1.0","time_elapsed":294038,"subject_id":"91216","group":"Group1","condition":"1_Rep","full_date":"2026-01-24T01:03:58.453Z","date":"2026-01-24","time":"01:03:58","cor_ans":false},{"trial_type":"html-keyboard-response","rt":null,"stimulus":"<p style=\"color: red; font-size: 50px; font-weight: bold;\">Incorrect</p>","response":null,"trial_index":200,"plugin_version":"2.1.0","time_elapsed":294548,"subject_id":"91216","group":"Group1","condition":"1_Rep","full_date":"2026-01-24T01:03:58.453Z","date":"2026-01-24","time":"01:03:58"},{"correct_response":"l","task":"test_phase","broad_category":"S","image_png":"S_Breccia_11.png","image_id":347,"category_name":"Breccia","category":22,"distinct_rating":6.7,"distinct_type":"Top","item_type":"Target","rt":1650,"stimulus":"Stimuli_Rocks480/S_Breccia_11.png","response":"a","trial_type":"image-keyboard-response","trial_index":201,"plugin_version":"2.1.0","time_elapsed":296200,"subject_id":"91216","group":"Group1","condition":"1_Rep","full_date":"2026-01-24T01:03:58.453Z","date":"2026-01-24","time":"01:03:58","cor_ans":false},{"trial_type":"html-keyboard-response","rt":null,"stimulus":"<p style=\"color: red; font-size: 50px; font-weight: bold;\">Incorrect</p>","response":null,"trial_index":202,"plugin_version":"2.1.0","time_elapsed":296712,"subject_id":"91216","group":"Group1","condition":"1_Rep","full_date":"2026-01-24T01:03:58.453Z","date":"2026-01-24","time":"01:03:58"},{"correct_response":"a","task":"test_phase","broad_category":"S","image_png":"S_Rock Salt_13.png","image_id":445,"category_name":"Rock Salt","category":28,"distinct_rating":7.58,"distinct_type":"Top","item_type":"Foil","rt":1338,"stimulus":"Stimuli_Rocks480/S_Rock Salt_13.png","response":"a","trial_type":"image-keyboard-response","trial_index":203,"plugin_version":"2.1.0","time_elapsed":298052,"subject_id":"91216","group":"Group1","condition":"1_Rep","full_date":"2026-01-24T01:03:58.453Z","date":"2026-01-24","time":"01:03:58","cor_ans":true},{"trial_type":"html-keyboard-response","rt":null,"stimulus":"<p style=\"color: green; font-size: 50px; font-weight: bold;\">Correct</p>","response":null,"trial_index":204,"plugin_version":"2.1.0","time_elapsed":298566,"subject_id":"91216","group":"Group1","condition":"1_Rep","full_date":"2026-01-24T01:03:58.453Z","date":"2026-01-24","time":"01:03:58"},{"correct_response":"l","task":"test_phase","broad_category":"M","image_png":"M_Slate_11.png","image_id":315,"category_name":"Slate","category":20,"distinct_rating":2.75,"distinct_type":"Bottom","item_type":"Target","rt":1302,"stimulus":"Stimuli_Rocks480/M_Slate_11.png","response":"l","trial_type":"image-keyboard-response","trial_index":205,"plugin_version":"2.1.0","time_elapsed":299871,"subject_id":"91216","group":"Group1","condition":"1_Rep","full_date":"2026-01-24T01:03:58.453Z","date":"2026-01-24","time":"01:03:58","cor_ans":true},{"trial_type":"html-keyboard-response","rt":null,"stimulus":"<p style=\"color: green; font-size: 50px; font-weight: bold;\">Correct</p>","response":null,"trial_index":206,"plugin_version":"2.1.0","time_elapsed":300378,"subject_id":"91216","group":"Group1","condition":"1_Rep","full_date":"2026-01-24T01:03:58.453Z","date":"2026-01-24","time":"01:03:58"},{"correct_response":"a","task":"test_phase","broad_category":"I","image_png":"I_Andesite_03.png","image_id":3,"category_name":"Andesite","category":1,"distinct_rating":3.17,"distinct_type":"Bottom","item_type":"Foil","rt":1804,"stimulus":"Stimuli_Rocks480/I_Andesite_03.png","response":"l","trial_type":"image-keyboard-response","trial_index":207,"plugin_version":"2.1.0","time_elapsed":302185,"subject_id":"91216","group":"Group1","condition":"1_Rep","full_date":"2026-01-24T01:03:58.453Z","date":"2026-01-24","time":"01:03:58","cor_ans":false},{"trial_type":"html-keyboard-response","rt":null,"stimulus":"<p style=\"color: red; font-size: 50px; font-weight: bold;\">Incorrect</p>","response":null,"trial_index":208,"plugin_version":"2.1.0","time_elapsed":302689,"subject_id":"91216","group":"Group1","condition":"1_Rep","full_date":"2026-01-24T01:03:58.453Z","date":"2026-01-24","time":"01:03:58"},{"correct_response":"a","task":"test_phase","broad_category":"M","image_png":"M_Phyllite_13.png","image_id":269,"category_name":"Phyllite","category":17,"distinct_rating":2.8,"distinct_type":"Bottom","item_type":"Foil","rt":1191,"stimulus":"Stimuli_Rocks480/M_Phyllite_13.png","response":"a","trial_type":"image-keyboard-response","trial_index":209,"plugin_version":"2.1.0","time_elapsed":303883,"subject_id":"91216","group":"Group1","condition":"1_Rep","full_date":"2026-01-24T01:03:58.453Z","date":"2026-01-24","time":"01:03:58","cor_ans":true},{"trial_type":"html-keyboard-response","rt":null,"stimulus":"<p style=\"color: green; font-size: 50px; font-weight: bold;\">Correct</p>","response":null,"trial_index":210,"plugin_version":"2.1.0","time_elapsed":304398,"subject_id":"91216","group":"Group1","condition":"1_Rep","full_date":"2026-01-24T01:03:58.453Z","date":"2026-01-24","time":"01:03:58"},{"correct_response":"a","task":"test_phase","broad_category":"S","image_png":"S_Dolomite_07.png","image_id":391,"category_name":"Dolomite","category":25,"distinct_rating":1.73,"distinct_type":"Bottom","item_type":"Foil","rt":747,"stimulus":"Stimuli_Rocks480/S_Dolomite_07.png","response":"l","trial_type":"image-keyboard-response","trial_index":211,"plugin_version":"2.1.0","time_elapsed":305150,"subject_id":"91216","group":"Group1","condition":"1_Rep","full_date":"2026-01-24T01:03:58.453Z","date":"2026-01-24","time":"01:03:58","cor_ans":false},{"trial_type":"html-keyboard-response","rt":null,"stimulus":"<p style=\"color: red; font-size: 50px; font-weight: bold;\">Incorrect</p>","response":null,"trial_index":212,"plugin_version":"2.1.0","time_elapsed":305666,"subject_id":"91216","group":"Group1","condition":"1_Rep","full_date":"2026-01-24T01:03:58.453Z","date":"2026-01-24","time":"01:03:58"},{"correct_response":"a","task":"test_phase","broad_category":"I","image_png":"I_Rhyolite_05.png","image_id":149,"category_name":"Rhyolite","category":10,"distinct_rating":3.02,"distinct_type":"Bottom","item_type":"Foil","rt":1662,"stimulus":"Stimuli_Rocks480/I_Rhyolite_05.png","response":"a","trial_type":"image-keyboard-response","trial_index":213,"plugin_version":"2.1.0","time_elapsed":307332,"subject_id":"91216","group":"Group1","condition":"1_Rep","full_date":"2026-01-24T01:03:58.453Z","date":"2026-01-24","time":"01:03:58","cor_ans":true},{"trial_type":"html-keyboard-response","rt":null,"stimulus":"<p style=\"color: green; font-size: 50px; font-weight: bold;\">Correct</p>","response":null,"trial_index":214,"plugin_version":"2.1.0","time_elapsed":307849,"subject_id":"91216","group":"Group1","condition":"1_Rep","full_date":"2026-01-24T01:03:58.453Z","date":"2026-01-24","time":"01:03:58"},{"correct_response":"a","task":"test_phase","broad_category":"I","image_png":"I_Diorite_10.png","image_id":42,"category_name":"Diorite","category":3,"distinct_rating":2.84,"distinct_type":"Bottom","item_type":"Foil","rt":2146,"stimulus":"Stimuli_Rocks480/I_Diorite_10.png","response":"l","trial_type":"image-keyboard-response","trial_index":215,"plugin_version":"2.1.0","time_elapsed":309998,"subject_id":"91216","group":"Group1","condition":"1_Rep","full_date":"2026-01-24T01:03:58.453Z","date":"2026-01-24","time":"01:03:58","cor_ans":false},{"trial_type":"html-keyboard-response","rt":null,"stimulus":"<p style=\"color: red; font-size: 50px; font-weight: bold;\">Incorrect</p>","response":null,"trial_index":216,"plugin_version":"2.1.0","time_elapsed":310500,"subject_id":"91216","group":"Group1","condition":"1_Rep","full_date":"2026-01-24T01:03:58.453Z","date":"2026-01-24","time":"01:03:58"},{"correct_response":"l","task":"test_phase","broad_category":"I","image_png":"I_Basalt_02.png","image_id":18,"category_name":"Basalt","category":2,"distinct_rating":1.84,"distinct_type":"Bottom","item_type":"Target","rt":1399,"stimulus":"Stimuli_Rocks480/I_Basalt_02.png","response":"l","trial_type":"image-keyboard-response","trial_index":217,"plugin_version":"2.1.0","time_elapsed":311903,"subject_id":"91216","group":"Group1","condition":"1_Rep","full_date":"2026-01-24T01:03:58.453Z","date":"2026-01-24","time":"01:03:58","cor_ans":true},{"trial_type":"html-keyboard-response","rt":null,"stimulus":"<p style=\"color: green; font-size: 50px; font-weight: bold;\">Correct</p>","response":null,"trial_index":218,"plugin_version":"2.1.0","time_elapsed":312415,"subject_id":"91216","group":"Group1","condition":"1_Rep","full_date":"2026-01-24T01:03:58.453Z","date":"2026-01-24","time":"01:03:58"},{"correct_response":"a","task":"test_phase","broad_category":"M","image_png":"M_Quartzite_15.png","image_id":287,"category_name":"Quartzite","category":18,"distinct_rating":2.19,"distinct_type":"Bottom","item_type":"Foil","rt":1672,"stimulus":"Stimuli_Rocks480/M_Quartzite_15.png","response":"l","trial_type":"image-keyboard-response","trial_index":219,"plugin_version":"2.1.0","time_elapsed":314090,"subject_id":"91216","group":"Group1","condition":"1_Rep","full_date":"2026-01-24T01:03:58.453Z","date":"2026-01-24","time":"01:03:58","cor_ans":false},{"trial_type":"html-keyboard-response","rt":null,"stimulus":"<p style=\"color: red; font-size: 50px; font-weight: bold;\">Incorrect</p>","response":null,"trial_index":220,"plugin_version":"2.1.0","time_elapsed":314599,"subject_id":"91216","group":"Group1","condition":"1_Rep","full_date":"2026-01-24T01:03:58.453Z","date":"2026-01-24","time":"01:03:58"},{"correct_response":"l","task":"test_phase","broad_category":"S","image_png":"S_Conglomerate_05.png","image_id":373,"category_name":"Conglomerate","category":24,"distinct_rating":7.32,"distinct_type":"Top","item_type":"Target","rt":2236,"stimulus":"Stimuli_Rocks480/S_Conglomerate_05.png","response":"a","trial_type":"image-keyboard-response","trial_index":221,"plugin_version":"2.1.0","time_elapsed":316840,"subject_id":"91216","group":"Group1","condition":"1_Rep","full_date":"2026-01-24T01:03:58.453Z","date":"2026-01-24","time":"01:03:58","cor_ans":false},{"trial_type":"html-keyboard-response","rt":null,"stimulus":"<p style=\"color: red; font-size: 50px; font-weight: bold;\">Incorrect</p>","response":null,"trial_index":222,"plugin_version":"2.1.0","time_elapsed":317349,"subject_id":"91216","group":"Group1","condition":"1_Rep","full_date":"2026-01-24T01:03:58.453Z","date":"2026-01-24","time":"01:03:58"},{"correct_response":"a","task":"test_phase","broad_category":"I","image_png":"I_Gabbro_02.png","image_id":50,"category_name":"Gabbro","category":4,"distinct_rating":2.73,"distinct_type":"Bottom","item_type":"Foil","rt":1319,"stimulus":"Stimuli_Rocks480/I_Gabbro_02.png","response":"a","trial_type":"image-keyboard-response","trial_index":223,"plugin_version":"2.1.0","time_elapsed":318672,"subject_id":"91216","group":"Group1","condition":"1_Rep","full_date":"2026-01-24T01:03:58.453Z","date":"2026-01-24","time":"01:03:58","cor_ans":true},{"trial_type":"html-keyboard-response","rt":null,"stimulus":"<p style=\"color: green; font-size: 50px; font-weight: bold;\">Correct</p>","response":null,"trial_index":224,"plugin_version":"2.1.0","time_elapsed":319189,"subject_id":"91216","group":"Group1","condition":"1_Rep","full_date":"2026-01-24T01:03:58.453Z","date":"2026-01-24","time":"01:03:58"},{"correct_response":"l","task":"test_phase","broad_category":"M","image_png