[{"width":1272,"height":588,"webaudio":true,"browser":"edge-chromium","browser_version":"144.0.0","mobile":false,"os":"Windows 10","fullscreen":true,"vsync_rate":48.41,"webcam":true,"microphone":true,"trial_type":"browser-check","trial_index":0,"plugin_version":"2.1.0","time_elapsed":1258,"subject_id":"92082","group":"Group1","condition":"1_Rep","full_date":"2026-01-29T18:05:17.443Z","date":"2026-01-29","time":"18:05:17"},{"success":true,"timeout":false,"failed_images":[],"failed_audio":[],"failed_video":[],"trial_type":"preload","trial_index":1,"plugin_version":"2.1.0","time_elapsed":6112,"subject_id":"92082","group":"Group1","condition":"1_Rep","full_date":"2026-01-29T18:05:17.443Z","date":"2026-01-29","time":"18:05:17"},{"rt":6588,"url":"SONA_consent_memorability.html","trial_type":"external-html","trial_index":2,"plugin_version":"2.1.0","time_elapsed":12750,"subject_id":"92082","group":"Group1","condition":"1_Rep","full_date":"2026-01-29T18:05:17.443Z","date":"2026-01-29","time":"18:05:17"},{"success":true,"rt":1540,"trial_type":"fullscreen","trial_index":3,"plugin_version":"2.1.0","time_elapsed":15308,"subject_id":"92082","group":"Group1","condition":"1_Rep","full_date":"2026-01-29T18:05:17.443Z","date":"2026-01-29","time":"18:05:17"},{"rt":22000,"stimulus":"<div style=\"max-width: 760px; margin: auto; font-size: 20px; line-height: 1.5;\">\n      <h1 style=\"text-align:center; font-size: 30px;\">Instructions</h1>\n      <p>\n        Welcome to the study on <b>visual memory</b>. This experiment consists of <b>two phases</b>: \n        a <b>study phase</b> and a <b>test phase</b>.\n      </p>\n      <p>\n        In the study phase, you will see a series of rock images along with their category labels.\n        The images will appear one at a time.\n        <b>Your task</b> is to learn the categories to which the rock images belong \n        and to remember each image as accurately as possible.\n      </p> \n      <p>\n        Note that you will see each image only <b>once</b> during the study phase. \n          So, please pay close attention and try to remember each image carefully.\n      </p>\n      <p>\n        After the study phase, <b>your memory will be tested</b>. \n        Additional instructions for the test phase will be provided at that time.\n      </p>\n      <p>\n        If your computer has multiple <b>language settings</b> (e.g., English and another language),\n        please make sure it is set to English before starting.\n      </p>\n      <p>\n        You can track your progress using the <b>completion bar</b> at the top of the screen. \n        Please note that the bar will refresh when the test phase begins \n        to give you an accurate sense of your progress in both phases.\n      </p> \n      <p>\n        Press the button below when you are ready to begin.\n      </p>\n    </div>","response":0,"trial_type":"html-button-response","trial_index":4,"plugin_version":"2.1.0","time_elapsed":37311,"subject_id":"92082","group":"Group1","condition":"1_Rep","full_date":"2026-01-29T18:05:17.443Z","date":"2026-01-29","time":"18:05:17"},{"rt":null,"stimulus":"<p style=\"font-size: 50px; margin: 0; text-align: center;\">+</p>","response":null,"trial_type":"html-keyboard-response","trial_index":5,"plugin_version":"2.1.0","time_elapsed":38324,"subject_id":"92082","group":"Group1","condition":"1_Rep","full_date":"2026-01-29T18:05:17.443Z","date":"2026-01-29","time":"18:05:17"},{"task":"memory_phase","broad_category":"S","image_png":"S_Shale_08.png","image_id":472,"category_name":"Shale","category":30,"distinct_rating":2.55,"distinct_type":"Bottom","rt":null,"stimulus":"Stimuli_Rocks480/S_Shale_08.png","response":null,"trial_type":"image-keyboard-response","trial_index":6,"plugin_version":"2.1.0","time_elapsed":40832,"subject_id":"92082","group":"Group1","condition":"1_Rep","full_date":"2026-01-29T18:05:17.443Z","date":"2026-01-29","time":"18:05:17"},{"rt":null,"stimulus":"<p style=\"font-size: 50px; margin: 0; text-align: center;\">+</p>","response":null,"trial_type":"html-keyboard-response","trial_index":7,"plugin_version":"2.1.0","time_elapsed":41848,"subject_id":"92082","group":"Group1","condition":"1_Rep","full_date":"2026-01-29T18:05:17.443Z","date":"2026-01-29","time":"18:05:17"},{"task":"memory_phase","broad_category":"I","image_png":"I_Basalt_01.png","image_id":17,"category_name":"Basalt","category":2,"distinct_rating":1.92,"distinct_type":"Bottom","rt":null,"stimulus":"Stimuli_Rocks480/I_Basalt_01.png","response":null,"trial_type":"image-keyboard-response","trial_index":8,"plugin_version":"2.1.0","time_elapsed":44366,"subject_id":"92082","group":"Group1","condition":"1_Rep","full_date":"2026-01-29T18:05:17.443Z","date":"2026-01-29","time":"18:05:17"},{"rt":null,"stimulus":"<p style=\"font-size: 50px; margin: 0; text-align: center;\">+</p>","response":null,"trial_type":"html-keyboard-response","trial_index":9,"plugin_version":"2.1.0","time_elapsed":45385,"subject_id":"92082","group":"Group1","condition":"1_Rep","full_date":"2026-01-29T18:05:17.443Z","date":"2026-01-29","time":"18:05:17"},{"task":"memory_phase","broad_category":"I","image_png":"I_Pumice_11.png","image_id":139,"category_name":"Pumice","category":9,"distinct_rating":1.74,"distinct_type":"Bottom","rt":null,"stimulus":"Stimuli_Rocks480/I_Pumice_11.png","response":null,"trial_type":"image-keyboard-response","trial_index":10,"plugin_version":"2.1.0","time_elapsed":47890,"subject_id":"92082","group":"Group1","condition":"1_Rep","full_date":"2026-01-29T18:05:17.443Z","date":"2026-01-29","time":"18:05:17"},{"rt":null,"stimulus":"<p style=\"font-size: 50px; margin: 0; text-align: center;\">+</p>","response":null,"trial_type":"html-keyboard-response","trial_index":11,"plugin_version":"2.1.0","time_elapsed":48906,"subject_id":"92082","group":"Group1","condition":"1_Rep","full_date":"2026-01-29T18:05:17.443Z","date":"2026-01-29","time":"18:05:17"},{"task":"memory_phase","broad_category":"S","image_png":"S_Dolomite_14.png","image_id":398,"category_name":"Dolomite","category":25,"distinct_rating":1.43,"distinct_type":"Bottom","rt":null,"stimulus":"Stimuli_Rocks480/S_Dolomite_14.png","response":null,"trial_type":"image-keyboard-response","trial_index":12,"plugin_version":"2.1.0","time_elapsed":51421,"subject_id":"92082","group":"Group1","condition":"1_Rep","full_date":"2026-01-29T18:05:17.443Z","date":"2026-01-29","time":"18:05:17"},{"rt":null,"stimulus":"<p style=\"font-size: 50px; margin: 0; text-align: center;\">+</p>","response":null,"trial_type":"html-keyboard-response","trial_index":13,"plugin_version":"2.1.0","time_elapsed":52423,"subject_id":"92082","group":"Group1","condition":"1_Rep","full_date":"2026-01-29T18:05:17.443Z","date":"2026-01-29","time":"18:05:17"},{"task":"memory_phase","broad_category":"I","image_png":"I_Pumice_08.png","image_id":136,"category_name":"Pumice","category":9,"distinct_rating":3.1,"distinct_type":"Bottom","rt":null,"stimulus":"Stimuli_Rocks480/I_Pumice_08.png","response":null,"trial_type":"image-keyboard-response","trial_index":14,"plugin_version":"2.1.0","time_elapsed":54939,"subject_id":"92082","group":"Group1","condition":"1_Rep","full_date":"2026-01-29T18:05:17.443Z","date":"2026-01-29","time":"18:05:17"},{"rt":null,"stimulus":"<p style=\"font-size: 50px; margin: 0; text-align: center;\">+</p>","response":null,"trial_type":"html-keyboard-response","trial_index":15,"plugin_version":"2.1.0","time_elapsed":55952,"subject_id":"92082","group":"Group1","condition":"1_Rep","full_date":"2026-01-29T18:05:17.443Z","date":"2026-01-29","time":"18:05:17"},{"task":"memory_phase","broad_category":"I","image_png":"I_Pegmatite_16.png","image_id":112,"category_name":"Pegmatite","category":7,"distinct_rating":7.03,"distinct_type":"Top","rt":null,"stimulus":"Stimuli_Rocks480/I_Pegmatite_16.png","response":null,"trial_type":"image-keyboard-response","trial_index":16,"plugin_version":"2.1.0","time_elapsed":58456,"subject_id":"92082","group":"Group1","condition":"1_Rep","full_date":"2026-01-29T18:05:17.443Z","date":"2026-01-29","time":"18:05:17"},{"rt":null,"stimulus":"<p style=\"font-size: 50px; margin: 0; text-align: center;\">+</p>","response":null,"trial_type":"html-keyboard-response","trial_index":17,"plugin_version":"2.1.0","time_elapsed":59466,"subject_id":"92082","group":"Group1","condition":"1_Rep","full_date":"2026-01-29T18:05:17.443Z","date":"2026-01-29","time":"18:05:17"},{"task":"memory_phase","broad_category":"M","image_png":"M_Marble_04.png","image_id":228,"category_name":"Marble","category":15,"distinct_rating":3.15,"distinct_type":"Bottom","rt":null,"stimulus":"Stimuli_Rocks480/M_Marble_04.png","response":null,"trial_type":"image-keyboard-response","trial_index":18,"plugin_version":"2.1.0","time_elapsed":61975,"subject_id":"92082","group":"Group1","condition":"1_Rep","full_date":"2026-01-29T18:05:17.443Z","date":"2026-01-29","time":"18:05:17"},{"rt":null,"stimulus":"<p style=\"font-size: 50px; margin: 0; text-align: center;\">+</p>","response":null,"trial_type":"html-keyboard-response","trial_index":19,"plugin_version":"2.1.0","time_elapsed":62987,"subject_id":"92082","group":"Group1","condition":"1_Rep","full_date":"2026-01-29T18:05:17.443Z","date":"2026-01-29","time":"18:05:17"},{"task":"memory_phase","broad_category":"I","image_png":"I_Gabbro_08.png","image_id":56,"category_name":"Gabbro","category":4,"distinct_rating":3.02,"distinct_type":"Bottom","rt":null,"stimulus":"Stimuli_Rocks480/I_Gabbro_08.png","response":null,"trial_type":"image-keyboard-response","trial_index":20,"plugin_version":"2.1.0","time_elapsed":65502,"subject_id":"92082","group":"Group1","condition":"1_Rep","full_date":"2026-01-29T18:05:17.443Z","date":"2026-01-29","time":"18:05:17"},{"rt":null,"stimulus":"<p style=\"font-size: 50px; margin: 0; text-align: center;\">+</p>","response":null,"trial_type":"html-keyboard-response","trial_index":21,"plugin_version":"2.1.0","time_elapsed":66520,"subject_id":"92082","group":"Group1","condition":"1_Rep","full_date":"2026-01-29T18:05:17.443Z","date":"2026-01-29","time":"18:05:17"},{"task":"memory_phase","broad_category":"S","image_png":"S_Sandstone_03.png","image_id":451,"category_name":"Sandstone","category":29,"distinct_rating":1.86,"distinct_type":"Bottom","rt":null,"stimulus":"Stimuli_Rocks480/S_Sandstone_03.png","response":null,"trial_type":"image-keyboard-response","trial_index":22,"plugin_version":"2.1.0","time_elapsed":69028,"subject_id":"92082","group":"Group1","condition":"1_Rep","full_date":"2026-01-29T18:05:17.443Z","date":"2026-01-29","time":"18:05:17"},{"rt":null,"stimulus":"<p style=\"font-size: 50px; margin: 0; text-align: center;\">+</p>","response":null,"trial_type":"html-keyboard-response","trial_index":23,"plugin_version":"2.1.0","time_elapsed":70041,"subject_id":"92082","group":"Group1","condition":"1_Rep","full_date":"2026-01-29T18:05:17.443Z","date":"2026-01-29","time":"18:05:17"},{"task":"memory_phase","broad_category":"S","image_png":"S_Shale_12.png","image_id":476,"category_name":"Shale","category":30,"distinct_rating":2.48,"distinct_type":"Bottom","rt":null,"stimulus":"Stimuli_Rocks480/S_Shale_12.png","response":null,"trial_type":"image-keyboard-response","trial_index":24,"plugin_version":"2.1.0","time_elapsed":72558,"subject_id":"92082","group":"Group1","condition":"1_Rep","full_date":"2026-01-29T18:05:17.443Z","date":"2026-01-29","time":"18:05:17"},{"rt":null,"stimulus":"<p style=\"font-size: 50px; margin: 0; text-align: center;\">+</p>","response":null,"trial_type":"html-keyboard-response","trial_index":25,"plugin_version":"2.1.0","time_elapsed":73567,"subject_id":"92082","group":"Group1","condition":"1_Rep","full_date":"2026-01-29T18:05:17.443Z","date":"2026-01-29","time":"18:05:17"},{"task":"memory_phase","broad_category":"I","image_png":"I_Basalt_09.png","image_id":25,"category_name":"Basalt","category":2,"distinct_rating":1.89,"distinct_type":"Bottom","rt":null,"stimulus":"Stimuli_Rocks480/I_Basalt_09.png","response":null,"trial_type":"image-keyboard-response","trial_index":26,"plugin_version":"2.1.0","time_elapsed":76076,"subject_id":"92082","group":"Group1","condition":"1_Rep","full_date":"2026-01-29T18:05:17.443Z","date":"2026-01-29","time":"18:05:17"},{"rt":null,"stimulus":"<p style=\"font-size: 50px; margin: 0; text-align: center;\">+</p>","response":null,"trial_type":"html-keyboard-response","trial_index":27,"plugin_version":"2.1.0","time_elapsed":77088,"subject_id":"92082","group":"Group1","condition":"1_Rep","full_date":"2026-01-29T18:05:17.443Z","date":"2026-01-29","time":"18:05:17"},{"task":"memory_phase","broad_category":"I","image_png":"I_Gabbro_16.png","image_id":64,"category_name":"Gabbro","category":4,"distinct_rating":2.52,"distinct_type":"Bottom","rt":null,"stimulus":"Stimuli_Rocks480/I_Gabbro_16.png","response":null,"trial_type":"image-keyboard-response","trial_index":28,"plugin_version":"2.1.0","time_elapsed":79592,"subject_id":"92082","group":"Group1","condition":"1_Rep","full_date":"2026-01-29T18:05:17.443Z","date":"2026-01-29","time":"18:05:17"},{"rt":null,"stimulus":"<p style=\"font-size: 50px; margin: 0; text-align: center;\">+</p>","response":null,"trial_type":"html-keyboard-response","trial_index":29,"plugin_version":"2.1.0","time_elapsed":80603,"subject_id":"92082","group":"Group1","condition":"1_Rep","full_date":"2026-01-29T18:05:17.443Z","date":"2026-01-29","time":"18:05:17"},{"task":"memory_phase","broad_category":"S","image_png":"S_Rock Gypsum_04.png","image_id":420,"category_name":"Rock Gypsum","category":27,"distinct_rating":7.61,"distinct_type":"Top","rt":null,"stimulus":"Stimuli_Rocks480/S_Rock Gypsum_04.png","response":null,"trial_type":"image-keyboard-response","trial_index":30,"plugin_version":"2.1.0","time_elapsed":83114,"subject_id":"92082","group":"Group1","condition":"1_Rep","full_date":"2026-01-29T18:05:17.443Z","date":"2026-01-29","time":"18:05:17"},{"rt":null,"stimulus":"<p style=\"font-size: 50px; margin: 0; text-align: center;\">+</p>","response":null,"trial_type":"html-keyboard-response","trial_index":31,"plugin_version":"2.1.0","time_elapsed":84124,"subject_id":"92082","group":"Group1","condition":"1_Rep","full_date":"2026-01-29T18:05:17.443Z","date":"2026-01-29","time":"18:05:17"},{"task":"memory_phase","broad_category":"S","image_png":"S_Dolomite_13.png","image_id":397,"category_name":"Dolomite","category":25,"distinct_rating":1.77,"distinct_type":"Bottom","rt":null,"stimulus":"Stimuli_Rocks480/S_Dolomite_13.png","response":null,"trial_type":"image-keyboard-response","trial_index":32,"plugin_version":"2.1.0","time_elapsed":86630,"subject_id":"92082","group":"Group1","condition":"1_Rep","full_date":"2026-01-29T18:05:17.443Z","date":"2026-01-29","time":"18:05:17"},{"rt":null,"stimulus":"<p style=\"font-size: 50px; margin: 0; text-align: center;\">+</p>","response":null,"trial_type":"html-keyboard-response","trial_index":33,"plugin_version":"2.1.0","time_elapsed":87640,"subject_id":"92082","group":"Group1","condition":"1_Rep","full_date":"2026-01-29T18:05:17.443Z","date":"2026-01-29","time":"18:05:17"},{"task":"memory_phase","broad_category":"I","image_png":"I_Diorite_03.png","image_id":35,"category_name":"Diorite","category":3,"distinct_rating":3.14,"distinct_type":"Bottom","rt":null,"stimulus":"Stimuli_Rocks480/I_Diorite_03.png","response":null,"trial_type":"image-keyboard-response","trial_index":34,"plugin_version":"2.1.0","time_elapsed":90146,"subject_id":"92082","group":"Group1","condition":"1_Rep","full_date":"2026-01-29T18:05:17.443Z","date":"2026-01-29","time":"18:05:17"},{"rt":null,"stimulus":"<p style=\"font-size: 50px; margin: 0; text-align: center;\">+</p>","response":null,"trial_type":"html-keyboard-response","trial_index":35,"plugin_version":"2.1.0","time_elapsed":91156,"subject_id":"92082","group":"Group1","condition":"1_Rep","full_date":"2026-01-29T18:05:17.443Z","date":"2026-01-29","time":"18:05:17"},{"task":"memory_phase","broad_category":"S","image_png":"S_Breccia_11.png","image_id":347,"category_name":"Breccia","category":22,"distinct_rating":6.7,"distinct_type":"Top","rt":null,"stimulus":"Stimuli_Rocks480/S_Breccia_11.png","response":null,"trial_type":"image-keyboard-response","trial_index":36,"plugin_version":"2.1.0","time_elapsed":93672,"subject_id":"92082","group":"Group1","condition":"1_Rep","full_date":"2026-01-29T18:05:17.443Z","date":"2026-01-29","time":"18:05:17"},{"rt":null,"stimulus":"<p style=\"font-size: 50px; margin: 0; text-align: center;\">+</p>","response":null,"trial_type":"html-keyboard-response","trial_index":37,"plugin_version":"2.1.0","time_elapsed":94686,"subject_id":"92082","group":"Group1","condition":"1_Rep","full_date":"2026-01-29T18:05:17.443Z","date":"2026-01-29","time":"18:05:17"},{"task":"memory_phase","broad_category":"M","image_png":"M_Phyllite_07.png","image_id":263,"category_name":"Phyllite","category":17,"distinct_rating":2.59,"distinct_type":"Bottom","rt":null,"stimulus":"Stimuli_Rocks480/M_Phyllite_07.png","response":null,"trial_type":"image-keyboard-response","trial_index":38,"plugin_version":"2.1.0","time_elapsed":97193,"subject_id":"92082","group":"Group1","condition":"1_Rep","full_date":"2026-01-29T18:05:17.443Z","date":"2026-01-29","time":"18:05:17"},{"rt":null,"stimulus":"<p style=\"font-size: 50px; margin: 0; text-align: center;\">+</p>","response":null,"trial_type":"html-keyboard-response","trial_index":39,"plugin_version":"2.1.0","time_elapsed":98202,"subject_id":"92082","group":"Group1","condition":"1_Rep","full_date":"2026-01-29T18:05:17.443Z","date":"2026-01-29","time":"18:05:17"},{"task":"memory_phase","broad_category":"S","image_png":"S_Shale_01.png","image_id":465,"category_name":"Shale","category":30,"distinct_rating":2.7,"distinct_type":"Bottom","rt":null,"stimulus":"Stimuli_Rocks480/S_Shale_01.png","response":null,"trial_type":"image-keyboard-response","trial_index":40,"plugin_version":"2.1.0","time_elapsed":100714,"subject_id":"92082","group":"Group1","condition":"1_Rep","full_date":"2026-01-29T18:05:17.443Z","date":"2026-01-29","time":"18:05:17"},{"rt":null,"stimulus":"<p style=\"font-size: 50px; margin: 0; text-align: center;\">+</p>","response":null,"trial_type":"html-keyboard-response","trial_index":41,"plugin_version":"2.1.0","time_elapsed":101722,"subject_id":"92082","group":"Group1","condition":"1_Rep","full_date":"2026-01-29T18:05:17.443Z","date":"2026-01-29","time":"18:05:17"},{"task":"memory_phase","broad_category":"S","image_png":"S_Conglomerate_05.png","image_id":373,"category_name":"Conglomerate","category":24,"distinct_rating":7.32,"distinct_type":"Top","rt":null,"stimulus":"Stimuli_Rocks480/S_Conglomerate_05.png","response":null,"trial_type":"image-keyboard-response","trial_index":42,"plugin_version":"2.1.0","time_elapsed":104236,"subject_id":"92082","group":"Group1","condition":"1_Rep","full_date":"2026-01-29T18:05:17.443Z","date":"2026-01-29","time":"18:05:17"},{"rt":null,"stimulus":"<p style=\"font-size: 50px; margin: 0; text-align: center;\">+</p>","response":null,"trial_type":"html-keyboard-response","trial_index":43,"plugin_version":"2.1.0","time_elapsed":105248,"subject_id":"92082","group":"Group1","condition":"1_Rep","full_date":"2026-01-29T18:05:17.443Z","date":"2026-01-29","time":"18:05:17"},{"task":"memory_phase","broad_category":"I","image_png":"I_Andesite_06.png","image_id":6,"category_name":"Andesite","category":1,"distinct_rating":3.17,"distinct_type":"Bottom","rt":null,"stimulus":"Stimuli_Rocks480/I_Andesite_06.png","response":null,"trial_type":"image-keyboard-response","trial_index":44,"plugin_version":"2.1.0","time_elapsed":107758,"subject_id":"92082","group":"Group1","condition":"1_Rep","full_date":"2026-01-29T18:05:17.443Z","date":"2026-01-29","time":"18:05:17"},{"rt":null,"stimulus":"<p style=\"font-size: 50px; margin: 0; text-align: center;\">+</p>","response":null,"trial_type":"html-keyboard-response","trial_index":45,"plugin_version":"2.1.0","time_elapsed":108774,"subject_id":"92082","group":"Group1","condition":"1_Rep","full_date":"2026-01-29T18:05:17.443Z","date":"2026-01-29","time":"18:05:17"},{"task":"memory_phase","broad_category":"S","image_png":"S_Chert_10.png","image_id":362,"category_name":"Chert","category":23,"distinct_rating":7.17,"distinct_type":"Top","rt":null,"stimulus":"Stimuli_Rocks480/S_Chert_10.png","response":null,"trial_type":"image-keyboard-response","trial_index":46,"plugin_version":"2.1.0","time_elapsed":111276,"subject_id":"92082","group":"Group1","condition":"1_Rep","full_date":"2026-01-29T18:05:17.443Z","date":"2026-01-29","time":"18:05:17"},{"rt":null,"stimulus":"<p style=\"font-size: 50px; margin: 0; text-align: center;\">+</p>","response":null,"trial_type":"html-keyboard-response","trial_index":47,"plugin_version":"2.1.0","time_elapsed":112285,"subject_id":"92082","group":"Group1","condition":"1_Rep","full_date":"2026-01-29T18:05:17.443Z","date":"2026-01-29","time":"18:05:17"},{"task":"memory_phase","broad_category":"M","image_png":"M_Slate_11.png","image_id":315,"category_name":"Slate","category":20,"distinct_rating":2.75,"distinct_type":"Bottom","rt":null,"stimulus":"Stimuli_Rocks480/M_Slate_11.png","response":null,"trial_type":"image-keyboard-response","trial_index":48,"plugin_version":"2.1.0","time_elapsed":114797,"subject_id":"92082","group":"Group1","condition":"1_Rep","full_date":"2026-01-29T18:05:17.443Z","date":"2026-01-29","time":"18:05:17"},{"rt":null,"stimulus":"<p style=\"font-size: 50px; margin: 0; text-align: center;\">+</p>","response":null,"trial_type":"html-keyboard-response","trial_index":49,"plugin_version":"2.1.0","time_elapsed":115810,"subject_id":"92082","group":"Group1","condition":"1_Rep","full_date":"2026-01-29T18:05:17.443Z","date":"2026-01-29","time":"18:05:17"},{"task":"memory_phase","broad_category":"I","image_png":"I_Gabbro_11.png","image_id":59,"category_name":"Gabbro","category":4,"distinct_rating":1.99,"distinct_type":"Bottom","rt":null,"stimulus":"Stimuli_Rocks480/I_Gabbro_11.png","response":null,"trial_type":"image-keyboard-response","trial_index":50,"plugin_version":"2.1.0","time_elapsed":118317,"subject_id":"92082","group":"Group1","condition":"1_Rep","full_date":"2026-01-29T18:05:17.443Z","date":"2026-01-29","time":"18:05:17"},{"rt":null,"stimulus":"<p style=\"font-size: 50px; margin: 0; text-align: center;\">+</p>","response":null,"trial_type":"html-keyboard-response","trial_index":51,"plugin_version":"2.1.0","time_elapsed":119330,"subject_id":"92082","group":"Group1","condition":"1_Rep","full_date":"2026-01-29T18:05:17.443Z","date":"2026-01-29","time":"18:05:17"},{"task":"memory_phase","broad_category":"M","image_png":"M_Phyllite_10.png","image_id":266,"category_name":"Phyllite","category":17,"distinct_rating":2.6,"distinct_type":"Bottom","rt":null,"stimulus":"Stimuli_Rocks480/M_Phyllite_10.png","response":null,"trial_type":"image-keyboard-response","trial_index":52,"plugin_version":"2.1.0","time_elapsed":121833,"subject_id":"92082","group":"Group1","condition":"1_Rep","full_date":"2026-01-29T18:05:17.443Z","date":"2026-01-29","time":"18:05:17"},{"rt":null,"stimulus":"<p style=\"font-size: 50px; margin: 0; text-align: center;\">+</p>","response":null,"trial_type":"html-keyboard-response","trial_index":53,"plugin_version":"2.1.0","time_elapsed":122837,"subject_id":"92082","group":"Group1","condition":"1_Rep","full_date":"2026-01-29T18:05:17.443Z","date":"2026-01-29","time":"18:05:17"},{"task":"memory_phase","broad_category":"I","image_png":"I_Basalt_02.png","image_id":18,"category_name":"Basalt","category":2,"distinct_rating":1.84,"distinct_type":"Bottom","rt":null,"stimulus":"Stimuli_Rocks480/I_Basalt_02.png","response":null,"trial_type":"image-keyboard-response","trial_index":54,"plugin_version":"2.1.0","time_elapsed":125340,"subject_id":"92082","group":"Group1","condition":"1_Rep","full_date":"2026-01-29T18:05:17.443Z","date":"2026-01-29","time":"18:05:17"},{"rt":2396,"stimulus":"<p style=\"max-width: 760px; margin: auto; font-size: 35px; line-height: 1.5;\">\n                Press SPACE to continue study phase\n              </p>","response":" ","trial_type":"html-keyboard-response","trial_index":55,"plugin_version":"2.1.0","time_elapsed":127737,"subject_id":"92082","group":"Group1","condition":"1_Rep","full_date":"2026-01-29T18:05:17.443Z","date":"2026-01-29","time":"18:05:17"},{"rt":null,"stimulus":"<p style=\"font-size: 50px; margin: 0; text-align: center;\">+</p>","response":null,"trial_type":"html-keyboard-response","trial_index":56,"plugin_version":"2.1.0","time_elapsed":128747,"subject_id":"92082","group":"Group1","condition":"1_Rep","full_date":"2026-01-29T18:05:17.443Z","date":"2026-01-29","time":"18:05:17"},{"task":"memory_phase","broad_category":"S","image_png":"S_Sandstone_15.png","image_id":463,"category_name":"Sandstone","category":29,"distinct_rating":2,"distinct_type":"Bottom","rt":null,"stimulus":"Stimuli_Rocks480/S_Sandstone_15.png","response":null,"trial_type":"image-keyboard-response","trial_index":57,"plugin_version":"2.1.0","time_elapsed":131250,"subject_id":"92082","group":"Group1","condition":"1_Rep","full_date":"2026-01-29T18:05:17.443Z","date":"2026-01-29","time":"18:05:17"},{"rt":null,"stimulus":"<p style=\"font-size: 50px; margin: 0; text-align: center;\">+</p>","response":null,"trial_type":"html-keyboard-response","trial_index":58,"plugin_version":"2.1.0","time_elapsed":132266,"subject_id":"92082","group":"Group1","condition":"1_Rep","full_date":"2026-01-29T18:05:17.443Z","date":"2026-01-29","time":"18:05:17"},{"task":"memory_phase","broad_category":"I","image_png":"I_Rhyolite_16.png","image_id":160,"category_name":"Rhyolite","category":10,"distinct_rating":2.19,"distinct_type":"Bottom","rt":null,"stimulus":"Stimuli_Rocks480/I_Rhyolite_16.png","response":null,"trial_type":"image-keyboard-response","trial_index":59,"plugin_version":"2.1.0","time_elapsed":134776,"subject_id":"92082","group":"Group1","condition":"1_Rep","full_date":"2026-01-29T18:05:17.443Z","date":"2026-01-29","time":"18:05:17"},{"rt":null,"stimulus":"<p style=\"font-size: 50px; margin: 0; text-align: center;\">+</p>","response":null,"trial_type":"html-keyboard-response","trial_index":60,"plugin_version":"2.1.0","time_elapsed":135787,"subject_id":"92082","group":"Group1","condition":"1_Rep","full_date":"2026-01-29T18:05:17.443Z","date":"2026-01-29","time":"18:05:17"},{"task":"memory_phase","broad_category":"M","image_png":"M_Phyllite_03.png","image_id":259,"category_name":"Phyllite","category":17,"distinct_rating":2.5,"distinct_type":"Bottom","rt":null,"stimulus":"Stimuli_Rocks480/M_Phyllite_03.png","response":null,"trial_type":"image-keyboard-response","trial_index":61,"plugin_version":"2.1.0","time_elapsed":138289,"subject_id":"92082","group":"Group1","condition":"1_Rep","full_date":"2026-01-29T18:05:17.443Z","date":"2026-01-29","time":"18:05:17"},{"rt":null,"stimulus":"<p style=\"font-size: 50px; margin: 0; text-align: center;\">+</p>","response":null,"trial_type":"html-keyboard-response","trial_index":62,"plugin_version":"2.1.0","time_elapsed":139296,"subject_id":"92082","group":"Group1","condition":"1_Rep","full_date":"2026-01-29T18:05:17.443Z","date":"2026-01-29","time":"18:05:17"},{"task":"memory_phase","broad_category":"M","image_png":"M_Marble_06.png","image_id":230,"category_name":"Marble","category":15,"distinct_rating":3.4,"distinct_type":"Bottom","rt":null,"stimulus":"Stimuli_Rocks480/M_Marble_06.png","response":null,"trial_type":"image-keyboard-response","trial_index":63,"plugin_version":"2.1.0","time_elapsed":141799,"subject_id":"92082","group":"Group1","condition":"1_Rep","full_date":"2026-01-29T18:05:17.443Z","date":"2026-01-29","time":"18:05:17"},{"rt":null,"stimulus":"<p style=\"font-size: 50px; margin: 0; text-align: center;\">+</p>","response":null,"trial_type":"html-keyboard-response","trial_index":64,"plugin_version":"2.1.0","time_elapsed":142808,"subject_id":"92082","group":"Group1","condition":"1_Rep","full_date":"2026-01-29T18:05:17.443Z","date":"2026-01-29","time":"18:05:17"},{"task":"memory_phase","broad_category":"M","image_png":"M_Quartzite_08.png","image_id":280,"category_name":"Quartzite","category":18,"distinct_rating":2.15,"distinct_type":"Bottom","rt":null,"stimulus":"Stimuli_Rocks480/M_Quartzite_08.png","response":null,"trial_type":"image-keyboard-response","trial_index":65,"plugin_version":"2.1.0","time_elapsed":145310,"subject_id":"92082","group":"Group1","condition":"1_Rep","full_date":"2026-01-29T18:05:17.443Z","date":"2026-01-29","time":"18:05:17"},{"rt":null,"stimulus":"<p style=\"font-size: 50px; margin: 0; text-align: center;\">+</p>","response":null,"trial_type":"html-keyboard-response","trial_index":66,"plugin_version":"2.1.0","time_elapsed":146323,"subject_id":"92082","group":"Group1","condition":"1_Rep","full_date":"2026-01-29T18:05:17.443Z","date":"2026-01-29","time":"18:05:17"},{"task":"memory_phase","broad_category":"M","image_png":"M_Gneiss_05.png","image_id":197,"category_name":"Gneiss","category":13,"distinct_rating":2.97,"distinct_type":"Bottom","rt":null,"stimulus":"Stimuli_Rocks480/M_Gneiss_05.png","response":null,"trial_type":"image-keyboard-response","trial_index":67,"plugin_version":"2.1.0","time_elapsed":148831,"subject_id":"92082","group":"Group1","condition":"1_Rep","full_date":"2026-01-29T18:05:17.443Z","date":"2026-01-29","time":"18:05:17"},{"rt":null,"stimulus":"<p style=\"font-size: 50px; margin: 0; text-align: center;\">+</p>","response":null,"trial_type":"html-keyboard-response","trial_index":68,"plugin_version":"2.1.0","time_elapsed":149832,"subject_id":"92082","group":"Group1","condition":"1_Rep","full_date":"2026-01-29T18:05:17.443Z","date":"2026-01-29","time":"18:05:17"},{"task":"memory_phase","broad_category":"S","image_png":"S_Sandstone_16.png","image_id":464,"category_name":"Sandstone","category":29,"distinct_rating":1.93,"distinct_type":"Bottom","rt":null,"stimulus":"Stimuli_Rocks480/S_Sandstone_16.png","response":null,"trial_type":"image-keyboard-response","trial_index":69,"plugin_version":"2.1.0","time_elapsed":152334,"subject_id":"92082","group":"Group1","condition":"1_Rep","full_date":"2026-01-29T18:05:17.443Z","date":"2026-01-29","time":"18:05:17"},{"rt":null,"stimulus":"<p style=\"font-size: 50px; margin: 0; text-align: center;\">+</p>","response":null,"trial_type":"html-keyboard-response","trial_index":70,"plugin_version":"2.1.0","time_elapsed":153343,"subject_id":"92082","group":"Group1","condition":"1_Rep","full_date":"2026-01-29T18:05:17.443Z","date":"2026-01-29","time":"18:05:17"},{"task":"memory_phase","broad_category":"M","image_png":"M_Marble_16.png","image_id":240,"category_name":"Marble","category":15,"distinct_rating":2.57,"distinct_type":"Bottom","rt":null,"stimulus":"Stimuli_Rocks480/M_Marble_16.png","response":null,"trial_type":"image-keyboard-response","trial_index":71,"plugin_version":"2.1.0","time_elapsed":155849,"subject_id":"92082","group":"Group1","condition":"1_Rep","full_date":"2026-01-29T18:05:17.443Z","date":"2026-01-29","time":"18:05:17"},{"rt":null,"stimulus":"<p style=\"font-size: 50px; margin: 0; text-align: center;\">+</p>","response":null,"trial_type":"html-keyboard-response","trial_index":72,"plugin_version":"2.1.0","time_elapsed":156866,"subject_id":"92082","group":"Group1","condition":"1_Rep","full_date":"2026-01-29T18:05:17.443Z","date":"2026-01-29","time":"18:05:17"},{"task":"memory_phase","broad_category":"M","image_png":"M_Slate_15.png","image_id":319,"category_name":"Slate","category":20,"distinct_rating":2.13,"distinct_type":"Bottom","rt":null,"stimulus":"Stimuli_Rocks480/M_Slate_15.png","response":null,"trial_type":"image-keyboard-response","trial_index":73,"plugin_version":"2.1.0","time_elapsed":159379,"subject_id":"92082","group":"Group1","condition":"1_Rep","full_date":"2026-01-29T18:05:17.443Z","date":"2026-01-29","time":"18:05:17"},{"rt":null,"stimulus":"<p style=\"font-size: 50px; margin: 0; text-align: center;\">+</p>","response":null,"trial_type":"html-keyboard-response","trial_index":74,"plugin_version":"2.1.0","time_elapsed":160396,"subject_id":"92082","group":"Group1","condition":"1_Rep","full_date":"2026-01-29T18:05:17.443Z","date":"2026-01-29","time":"18:05:17"},{"task":"memory_phase","broad_category":"I","image_png":"I_Andesite_10.png","image_id":10,"category_name":"Andesite","category":1,"distinct_rating":3.15,"distinct_type":"Bottom","rt":null,"stimulus":"Stimuli_Rocks480/I_Andesite_10.png","response":null,"trial_type":"image-keyboard-response","trial_index":75,"plugin_version":"2.1.0","time_elapsed":162897,"subject_id":"92082","group":"Group1","condition":"1_Rep","full_date":"2026-01-29T18:05:17.443Z","date":"2026-01-29","time":"18:05:17"},{"rt":null,"stimulus":"<p style=\"font-size: 50px; margin: 0; text-align: center;\">+</p>","response":null,"trial_type":"html-keyboard-response","trial_index":76,"plugin_version":"2.1.0","time_elapsed":163900,"subject_id":"92082","group":"Group1","condition":"1_Rep","full_date":"2026-01-29T18:05:17.443Z","date":"2026-01-29","time":"18:05:17"},{"task":"memory_phase","broad_category":"S","image_png":"S_Rock Salt_01.png","image_id":433,"category_name":"Rock Salt","category":28,"distinct_rating":7.18,"distinct_type":"Top","rt":null,"stimulus":"Stimuli_Rocks480/S_Rock Salt_01.png","response":null,"trial_type":"image-keyboard-response","trial_index":77,"plugin_version":"2.1.0","time_elapsed":166416,"subject_id":"92082","group":"Group1","condition":"1_Rep","full_date":"2026-01-29T18:05:17.443Z","date":"2026-01-29","time":"18:05:17"},{"rt":null,"stimulus":"<p style=\"font-size: 50px; margin: 0; text-align: center;\">+</p>","response":null,"trial_type":"html-keyboard-response","trial_index":78,"plugin_version":"2.1.0","time_elapsed":167426,"subject_id":"92082","group":"Group1","condition":"1_Rep","full_date":"2026-01-29T18:05:17.443Z","date":"2026-01-29","time":"18:05:17"},{"task":"memory_phase","broad_category":"I","image_png":"I_Pegmatite_10.png","image_id":106,"category_name":"Pegmatite","category":7,"distinct_rating":7.66,"distinct_type":"Top","rt":null,"stimulus":"Stimuli_Rocks480/I_Pegmatite_10.png","response":null,"trial_type":"image-keyboard-response","trial_index":79,"plugin_version":"2.1.0","time_elapsed":169928,"subject_id":"92082","group":"Group1","condition":"1_Rep","full_date":"2026-01-29T18:05:17.443Z","date":"2026-01-29","time":"18:05:17"},{"rt":null,"stimulus":"<p style=\"font-size: 50px; margin: 0; text-align: center;\">+</p>","response":null,"trial_type":"html-keyboard-response","trial_index":80,"plugin_version":"2.1.0","time_elapsed":170939,"subject_id":"92082","group":"Group1","condition":"1_Rep","full_date":"2026-01-29T18:05:17.443Z","date":"2026-01-29","time":"18:05:17"},{"task":"memory_phase","broad_category":"I","image_png":"I_Rhyolite_11.png","image_id":155,"category_name":"Rhyolite","category":10,"distinct_rating":1.73,"distinct_type":"Bottom","rt":null,"stimulus":"Stimuli_Rocks480/I_Rhyolite_11.png","response":null,"trial_type":"image-keyboard-response","trial_index":81,"plugin_version":"2.1.0","time_elapsed":173454,"subject_id":"92082","group":"Group1","condition":"1_Rep","full_date":"2026-01-29T18:05:17.443Z","date":"2026-01-29","time":"18:05:17"},{"rt":null,"stimulus":"<p style=\"font-size: 50px; margin: 0; text-align: center;\">+</p>","response":null,"trial_type":"html-keyboard-response","trial_index":82,"plugin_version":"2.1.0","time_elapsed":174471,"subject_id":"92082","group":"Group1","condition":"1_Rep","full_date":"2026-01-29T18:05:17.443Z","date":"2026-01-29","time":"18:05:17"},{"task":"memory_phase","broad_category":"I","image_png":"I_Rhyolite_14.png","image_id":158,"category_name":"Rhyolite","category":10,"distinct_rating":2.59,"distinct_type":"Bottom","rt":null,"stimulus":"Stimuli_Rocks480/I_Rhyolite_14.png","response":null,"trial_type":"image-keyboard-response","trial_index":83,"plugin_version":"2.1.0","time_elapsed":176974,"subject_id":"92082","group":"Group1","condition":"1_Rep","full_date":"2026-01-29T18:05:17.443Z","date":"2026-01-29","time":"18:05:17"},{"rt":null,"stimulus":"<p style=\"font-size: 50px; margin: 0; text-align: center;\">+</p>","response":null,"trial_type":"html-keyboard-response","trial_index":84,"plugin_version":"2.1.0","time_elapsed":177983,"subject_id":"92082","group":"Group1","condition":"1_Rep","full_date":"2026-01-29T18:05:17.443Z","date":"2026-01-29","time":"18:05:17"},{"task":"memory_phase","broad_category":"I","image_png":"I_Andesite_08.png","image_id":8,"category_name":"Andesite","category":1,"distinct_rating":1.95,"distinct_type":"Bottom","rt":null,"stimulus":"Stimuli_Rocks480/I_Andesite_08.png","response":null,"trial_type":"image-keyboard-response","trial_index":85,"plugin_version":"2.1.0","time_elapsed":180498,"subject_id":"92082","group":"Group1","condition":"1_Rep","full_date":"2026-01-29T18:05:17.443Z","date":"2026-01-29","time":"18:05:17"},{"rt":null,"stimulus":"<p style=\"font-size: 50px; margin: 0; text-align: center;\">+</p>","response":null,"trial_type":"html-keyboard-response","trial_index":86,"plugin_version":"2.1.0","time_elapsed":181513,"subject_id":"92082","group":"Group1","condition":"1_Rep","full_date":"2026-01-29T18:05:17.443Z","date":"2026-01-29","time":"18:05:17"},{"task":"memory_phase","broad_category":"M","image_png":"M_Quartzite_05.png","image_id":277,"category_name":"Quartzite","category":18,"distinct_rating":2.23,"distinct_type":"Bottom","rt":null,"stimulus":"Stimuli_Rocks480/M_Quartzite_05.png","response":null,"trial_type":"image-keyboard-response","trial_index":87,"plugin_version":"2.1.0","time_elapsed":184024,"subject_id":"92082","group":"Group1","condition":"1_Rep","full_date":"2026-01-29T18:05:17.443Z","date":"2026-01-29","time":"18:05:17"},{"rt":null,"stimulus":"<p style=\"font-size: 50px; margin: 0; text-align: center;\">+</p>","response":null,"trial_type":"html-keyboard-response","trial_index":88,"plugin_version":"2.1.0","time_elapsed":185039,"subject_id":"92082","group":"Group1","condition":"1_Rep","full_date":"2026-01-29T18:05:17.443Z","date":"2026-01-29","time":"18:05:17"},{"task":"memory_phase","broad_category":"S","image_png":"S_Dolomite_12.png","image_id":396,"category_name":"Dolomite","category":25,"distinct_rating":1.85,"distinct_type":"Bottom","rt":null,"stimulus":"Stimuli_Rocks480/S_Dolomite_12.png","response":null,"trial_type":"image-keyboard-response","trial_index":89,"plugin_version":"2.1.0","time_elapsed":187541,"subject_id":"92082","group":"Group1","condition":"1_Rep","full_date":"2026-01-29T18:05:17.443Z","date":"2026-01-29","time":"18:05:17"},{"rt":null,"stimulus":"<p style=\"font-size: 50px; margin: 0; text-align: center;\">+</p>","response":null,"trial_type":"html-keyboard-response","trial_index":90,"plugin_version":"2.1.0","time_elapsed":188551,"subject_id":"92082","group":"Group1","condition":"1_Rep","full_date":"2026-01-29T18:05:17.443Z","date":"2026-01-29","time":"18:05:17"},{"task":"memory_phase","broad_category":"M","image_png":"M_Gneiss_13.png","image_id":205,"category_name":"Gneiss","category":13,"distinct_rating":3.26,"distinct_type":"Bottom","rt":null,"stimulus":"Stimuli_Rocks480/M_Gneiss_13.png","response":null,"trial_type":"image-keyboard-response","trial_index":91,"plugin_version":"2.1.0","time_elapsed":191067,"subject_id":"92082","group":"Group1","condition":"1_Rep","full_date":"2026-01-29T18:05:17.443Z","date":"2026-01-29","time":"18:05:17"},{"rt":null,"stimulus":"<p style=\"font-size: 50px; margin: 0; text-align: center;\">+</p>","response":null,"trial_type":"html-keyboard-response","trial_index":92,"plugin_version":"2.1.0","time_elapsed":192076,"subject_id":"92082","group":"Group1","condition":"1_Rep","full_date":"2026-01-29T18:05:17.443Z","date":"2026-01-29","time":"18:05:17"},{"task":"memory_phase","broad_category":"M","image_png":"M_Quartzite_13.png","image_id":285,"category_name":"Quartzite","category":18,"distinct_rating":2.27,"distinct_type":"Bottom","rt":null,"stimulus":"Stimuli_Rocks480/M_Quartzite_13.png","response":null,"trial_type":"image-keyboard-response","trial_index":93,"plugin_version":"2.1.0","time_elapsed":194592,"subject_id":"92082","group":"Group1","condition":"1_Rep","full_date":"2026-01-29T18:05:17.443Z","date":"2026-01-29","time":"18:05:17"},{"rt":null,"stimulus":"<p style=\"font-size: 50px; margin: 0; text-align: center;\">+</p>","response":null,"trial_type":"html-keyboard-response","trial_index":94,"plugin_version":"2.1.0","time_elapsed":195602,"subject_id":"92082","group":"Group1","condition":"1_Rep","full_date":"2026-01-29T18:05:17.443Z","date":"2026-01-29","time":"18:05:17"},{"task":"memory_phase","broad_category":"I","image_png":"I_Diorite_04.png","image_id":36,"category_name":"Diorite","category":3,"distinct_rating":2.98,"distinct_type":"Bottom","rt":null,"stimulus":"Stimuli_Rocks480/I_Diorite_04.png","response":null,"trial_type":"image-keyboard-response","trial_index":95,"plugin_version":"2.1.0","time_elapsed":198105,"subject_id":"92082","group":"Group1","condition":"1_Rep","full_date":"2026-01-29T18:05:17.443Z","date":"2026-01-29","time":"18:05:17"},{"rt":null,"stimulus":"<p style=\"font-size: 50px; margin: 0; text-align: center;\">+</p>","response":null,"trial_type":"html-keyboard-response","trial_index":96,"plugin_version":"2.1.0","time_elapsed":199119,"subject_id":"92082","group":"Group1","condition":"1_Rep","full_date":"2026-01-29T18:05:17.443Z","date":"2026-01-29","time":"18:05:17"},{"task":"memory_phase","broad_category":"M","image_png":"M_Gneiss_06.png","image_id":198,"category_name":"Gneiss","category":13,"distinct_rating":2.65,"distinct_type":"Bottom","rt":null,"stimulus":"Stimuli_Rocks480/M_Gneiss_06.png","response":null,"trial_type":"image-keyboard-response","trial_index":97,"plugin_version":"2.1.0","time_elapsed":201632,"subject_id":"92082","group":"Group1","condition":"1_Rep","full_date":"2026-01-29T18:05:17.443Z","date":"2026-01-29","time":"18:05:17"},{"rt":null,"stimulus":"<p style=\"font-size: 50px; margin: 0; text-align: center;\">+</p>","response":null,"trial_type":"html-keyboard-response","trial_index":98,"plugin_version":"2.1.0","time_elapsed":202634,"subject_id":"92082","group":"Group1","condition":"1_Rep","full_date":"2026-01-29T18:05:17.443Z","date":"2026-01-29","time":"18:05:17"},{"task":"memory_phase","broad_category":"M","image_png":"M_Slate_03.png","image_id":307,"category_name":"Slate","category":20,"distinct_rating":1.87,"distinct_type":"Bottom","rt":null,"stimulus":"Stimuli_Rocks480/M_Slate_03.png","response":null,"trial_type":"image-keyboard-response","trial_index":99,"plugin_version":"2.1.0","time_elapsed":205142,"subject_id":"92082","group":"Group1","condition":"1_Rep","full_date":"2026-01-29T18:05:17.443Z","date":"2026-01-29","time":"18:05:17"},{"rt":null,"stimulus":"<p style=\"font-size: 50px; margin: 0; text-align: center;\">+</p>","response":null,"trial_type":"html-keyboard-response","trial_index":100,"plugin_version":"2.1.0","time_elapsed":206143,"subject_id":"92082","group":"Group1","condition":"1_Rep","full_date":"2026-01-29T18:05:17.443Z","date":"2026-01-29","time":"18:05:17"},{"task":"memory_phase","broad_category":"I","image_png":"I_Diorite_05.png","image_id":37,"category_name":"Diorite","category":3,"distinct_rating":3.08,"distinct_type":"Bottom","rt":null,"stimulus":"Stimuli_Rocks480/I_Diorite_05.png","response":null,"trial_type":"image-keyboard-response","trial_index":101,"plugin_version":"2.1.0","time_elapsed":208655,"subject_id":"92082","group":"Group1","condition":"1_Rep","full_date":"2026-01-29T18:05:17.443Z","date":"2026-01-29","time":"18:05:17"},{"rt":null,"stimulus":"<p style=\"font-size: 50px; margin: 0; text-align: center;\">+</p>","response":null,"trial_type":"html-keyboard-response","trial_index":102,"plugin_version":"2.1.0","time_elapsed":209671,"subject_id":"92082","group":"Group1","condition":"1_Rep","full_date":"2026-01-29T18:05:17.443Z","date":"2026-01-29","time":"18:05:17"},{"task":"memory_phase","broad_category":"I","image_png":"I_Obsidian_05.png","image_id":85,"category_name":"Obsidian","category":6,"distinct_rating":7.32,"distinct_type":"Top","rt":null,"stimulus":"Stimuli_Rocks480/I_Obsidian_05.png","response":null,"trial_type":"image-keyboard-response","trial_index":103,"plugin_version":"2.1.0","time_elapsed":212182,"subject_id":"92082","group":"Group1","condition":"1_Rep","full_date":"2026-01-29T18:05:17.443Z","date":"2026-01-29","time":"18:05:17"},{"rt":null,"stimulus":"<p style=\"font-size: 50px; margin: 0; text-align: center;\">+</p>","response":null,"trial_type":"html-keyboard-response","trial_index":104,"plugin_version":"2.1.0","time_elapsed":213184,"subject_id":"92082","group":"Group1","condition":"1_Rep","full_date":"2026-01-29T18:05:17.443Z","date":"2026-01-29","time":"18:05:17"},{"task":"memory_phase","broad_category":"I","image_png":"I_Pumice_12.png","image_id":140,"category_name":"Pumice","category":9,"distinct_rating":2.97,"distinct_type":"Bottom","rt":null,"stimulus":"Stimuli_Rocks480/I_Pumice_12.png","response":null,"trial_type":"image-keyboard-response","trial_index":105,"plugin_version":"2.1.0","time_elapsed":215701,"subject_id":"92082","group":"Group1","condition":"1_Rep","full_date":"2026-01-29T18:05:17.443Z","date":"2026-01-29","time":"18:05:17"},{"rt":10796,"stimulus":"<div style=\"max-width: 760px; margin: auto; font-size: 20px; line-height: 1.5;\">\n      <h1 style=\"text-align:center; font-size: 30px;\">Instructions for the Test Phase</h1>\n      <p>\n        The study phase is now complete.\n      </p>\n      <p>\n        In the test phase, you will again see a series of rock images. \n        Some will be ones you saw before - during the study phase, while others will be new.  \n        <b>Your task</b> is to decide whether you have seen each image before by pressing the corresponding key on your keyboard:<br><br>\n          <b>A</b> - NO (you did not see this image before)<br>\n          <b>L</b> - YES (you saw this image before)<br><br>\n        The test will proceed at your own pace. You will receive feedback after each response.  \n        Please try to respond <b>as accurately as possible</b>.\n      </p>\n      <p>\n        <b>Reminder:</b> If your computer has multiple language settings (e.g., English and another language),\n        please ensure it is set to English during the test phase.\n      </p>\n      <p>\n        You can track your progress using the <b>completion bar</b> at the top of the screen.  \n        Note that it has been refreshed to reflect your progress during this final phase.\n      </p>\n      <p>\n        Press the button below when you are ready to continue.\n      </p>\n    </div>","response":0,"trial_type":"html-button-response","trial_index":106,"plugin_version":"2.1.0","time_elapsed":226500,"subject_id":"92082","group":"Group1","condition":"1_Rep","full_date":"2026-01-29T18:05:17.443Z","date":"2026-01-29","time":"18:05:17"},{"correct_response":"l","task":"test_phase","broad_category":"M","image_png":"M_Quartzite_05.png","image_id":277,"category_name":"Quartzite","category":18,"distinct_rating":2.23,"distinct_type":"Bottom","item_type":"Target","rt":5940,"stimulus":"Stimuli_Rocks480/M_Quartzite_05.png","response":"a","trial_type":"image-keyboard-response","trial_index":107,"plugin_version":"2.1.0","time_elapsed":232443,"subject_id":"92082","group":"Group1","condition":"1_Rep","full_date":"2026-01-29T18:05:17.443Z","date":"2026-01-29","time":"18:05:17","cor_ans":false},{"trial_type":"html-keyboard-response","rt":null,"stimulus":"<p style=\"color: red; font-size: 50px; font-weight: bold;\">Incorrect</p>","response":null,"trial_index":108,"plugin_version":"2.1.0","time_elapsed":232960,"subject_id":"92082","group":"Group1","condition":"1_Rep","full_date":"2026-01-29T18:05:17.443Z","date":"2026-01-29","time":"18:05:17"},{"correct_response":"l","task":"test_phase","broad_category":"S","image_png":"S_Dolomite_14.png","image_id":398,"category_name":"Dolomite","category":25,"distinct_rating":1.43,"distinct_type":"Bottom","item_type":"Target","rt":1471,"stimulus":"Stimuli_Rocks480/S_Dolomite_14.png","response":"l","trial_type":"image-keyboard-response","trial_index":109,"plugin_version":"2.1.0","time_elapsed":234433,"subject_id":"92082","group":"Group1","condition":"1_Rep","full_date":"2026-01-29T18:05:17.443Z","date":"2026-01-29","time":"18:05:17","cor_ans":true},{"trial_type":"html-keyboard-response","rt":null,"stimulus":"<p style=\"color: green; font-size: 50px; font-weight: bold;\">Correct</p>","response":null,"trial_index":110,"plugin_version":"2.1.0","time_elapsed":234950,"subject_id":"92082","group":"Group1","condition":"1_Rep","full_date":"2026-01-29T18:05:17.443Z","date":"2026-01-29","time":"18:05:17"},{"correct_response":"l","task":"test_phase","broad_category":"S","image_png":"S_Chert_10.png","image_id":362,"category_name":"Chert","category":23,"distinct_rating":7.17,"distinct_type":"Top","item_type":"Target","rt":1126,"stimulus":"Stimuli_Rocks480/S_Chert_10.png","response":"l","trial_type":"image-keyboard-response","trial_index":111,"plugin_version":"2.1.0","time_elapsed":236078,"subject_id":"92082","group":"Group1","condition":"1_Rep","full_date":"2026-01-29T18:05:17.443Z","date":"2026-01-29","time":"18:05:17","cor_ans":true},{"trial_type":"html-keyboard-response","rt":null,"stimulus":"<p style=\"color: green; font-size: 50px; font-weight: bold;\">Correct</p>","response":null,"trial_index":112,"plugin_version":"2.1.0","time_elapsed":236595,"subject_id":"92082","group":"Group1","condition":"1_Rep","full_date":"2026-01-29T18:05:17.443Z","date":"2026-01-29","time":"18:05:17"},{"correct_response":"a","task":"test_phase","broad_category":"S","image_png":"S_Shale_07.png","image_id":471,"category_name":"Shale","category":30,"distinct_rating":2.73,"distinct_type":"Bottom","item_type":"Foil","rt":1812,"stimulus":"Stimuli_Rocks480/S_Shale_07.png","response":"a","trial_type":"image-keyboard-response","trial_index":113,"plugin_version":"2.1.0","time_elapsed":238410,"subject_id":"92082","group":"Group1","condition":"1_Rep","full_date":"2026-01-29T18:05:17.443Z","date":"2026-01-29","time":"18:05:17","cor_ans":true},{"trial_type":"html-keyboard-response","rt":null,"stimulus":"<p style=\"color: green; font-size: 50px; font-weight: bold;\">Correct</p>","response":null,"trial_index":114,"plugin_version":"2.1.0","time_elapsed":238924,"subject_id":"92082","group":"Group1","condition":"1_Rep","full_date":"2026-01-29T18:05:17.443Z","date":"2026-01-29","time":"18:05:17"},{"correct_response":"l","task":"test_phase","broad_category":"M","image_png":"M_Slate_11.png","image_id":315,"category_name":"Slate","category":20,"distinct_rating":2.75,"distinct_type":"Bottom","item_type":"Target","rt":2512,"stimulus":"Stimuli_Rocks480/M_Slate_11.png","response":"a","trial_type":"image-keyboard-response","trial_index":115,"plugin_version":"2.1.0","time_elapsed":241437,"subject_id":"92082","group":"Group1","condition":"1_Rep","full_date":"2026-01-29T18:05:17.443Z","date":"2026-01-29","time":"18:05:17","cor_ans":false},{"trial_type":"html-keyboard-response","rt":null,"stimulus":"<p style=\"color: red; font-size: 50px; font-weight: bold;\">Incorrect</p>","response":null,"trial_index":116,"plugin_version":"2.1.0","time_elapsed":241947,"subject_id":"92082","group":"Group1","condition":"1_Rep","full_date":"2026-01-29T18:05:17.443Z","date":"2026-01-29","time":"18:05:17"},{"correct_response":"l","task":"test_phase","broad_category":"I","image_png":"I_Rhyolite_11.png","image_id":155,"category_name":"Rhyolite","category":10,"distinct_rating":1.73,"distinct_type":"Bottom","item_type":"Target","rt":2182,"stimulus":"Stimuli_Rocks480/I_Rhyolite_11.png","response":"a","trial_type":"image-keyboard-response","trial_index":117,"plugin_version":"2.1.0","time_elapsed":244130,"subject_id":"92082","group":"Group1","condition":"1_Rep","full_date":"2026-01-29T18:05:17.443Z","date":"2026-01-29","time":"18:05:17","cor_ans":false},{"trial_type":"html-keyboard-response","rt":null,"stimulus":"<p style=\"color: red; font-size: 50px; font-weight: bold;\">Incorrect</p>","response":null,"trial_index":118,"plugin_version":"2.1.0","time_elapsed":244631,"subject_id":"92082","group":"Group1","condition":"1_Rep","full_date":"2026-01-29T18:05:17.443Z","date":"2026-01-29","time":"18:05:17"},{"correct_response":"a","task":"test_phase","broad_category":"S","image_png":"S_Chert_13.png","image_id":365,"category_name":"Chert","category":23,"distinct_rating":6.57,"distinct_type":"Top","item_type":"Foil","rt":1918,"stimulus":"Stimuli_Rocks480/S_Chert_13.png","response":"a","trial_type":"image-keyboard-response","trial_index":119,"plugin_version":"2.1.0","time_elapsed":246551,"subject_id":"92082","group":"Group1","condition":"1_Rep","full_date":"2026-01-29T18:05:17.443Z","date":"2026-01-29","time":"18:05:17","cor_ans":true},{"trial_type":"html-keyboard-response","rt":null,"stimulus":"<p style=\"color: green; font-size: 50px; font-weight: bold;\">Correct</p>","response":null,"trial_index":120,"plugin_version":"2.1.0","time_elapsed":247068,"subject_id":"92082","group":"Group1","condition":"1_Rep","full_date":"2026-01-29T18:05:17.443Z","date":"2026-01-29","time":"18:05:17"},{"correct_response":"a","task":"test_phase","broad_category":"S","image_png":"S_Conglomerate_14.png","image_id":382,"category_name":"Conglomerate","category":24,"distinct_rating":6.86,"distinct_type":"Top","item_type":"Foil","rt":1482,"stimulus":"Stimuli_Rocks480/S_Conglomerate_14.png","response":"a","trial_type":"image-keyboard-response","trial_index":121,"plugin_version":"2.1.0","time_elapsed":248552,"subject_id":"92082","group":"Group1","condition":"1_Rep","full_date":"2026-01-29T18:05:17.443Z","date":"2026-01-29","time":"18:05:17","cor_ans":true},{"trial_type":"html-keyboard-response","rt":null,"stimulus":"<p style=\"color: green; font-size: 50px; font-weight: bold;\">Correct</p>","response":null,"trial_index":122,"plugin_version":"2.1.0","time_elapsed":249067,"subject_id":"92082","group":"Group1","condition":"1_Rep","full_date":"2026-01-29T18:05:17.443Z","date":"2026-01-29","time":"18:05:17"},{"correct_response":"l","task":"test_phase","broad_category":"I","image_png":"I_Pumice_08.png","image_id":136,"category_name":"Pumice","category":9,"distinct_rating":3.1,"distinct_type":"Bottom","item_type":"Target","rt":1421,"stimulus":"Stimuli_Rocks480/I_Pumice_08.png","response":"l","trial_type":"image-keyboard-response","trial_index":123,"plugin_version":"2.1.0","time_elapsed":250490,"subject_id":"92082","group":"Group1","condition":"1_Rep","full_date":"2026-01-29T18:05:17.443Z","date":"2026-01-29","time":"18:05:17","cor_ans":true},{"trial_type":"html-keyboard-response","rt":null,"stimulus":"<p style=\"color: green; font-size: 50px; font-weight: bold;\">Correct</p>","response":null,"trial_index":124,"plugin_version":"2.1.0","time_elapsed":251001,"subject_id":"92082","group":"Group1","condition":"1_Rep","full_date":"2026-01-29T18:05:17.443Z","date":"2026-01-29","time":"18:05:17"},{"correct_response":"l","task":"test_phase","broad_category":"I","image_png":"I_Diorite_05.png","image_id":37,"category_name":"Diorite","category":3,"distinct_rating":3.08,"distinct_type":"Bottom","item_type":"Target","rt":2209,"stimulus":"Stimuli_Rocks480/I_Diorite_05.png","response":"a","trial_type":"image-keyboard-response","trial_index":125,"plugin_version":"2.1.0","time_elapsed":253212,"subject_id":"92082","group":"Group1","condition":"1_Rep","full_date":"2026-01-29T18:05:17.443Z","date":"2026-01-29","time":"18:05:17","cor_ans":false},{"trial_type":"html-keyboard-response","rt":null,"stimulus":"<p style=\"color: red; font-size: 50px; font-weight: bold;\">Incorrect</p>","response":null,"trial_index":126,"plugin_version":"2.1.0","time_elapsed":253729,"subject_id":"92082","group":"Group1","condition":"1_Rep","full_date":"2026-01-29T18:05:17.443Z","date":"2026-01-29","time":"18:05:17"},{"correct_response":"l","task":"test_phase","broad_category":"M","image_png":"M_Gneiss_06.png","image_id":198,"category_name":"Gneiss","category":13,"distinct_rating":2.65,"distinct_type":"Bottom","item_type":"Target","rt":1760,"stimulus":"Stimuli_Rocks480/M_Gneiss_06.png","response":"a","trial_type":"image-keyboard-response","trial_index":127,"plugin_version":"2.1.0","time_elapsed":255491,"subject_id":"92082","group":"Group1","condition":"1_Rep","full_date":"2026-01-29T18:05:17.443Z","date":"2026-01-29","time":"18:05:17","cor_ans":false},{"trial_type":"html-keyboard-response","rt":null,"stimulus":"<p style=\"color: red; font-size: 50px; font-weight: bold;\">Incorrect</p>","response":null,"trial_index":128,"plugin_version":"2.1.0","time_elapsed":255993,"subject_id":"92082","group":"Group1","condition":"1_Rep","full_date":"2026-01-29T18:05:17.443Z","date":"2026-01-29","time":"18:05:17"},{"correct_response":"a","task":"test_phase","broad_category":"M","image_png":"M_Phyllite_02.png","image_id":258,"category_name":"Phyllite","category":17,"distinct_rating":2.89,"distinct_type":"Bottom","item_type":"Foil","rt":1518,"stimulus":"Stimuli_Rocks480/M_Phyllite_02.png","response":"l","trial_type":"image-keyboard-response","trial_index":129,"plugin_version":"2.1.0","time_elapsed":257513,"subject_id":"92082","group":"Group1","condition":"1_Rep","full_date":"2026-01-29T18:05:17.443Z","date":"2026-01-29","time":"18:05:17","cor_ans":false},{"trial_type":"html-keyboard-response","rt":null,"stimulus":"<p style=\"color: red; font-size: 50px; font-weight: bold;\">Incorrect</p>","response":null,"trial_index":130,"plugin_version":"2.1.0","time_elapsed":258020,"subject_id":"92082","group":"Group1","condition":"1_Rep","full_date":"2026-01-29T18:05:17.443Z","date":"2026-01-29","time":"18:05:17"},{"correct_response":"a","task":"test_phase","broad_category":"M","image_png":"M_Phyllite_05.png","image_id":261,"category_name":"Phyllite","category":17,"distinct_rating":2.14,"distinct_type":"Bottom","item_type":"Foil","rt":1708,"stimulus":"Stimuli_Rocks480/M_Phyllite_05.png","response":"a","trial_type":"image-keyboard-response","trial_index":131,"plugin_version":"2.1.0","time_elapsed":259730,"subject_id":"92082","group":"Group1","condition":"1_Rep","full_date":"2026-01-29T18:05:17.443Z","date":"2026-01-29","time":"18:05:17","cor_ans":true},{"trial_type":"html-keyboard-response","rt":null,"stimulus":"<p style=\"color: green; font-size: 50px; font-weight: bold;\">Correct</p>","response":null,"trial_index":132,"plugin_version":"2.1.0","time_elapsed":260236,"subject_id":"92082","group":"Group1","condition":"1_Rep","full_date":"2026-01-29T18:05:17.443Z","date":"2026-01-29","time":"18:05:17"},{"correct_response":"l","task":"test_phase","broad_category":"M","image_png":"M_Slate_03.png","image_id":307,"category_name":"Slate","category":20,"distinct_rating":1.87,"distinct_type":"Bottom","item_type":"Target","rt":2878,"stimulus":"Stimuli_Rocks480/M_Slate_03.png","response":"l","trial_type":"image-keyboard-response","trial_index":133,"plugin_version":"2.1.0","time_elapsed":263116,"subject_id":"92082","group":"Group1","condition":"1_Rep","full_date":"2026-01-29T18:05:17.443Z","date":"2026-01-29","time":"18:05:17","cor_ans":true},{"trial_type":"html-keyboard-response","rt":null,"stimulus":"<p style=\"color: green; font-size: 50px; font-weight: bold;\">Correct</p>","response":null,"trial_index":134,"plugin_version":"2.1.0","time_elapsed":263630,"subject_id":"92082","group":"Group1","condition":"1_Rep","full_date":"2026-01-29T18:05:17.443Z","date":"2026-01-29","time":"18:05:17"},{"correct_response":"a","task":"test_phase","broad_category":"S","image_png":"S_Shale_02.png","image_id":466,"category_name":"Shale","category":30,"distinct_rating":2.9,"distinct_type":"Bottom","item_type":"Foil","rt":1862,"stimulus":"Stimuli_Rocks480/S_Shale_02.png","response":"a","trial_type":"image-keyboard-response","trial_index":135,"plugin_version":"2.1.0","time_elapsed":265494,"subject_id":"92082","group":"Group1","condition":"1_Rep","full_date":"2026-01-29T18:05:17.443Z","date":"2026-01-29","time":"18:05:17","cor_ans":true},{"trial_type":"html-keyboard-response","rt":null,"stimulus":"<p style=\"color: green; font-size: 50px; font-weight: bold;\">Correct</p>","response":null,"trial_index":136,"plugin_version":"2.1.0","time_elapsed":265995,"subject_id":"92082","group":"Group1","condition":"1_Rep","full_date":"2026-01-29T18:05:17.443Z","date":"2026-01-29","time":"18:05:17"},{"correct_response":"a","task":"test_phase","broad_category":"I","image_png":"I_Basalt_08.png","image_id":24,"category_name":"Basalt","category":2,"distinct_rating":2.31,"distinct_type":"Bottom","item_type":"Foil","rt":1036,"stimulus":"Stimuli_Rocks480/I_Basalt_08.png","response":"a","trial_type":"image-keyboard-response","trial_index":137,"plugin_version":"2.1.0","time_elapsed":267033,"subject_id":"92082","group":"Group1","condition":"1_Rep","full_date":"2026-01-29T18:05:17.443Z","date":"2026-01-29","time":"18:05:17","cor_ans":true},{"trial_type":"html-keyboard-response","rt":null,"stimulus":"<p style=\"color: green; font-size: 50px; font-weight: bold;\">Correct</p>","response":null,"trial_index":138,"plugin_version":"2.1.0","time_elapsed":267542,"subject_id":"92082","group":"Group1","condition":"1_Rep","full_date":"2026-01-29T18:05:17.443Z","date":"2026-01-29","time":"18:05:17"},{"correct_response":"a","task":"test_phase","broad_category":"M","image_png":"M_Marble_02.png","image_id":226,"category_name":"Marble","category":15,"distinct_rating":3.2,"distinct_type":"Bottom","item_type":"Foil","rt":1570,"stimulus":"Stimuli_Rocks480/M_Marble_02.png","response":"a","trial_type":"image-keyboard-response","trial_index":139,"plugin_version":"2.1.0","time_elapsed":269115,"subject_id":"92082","group":"Group1","condition":"1_Rep","full_date":"2026-01-29T18:05:17.443Z","date":"2026-01-29","time":"18:05:17","cor_ans":true},{"trial_type":"html-keyboard-response","rt":null,"stimulus":"<p style=\"color: green; font-size: 50px; font-weight: bold;\">Correct</p>","response":null,"trial_index":140,"plugin_version":"2.1.0","time_elapsed":269631,"subject_id":"92082","group":"Group1","condition":"1_Rep","full_date":"2026-01-29T18:05:17.443Z","date":"2026-01-29","time":"18:05:17"},{"correct_response":"a","task":"test_phase","broad_category":"S","image_png":"S_Dolomite_01.png","image_id":385,"category_name":"Dolomite","category":25,"distinct_rating":1.43,"distinct_type":"Bottom","item_type":"Foil","rt":1147,"stimulus":"Stimuli_Rocks480/S_Dolomite_01.png","response":"a","trial_type":"image-keyboard-response","trial_index":141,"plugin_version":"2.1.0","time_elapsed":270781,"subject_id":"92082","group":"Group1","condition":"1_Rep","full_date":"2026-01-29T18:05:17.443Z","date":"2026-01-29","time":"18:05:17","cor_ans":true},{"trial_type":"html-keyboard-response","rt":null,"stimulus":"<p style=\"color: green; font-size: 50px; font-weight: bold;\">Correct</p>","response":null,"trial_index":142,"plugin_version":"2.1.0","time_elapsed":271297,"subject_id":"92082","group":"Group1","condition":"1_Rep","full_date":"2026-01-29T18:05:17.443Z","date":"2026-01-29","time":"18:05:17"},{"correct_response":"a","task":"test_phase","broad_category":"I","image_png":"I_Pegmatite_03.png","image_id":99,"category_name":"Pegmatite","category":7,"distinct_rating":7.24,"distinct_type":"Top","item_type":"Foil","rt":1158,"stimulus":"Stimuli_Rocks480/I_Pegmatite_03.png","response":"a","trial_type":"image-keyboard-response","trial_index":143,"plugin_version":"2.1.0","time_elapsed":272457,"subject_id":"92082","group":"Group1","condition":"1_Rep","full_date":"2026-01-29T18:05:17.443Z","date":"2026-01-29","time":"18:05:17","cor_ans":true},{"trial_type":"html-keyboard-response","rt":null,"stimulus":"<p style=\"color: green; font-size: 50px; font-weight: bold;\">Correct</p>","response":null,"trial_index":144,"plugin_version":"2.1.0","time_elapsed":272961,"subject_id":"92082","group":"Group1","condition":"1_Rep","full_date":"2026-01-29T18:05:17.443Z","date":"2026-01-29","time":"18:05:17"},{"correct_response":"a","task":"test_phase","broad_category":"M","image_png":"M_Gneiss_15.png","image_id":207,"category_name":"Gneiss","category":13,"distinct_rating":3.11,"distinct_type":"Bottom","item_type":"Foil","rt":1689,"stimulus":"Stimuli_Rocks480/M_Gneiss_15.png","response":"a","trial_type":"image-keyboard-response","trial_index":145,"plugin_version":"2.1.0","time_elapsed":274651,"subject_id":"92082","group":"Group1","condition":"1_Rep","full_date":"2026-01-29T18:05:17.443Z","date":"2026-01-29","time":"18:05:17","cor_ans":true},{"trial_type":"html-keyboard-response","rt":null,"stimulus":"<p style=\"color: green; font-size: 50px; font-weight: bold;\">Correct</p>","response":null,"trial_index":146,"plugin_version":"2.1.0","time_elapsed":275163,"subject_id":"92082","group":"Group1","condition":"1_Rep","full_date":"2026-01-29T18:05:17.443Z","date":"2026-01-29","time":"18:05:17"},{"correct_response":"l","task":"test_phase","broad_category":"I","image_png":"I_Diorite_03.png","image_id":35,"category_name":"Diorite","category":3,"distinct_rating":3.14,"distinct_type":"Bottom","item_type":"Target","rt":1122,"stimulus":"Stimuli_Rocks480/I_Diorite_03.png","response":"l","trial_type":"image-keyboard-response","trial_index":147,"plugin_version":"2.1.0","time_elapsed":276288,"subject_id":"92082","group":"Group1","condition":"1_Rep","full_date":"2026-01-29T18:05:17.443Z","date":"2026-01-29","time":"18:05:17","cor_ans":true},{"trial_type":"html-keyboard-response","rt":null,"stimulus":"<p style=\"color: green; font-size: 50px; font-weight: bold;\">Correct</p>","response":null,"trial_index":148,"plugin_version":"2.1.0","time_elapsed":276805,"subject_id":"92082","group":"Group1","condition":"1_Rep","full_date":"2026-01-29T18:05:17.443Z","date":"2026-01-29","time":"18:05:17"},{"correct_response":"a","task":"test_phase","broad_category":"S","image_png":"S_Dolomite_16.png","image_id":400,"category_name":"Dolomite","category":25,"distinct_rating":1.71,"distinct_type":"Bottom","item_type":"Foil","rt":2114,"stimulus":"Stimuli_Rocks480/S_Dolomite_16.png","response":"a","trial_type":"image-keyboard-response","trial_index":149,"plugin_version":"2.1.0","time_elapsed":278920,"subject_id":"92082","group":"Group1","condition":"1_Rep","full_date":"2026-01-29T18:05:17.443Z","date":"2026-01-29","time":"18:05:17","cor_ans":true},{"trial_type":"html-keyboard-response","rt":null,"stimulus":"<p style=\"color: green; font-size: 50px; font-weight: bold;\">Correct</p>","response":null,"trial_index":150,"plugin_version":"2.1.0","time_elapsed":279429,"subject_id":"92082","group":"Group1","condition":"1_Rep","full_date":"2026-01-29T18:05:17.443Z","date":"2026-01-29","time":"18:05:17"},{"correct_response":"l","task":"test_phase","broad_category":"S","image_png":"S_Rock Salt_01.png","image_id":433,"category_name":"Rock Salt","category":28,"distinct_rating":7.18,"distinct_type":"Top","item_type":"Target","rt":961,"stimulus":"Stimuli_Rocks480/S_Rock Salt_01.png","response":"a","trial_type":"image-keyboard-response","trial_index":151,"plugin_version":"2.1.0","time_elapsed":280392,"subject_id":"92082","group":"Group1","condition":"1_Rep","full_date":"2026-01-29T18:05:17.443Z","date":"2026-01-29","time":"18:05:17","cor_ans":false},{"trial_type":"html-keyboard-response","rt":null,"stimulus":"<p style=\"color: red; font-size: 50px; font-weight: bold;\">Incorrect</p>","response":null,"trial_index":152,"plugin_version":"2.1.0","time_elapsed":280903,"subject_id":"92082","group":"Group1","condition":"1_Rep","full_date":"2026-01-29T18:05:17.443Z","date":"2026-01-29","time":"18:05:17"},{"correct_response":"l","task":"test_phase","broad_category":"I","image_png":"I_Pumice_11.png","image_id":139,"category_name":"Pumice","category":9,"distinct_rating":1.74,"distinct_type":"Bottom","item_type":"Target","rt":1819,"stimulus":"Stimuli_Rocks480/I_Pumice_11.png","response":"l","trial_type":"image-keyboard-response","trial_index":153,"plugin_version":"2.1.0","time_elapsed":282724,"subject_id":"92082","group":"Group1","condition":"1_Rep","full_date":"2026-01-29T18:05:17.443Z","date":"2026-01-29","time":"18:05:17","cor_ans":true},{"trial_type":"html-keyboard-response","rt":null,"stimulus":"<p style=\"color: green; font-size: 50px; font-weight: bold;\">Correct</p>","response":null,"trial_index":154,"plugin_version":"2.1.0","time_elapsed":283235,"subject_id":"92082","group":"Group1","condition":"1_Rep","full_date":"2026-01-29T18:05:17.443Z","date":"2026-01-29","time":"18:05:17"},{"correct_response":"a","task":"test_phase","broad_category":"I","image_png":"I_Pumice_14.png","image_id":142,"category_name":"Pumice","category":9,"distinct_rating":3.22,"distinct_type":"Bottom","item_type":"Foil","rt":1192,"stimulus":"Stimuli_Rocks480/I_Pumice_14.png","response":"a","trial_type":"image-keyboard-response","trial_index":155,"plugin_version":"2.1.0","time_elapsed":284429,"subject_id":"92082","group":"Group1","condition":"1_Rep","full_date":"2026-01-29T18:05:17.443Z","date":"2026-01-29","time":"18:05:17","cor_ans":true},{"trial_type":"html-keyboard-response","rt":null,"stimulus":"<p style=\"color: green; font-size: 50px; font-weight: bold;\">Correct</p>","response":null,"trial_index":156,"plugin_version":"2.1.0","time_elapsed":284937,"subject_id":"92082","group":"Group1","condition":"1_Rep","full_date":"2026-01-29T18:05:17.443Z","date":"2026-01-29","time":"18:05:17"},{"correct_response":"a","task":"test_phase","broad_category":"I","image_png":"I_Pegmatite_11.png","image_id":107,"category_name":"Pegmatite","category":7,"distinct_rating":7.11,"distinct_type":"Top","item_type":"Foil","rt":1536,"stimulus":"Stimuli_Rocks480/I_Pegmatite_11.png","response":"a","trial_type":"image-keyboard-response","trial_index":157,"plugin_version":"2.1.0","time_elapsed":286475,"subject_id":"92082","group":"Group1","condition":"1_Rep","full_date":"2026-01-29T18:05:17.443Z","date":"2026-01-29","time":"18:05:17","cor_ans":true},{"trial_type":"html-keyboard-response","rt":null,"stimulus":"<p style=\"color: green; font-size: 50px; font-weight: bold;\">Correct</p>","response":null,"trial_index":158,"plugin_version":"2.1.0","time_elapsed":286991,"subject_id":"92082","group":"Group1","condition":"1_Rep","full_date":"2026-01-29T18:05:17.443Z","date":"2026-01-29","time":"18:05:17"},{"correct_response":"l","task":"test_phase","broad_category":"I","image_png":"I_Gabbro_08.png","image_id":56,"category_name":"Gabbro","category":4,"distinct_rating":3.02,"distinct_type":"Bottom","item_type":"Target","rt":2320,"stimulus":"Stimuli_Rocks480/I_Gabbro_08.png","response":"a","trial_type":"image-keyboard-response","trial_index":159,"plugin_version":"2.1.0","time_elapsed":289313,"subject_id":"92082","group":"Group1","condition":"1_Rep","full_date":"2026-01-29T18:05:17.443Z","date":"2026-01-29","time":"18:05:17","cor_ans":false},{"trial_type":"html-keyboard-response","rt":null,"stimulus":"<p style=\"color: red; font-size: 50px; font-weight: bold;\">Incorrect</p>","response":null,"trial_index":160,"plugin_version":"2.1.0","time_elapsed":289820,"subject_id":"92082","group":"Group1","condition":"1_Rep","full_date":"2026-01-29T18:05:17.443Z","date":"2026-01-29","time":"18:05:17"},{"correct_response":"l","task":"test_phase","broad_category":"S","image_png":"S_Sandstone_15.png","image_id":463,"category_name":"Sandstone","category":29,"distinct_rating":2,"distinct_type":"Bottom","item_type":"Target","rt":1238,"stimulus":"Stimuli_Rocks480/S_Sandstone_15.png","response":"l","trial_type":"image-keyboard-response","trial_index":161,"plugin_version":"2.1.0","time_elapsed":291059,"subject_id":"92082","group":"Group1","condition":"1_Rep","full_date":"2026-01-29T18:05:17.443Z","date":"2026-01-29","time":"18:05:17","cor_ans":true},{"trial_type":"html-keyboard-response","rt":null,"stimulus":"<p style=\"color: green; font-size: 50px; font-weight: bold;\">Correct</p>","response":null,"trial_index":162,"plugin_version":"2.1.0","time_elapsed":291565,"subject_id":"92082","group":"Group1","condition":"1_Rep","full_date":"2026-01-29T18:05:17.443Z","date":"2026-01-29","time":"18:05:17"},{"correct_response":"l","task":"test_phase","broad_category":"S","image_png":"S_Shale_12.png","image_id":476,"category_name":"Shale","category":30,"distinct_rating":2.48,"distinct_type":"Bottom","item_type":"Target","rt":1166,"stimulus":"Stimuli_Rocks480/S_Shale_12.png","response":"a","trial_type":"image-keyboard-response","trial_index":163,"plugin_version":"2.1.0","time_elapsed":292733,"subject_id":"92082","group":"Group1","condition":"1_Rep","full_date":"2026-01-29T18:05:17.443Z","date":"2026-01-29","time":"18:05:17","cor_ans":false},{"trial_type":"html-keyboard-response","rt":null,"stimulus":"<p style=\"color: red; font-size: 50px; font-weight: bold;\">Incorrect</p>","response":null,"trial_index":164,"plugin_version":"2.1.0","time_elapsed":293245,"subject_id":"92082","group":"Group1","condition":"1_Rep","full_date":"2026-01-29T18:05:17.443Z","date":"2026-01-29","time":"18:05:17"},{"correct_response":"a","task":"test_phase","broad_category":"S","image_png":"S_Sandstone_04.png","image_id":452,"category_name":"Sandstone","category":29,"distinct_rating":1.8,"distinct_type":"Bottom","item_type":"Foil","rt":1477,"stimulus":"Stimuli_Rocks480/S_Sandstone_04.png","response":"a","trial_type":"image-keyboard-response","trial_index":165,"plugin_version":"2.1.0","time_elapsed":294724,"subject_id":"92082","group":"Group1","condition":"1_Rep","full_date":"2026-01-29T18:05:17.443Z","date":"2026-01-29","time":"18:05:17","cor_ans":true},{"trial_type":"html-keyboard-response","rt":null,"stimulus":"<p style=\"color: green; font-size: 50px; font-weight: bold;\">Correct</p>","response":null,"trial_index":166,"plugin_version":"2.1.0","time_elapsed":295236,"subject_id":"92082","group":"Group1","condition":"1_Rep","full_date":"2026-01-29T18:05:17.443Z","date":"2026-01-29","time":"18:05:17"},{"correct_response":"l","task":"test_phase","broad_category":"M","image_png":"M_Phyllite_07.png","image_id":263,"category_name":"Phyllite","category":17,"distinct_rating":2.59,"distinct_type":"Bottom","item_type":"Target","rt":915,"stimulus":"Stimuli_Rocks480/M_Phyllite_07.png","response":"l","trial_type":"image-keyboard-response","trial_index":167,"plugin_version":"2.1.0","time_elapsed":296153,"subject_id":"92082","group":"Group1","condition":"1_Rep","full_date":"2026-01-29T18:05:17.443Z","date":"2026-01-29","time":"18:05:17","cor_ans":true},{"trial_type":"html-keyboard-response","rt":null,"stimulus":"<p style=\"color: green; font-size: 50px; font-weight: bold;\">Correct</p>","response":null,"trial_index":168,"plugin_version":"2.1.0","time_elapsed":296669,"subject_id":"92082","group":"Group1","condition":"1_Rep","full_date":"2026-01-29T18:05:17.443Z","date":"2026-01-29","time":"18:05:17"},{"correct_response":"l","task":"test_phase","broad_category":"I","image_png":"I_Rhyolite_16.png","image_id":160,"category_name":"Rhyolite","category":10,"distinct_rating":2.19,"distinct_type":"Bottom","item_type":"Target","rt":1867,"stimulus":"Stimuli_Rocks480/I_Rhyolite_16.png","response":"a","trial_type":"image-keyboard-response","trial_index":169,"plugin_version":"2.1.0","time_elapsed":298538,"subject_id":"92082","group":"Group1","condition":"1_Rep","full_date":"2026-01-29T18:05:17.443Z","date":"2026-01-29","time":"18:05:17","cor_ans":false},{"trial_type":"html-keyboard-response","rt":null,"stimulus":"<p style=\"color: red; font-size: 50px; font-weight: bold;\">Incorrect</p>","response":null,"trial_index":170,"plugin_version":"2.1.0","time_elapsed":299052,"subject_id":"92082","group":"Group1","condition":"1_Rep","full_date":"2026-01-29T18:05:17.443Z","date":"2026-01-29","time":"18:05:17"},{"correct_response":"l","task":"test_phase","broad_category":"I","image_png":"I_Diorite_04.png","image_id":36,"category_name":"Diorite","category":3,"distinct_rating":2.98,"distinct_type":"Bottom","item_type":"Target","rt":1426,"stimulus":"Stimuli_Rocks480/I_Diorite_04.png","response":"a","trial_type":"image-keyboard-response","trial_index":171,"plugin_version":"2.1.0","time_elapsed":300481,"subject_id":"92082","group":"Group1","condition":"1_Rep","full_date":"2026-01-29T18:05:17.443Z","date":"2026-01-29","time":"18:05:17","cor_ans":false},{"trial_type":"html-keyboard-response","rt":null,"stimulus":"<p style=\"color: red; font-size: 50px; font-weight: bold;\">Incorrect</p>","response":null,"trial_index":172,"plugin_version":"2.1.0","time_elapsed":300990,"subject_id":"92082","group":"Group1","condition":"1_Rep","full_date":"2026-01-29T18:05:17.443Z","date":"2026-01-29","time":"18:05:17"},{"correct_response":"a","task":"test_phase","broad_category":"S","image_png":"S_Shale_03.png","image_id":467,"category_name":"Shale","category":30,"distinct_rating":1.95,"distinct_type":"Bottom","item_type":"Foil","rt":1005,"stimulus":"Stimuli_Rocks480/S_Shale_03.png","response":"a","trial_type":"image-keyboard-response","trial_index":173,"plugin_version":"2.1.0","time_elapsed":301997,"subject_id":"92082","group":"Group1","condition":"1_Rep","full_date":"2026-01-29T18:05:17.443Z","date":"2026-01-29","time":"18:05:17","cor_ans":true},{"trial_type":"html-keyboard-response","rt":null,"stimulus":"<p style=\"color: green; font-size: 50px; font-weight: bold;\">Correct</p>","response":null,"trial_index":174,"plugin_version":"2.1.0","time_elapsed":302508,"subject_id":"92082","group":"Group1","condition":"1_Rep","full_date":"2026-01-29T18:05:17.443Z","date":"2026-01-29","time":"18:05:17"},{"correct_response":"a","task":"test_phase","broad_category":"M","image_png":"M_Quartzite_12.png","image_id":284,"category_name":"Quartzite","category":18,"distinct_rating":1.92,"distinct_type":"Bottom","item_type":"Foil","rt":2147,"stimulus":"Stimuli_Rocks480/M_Quartzite_12.png","response":"a","trial_type":"image-keyboard-response","trial_index":175,"plugin_version":"2.1.0","time_elapsed":304657,"subject_id":"92082","group":"Group1","condition":"1_Rep","full_date":"2026-01-29T18:05:17.443Z","date":"2026-01-29","time":"18:05:17","cor_ans":true},{"trial_type":"html-keyboard-response","rt":null,"stimulus":"<p style=\"color: green; font-size: 50px; font-weight: bold;\">Correct</p>","response":null,"trial_index":176,"plugin_version":"2.1.0","time_elapsed":305173,"subject_id":"92082","group":"Group1","condition":"1_Rep","full_date":"2026-01-29T18:05:17.443Z","date":"2026-01-29","time":"18:05:17"},{"correct_response":"l","task":"test_phase","broad_category":"M","image_png":"M_Gneiss_13.png","image_id":205,"category_name":"Gneiss","category":13,"distinct_rating":3.26,"distinct_type":"Bottom","item_type":"Target","rt":1392,"stimulus":"Stimuli_Rocks480/M_Gneiss_13.png","response":"a","trial_type":"image-keyboard-response","trial_index":177,"plugin_version":"2.1.0","time_elapsed":306567,"subject_id":"92082","group":"Group1","condition":"1_Rep","full_date":"2026-01-29T18:05:17.443Z","date":"2026-01-29","time":"18:05:17","cor_ans":false},{"trial_type":"html-keyboard-response","rt":null,"stimulus":"<p style=\"color: red; font-size: 50px; font-weight: bold;\">Incorrect</p>","response":null,"trial_index":178,"plugin_version":"2.1.0","time_elapsed":307084,"subject_id":"92082","group":"Group1","condition":"1_Rep","full_date":"2026-01-29T18:05:17.443Z","date":"2026-01-29","time":"18:05:17"},{"correct_response":"l","task":"test_phase","broad_category":"S","image_png":"S_Shale_08.png","image_id":472,"category_name":"Shale","category":30,"distinct_rating":2.55,"distinct_type":"Bottom","item_type":"Target","rt":1162,"stimulus":"Stimuli_Rocks480/S_Shale_08.png","response":"a","trial_type":"image-keyboard-response","trial_index":179,"plugin_version":"2.1.0","time_elapsed":308248,"subject_id":"92082","group":"Group1","condition":"1_Rep","full_date":"2026-01-29T18:05:17.443Z","date":"2026-01-29","time":"18:05:17","cor_ans":false},{"trial_type":"html-keyboard-response","rt":null,"stimulus":"<p style=\"color: red; font-size: 50px; font-weight: bold;\">Incorrect</p>","response":null,"trial_index":180,"plugin_version":"2.1.0","time_elapsed":308753,"subject_id":"92082","group":"Group1","condition":"1_Rep","full_date":"2026-01-29T18:05:17.443Z","date":"2026-01-29","time":"18:05:17"},{"correct_response":"l","task":"test_phase","broad_category":"S","image_png":"S_Breccia_11.png","image_id":347,"category_name":"Breccia","category":22,"distinct_rating":6.7,"distinct_type":"Top","item_type":"Target","rt":881,"stimulus":"Stimuli_Rocks480/S_Breccia_11.png","response":"l","trial_type":"image-keyboard-response","trial_index":181,"plugin_version":"2.1.0","time_elapsed":309636,"subject_id":"92082","group":"Group1","condition":"1_Rep","full_date":"2026-01-29T18:05:17.443Z","date":"2026-01-29","time":"18:05:17","cor_ans":true},{"trial_type":"html-keyboard-response","rt":null,"stimulus":"<p style=\"color: green; font-size: 50px; font-weight: bold;\">Correct</p>","response":null,"trial_index":182,"plugin_version":"2.1.0","time_elapsed":310153,"subject_id":"92082","group":"Group1","condition":"1_Rep","full_date":"2026-01-29T18:05:17.443Z","date":"2026-01-29","time":"18:05:17"},{"correct_response":"a","task":"test_phase","broad_category":"S","image_png":"S_Sandstone_08.png","image_id":456,"category_name":"Sandstone","category":29,"distinct_rating":1.5,"distinct_type":"Bottom","item_type":"Foil","rt":1586,"stimulus":"Stimuli_Rocks480/S_Sandstone_08.png","response":"a","trial_type":"image-keyboard-response","trial_index":183,"plugin_version":"2.1.0","time_elapsed":311741,"subject_id":"92082","group":"Group1","condition":"1_Rep","full_date":"2026-01-29T18:05:17.443Z","date":"2026-01-29","time":"18:05:17","cor_ans":true},{"trial_type":"html-keyboard-response","rt":null,"stimulus":"<p style=\"color: green; font-size: 50px; font-weight: bold;\">Correct</p>","response":null,"trial_index":184,"plugin_version":"2.1.0","time_elapsed":312242,"subject_id":"92082","group":"Group1","condition":"1_Rep","full_date":"2026-01-29T18:05:17.443Z","date":"2026-01-29","time":"18:05:17"},{"correct_response":"l","task":"test_phase","broad_category":"M","image_png":"M_Quartzite_08.png","image_id":280,"category_name":"Quartzite","category":18,"distinct_rating":2.15,"distinct_type":"Bottom","item_type":"Target","rt":1955,"stimulus":"Stimuli_Rocks480/M_Quartzite_08.png","response":"l","trial_type":"image-keyboard-response","trial_index":185,"plugin_version":"2.1.0","time_elapsed":314199,"subject_id":"92082","group":"Group1","condition":"1_Rep","full_date":"2026-01-29T18:05:17.443Z","date":"2026-01-29","time":"18:05:17","cor_ans":true},{"trial_type":"html-keyboard-response","rt":null,"stimulus":"<p style=\"color: green; font-size: 50px; font-weight: bold;\">Correct</p>","response":null,"trial_index":186,"plugin_version":"2.1.0","time_elapsed":314702,"subject_id":"92082","group":"Group1","condition":"1_Rep","full_date":"2026-01-29T18:05:17.443Z","date":"2026-01-29","time":"18:05:17"},{"correct_response":"a","task":"test_phase","broad_category":"I","image_png":"I_Gabbro_12.png","image_id":60,"category_name":"Gabbro","category":4,"distinct_rating":2.6,"distinct_type":"Bottom","item_type":"Foil","rt":2391,"stimulus":"Stimuli_Rocks480/I_Gabbro_12.png","response":"a","trial_type":"image-keyboard-response","trial_index":187,"plugin_version":"2.1.0","time_elapsed":317095,"subject_id":"92082","group":"Group1","condition":"1_Rep","full_date":"2026-01-29T18:05:17.443Z","date":"2026-01-29","time":"18:05:17","cor_ans":true},{"trial_type":"html-keyboard-response","rt":null,"stimulus":"<p style=\"color: green; font-size: 50px; font-weight: bold;\">Correct</p>","response":null,"trial_index":188,"plugin_version":"2.1.0","time_elapsed":317612,"subject_id":"92082","group":"Group1","condition":"1_Rep","full_date":"2026-01-29T18:05:17.443Z","date":"2026-01-29","time":"18:05:17"},{"correct_response":"l","task":"test_phase","broad_category":"I","image_png":"I_Obsidian_05.png","image_id":85,"category_name":"Obsidian","category":6,"distinct_rating":7.32,"distinct_type":"Top","item_type":"Target","rt":1262,"stimulus":"Stimuli_Rocks480/I_Obsidian_05.png","response":"l","trial_type":"image-keyboard-response","trial_index":189,"plugin_version":"2.1.0","time_elapsed":318875,"subject_id":"92082","group":"Group1","condition":"1_Rep","full_date":"2026-01-29T18:05:17.443Z","date":"2026-01-29","time":"18:05:17","cor_ans":true},{"trial_type":"html-keyboard-response","rt":null,"stimulus":"<p style=\"color: green; font-size: 50px; font-weight: bold;\">Correct</p>","response":null,"trial_index":190,"plugin_version":"2.1.0","time_elapsed":319381,"subject_id":"92082","group":"Group1","condition":"1_Rep","full_date":"2026-01-29T18:05:17.443Z","date":"2026-01-29","time":"18:05:17"},{"correct_response":"a","task":"test_phase","broad_category":"M","image_png":"M_Gneiss_10.png","image_id":202,"category_name":"Gneiss","category":13,"distinct_rating":3.09,"distinct_type":"Bottom","item_type":"Foil","rt":1138,"stimulus":"Stimuli_Rocks480/M_Gneiss_10.png","response":"a","trial_type":"image-keyboard-response","trial_index":191,"plugin_version":"2.1.0","time_elapsed":320521,"subject_id":"92082","group":"Group1","condition":"1_Rep","full_date":"2026-01-29T18:05:17.443Z","date":"2026-01-29","time":"18:05:17","cor_ans":true},{"trial_type":"html-keyboard-response","rt":null,"stimulus":"<p style=\"color: green; font-size: 50px; font-weight: bold;\">Correct</p>","response":null,"trial_index":192,"plugin_version":"2.1.0","time_elapsed":321031,"subject_id":"92082","group":"Group1","condition":"1_Rep","full_date":"2026-01-29T18:05:17.443Z","date":"2026-01-29","time":"18:05:17"},{"correct_response":"a","task":"test_phase","broad_category":"I","image_png":"I_Andesite_04.png","image_id":4,"category_name":"Andesite","category":1,"distinct_rating":3.18,"distinct_type":"Bottom","item_type":"Foil","rt":1416,"stimulus":"Stimuli_Rocks480/I_Andesite_04.png","response":"a","trial_type":"image-keyboard-response","trial_index":193,"plugin_version":"2.1.0","time_elapsed":322449,"subject_id":"92082","group":"Group1","condition":"1_Rep","full_date":"2026-01-29T18:05:17.443Z","date":"2026-01-29","time":"18:05:17","cor_ans":true},{"trial_type":"html-keyboard-response","rt":null,"stimulus":"<p style=\"color: green; font-size: 50px; font-weight: bold;\">Correct</p>","response":null,"trial_index":194,"plugin_version":"2.1.0","time_elapsed":322959,"subject_id":"92082","group":"Group1","condition":"1_Rep","full_date":"2026-01-29T18:05:17.443Z","date":"2026-01-29","time":"18:05:17"},{"correct_response":"l","task":"test_phase","broad_category":"I","image_png":"I_Rhyolite_14.png","image_id":158,"category_name":"Rhyolite","category":10,"distinct_rating":2.59,"distinct_type":"Bottom","item_type":"Target","rt":826,"stimulus":"Stimuli_Rocks480/I_Rhyolite_14.png","response":"a","trial_type":"image-keyboard-response","trial_index":195,"plugin_version":"2.1.0","time_elapsed":323788,"subject_id":"92082","group":"Group1","condition":"1_Rep","full_date":"2026-01-29T18:05:17.443Z","date":"2026-01-29","time":"18:05:17","cor_ans":false},{"trial_type":"html-keyboard-response","rt":null,"stimulus":"<p style=\"color: red; font-size: 50px; font-weight: bold;\">Incorrect</p>","response":null,"trial_index":196,"plugin_version":"2.1.0","time_elapsed":324290,"subject_id":"92082","group":"Group1","condition":"1_Rep","full_date":"2026-01-29T18:05:17.443Z","date":"2026-01-29","time":"18:05:17"},{"correct_response":"a","task":"test_phase","broad_category":"I","image_png":"I_Diorite_10.png","image_id":42,"category_name":"Diorite","category":3,"distinct_rating":2.84,"distinct_type":"Bottom","item_type":"Foil","rt":1164,"stimulus":"Stimuli_Rocks480/I_Diorite_10.png","response":"a","trial_type":"image-keyboard-response","trial_index":197,"plugin_version":"2.1.0","time_elapsed":325456,"subject_id":"92082","group":"Group1","condition":"1_Rep","full_date":"2026-01-29T18:05:17.443Z","date":"2026-01-29","time":"18:05:17","cor_ans":true},{"trial_type":"html-keyboard-response","rt":null,"stimulus":"<p style=\"color: green; font-size: 50px; font-weight: bold;\">Correct</p>","response":null,"trial_index":198,"plugin_version":"2.1.0","time_elapsed":325964,"subject_id":"92082","group":"Group1","condition":"1_Rep","full_date":"2026-01-29T18:05:17.443Z","date":"2026-01-29","time":"18:05:17"},{"correct_response":"l","task":"test_phase","broad_category":"I","image_png":"I_Pumice_12.png","image_id":140,"category_name":"Pumice","category":9,"distinct_rating":2.97,"distinct_type":"Bottom","item_type":"Target","rt":762,"stimulus":"Stimuli_Rocks480/I_Pumice_12.png","response":"a","trial_type":"image-keyboard-response","trial_index":199,"plugin_version":"2.1.0","time_elapsed":326729,"subject_id":"92082","group":"Group1","condition":"1_Rep","full_date":"2026-01-29T18:05:17.443Z","date":"2026-01-29","time":"18:05:17","cor_ans":false},{"trial_type":"html-keyboard-response","rt":null,"stimulus":"<p style=\"color: red; font-size: 50px; font-weight: bold;\">Incorrect</p>","response":null,"trial_index":200,"plugin_version":"2.1.0","time_elapsed":327237,"subject_id":"92082","group":"Group1","condition":"1_Rep","full_date":"2026-01-29T18:05:17.443Z","date":"2026-01-29","time":"18:05:17"},{"correct_response":"l","task":"test_phase","broad_category":"I","image_png":"I_Andesite_10.png","image_id":10,"category_name":"Andesite","category":1,"distinct_rating":3.15,"distinct_type":"Bottom","item_type":"Target","rt":1003,"stimulus":"Stimuli_Rocks480/I_Andesite_10.png","response":"a","trial_type":"image-keyboard-response","trial_index":201,"plugin_version":"2.1.0","time_elapsed":328242,"subject_id":"92082","group":"Group1","condition":"1_Rep","full_date":"2026-01-29T18:05:17.443Z","date":"2026-01-29","time":"18:05:17","cor_ans":false},{"trial_type":"html-keyboard-response","rt":null,"stimulus":"<p style=\"color: red; font-size: 50px; font-weight: bold;\">Incorrect</p>","response":null,"trial_index":202,"plugin_version":"2.1.0","time_elapsed":328750,"subject_id":"92082","group":"Group1","condition":"1_Rep","full_date":"2026-01-29T18:05:17.443Z","date":"2026-01-29","time":"18:05:17"},{"correct_response":"l","task":"test_phase","broad_category":"I","image_png":"I_Basalt_09.png","image_id":25,"category_name":"Basalt","category":2,"distinct_rating":1.89,"distinct_type":"Bottom","item_type":"Target","rt":1133,"stimulus":"Stimuli_Rocks480/I_Basalt_09.png","response":"l","trial_type":"image-keyboard-response","trial_index":203,"plugin_version":"2.1.0","time_elapsed":329885,"subject_id":"92082","group":"Group1","condition":"1_Rep","full_date":"2026-01-29T18:05:17.443Z","date":"2026-01-29","time":"18:05:17","cor_ans":true},{"trial_type":"html-keyboard-response","rt":null,"stimulus":"<p style=\"color: green; font-size: 50px; font-weight: bold;\">Correct</p>","response":null,"trial_index":204,"plugin_version":"2.1.0","time_elapsed":330389,"subject_id":"92082","group":"Group1","condition":"1_Rep","full_date":"2026-01-29T18:05:17.443Z","date":"2026-01-29","time":"18:05:17"},{"correct_response":"l","task":"test_phase","broad_category":"S","image_png":"S_Sandstone_03.png","image_id":451,"category_name":"Sandstone","category":29,"distinct_rating":1.86,"distinct_type":"Bottom","item_type":"Target","rt":1121,"stimulus":"Stimuli_Rocks480/S_Sandstone_03.png","response":"a","trial_type":"image-keyboard-response","trial_index":205,"plugin_version":"2.1.0","time_elapsed":331512,"subject_id":"92082","group":"Group1","condition":"1_Rep","full_date":"2026-01-29T18:05:17.443Z","date":"2026-01-29","time":"18:05:17","cor_ans":false},{"trial_type":"html-keyboard-response","rt":null,"stimulus":"<p style=\"color: red; font-size: 50px; font-weight: bold;\">Incorrect</p>","response":null,"trial_index":206,"plugin_version":"2.1.0","time_elapsed":332027,"subject_id":"92082","group":"Group1","condition":"1_Rep","full_date":"2026-01-29T18:05:17.443Z","date":"2026-01-29","time":"18:05:17"},{"correct_response":"a","task":"test_phase","broad_category":"I","image_png":"I_Rhyolite_05.png","image_id":149,"category_name":"Rhyolite","category":10,"distinct_rating":3.02,"distinct_type":"Bottom","item_type":"Foil","rt":708,"stimulus":"Stimuli_Rocks480/I_Rhyolite_05.png","response":"a","trial_type":"image-keyboard-response","trial_index":207,"plugin_version":"2.1.0","time_elapsed":332737,"subject_id":"92082","group":"Group1","condition":"1_Rep","full_date":"2026-01-29T18:05:17.443Z","date":"2026-01-29","time":"18:05:17","cor_ans":true},{"trial_type":"html-keyboard-response","rt":null,"stimulus":"<p style=\"color: green; font-size: 50px; font-weight: bold;\">Correct</p>","response":null,"trial_index":208,"plugin_version":"2.1.0","time_elapsed":333239,"subject_id":"92082","group":"Group1","condition":"1_Rep","full_date":"2026-01-29T18:05:17.443Z","date":"2026-01-29","time":"18:05:17"},{"correct_response":"a","task":"test_phase","broad_category":"I","image_png":"I_Gabbro_02.png","image_id":50,"category_name":"Gabbro","category":4,"distinct_rating":2.73,"distinct_type":"Bottom","item_type":"Foil","rt":1621,"stimulus":"Stimuli_Rocks480/I_Gabbro_02.png","response":"a","trial_type":"image-keyboard-response","trial_index":209,"plugin_version":"2.1.0","time_elapsed":334863,"subject_id":"92082","group":"Group1","condition":"1_Rep","full_date":"2026-01-29T18:05:17.443Z","date":"2026-01-29","time":"18:05:17","cor_ans":true},{"trial_type":"html-keyboard-response","rt":null,"stimulus":"<p style=\"color: green; font-size: 50px; font-weight: bold;\">Correct</p>","response":null,"trial_index":210,"plugin_version":"2.1.0","time_elapsed":335366,"subject_id":"92082","group":"Group1","condition":"1_Rep","full_date":"2026-01-29T18:05:17.443Z","date":"2026-01-29","time":"18:05:17"},{"correct_response":"a","task":"test_phase","broad_category":"M","image_png":"M_Phyllite_13.png","image_id":269,"category_name":"Phyllite","category":17,"distinct_rating":2.8,"distinct_type":"Bottom","item_type":"Foil","rt":1761,"stimulus":"Stimuli_Rocks480/M_Phyllite_13.png","response":"a","trial_type":"image-keyboard-response","trial_index":211,"plugin_version":"2.1.0","time_elapsed":337128,"subject_id":"92082","group":"Group1","condition":"1_Rep","full_date":"2026-01-29T18:05:17.443Z","date":"2026-01-29","time":"18:05:17","cor_ans":true},{"trial_type":"html-keyboard-response","rt":null,"stimulus":"<p style=\"color: green; font-size: 50px; font-weight: bold;\">Correct</p>","response":null,"trial_index":212,"plugin_version":"2.1.0","time_elapsed":337644,"subject_id":"92082","group":"Group1","condition":"1_Rep","full_date":"2026-01-29T18:05:17.443Z","date":"2026-01-29","time":"18:05:17"},{"correct_response":"a","task":"test_phase","broad_category":"I","image_png":"I_Obsidian_06.png","image_id":86,"category_name":"Obsidian","category":6,"distinct_rating":8.01,"distinct_type":"Top","item_type":"Foil","rt":922,"stimulus":"Stimuli_Rocks480/I_Obsidian_06.png","response":"a","trial_type":"image-keyboard-response","trial_index":213,"plugin_version":"2.1.0","time_elapsed":338568,"subject_id":"92082","group":"Group1","condition":"1_Rep","full_date":"2026-01-29T18:05:17.443Z","date":"2026-01-29","time":"18:05:17","cor_ans":true},{"trial_type":"html-keyboard-response","rt":null,"stimulus":"<p style=\"color: green; font-size: 50px; font-weight: bold;\">Correct</p>","response":null,"trial_index":214,"plugin_version":"2.1.0","time_elapsed":339081,"subject_id":"92082","group":"Group1","condition":"1_Rep","full_date":"2026-01-29T18:05:17.443Z","date":"2026-01-29","time":"18:05:17"},{"correct_response":"a","task":"test_phase","broad_category":"S","image_png":"S_Sandstone_11.png","image_id":459,"category_name":"Sandstone","category":29,"distinct_rating":1.82,"distinct_type":"Bottom","item_type":"Foil","rt":2069,"stimulus":"Stimuli_Rocks480/S_Sandstone_11.png","response":"l","trial_type":"image-keyboard-response","trial_index":215,"plugin_version":"2.1.0","time_elapsed":341151,"subject_id":"92082","group":"Group1","condition":"1_Rep","full_date":"2026-01-29T18:05:17.443Z","date":"2026-01-29","time":"18:05:17","cor_ans":false},{"trial_type":"html-keyboard-response","rt":null,"stimulus":"<p style=\"color: red; font-size: 50px; font-weight: bold;\">Incorrect</p>","response":null,"trial_index":216,"plugin_version":"2.1.0","time_elapsed":341666,"subject_id":"92082","group":"Group1","condition":"1_Rep","full_date":"2026-01-29T18:05:17.443Z","date":"2026-01-29","time":"18:05:17"},{"correct_response":"a","task":"test_phase","broad_category":"M","image_png":"M_Marble_03.png","image_id":227,"category_name":"Marble","category":15,"distinct_rating":2.67,"distinct_type":"Bottom","item_type":"Foil","rt":940,"stimulus":"Stimuli_Rocks480/M_Marble_03.png","response":"a","trial_type":"image-keyboard-response","trial_index":217,"plugin_version":"2.1.0","time_elapsed":342607,"subject_id":"92082","group":"Group1","condition":"1_Rep","full_date":"2026-01-29T18:05:17.443Z","date":"2026-01-29","time":"18:05:17","cor_ans":true},{"trial_type":"html-keyboard-response","rt":null,"stimulus":"<p style=\"color: green; font-size: 50px; font-weight: bold;\">Correct</p>","response":null,"trial_index":218,"plugin_version":"2.1.0","time_elapsed":343109,"subject_id":"92082","group":"Group1","condition":"1_Rep","full_date":"2026-01-29T18:05:17.443Z","date":"2026-01-29","time":"18:05:17"},{"correct_response":"l","task":"test_phase","broad_category":"M","image_png":"M_Slate_15.png","image_id":319,"category_name":"Slate","category":20,"distinct_rating":2.13,"distinct_type":"Bottom","item_type":"Target","rt":2521,"stimulus":"Stimuli_Rocks480/M_Slate_15.png","response":"a","trial_type":"image-keyboard-response","trial_index":219,"plugin_version":"2.1.0","time_elapsed":345632,"subject_id":"92082","group":"Group1","condition":"1_Rep","full_date":"2026-01-29T18:05:17.443Z","date":"2026-01-29","time":"18:05:17","cor_ans":false},{"trial_type":"html-keyboard-response","rt":null,"stimulus":"<p style=\"color: red; font-size: 50px; font-weight: bold;\">Incorrect</p>","response":null,"trial_index":220,"plugin_version":"2.1.0","time_elapsed":346148,"subject_id":"92082","group":"Group1","condition":"1_Rep","full_date":"2026-01-29T18:05:17.443Z","date":"2026-01-29","time":"18:05:17"},{"correct_response":"l","task":"test_phase","broad_category":"M","image_png":"M_Quartzite_13.png","image_id":285,"category_name":"Quartzite","category":18,"distinct_rating":2.27,"distinct_type":"Bottom","item_type":"Target","rt":2044,"stimulus":"Stimuli_Rocks480/M_Quartzite_13.png","response":"a","trial_type":"image-keyboard-response","trial_index":221,"plugin_version":"2.1.0","time_elapsed":348193,"subject_id":"92082","group":"Group1","condition":"1_Rep","full_date":"2026-01-29T18:05:17.443Z","date":"2026-01-29","time":"18:05:17","cor_ans":false},{"trial_type":"html-keyboard-response","rt":null,"stimulus":"<p style=\"color: red; font-size: 50px; font-weight: bold;\">Incorrect</p>","response":null,"trial_index":222,"plugin_version":"2.1.0","time_elapsed":348702,"subject_id":"92082","group":"Group1","condition":"1_Rep","full_date":"2026-01-29T18:05:17.443Z","date":"2026-01-29","time":"18:05:17"},{"correct_response":"a","task":"test_phase","broad_category":"S","image_png":"S_Rock Salt_13.png","image_id":445,"category_name":"Rock Salt","category":28,"distinct_rating":7.58,"distinct_type":"Top","item_type":"Foil","rt":691,"stimulus":"Stimuli_Rocks480/S_Rock Salt_13.png","response":"a","trial_type":"image-keyboard-response","trial_index":223,"plugin_version":"2.1.0","time_elapsed":349396,"subject_id":"92082","group":"Group1","condition":"1_Rep","full_date":"2026-01-29T18:05:17.443Z","date":"2026-01-29","time":"18:05:17","cor_ans":true},{"trial_type":"html-keyboard-response","rt":null,"stimulus":"<p style=\"color: green; font-size: 50px; font-weight: bold;\">Correct</p>","response":null,"trial_index":224,"plugin_version":"2.1.0","time_elapsed":349912,"subject_id":"92082","group":"Group1","condition":"1_Rep","full_date":"2026-01-29T18:05:17.443Z","date":"2026-01-29","time":"18:05:17"},{"correct_response":"l","task":"test_phase","broad_catego