[{"width":1512,"height":772,"webaudio":true,"browser":"chrome","browser_version":"144.0.0","mobile":false,"os":"Mac OS","fullscreen":true,"vsync_rate":120.92,"webcam":true,"microphone":true,"trial_type":"browser-check","trial_index":0,"plugin_version":"2.1.0","time_elapsed":503,"subject_id":"91155","group":"Group2","condition":"3_Rep","full_date":"2026-02-16T19:45:31.280Z","date":"2026-02-16","time":"19:45:31"},{"success":true,"timeout":false,"failed_images":[],"failed_audio":[],"failed_video":[],"trial_type":"preload","trial_index":1,"plugin_version":"2.1.0","time_elapsed":722,"subject_id":"91155","group":"Group2","condition":"3_Rep","full_date":"2026-02-16T19:45:31.280Z","date":"2026-02-16","time":"19:45:31"},{"rt":6142,"url":"SONA_consent_memorability.html","trial_type":"external-html","trial_index":2,"plugin_version":"2.1.0","time_elapsed":6940,"subject_id":"91155","group":"Group2","condition":"3_Rep","full_date":"2026-02-16T19:45:31.280Z","date":"2026-02-16","time":"19:45:31"},{"success":true,"rt":1676,"trial_type":"fullscreen","trial_index":3,"plugin_version":"2.1.0","time_elapsed":9618,"subject_id":"91155","group":"Group2","condition":"3_Rep","full_date":"2026-02-16T19:45:31.280Z","date":"2026-02-16","time":"19:45:31"},{"rt":1389,"stimulus":"<div style=\"max-width: 760px; margin: auto; font-size: 20px; line-height: 1.5;\">\n      <h1 style=\"text-align:center; font-size: 30px;\">Instructions</h1>\n      <p>\n        Welcome to the study on <b>visual memory</b>. This experiment consists of <b>two phases</b>: \n        a <b>study phase</b> and a <b>test phase</b>.\n      </p>\n      <p>\n        In the study phase, you will see a series of rock images along with their category labels.\n        The images will appear one at a time.\n        <b>Your task</b> is to learn the categories to which the rock images belong \n        and to remember each image as accurately as possible.\n      </p> \n      <p>\n        Note that we will repeat the study phase <b>3 times</b>, \n             so you will have multiple opportunities to see and remember each image.\n      </p>\n      <p>\n        After the study phase, <b>your memory will be tested</b>. \n        Additional instructions for the test phase will be provided at that time.\n      </p>\n      <p>\n        If your computer has multiple <b>language settings</b> (e.g., English and another language),\n        please make sure it is set to English before starting.\n      </p>\n      <p>\n        You can track your progress using the <b>completion bar</b> at the top of the screen. \n        Please note that the bar will refresh when the test phase begins \n        to give you an accurate sense of your progress in both phases.\n      </p> \n      <p>\n        Press the button below when you are ready to begin.\n      </p>\n    </div>","response":0,"trial_type":"html-button-response","trial_index":4,"plugin_version":"2.1.0","time_elapsed":11009,"subject_id":"91155","group":"Group2","condition":"3_Rep","full_date":"2026-02-16T19:45:31.280Z","date":"2026-02-16","time":"19:45:31"},{"rt":null,"stimulus":"<p style=\"font-size: 50px; margin: 0; text-align: center;\">+</p>","response":null,"trial_type":"html-keyboard-response","trial_index":5,"plugin_version":"2.1.0","time_elapsed":12014,"subject_id":"91155","group":"Group2","condition":"3_Rep","full_date":"2026-02-16T19:45:31.280Z","date":"2026-02-16","time":"19:45:31"},{"task":"memory_phase","broad_category":"I","image_png":"I_Peridotite_13.png","image_id":125,"category_name":"Peridotite","category":8,"distinct_rating":7.28,"distinct_type":"Top","rt":null,"stimulus":"Stimuli_Rocks480/I_Peridotite_13.png","response":null,"trial_type":"image-keyboard-response","trial_index":6,"plugin_version":"2.1.0","time_elapsed":14519,"subject_id":"91155","group":"Group2","condition":"3_Rep","full_date":"2026-02-16T19:45:31.280Z","date":"2026-02-16","time":"19:45:31"},{"rt":null,"stimulus":"<p style=\"font-size: 50px; margin: 0; text-align: center;\">+</p>","response":null,"trial_type":"html-keyboard-response","trial_index":7,"plugin_version":"2.1.0","time_elapsed":15522,"subject_id":"91155","group":"Group2","condition":"3_Rep","full_date":"2026-02-16T19:45:31.280Z","date":"2026-02-16","time":"19:45:31"},{"task":"memory_phase","broad_category":"M","image_png":"M_Phyllite_13.png","image_id":269,"category_name":"Phyllite","category":17,"distinct_rating":2.8,"distinct_type":"Bottom","rt":null,"stimulus":"Stimuli_Rocks480/M_Phyllite_13.png","response":null,"trial_type":"image-keyboard-response","trial_index":8,"plugin_version":"2.1.0","time_elapsed":18026,"subject_id":"91155","group":"Group2","condition":"3_Rep","full_date":"2026-02-16T19:45:31.280Z","date":"2026-02-16","time":"19:45:31"},{"rt":null,"stimulus":"<p style=\"font-size: 50px; margin: 0; text-align: center;\">+</p>","response":null,"trial_type":"html-keyboard-response","trial_index":9,"plugin_version":"2.1.0","time_elapsed":19029,"subject_id":"91155","group":"Group2","condition":"3_Rep","full_date":"2026-02-16T19:45:31.280Z","date":"2026-02-16","time":"19:45:31"},{"task":"memory_phase","broad_category":"S","image_png":"S_Chert_13.png","image_id":365,"category_name":"Chert","category":23,"distinct_rating":6.57,"distinct_type":"Top","rt":null,"stimulus":"Stimuli_Rocks480/S_Chert_13.png","response":null,"trial_type":"image-keyboard-response","trial_index":10,"plugin_version":"2.1.0","time_elapsed":21532,"subject_id":"91155","group":"Group2","condition":"3_Rep","full_date":"2026-02-16T19:45:31.280Z","date":"2026-02-16","time":"19:45:31"},{"rt":null,"stimulus":"<p style=\"font-size: 50px; margin: 0; text-align: center;\">+</p>","response":null,"trial_type":"html-keyboard-response","trial_index":11,"plugin_version":"2.1.0","time_elapsed":22535,"subject_id":"91155","group":"Group2","condition":"3_Rep","full_date":"2026-02-16T19:45:31.280Z","date":"2026-02-16","time":"19:45:31"},{"task":"memory_phase","broad_category":"I","image_png":"I_Pegmatite_03.png","image_id":99,"category_name":"Pegmatite","category":7,"distinct_rating":7.24,"distinct_type":"Top","rt":null,"stimulus":"Stimuli_Rocks480/I_Pegmatite_03.png","response":null,"trial_type":"image-keyboard-response","trial_index":12,"plugin_version":"2.1.0","time_elapsed":25038,"subject_id":"91155","group":"Group2","condition":"3_Rep","full_date":"2026-02-16T19:45:31.280Z","date":"2026-02-16","time":"19:45:31"},{"rt":null,"stimulus":"<p style=\"font-size: 50px; margin: 0; text-align: center;\">+</p>","response":null,"trial_type":"html-keyboard-response","trial_index":13,"plugin_version":"2.1.0","time_elapsed":26041,"subject_id":"91155","group":"Group2","condition":"3_Rep","full_date":"2026-02-16T19:45:31.280Z","date":"2026-02-16","time":"19:45:31"},{"task":"memory_phase","broad_category":"I","image_png":"I_Andesite_03.png","image_id":3,"category_name":"Andesite","category":1,"distinct_rating":3.17,"distinct_type":"Bottom","rt":null,"stimulus":"Stimuli_Rocks480/I_Andesite_03.png","response":null,"trial_type":"image-keyboard-response","trial_index":14,"plugin_version":"2.1.0","time_elapsed":28543,"subject_id":"91155","group":"Group2","condition":"3_Rep","full_date":"2026-02-16T19:45:31.280Z","date":"2026-02-16","time":"19:45:31"},{"rt":null,"stimulus":"<p style=\"font-size: 50px; margin: 0; text-align: center;\">+</p>","response":null,"trial_type":"html-keyboard-response","trial_index":15,"plugin_version":"2.1.0","time_elapsed":29546,"subject_id":"91155","group":"Group2","condition":"3_Rep","full_date":"2026-02-16T19:45:31.280Z","date":"2026-02-16","time":"19:45:31"},{"task":"memory_phase","broad_category":"S","image_png":"S_Dolomite_16.png","image_id":400,"category_name":"Dolomite","category":25,"distinct_rating":1.71,"distinct_type":"Bottom","rt":null,"stimulus":"Stimuli_Rocks480/S_Dolomite_16.png","response":null,"trial_type":"image-keyboard-response","trial_index":16,"plugin_version":"2.1.0","time_elapsed":32049,"subject_id":"91155","group":"Group2","condition":"3_Rep","full_date":"2026-02-16T19:45:31.280Z","date":"2026-02-16","time":"19:45:31"},{"rt":null,"stimulus":"<p style=\"font-size: 50px; margin: 0; text-align: center;\">+</p>","response":null,"trial_type":"html-keyboard-response","trial_index":17,"plugin_version":"2.1.0","time_elapsed":33051,"subject_id":"91155","group":"Group2","condition":"3_Rep","full_date":"2026-02-16T19:45:31.280Z","date":"2026-02-16","time":"19:45:31"},{"task":"memory_phase","broad_category":"M","image_png":"M_Marble_02.png","image_id":226,"category_name":"Marble","category":15,"distinct_rating":3.2,"distinct_type":"Bottom","rt":null,"stimulus":"Stimuli_Rocks480/M_Marble_02.png","response":null,"trial_type":"image-keyboard-response","trial_index":18,"plugin_version":"2.1.0","time_elapsed":35555,"subject_id":"91155","group":"Group2","condition":"3_Rep","full_date":"2026-02-16T19:45:31.280Z","date":"2026-02-16","time":"19:45:31"},{"rt":null,"stimulus":"<p style=\"font-size: 50px; margin: 0; text-align: center;\">+</p>","response":null,"trial_type":"html-keyboard-response","trial_index":19,"plugin_version":"2.1.0","time_elapsed":36557,"subject_id":"91155","group":"Group2","condition":"3_Rep","full_date":"2026-02-16T19:45:31.280Z","date":"2026-02-16","time":"19:45:31"},{"task":"memory_phase","broad_category":"I","image_png":"I_Gabbro_02.png","image_id":50,"category_name":"Gabbro","category":4,"distinct_rating":2.73,"distinct_type":"Bottom","rt":null,"stimulus":"Stimuli_Rocks480/I_Gabbro_02.png","response":null,"trial_type":"image-keyboard-response","trial_index":20,"plugin_version":"2.1.0","time_elapsed":39061,"subject_id":"91155","group":"Group2","condition":"3_Rep","full_date":"2026-02-16T19:45:31.280Z","date":"2026-02-16","time":"19:45:31"},{"rt":null,"stimulus":"<p style=\"font-size: 50px; margin: 0; text-align: center;\">+</p>","response":null,"trial_type":"html-keyboard-response","trial_index":21,"plugin_version":"2.1.0","time_elapsed":40063,"subject_id":"91155","group":"Group2","condition":"3_Rep","full_date":"2026-02-16T19:45:31.280Z","date":"2026-02-16","time":"19:45:31"},{"task":"memory_phase","broad_category":"M","image_png":"M_Slate_10.png","image_id":314,"category_name":"Slate","category":20,"distinct_rating":1.94,"distinct_type":"Bottom","rt":null,"stimulus":"Stimuli_Rocks480/M_Slate_10.png","response":null,"trial_type":"image-keyboard-response","trial_index":22,"plugin_version":"2.1.0","time_elapsed":42567,"subject_id":"91155","group":"Group2","condition":"3_Rep","full_date":"2026-02-16T19:45:31.280Z","date":"2026-02-16","time":"19:45:31"},{"rt":null,"stimulus":"<p style=\"font-size: 50px; margin: 0; text-align: center;\">+</p>","response":null,"trial_type":"html-keyboard-response","trial_index":23,"plugin_version":"2.1.0","time_elapsed":43570,"subject_id":"91155","group":"Group2","condition":"3_Rep","full_date":"2026-02-16T19:45:31.280Z","date":"2026-02-16","time":"19:45:31"},{"task":"memory_phase","broad_category":"M","image_png":"M_Gneiss_15.png","image_id":207,"category_name":"Gneiss","category":13,"distinct_rating":3.11,"distinct_type":"Bottom","rt":null,"stimulus":"Stimuli_Rocks480/M_Gneiss_15.png","response":null,"trial_type":"image-keyboard-response","trial_index":24,"plugin_version":"2.1.0","time_elapsed":46073,"subject_id":"91155","group":"Group2","condition":"3_Rep","full_date":"2026-02-16T19:45:31.280Z","date":"2026-02-16","time":"19:45:31"},{"rt":null,"stimulus":"<p style=\"font-size: 50px; margin: 0; text-align: center;\">+</p>","response":null,"trial_type":"html-keyboard-response","trial_index":25,"plugin_version":"2.1.0","time_elapsed":47075,"subject_id":"91155","group":"Group2","condition":"3_Rep","full_date":"2026-02-16T19:45:31.280Z","date":"2026-02-16","time":"19:45:31"},{"task":"memory_phase","broad_category":"I","image_png":"I_Pumice_14.png","image_id":142,"category_name":"Pumice","category":9,"distinct_rating":3.22,"distinct_type":"Bottom","rt":null,"stimulus":"Stimuli_Rocks480/I_Pumice_14.png","response":null,"trial_type":"image-keyboard-response","trial_index":26,"plugin_version":"2.1.0","time_elapsed":49578,"subject_id":"91155","group":"Group2","condition":"3_Rep","full_date":"2026-02-16T19:45:31.280Z","date":"2026-02-16","time":"19:45:31"},{"rt":null,"stimulus":"<p style=\"font-size: 50px; margin: 0; text-align: center;\">+</p>","response":null,"trial_type":"html-keyboard-response","trial_index":27,"plugin_version":"2.1.0","time_elapsed":50581,"subject_id":"91155","group":"Group2","condition":"3_Rep","full_date":"2026-02-16T19:45:31.280Z","date":"2026-02-16","time":"19:45:31"},{"task":"memory_phase","broad_category":"M","image_png":"M_Quartzite_12.png","image_id":284,"category_name":"Quartzite","category":18,"distinct_rating":1.92,"distinct_type":"Bottom","rt":null,"stimulus":"Stimuli_Rocks480/M_Quartzite_12.png","response":null,"trial_type":"image-keyboard-response","trial_index":28,"plugin_version":"2.1.0","time_elapsed":53084,"subject_id":"91155","group":"Group2","condition":"3_Rep","full_date":"2026-02-16T19:45:31.280Z","date":"2026-02-16","time":"19:45:31"},{"rt":null,"stimulus":"<p style=\"font-size: 50px; margin: 0; text-align: center;\">+</p>","response":null,"trial_type":"html-keyboard-response","trial_index":29,"plugin_version":"2.1.0","time_elapsed":54087,"subject_id":"91155","group":"Group2","condition":"3_Rep","full_date":"2026-02-16T19:45:31.280Z","date":"2026-02-16","time":"19:45:31"},{"task":"memory_phase","broad_category":"M","image_png":"M_Phyllite_05.png","image_id":261,"category_name":"Phyllite","category":17,"distinct_rating":2.14,"distinct_type":"Bottom","rt":null,"stimulus":"Stimuli_Rocks480/M_Phyllite_05.png","response":null,"trial_type":"image-keyboard-response","trial_index":30,"plugin_version":"2.1.0","time_elapsed":56590,"subject_id":"91155","group":"Group2","condition":"3_Rep","full_date":"2026-02-16T19:45:31.280Z","date":"2026-02-16","time":"19:45:31"},{"rt":null,"stimulus":"<p style=\"font-size: 50px; margin: 0; text-align: center;\">+</p>","response":null,"trial_type":"html-keyboard-response","trial_index":31,"plugin_version":"2.1.0","time_elapsed":57592,"subject_id":"91155","group":"Group2","condition":"3_Rep","full_date":"2026-02-16T19:45:31.280Z","date":"2026-02-16","time":"19:45:31"},{"task":"memory_phase","broad_category":"I","image_png":"I_Basalt_13.png","image_id":29,"category_name":"Basalt","category":2,"distinct_rating":2.68,"distinct_type":"Bottom","rt":null,"stimulus":"Stimuli_Rocks480/I_Basalt_13.png","response":null,"trial_type":"image-keyboard-response","trial_index":32,"plugin_version":"2.1.0","time_elapsed":60096,"subject_id":"91155","group":"Group2","condition":"3_Rep","full_date":"2026-02-16T19:45:31.280Z","date":"2026-02-16","time":"19:45:31"},{"rt":null,"stimulus":"<p style=\"font-size: 50px; margin: 0; text-align: center;\">+</p>","response":null,"trial_type":"html-keyboard-response","trial_index":33,"plugin_version":"2.1.0","time_elapsed":61099,"subject_id":"91155","group":"Group2","condition":"3_Rep","full_date":"2026-02-16T19:45:31.280Z","date":"2026-02-16","time":"19:45:31"},{"task":"memory_phase","broad_category":"S","image_png":"S_Dolomite_07.png","image_id":391,"category_name":"Dolomite","category":25,"distinct_rating":1.73,"distinct_type":"Bottom","rt":null,"stimulus":"Stimuli_Rocks480/S_Dolomite_07.png","response":null,"trial_type":"image-keyboard-response","trial_index":34,"plugin_version":"2.1.0","time_elapsed":63602,"subject_id":"91155","group":"Group2","condition":"3_Rep","full_date":"2026-02-16T19:45:31.280Z","date":"2026-02-16","time":"19:45:31"},{"rt":null,"stimulus":"<p style=\"font-size: 50px; margin: 0; text-align: center;\">+</p>","response":null,"trial_type":"html-keyboard-response","trial_index":35,"plugin_version":"2.1.0","time_elapsed":64605,"subject_id":"91155","group":"Group2","condition":"3_Rep","full_date":"2026-02-16T19:45:31.280Z","date":"2026-02-16","time":"19:45:31"},{"task":"memory_phase","broad_category":"I","image_png":"I_Rhyolite_05.png","image_id":149,"category_name":"Rhyolite","category":10,"distinct_rating":3.02,"distinct_type":"Bottom","rt":null,"stimulus":"Stimuli_Rocks480/I_Rhyolite_05.png","response":null,"trial_type":"image-keyboard-response","trial_index":36,"plugin_version":"2.1.0","time_elapsed":67108,"subject_id":"91155","group":"Group2","condition":"3_Rep","full_date":"2026-02-16T19:45:31.280Z","date":"2026-02-16","time":"19:45:31"},{"rt":null,"stimulus":"<p style=\"font-size: 50px; margin: 0; text-align: center;\">+</p>","response":null,"trial_type":"html-keyboard-response","trial_index":37,"plugin_version":"2.1.0","time_elapsed":68110,"subject_id":"91155","group":"Group2","condition":"3_Rep","full_date":"2026-02-16T19:45:31.280Z","date":"2026-02-16","time":"19:45:31"},{"task":"memory_phase","broad_category":"I","image_png":"I_Gabbro_12.png","image_id":60,"category_name":"Gabbro","category":4,"distinct_rating":2.6,"distinct_type":"Bottom","rt":null,"stimulus":"Stimuli_Rocks480/I_Gabbro_12.png","response":null,"trial_type":"image-keyboard-response","trial_index":38,"plugin_version":"2.1.0","time_elapsed":70612,"subject_id":"91155","group":"Group2","condition":"3_Rep","full_date":"2026-02-16T19:45:31.280Z","date":"2026-02-16","time":"19:45:31"},{"rt":null,"stimulus":"<p style=\"font-size: 50px; margin: 0; text-align: center;\">+</p>","response":null,"trial_type":"html-keyboard-response","trial_index":39,"plugin_version":"2.1.0","time_elapsed":71615,"subject_id":"91155","group":"Group2","condition":"3_Rep","full_date":"2026-02-16T19:45:31.280Z","date":"2026-02-16","time":"19:45:31"},{"task":"memory_phase","broad_category":"S","image_png":"S_Rock Salt_15.png","image_id":447,"category_name":"Rock Salt","category":28,"distinct_rating":7.79,"distinct_type":"Top","rt":null,"stimulus":"Stimuli_Rocks480/S_Rock Salt_15.png","response":null,"trial_type":"image-keyboard-response","trial_index":40,"plugin_version":"2.1.0","time_elapsed":74118,"subject_id":"91155","group":"Group2","condition":"3_Rep","full_date":"2026-02-16T19:45:31.280Z","date":"2026-02-16","time":"19:45:31"},{"rt":null,"stimulus":"<p style=\"font-size: 50px; margin: 0; text-align: center;\">+</p>","response":null,"trial_type":"html-keyboard-response","trial_index":41,"plugin_version":"2.1.0","time_elapsed":75120,"subject_id":"91155","group":"Group2","condition":"3_Rep","full_date":"2026-02-16T19:45:31.280Z","date":"2026-02-16","time":"19:45:31"},{"task":"memory_phase","broad_category":"S","image_png":"S_Sandstone_04.png","image_id":452,"category_name":"Sandstone","category":29,"distinct_rating":1.8,"distinct_type":"Bottom","rt":null,"stimulus":"Stimuli_Rocks480/S_Sandstone_04.png","response":null,"trial_type":"image-keyboard-response","trial_index":42,"plugin_version":"2.1.0","time_elapsed":77623,"subject_id":"91155","group":"Group2","condition":"3_Rep","full_date":"2026-02-16T19:45:31.280Z","date":"2026-02-16","time":"19:45:31"},{"rt":null,"stimulus":"<p style=\"font-size: 50px; margin: 0; text-align: center;\">+</p>","response":null,"trial_type":"html-keyboard-response","trial_index":43,"plugin_version":"2.1.0","time_elapsed":78626,"subject_id":"91155","group":"Group2","condition":"3_Rep","full_date":"2026-02-16T19:45:31.280Z","date":"2026-02-16","time":"19:45:31"},{"task":"memory_phase","broad_category":"I","image_png":"I_Andesite_04.png","image_id":4,"category_name":"Andesite","category":1,"distinct_rating":3.18,"distinct_type":"Bottom","rt":null,"stimulus":"Stimuli_Rocks480/I_Andesite_04.png","response":null,"trial_type":"image-keyboard-response","trial_index":44,"plugin_version":"2.1.0","time_elapsed":81129,"subject_id":"91155","group":"Group2","condition":"3_Rep","full_date":"2026-02-16T19:45:31.280Z","date":"2026-02-16","time":"19:45:31"},{"rt":null,"stimulus":"<p style=\"font-size: 50px; margin: 0; text-align: center;\">+</p>","response":null,"trial_type":"html-keyboard-response","trial_index":45,"plugin_version":"2.1.0","time_elapsed":82131,"subject_id":"91155","group":"Group2","condition":"3_Rep","full_date":"2026-02-16T19:45:31.280Z","date":"2026-02-16","time":"19:45:31"},{"task":"memory_phase","broad_category":"I","image_png":"I_Diorite_10.png","image_id":42,"category_name":"Diorite","category":3,"distinct_rating":2.84,"distinct_type":"Bottom","rt":null,"stimulus":"Stimuli_Rocks480/I_Diorite_10.png","response":null,"trial_type":"image-keyboard-response","trial_index":46,"plugin_version":"2.1.0","time_elapsed":84634,"subject_id":"91155","group":"Group2","condition":"3_Rep","full_date":"2026-02-16T19:45:31.280Z","date":"2026-02-16","time":"19:45:31"},{"rt":null,"stimulus":"<p style=\"font-size: 50px; margin: 0; text-align: center;\">+</p>","response":null,"trial_type":"html-keyboard-response","trial_index":47,"plugin_version":"2.1.0","time_elapsed":85636,"subject_id":"91155","group":"Group2","condition":"3_Rep","full_date":"2026-02-16T19:45:31.280Z","date":"2026-02-16","time":"19:45:31"},{"task":"memory_phase","broad_category":"I","image_png":"I_Pumice_13.png","image_id":141,"category_name":"Pumice","category":9,"distinct_rating":3.12,"distinct_type":"Bottom","rt":null,"stimulus":"Stimuli_Rocks480/I_Pumice_13.png","response":null,"trial_type":"image-keyboard-response","trial_index":48,"plugin_version":"2.1.0","time_elapsed":88139,"subject_id":"91155","group":"Group2","condition":"3_Rep","full_date":"2026-02-16T19:45:31.280Z","date":"2026-02-16","time":"19:45:31"},{"rt":null,"stimulus":"<p style=\"font-size: 50px; margin: 0; text-align: center;\">+</p>","response":null,"trial_type":"html-keyboard-response","trial_index":49,"plugin_version":"2.1.0","time_elapsed":89141,"subject_id":"91155","group":"Group2","condition":"3_Rep","full_date":"2026-02-16T19:45:31.280Z","date":"2026-02-16","time":"19:45:31"},{"task":"memory_phase","broad_category":"I","image_png":"I_Pegmatite_11.png","image_id":107,"category_name":"Pegmatite","category":7,"distinct_rating":7.11,"distinct_type":"Top","rt":null,"stimulus":"Stimuli_Rocks480/I_Pegmatite_11.png","response":null,"trial_type":"image-keyboard-response","trial_index":50,"plugin_version":"2.1.0","time_elapsed":91644,"subject_id":"91155","group":"Group2","condition":"3_Rep","full_date":"2026-02-16T19:45:31.280Z","date":"2026-02-16","time":"19:45:31"},{"rt":null,"stimulus":"<p style=\"font-size: 50px; margin: 0; text-align: center;\">+</p>","response":null,"trial_type":"html-keyboard-response","trial_index":51,"plugin_version":"2.1.0","time_elapsed":92647,"subject_id":"91155","group":"Group2","condition":"3_Rep","full_date":"2026-02-16T19:45:31.280Z","date":"2026-02-16","time":"19:45:31"},{"task":"memory_phase","broad_category":"M","image_png":"M_Phyllite_02.png","image_id":258,"category_name":"Phyllite","category":17,"distinct_rating":2.89,"distinct_type":"Bottom","rt":null,"stimulus":"Stimuli_Rocks480/M_Phyllite_02.png","response":null,"trial_type":"image-keyboard-response","trial_index":52,"plugin_version":"2.1.0","time_elapsed":95149,"subject_id":"91155","group":"Group2","condition":"3_Rep","full_date":"2026-02-16T19:45:31.280Z","date":"2026-02-16","time":"19:45:31"},{"rt":null,"stimulus":"<p style=\"font-size: 50px; margin: 0; text-align: center;\">+</p>","response":null,"trial_type":"html-keyboard-response","trial_index":53,"plugin_version":"2.1.0","time_elapsed":96151,"subject_id":"91155","group":"Group2","condition":"3_Rep","full_date":"2026-02-16T19:45:31.280Z","date":"2026-02-16","time":"19:45:31"},{"task":"memory_phase","broad_category":"S","image_png":"S_Conglomerate_14.png","image_id":382,"category_name":"Conglomerate","category":24,"distinct_rating":6.86,"distinct_type":"Top","rt":null,"stimulus":"Stimuli_Rocks480/S_Conglomerate_14.png","response":null,"trial_type":"image-keyboard-response","trial_index":54,"plugin_version":"2.1.0","time_elapsed":98654,"subject_id":"91155","group":"Group2","condition":"3_Rep","full_date":"2026-02-16T19:45:31.280Z","date":"2026-02-16","time":"19:45:31"},{"rt":4964,"stimulus":"<p style=\"max-width: 760px; margin: auto; font-size: 35px; line-height: 1.5;\">\n                Press SPACE to continue study phase\n              </p>","response":" ","trial_type":"html-keyboard-response","trial_index":55,"plugin_version":"2.1.0","time_elapsed":103619,"subject_id":"91155","group":"Group2","condition":"3_Rep","full_date":"2026-02-16T19:45:31.280Z","date":"2026-02-16","time":"19:45:31"},{"rt":null,"stimulus":"<p style=\"font-size: 50px; margin: 0; text-align: center;\">+</p>","response":null,"trial_type":"html-keyboard-response","trial_index":56,"plugin_version":"2.1.0","time_elapsed":104622,"subject_id":"91155","group":"Group2","condition":"3_Rep","full_date":"2026-02-16T19:45:31.280Z","date":"2026-02-16","time":"19:45:31"},{"task":"memory_phase","broad_category":"S","image_png":"S_Sandstone_11.png","image_id":459,"category_name":"Sandstone","category":29,"distinct_rating":1.82,"distinct_type":"Bottom","rt":null,"stimulus":"Stimuli_Rocks480/S_Sandstone_11.png","response":null,"trial_type":"image-keyboard-response","trial_index":57,"plugin_version":"2.1.0","time_elapsed":107126,"subject_id":"91155","group":"Group2","condition":"3_Rep","full_date":"2026-02-16T19:45:31.280Z","date":"2026-02-16","time":"19:45:31"},{"rt":null,"stimulus":"<p style=\"font-size: 50px; margin: 0; text-align: center;\">+</p>","response":null,"trial_type":"html-keyboard-response","trial_index":58,"plugin_version":"2.1.0","time_elapsed":108128,"subject_id":"91155","group":"Group2","condition":"3_Rep","full_date":"2026-02-16T19:45:31.280Z","date":"2026-02-16","time":"19:45:31"},{"task":"memory_phase","broad_category":"S","image_png":"S_Sandstone_08.png","image_id":456,"category_name":"Sandstone","category":29,"distinct_rating":1.5,"distinct_type":"Bottom","rt":null,"stimulus":"Stimuli_Rocks480/S_Sandstone_08.png","response":null,"trial_type":"image-keyboard-response","trial_index":59,"plugin_version":"2.1.0","time_elapsed":110631,"subject_id":"91155","group":"Group2","condition":"3_Rep","full_date":"2026-02-16T19:45:31.280Z","date":"2026-02-16","time":"19:45:31"},{"rt":null,"stimulus":"<p style=\"font-size: 50px; margin: 0; text-align: center;\">+</p>","response":null,"trial_type":"html-keyboard-response","trial_index":60,"plugin_version":"2.1.0","time_elapsed":111634,"subject_id":"91155","group":"Group2","condition":"3_Rep","full_date":"2026-02-16T19:45:31.280Z","date":"2026-02-16","time":"19:45:31"},{"task":"memory_phase","broad_category":"M","image_png":"M_Gneiss_14.png","image_id":206,"category_name":"Gneiss","category":13,"distinct_rating":3.41,"distinct_type":"Bottom","rt":null,"stimulus":"Stimuli_Rocks480/M_Gneiss_14.png","response":null,"trial_type":"image-keyboard-response","trial_index":61,"plugin_version":"2.1.0","time_elapsed":114138,"subject_id":"91155","group":"Group2","condition":"3_Rep","full_date":"2026-02-16T19:45:31.280Z","date":"2026-02-16","time":"19:45:31"},{"rt":null,"stimulus":"<p style=\"font-size: 50px; margin: 0; text-align: center;\">+</p>","response":null,"trial_type":"html-keyboard-response","trial_index":62,"plugin_version":"2.1.0","time_elapsed":115141,"subject_id":"91155","group":"Group2","condition":"3_Rep","full_date":"2026-02-16T19:45:31.280Z","date":"2026-02-16","time":"19:45:31"},{"task":"memory_phase","broad_category":"M","image_png":"M_Quartzite_15.png","image_id":287,"category_name":"Quartzite","category":18,"distinct_rating":2.19,"distinct_type":"Bottom","rt":null,"stimulus":"Stimuli_Rocks480/M_Quartzite_15.png","response":null,"trial_type":"image-keyboard-response","trial_index":63,"plugin_version":"2.1.0","time_elapsed":117644,"subject_id":"91155","group":"Group2","condition":"3_Rep","full_date":"2026-02-16T19:45:31.280Z","date":"2026-02-16","time":"19:45:31"},{"rt":null,"stimulus":"<p style=\"font-size: 50px; margin: 0; text-align: center;\">+</p>","response":null,"trial_type":"html-keyboard-response","trial_index":64,"plugin_version":"2.1.0","time_elapsed":118647,"subject_id":"91155","group":"Group2","condition":"3_Rep","full_date":"2026-02-16T19:45:31.280Z","date":"2026-02-16","time":"19:45:31"},{"task":"memory_phase","broad_category":"I","image_png":"I_Basalt_10.png","image_id":26,"category_name":"Basalt","category":2,"distinct_rating":2.76,"distinct_type":"Bottom","rt":null,"stimulus":"Stimuli_Rocks480/I_Basalt_10.png","response":null,"trial_type":"image-keyboard-response","trial_index":65,"plugin_version":"2.1.0","time_elapsed":121150,"subject_id":"91155","group":"Group2","condition":"3_Rep","full_date":"2026-02-16T19:45:31.280Z","date":"2026-02-16","time":"19:45:31"},{"rt":null,"stimulus":"<p style=\"font-size: 50px; margin: 0; text-align: center;\">+</p>","response":null,"trial_type":"html-keyboard-response","trial_index":66,"plugin_version":"2.1.0","time_elapsed":122152,"subject_id":"91155","group":"Group2","condition":"3_Rep","full_date":"2026-02-16T19:45:31.280Z","date":"2026-02-16","time":"19:45:31"},{"task":"memory_phase","broad_category":"I","image_png":"I_Pumice_01.png","image_id":129,"category_name":"Pumice","category":9,"distinct_rating":3.25,"distinct_type":"Bottom","rt":null,"stimulus":"Stimuli_Rocks480/I_Pumice_01.png","response":null,"trial_type":"image-keyboard-response","trial_index":67,"plugin_version":"2.1.0","time_elapsed":124655,"subject_id":"91155","group":"Group2","condition":"3_Rep","full_date":"2026-02-16T19:45:31.280Z","date":"2026-02-16","time":"19:45:31"},{"rt":null,"stimulus":"<p style=\"font-size: 50px; margin: 0; text-align: center;\">+</p>","response":null,"trial_type":"html-keyboard-response","trial_index":68,"plugin_version":"2.1.0","time_elapsed":125658,"subject_id":"91155","group":"Group2","condition":"3_Rep","full_date":"2026-02-16T19:45:31.280Z","date":"2026-02-16","time":"19:45:31"},{"task":"memory_phase","broad_category":"I","image_png":"I_Diorite_01.png","image_id":33,"category_name":"Diorite","category":3,"distinct_rating":2.97,"distinct_type":"Bottom","rt":null,"stimulus":"Stimuli_Rocks480/I_Diorite_01.png","response":null,"trial_type":"image-keyboard-response","trial_index":69,"plugin_version":"2.1.0","time_elapsed":128160,"subject_id":"91155","group":"Group2","condition":"3_Rep","full_date":"2026-02-16T19:45:31.280Z","date":"2026-02-16","time":"19:45:31"},{"rt":null,"stimulus":"<p style=\"font-size: 50px; margin: 0; text-align: center;\">+</p>","response":null,"trial_type":"html-keyboard-response","trial_index":70,"plugin_version":"2.1.0","time_elapsed":129163,"subject_id":"91155","group":"Group2","condition":"3_Rep","full_date":"2026-02-16T19:45:31.280Z","date":"2026-02-16","time":"19:45:31"},{"task":"memory_phase","broad_category":"M","image_png":"M_Quartzite_07.png","image_id":279,"category_name":"Quartzite","category":18,"distinct_rating":1.97,"distinct_type":"Bottom","rt":null,"stimulus":"Stimuli_Rocks480/M_Quartzite_07.png","response":null,"trial_type":"image-keyboard-response","trial_index":71,"plugin_version":"2.1.0","time_elapsed":131666,"subject_id":"91155","group":"Group2","condition":"3_Rep","full_date":"2026-02-16T19:45:31.280Z","date":"2026-02-16","time":"19:45:31"},{"rt":null,"stimulus":"<p style=\"font-size: 50px; margin: 0; text-align: center;\">+</p>","response":null,"trial_type":"html-keyboard-response","trial_index":72,"plugin_version":"2.1.0","time_elapsed":132669,"subject_id":"91155","group":"Group2","condition":"3_Rep","full_date":"2026-02-16T19:45:31.280Z","date":"2026-02-16","time":"19:45:31"},{"task":"memory_phase","broad_category":"I","image_png":"I_Basalt_08.png","image_id":24,"category_name":"Basalt","category":2,"distinct_rating":2.31,"distinct_type":"Bottom","rt":null,"stimulus":"Stimuli_Rocks480/I_Basalt_08.png","response":null,"trial_type":"image-keyboard-response","trial_index":73,"plugin_version":"2.1.0","time_elapsed":135172,"subject_id":"91155","group":"Group2","condition":"3_Rep","full_date":"2026-02-16T19:45:31.280Z","date":"2026-02-16","time":"19:45:31"},{"rt":null,"stimulus":"<p style=\"font-size: 50px; margin: 0; text-align: center;\">+</p>","response":null,"trial_type":"html-keyboard-response","trial_index":74,"plugin_version":"2.1.0","time_elapsed":136174,"subject_id":"91155","group":"Group2","condition":"3_Rep","full_date":"2026-02-16T19:45:31.280Z","date":"2026-02-16","time":"19:45:31"},{"task":"memory_phase","broad_category":"I","image_png":"I_Rhyolite_10.png","image_id":154,"category_name":"Rhyolite","category":10,"distinct_rating":2.88,"distinct_type":"Bottom","rt":null,"stimulus":"Stimuli_Rocks480/I_Rhyolite_10.png","response":null,"trial_type":"image-keyboard-response","trial_index":75,"plugin_version":"2.1.0","time_elapsed":138677,"subject_id":"91155","group":"Group2","condition":"3_Rep","full_date":"2026-02-16T19:45:31.280Z","date":"2026-02-16","time":"19:45:31"},{"rt":null,"stimulus":"<p style=\"font-size: 50px; margin: 0; text-align: center;\">+</p>","response":null,"trial_type":"html-keyboard-response","trial_index":76,"plugin_version":"2.1.0","time_elapsed":139680,"subject_id":"91155","group":"Group2","condition":"3_Rep","full_date":"2026-02-16T19:45:31.280Z","date":"2026-02-16","time":"19:45:31"},{"task":"memory_phase","broad_category":"S","image_png":"S_Shale_07.png","image_id":471,"category_name":"Shale","category":30,"distinct_rating":2.73,"distinct_type":"Bottom","rt":null,"stimulus":"Stimuli_Rocks480/S_Shale_07.png","response":null,"trial_type":"image-keyboard-response","trial_index":77,"plugin_version":"2.1.0","time_elapsed":142183,"subject_id":"91155","group":"Group2","condition":"3_Rep","full_date":"2026-02-16T19:45:31.280Z","date":"2026-02-16","time":"19:45:31"},{"rt":null,"stimulus":"<p style=\"font-size: 50px; margin: 0; text-align: center;\">+</p>","response":null,"trial_type":"html-keyboard-response","trial_index":78,"plugin_version":"2.1.0","time_elapsed":143186,"subject_id":"91155","group":"Group2","condition":"3_Rep","full_date":"2026-02-16T19:45:31.280Z","date":"2026-02-16","time":"19:45:31"},{"task":"memory_phase","broad_category":"I","image_png":"I_Andesite_09.png","image_id":9,"category_name":"Andesite","category":1,"distinct_rating":2.49,"distinct_type":"Bottom","rt":null,"stimulus":"Stimuli_Rocks480/I_Andesite_09.png","response":null,"trial_type":"image-keyboard-response","trial_index":79,"plugin_version":"2.1.0","time_elapsed":145689,"subject_id":"91155","group":"Group2","condition":"3_Rep","full_date":"2026-02-16T19:45:31.280Z","date":"2026-02-16","time":"19:45:31"},{"rt":null,"stimulus":"<p style=\"font-size: 50px; margin: 0; text-align: center;\">+</p>","response":null,"trial_type":"html-keyboard-response","trial_index":80,"plugin_version":"2.1.0","time_elapsed":146692,"subject_id":"91155","group":"Group2","condition":"3_Rep","full_date":"2026-02-16T19:45:31.280Z","date":"2026-02-16","time":"19:45:31"},{"task":"memory_phase","broad_category":"S","image_png":"S_Dolomite_01.png","image_id":385,"category_name":"Dolomite","category":25,"distinct_rating":1.43,"distinct_type":"Bottom","rt":null,"stimulus":"Stimuli_Rocks480/S_Dolomite_01.png","response":null,"trial_type":"image-keyboard-response","trial_index":81,"plugin_version":"2.1.0","time_elapsed":149195,"subject_id":"91155","group":"Group2","condition":"3_Rep","full_date":"2026-02-16T19:45:31.280Z","date":"2026-02-16","time":"19:45:31"},{"rt":null,"stimulus":"<p style=\"font-size: 50px; margin: 0; text-align: center;\">+</p>","response":null,"trial_type":"html-keyboard-response","trial_index":82,"plugin_version":"2.1.0","time_elapsed":150198,"subject_id":"91155","group":"Group2","condition":"3_Rep","full_date":"2026-02-16T19:45:31.280Z","date":"2026-02-16","time":"19:45:31"},{"task":"memory_phase","broad_category":"M","image_png":"M_Marble_03.png","image_id":227,"category_name":"Marble","category":15,"distinct_rating":2.67,"distinct_type":"Bottom","rt":null,"stimulus":"Stimuli_Rocks480/M_Marble_03.png","response":null,"trial_type":"image-keyboard-response","trial_index":83,"plugin_version":"2.1.0","time_elapsed":152701,"subject_id":"91155","group":"Group2","condition":"3_Rep","full_date":"2026-02-16T19:45:31.280Z","date":"2026-02-16","time":"19:45:31"},{"rt":null,"stimulus":"<p style=\"font-size: 50px; margin: 0; text-align: center;\">+</p>","response":null,"trial_type":"html-keyboard-response","trial_index":84,"plugin_version":"2.1.0","time_elapsed":153704,"subject_id":"91155","group":"Group2","condition":"3_Rep","full_date":"2026-02-16T19:45:31.280Z","date":"2026-02-16","time":"19:45:31"},{"task":"memory_phase","broad_category":"S","image_png":"S_Rock Salt_13.png","image_id":445,"category_name":"Rock Salt","category":28,"distinct_rating":7.58,"distinct_type":"Top","rt":null,"stimulus":"Stimuli_Rocks480/S_Rock Salt_13.png","response":null,"trial_type":"image-keyboard-response","trial_index":85,"plugin_version":"2.1.0","time_elapsed":156208,"subject_id":"91155","group":"Group2","condition":"3_Rep","full_date":"2026-02-16T19:45:31.280Z","date":"2026-02-16","time":"19:45:31"},{"rt":null,"stimulus":"<p style=\"font-size: 50px; margin: 0; text-align: center;\">+</p>","response":null,"trial_type":"html-keyboard-response","trial_index":86,"plugin_version":"2.1.0","time_elapsed":157211,"subject_id":"91155","group":"Group2","condition":"3_Rep","full_date":"2026-02-16T19:45:31.280Z","date":"2026-02-16","time":"19:45:31"},{"task":"memory_phase","broad_category":"I","image_png":"I_Gabbro_14.png","image_id":62,"category_name":"Gabbro","category":4,"distinct_rating":2.95,"distinct_type":"Bottom","rt":null,"stimulus":"Stimuli_Rocks480/I_Gabbro_14.png","response":null,"trial_type":"image-keyboard-response","trial_index":87,"plugin_version":"2.1.0","time_elapsed":159714,"subject_id":"91155","group":"Group2","condition":"3_Rep","full_date":"2026-02-16T19:45:31.280Z","date":"2026-02-16","time":"19:45:31"},{"rt":null,"stimulus":"<p style=\"font-size: 50px; margin: 0; text-align: center;\">+</p>","response":null,"trial_type":"html-keyboard-response","trial_index":88,"plugin_version":"2.1.0","time_elapsed":160717,"subject_id":"91155","group":"Group2","condition":"3_Rep","full_date":"2026-02-16T19:45:31.280Z","date":"2026-02-16","time":"19:45:31"},{"task":"memory_phase","broad_category":"M","image_png":"M_Gneiss_10.png","image_id":202,"category_name":"Gneiss","category":13,"distinct_rating":3.09,"distinct_type":"Bottom","rt":null,"stimulus":"Stimuli_Rocks480/M_Gneiss_10.png","response":null,"trial_type":"image-keyboard-response","trial_index":89,"plugin_version":"2.1.0","time_elapsed":163220,"subject_id":"91155","group":"Group2","condition":"3_Rep","full_date":"2026-02-16T19:45:31.280Z","date":"2026-02-16","time":"19:45:31"},{"rt":null,"stimulus":"<p style=\"font-size: 50px; margin: 0; text-align: center;\">+</p>","response":null,"trial_type":"html-keyboard-response","trial_index":90,"plugin_version":"2.1.0","time_elapsed":164222,"subject_id":"91155","group":"Group2","condition":"3_Rep","full_date":"2026-02-16T19:45:31.280Z","date":"2026-02-16","time":"19:45:31"},{"task":"memory_phase","broad_category":"S","image_png":"S_Shale_02.png","image_id":466,"category_name":"Shale","category":30,"distinct_rating":2.9,"distinct_type":"Bottom","rt":null,"stimulus":"Stimuli_Rocks480/S_Shale_02.png","response":null,"trial_type":"image-keyboard-response","trial_index":91,"plugin_version":"2.1.0","time_elapsed":166726,"subject_id":"91155","group":"Group2","condition":"3_Rep","full_date":"2026-02-16T19:45:31.280Z","date":"2026-02-16","time":"19:45:31"},{"rt":null,"stimulus":"<p style=\"font-size: 50px; margin: 0; text-align: center;\">+</p>","response":null,"trial_type":"html-keyboard-response","trial_index":92,"plugin_version":"2.1.0","time_elapsed":167728,"subject_id":"91155","group":"Group2","condition":"3_Rep","full_date":"2026-02-16T19:45:31.280Z","date":"2026-02-16","time":"19:45:31"},{"task":"memory_phase","broad_category":"S","image_png":"S_Shale_03.png","image_id":467,"category_name":"Shale","category":30,"distinct_rating":1.95,"distinct_type":"Bottom","rt":null,"stimulus":"Stimuli_Rocks480/S_Shale_03.png","response":null,"trial_type":"image-keyboard-response","trial_index":93,"plugin_version":"2.1.0","time_elapsed":170231,"subject_id":"91155","group":"Group2","condition":"3_Rep","full_date":"2026-02-16T19:45:31.280Z","date":"2026-02-16","time":"19:45:31"},{"rt":null,"stimulus":"<p style=\"font-size: 50px; margin: 0; text-align: center;\">+</p>","response":null,"trial_type":"html-keyboard-response","trial_index":94,"plugin_version":"2.1.0","time_elapsed":171234,"subject_id":"91155","group":"Group2","condition":"3_Rep","full_date":"2026-02-16T19:45:31.280Z","date":"2026-02-16","time":"19:45:31"},{"task":"memory_phase","broad_category":"I","image_png":"I_Rhyolite_08.png","image_id":152,"category_name":"Rhyolite","category":10,"distinct_rating":1.38,"distinct_type":"Bottom","rt":null,"stimulus":"Stimuli_Rocks480/I_Rhyolite_08.png","response":null,"trial_type":"image-keyboard-response","trial_index":95,"plugin_version":"2.1.0","time_elapsed":173737,"subject_id":"91155","group":"Group2","condition":"3_Rep","full_date":"2026-02-16T19:45:31.280Z","date":"2026-02-16","time":"19:45:31"},{"rt":null,"stimulus":"<p style=\"font-size: 50px; margin: 0; text-align: center;\">+</p>","response":null,"trial_type":"html-keyboard-response","trial_index":96,"plugin_version":"2.1.0","time_elapsed":174740,"subject_id":"91155","group":"Group2","condition":"3_Rep","full_date":"2026-02-16T19:45:31.280Z","date":"2026-02-16","time":"19:45:31"},{"task":"memory_phase","broad_category":"I","image_png":"I_Obsidian_06.png","image_id":86,"category_name":"Obsidian","category":6,"distinct_rating":8.01,"distinct_type":"Top","rt":null,"stimulus":"Stimuli_Rocks480/I_Obsidian_06.png","response":null,"trial_type":"image-keyboard-response","trial_index":97,"plugin_version":"2.1.0","time_elapsed":177243,"subject_id":"91155","group":"Group2","condition":"3_Rep","full_date":"2026-02-16T19:45:31.280Z","date":"2026-02-16","time":"19:45:31"},{"rt":null,"stimulus":"<p style=\"font-size: 50px; margin: 0; text-align: center;\">+</p>","response":null,"trial_type":"html-keyboard-response","trial_index":98,"plugin_version":"2.1.0","time_elapsed":178245,"subject_id":"91155","group":"Group2","condition":"3_Rep","full_date":"2026-02-16T19:45:31.280Z","date":"2026-02-16","time":"19:45:31"},{"task":"memory_phase","broad_category":"M","image_png":"M_Slate_14.png","image_id":318,"category_name":"Slate","category":20,"distinct_rating":2.58,"distinct_type":"Bottom","rt":null,"stimulus":"Stimuli_Rocks480/M_Slate_14.png","response":null,"trial_type":"image-keyboard-response","trial_index":99,"plugin_version":"2.1.0","time_elapsed":180748,"subject_id":"91155","group":"Group2","condition":"3_Rep","full_date":"2026-02-16T19:45:31.280Z","date":"2026-02-16","time":"19:45:31"},{"rt":null,"stimulus":"<p style=\"font-size: 50px; margin: 0; text-align: center;\">+</p>","response":null,"trial_type":"html-keyboard-response","trial_index":100,"plugin_version":"2.1.0","time_elapsed":181750,"subject_id":"91155","group":"Group2","condition":"3_Rep","full_date":"2026-02-16T19:45:31.280Z","date":"2026-02-16","time":"19:45:31"},{"task":"memory_phase","broad_category":"M","image_png":"M_Slate_04.png","image_id":308,"category_name":"Slate","category":20,"distinct_rating":2.2,"distinct_type":"Bottom","rt":null,"stimulus":"Stimuli_Rocks480/M_Slate_04.png","response":null,"trial_type":"image-keyboard-response","trial_index":101,"plugin_version":"2.1.0","time_elapsed":184254,"subject_id":"91155","group":"Group2","condition":"3_Rep","full_date":"2026-02-16T19:45:31.280Z","date":"2026-02-16","time":"19:45:31"},{"rt":null,"stimulus":"<p style=\"font-size: 50px; margin: 0; text-align: center;\">+</p>","response":null,"trial_type":"html-keyboard-response","trial_index":102,"plugin_version":"2.1.0","time_elapsed":185257,"subject_id":"91155","group":"Group2","condition":"3_Rep","full_date":"2026-02-16T19:45:31.280Z","date":"2026-02-16","time":"19:45:31"},{"task":"memory_phase","broad_category":"I","image_png":"I_Diorite_15.png","image_id":47,"category_name":"Diorite","category":3,"distinct_rating":3.05,"distinct_type":"Bottom","rt":null,"stimulus":"Stimuli_Rocks480/I_Diorite_15.png","response":null,"trial_type":"image-keyboard-response","trial_index":103,"plugin_version":"2.1.0","time_elapsed":187760,"subject_id":"91155","group":"Group2","condition":"3_Rep","full_date":"2026-02-16T19:45:31.280Z","date":"2026-02-16","time":"19:45:31"},{"rt":null,"stimulus":"<p style=\"font-size: 50px; margin: 0; text-align: center;\">+</p>","response":null,"trial_type":"html-keyboard-response","trial_index":104,"plugin_version":"2.1.0","time_elapsed":188763,"subject_id":"91155","group":"Group2","condition":"3_Rep","full_date":"2026-02-16T19:45:31.280Z","date":"2026-02-16","time":"19:45:31"},{"task":"memory_phase","broad_category":"M","image_png":"M_Marble_14.png","image_id":238,"category_name":"Marble","category":15,"distinct_rating":3.31,"distinct_type":"Bottom","rt":null,"stimulus":"Stimuli_Rocks480/M_Marble_14.png","response":null,"trial_type":"image-keyboard-response","trial_index":105,"plugin_version":"2.1.0","time_elapsed":191266,"subject_id":"91155","group":"Group2","condition":"3_Rep","full_date":"2026-02-16T19:45:31.280Z","date":"2026-02-16","time":"19:45:31"},{"rt":3830,"stimulus":"<p style=\"max-width: 760px; margin: auto; font-size: 35px; line-height: 1.5;\">\n                You have completed 1 study phase. \n                Now, we'll show you all the images again 2 more times.\n                <br><br>Press SPACE to continue\n              </p>","response":" ","trial_type":"html-keyboard-response","trial_index":106,"plugin_version":"2.1.0","time_elapsed":195098,"subject_id":"91155","group":"Group2","condition":"3_Rep","full_date":"2026-02-16T19:45:31.280Z","date":"2026-02-16","time":"19:45:31"},{"rt":null,"stimulus":"<p style=\"font-size: 50px; margin: 0; text-align: center;\">+</p>","response":null,"trial_type":"html-keyboard-response","trial_index":107,"plugin_version":"2.1.0","time_elapsed":196100,"subject_id":"91155","group":"Group2","condition":"3_Rep","full_date":"2026-02-16T19:45:31.280Z","date":"2026-02-16","time":"19:45:31"},{"task":"memory_phase","broad_category":"M","image_png":"M_Slate_10.png","image_id":314,"category_name":"Slate","category":20,"distinct_rating":1.94,"distinct_type":"Bottom","rt":null,"stimulus":"Stimuli_Rocks480/M_Slate_10.png","response":null,"trial_type":"image-keyboard-response","trial_index":108,"plugin_version":"2.1.0","time_elapsed":198603,"subject_id":"91155","group":"Group2","condition":"3_Rep","full_date":"2026-02-16T19:45:31.280Z","date":"2026-02-16","time":"19:45:31"},{"rt":null,"stimulus":"<p style=\"font-size: 50px; margin: 0; text-align: center;\">+</p>","response":null,"trial_type":"html-keyboard-response","trial_index":109,"plugin_version":"2.1.0","time_elapsed":199606,"subject_id":"91155","group":"Group2","condition":"3_Rep","full_date":"2026-02-16T19:45:31.280Z","date":"2026-02-16","time":"19:45:31"},{"task":"memory_phase","broad_category":"M","image_png":"M_Phyllite_13.png","image_id":269,"category_name":"Phyllite","category":17,"distinct_rating":2.8,"distinct_type":"Bottom","rt":null,"stimulus":"Stimuli_Rocks480/M_Phyllite_13.png","response":null,"trial_type":"image-keyboard-response","trial_index":110,"plugin_version":"2.1.0","time_elapsed":202109,"subject_id":"91155","group":"Group2","condition":"3_Rep","full_date":"2026-02-16T19:45:31.280Z","date":"2026-02-16","time":"19:45:31"},{"rt":null,"stimulus":"<p style=\"font-size: 50px; margin: 0; text-align: center;\">+</p>","response":null,"trial_type":"html-keyboard-response","trial_index":111,"plugin_version":"2.1.0","time_elapsed":203112,"subject_id":"91155","group":"Group2","condition":"3_Rep","full_date":"2026-02-16T19:45:31.280Z","date":"2026-02-16","time":"19:45:31"},{"task":"memory_phase","broad_category":"M","image_png":"M_Quartzite_07.png","image_id":279,"category_name":"Quartzite","category":18,"distinct_rating":1.97,"distinct_type":"Bottom","rt":null,"stimulus":"Stimuli_Rocks480/M_Quartzite_07.png","response":null,"trial_type":"image-keyboard-response","trial_index":112,"plugin_version":"2.1.0","time_elapsed":205615,"subject_id":"91155","group":"Group2","condition":"3_Rep","full_date":"2026-02-16T19:45:31.280Z","date":"2026-02-16","time":"19:45:31"},{"rt":null,"stimulus":"<p style=\"font-size: 50px; margin: 0; text-align: center;\">+</p>","response":null,"trial_type":"html-keyboard-response","trial_index":113,"plugin_version":"2.1.0","time_elapsed":206617,"subject_id":"91155","group":"Group2","condition":"3_Rep","full_date":"2026-02-16T19:45:31.280Z","date":"2026-02-16","time":"19:45:31"},{"task":"memory_phase","broad_category":"M","image_png":"M_Gneiss_10.png","image_id":202,"category_name":"Gneiss","category":13,"distinct_rating":3.09,"distinct_type":"Bottom","rt":null,"stimulus":"Stimuli_Rocks480/M_Gneiss_10.png","response":null,"trial_type":"image-keyboard-response","trial_index":114,"plugin_version":"2.1.0","time_elapsed":209121,"subject_id":"91155","group":"Group2","condition":"3_Rep","full_date":"2026-02-16T19:45:31.280Z","date":"2026-02-16","time":"19:45:31"},{"rt":null,"stimulus":"<p style=\"font-size: 50px; margin: 0; text-align: center;\">+</p>","response":null,"trial_type":"html-keyboard-response","trial_index":115,"plugin_version":"2.1.0","time_elapsed":210124,"subject_id":"91155","group":"Group2","condition":"3_Rep","full_date":"2026-02-16T19:45:31.280Z","date":"2026-02-16","time":"19:45:31"},{"task":"memory_phase","broad_category":"I","image_png":"I_Pumice_14.png","image_id":142,"category_name":"Pumice","category":9,"distinct_rating":3.22,"distinct_type":"Bottom","rt":null,"stimulus":"Stimuli_Rocks480/I_Pumice_14.png","response":null,"trial_type":"image-keyboard-response","trial_index":116,"plugin_version":"2.1.0","time_elapsed":212627,"subject_id":"91155","group":"Group2","condition":"3_Rep","full_date":"2026-02-16T19:45:31.280Z","date":"2026-02-16","time":"19:45:31"},{"rt":null,"stimulus":"<p style=\"font-size: 50px; margin: 0; text-align: center;\">+</p>","response":null,"trial_type":"html-keyboard-response","trial_index":117,"plugin_version":"2.1.0","time_elapsed":213629,"subject_id":"91155","group":"Group2","condition":"3_Rep","full_date":"2026-02-16T19:45:31.280Z","date":"2026-02-16","time":"19:45:31"},{"task":"memory_phase","broad_category":"M","image_png":"M_Gneiss_14.png","image_id":206,"category_name":"Gneiss","category":13,"distinct_rating":3.41,"distinct_type":"Bottom","rt":null,"stimulus":"Stimuli_Rocks480/M_Gneiss_14.png","response":null,"trial_type":"image-keyboard-response","trial_index":118,"plugin_version":"2.1.0","time_elapsed":216132,"subject_id":"91155","group":"Group2","condition":"3_Rep","full_date":"2026-02-16T19:45:31.280Z","date":"2026-02-16","time":"19:45:31"},{"rt":null,"stimulus":"<p style=\"font-size: 50px; margin: 0; text-align: center;\">+</p>","response":null,"trial_type":"html-keyboard-response","trial_index":119,"plugin_version":"2.1.0","time_elapsed":217133,"subject_id":"91155","group":"Group2","condition":"3_Rep","full_date":"2026-02-16T19:45:31.280Z","date":"2026-02-16","time":"19:45:31"},{"task":"memory_phase","broad_category":"S","image_png":"S_Sandstone_11.png","image_id":459,"category_name":"Sandstone","category":29,"distinct_rating":1.82,"distinct_type":"Bottom","rt":null,"stimulus":"Stimuli_Rocks480/S_Sandstone_11.png","response":null,"trial_type":"image-keyboard-response","trial_index":120,"plugin_version":"2.1.0","time_elapsed":219637,"subject_id":"91155","group":"Group2","condition":"3_Rep","full_date":"2026-02-16T19:45:31.280Z","date":"2026-02-16","time":"19:45:31"},{"rt":null,"stimulus":"<p style=\"font-size: 50px; margin: 0; text-align: center;\">+</p>","response":null,"trial_type":"html-keyboard-response","trial_index":121,"plugin_version":"2.1.0","time_elapsed":220639,"subject_id":"91155","group":"Group2","condition":"3_Rep","full_date":"2026-02-16T19:45:31.280Z","date":"2026-02-16","time":"19:45:31"},{"task":"memory_phase","broad_category":"I","image_png":"I_Peridotite_13.png","image_id":125,"category_name":"Peridotite","category":8,"distinct_rating":7.28,"distinct_type":"Top","rt":null,"stimulus":"Stimuli_Rocks480/I_Peridotite_13.png","response":null,"trial_type":"image-keyboard-response","trial_index":122,"plugin_version":"2.1.0","time_elapsed":223141,"subject_id":"91155","group":"Group2","condition":"3_Rep","full_date":"2026-02-16T19:45:31.280Z","date":"2026-02-16","time":"19:45:31"},{"rt":null,"stimulus":"<p style=\"font-size: 50px; margin: 0; text-align: center;\">+</p>","response":null,"trial_type":"html-keyboard-response","trial_index":123,"plugin_version":"2.1.0","time_elapsed":224143,"subject_id":"91155","group":"Group2","condition":"3_Rep","full_date":"2026-02-16T19:45:31.280Z","date":"2026-02-16","time":"19:45:31"},{"task":"memory_phase","broad_category":"S","image_png":"S_Sandstone_04.png","image_id":452,"category_name":"Sandstone","category":29,"distinct_rating":1.8,"distinct_type":"Bottom","rt":null,"stimulus":"Stimuli_Rocks480/S_Sandstone_04.png","response":null,"trial_type":"image-keyboard-response","trial_index":124,"plugin_version":"2.1.0","time_elapsed":226645,"subject_id":"91155","group":"Group2","condition":"3_Rep","full_date":"2026-02-16T19:45:31.280Z","date":"2026-02-16","time":"19:45:31"},{"rt":null,"stimulus":"<p style=\"font-size: 50px; margin: 0; text-align: center;\">+</p>","response":null,"trial_type":"html-keyboard-response","trial_index":125,"plugin_version":"2.1.0","time_elapsed":227648,"subject_id":"91155","group":"Group2","condition":"3_Rep","full_date":"2026-02-16T19:45:31.280Z","date":"2026-02-16","time":"19:45:31"},{"task":"memory_phase","broad_category":"S","image_png":"S_Dolomite_16.png","image_id":400,"category_name":"Dolomite","category":25,"distinct_rating":1.71,"distinct_type":"Bottom","rt":null,"stimulus":"Stimuli_Rocks480/S_Dolomite_16.png","response":null,"trial_type":"image-keyboard-response","trial_index":126,"plugin_version":"2.1.0","time_elapsed":230151,"subject_id":"91155","group":"Group2","condition":"3_Rep","full_date":"2026-02-16T19:45:31.280Z","date":"2026-02-16","time":"19:45:31"},{"rt":null,"stimulus":"<p style=\"font-size: 50px; margin: 0; text-align: center;\">+</p>","response":null,"trial_type":"html-keyboard-response","trial_index":127,"plugin_version":"2.1.0","time_elapsed":231153,"subject_id":"91155","group":"Group2","condition":"3_Rep","full_date":"2026-02-16T19:45:31.280Z","date":"2026-02-16","time":"19:45:31"},{"task":"memory_phase","broad_category":"S","image_png":"S_Shale_03.png","image_id":467,"category_name":"Shale","category":30,"distinct_rating":1.95,"distinct_type":"Bottom","rt":null,"stimulus":"Stimuli_Rocks480/S_Shale_03.png","response":null,"trial_type":"image-keyboard-response","trial_index":128,"plugin_version":"2.1.0","time_elapsed":233656,"subject_id":"91155","group":"Group2","condition":"3_Rep","full_date":"2026-02-16T19:45:31.280Z","date":"2026-02-16","time":"19:45:31"},{"rt":null,"stimulus":"<p style=\"font-size: 50px; margin: 0; text-align: center;\">+</p>","response":null,"trial_type":"html-keyboard-response","trial_index":129,"plugin_version":"2.1.0","time_elapsed":234659,"subject_id":"91155","group":"Group2","condition":"3_Rep","full_date":"2026-02-16T19:45:31.280Z","date":"2026-02-16","time":"19:45:31"},{"task":"memory_phase","broad_category":"M","image_png":"M_Slate_04.png","image_id":308,"category_name":"Slate","category":20,"distinct_rating":2.2,"distinct_type":"Bottom","rt":null,"stimulus":"Stimuli_Rocks480/M_Slate_04.png","response":null,"trial_type":"image-keyboard-response","trial_index":130,"plugin_version":"2.1.0","time_elapsed":237161,"subject_id":"91155","group":"Group2","condition":"3_Rep","full_date":"2026-02-16T19:45:31.280Z","date":"2026-02-16","time":"19:45:31"},{"rt":null,"stimulus":"<p style=\"font-size: 50px; margin: 0; text-align: center;\">+</p>","response":null,"trial_type":"html-keyboard-response","trial_index":131,"plugin_version":"2.1.0","time_elapsed":238164,"subject_id":"91155","group":"Group2","condition":"3_Rep","full_date":"2026-02-16T19:45:31.280Z","date":"2026-02-16","time":"19:45:31"},{"task":"memory_phase","broad_category":"I","image_png":"I_Obsidian_06.png","image_id":86,"category_name":"Obsidian","category":6,"distinct_rating":8.01,"distinct_type":"Top","rt":null,"stimulus":"Stimuli_Rocks480/I_Obsidian_06.png","response":null,"trial_type":"image-keyboard-response","trial_index":132,"plugin_version":"2.1.0","time_elapsed":240667,"subject_id":"91155","group":"Group2","condition":"3_Rep","full_date":"2026-02-16T19:45:31.280Z","date":"2026-02-16","time":"19:45:31"},{"rt":null,"stimulus":"<p style=\"font-size: 50px; margin: 0; text-align: center;\">+</p>","response":null,"trial_type":"html-keyboard-response","trial_index":133,"plugin_version":"2.1.0","time_elapsed":241670,"subject_id":"91155","group":"Group2","condition":"3_Rep","full_date":"2026-02-16T19:45:31.280Z","date":"2026-02-16","time":"19:45:31"},{"task":"memory_phase","broad_category":"S","image_png":"S_Chert_13.png","image_id":365,"category_name":"Chert","category":23,"distinct_rating":6.57,"distinct_type":"Top","rt":null,"stimulus":"Stimuli_Rocks480/S_Chert_13.png","response":null,"trial_type":"image-keyboard-response","trial_index":134,"plugin_version":"2.1.0","time_elapsed":244174,"subject_id":"91155","group":"Group2","condition":"3_Rep","full_date":"2026-02-16T19:45:31.280Z","date":"2026-02-16","time":"19:45:31"},{"rt":null,"stimulus":"<p style=\"font-size: 50px; margin: 0; text-align: center;\">+</p>","response":null,"trial_type":"html-keyboard-response","trial_index":135,"plugin_version":"2.1.0","time_elapsed":245176,"subject_id":"91155","group":"Group2","condition":"3_Rep","full_date":"2026-02-16T19:45:31.280Z","date":"2026-02-16","time":"19:45:31"},{"task":"memory_phase","broad_category":"S","image_png":"S_Shale_07.png","image_id":471,"category_name":"Shale","category":30,"distinct_rating":2.73,"distinct_type":"Bottom","rt":null,"stimulus":"Stimuli_Rocks480/S_Shale_07.png","response":null,"trial_type":"image-keyboard-response","trial_index":136,"plugin_version":"2.1.0","time_elapsed":247680,"subject_id":"91155","group":"Group2","condition":"3_Rep","full_date":"2026-02-16T19:45:31.280Z","date":"2026-02-16","time":"19:45:31"},{"rt":null,"stimulus":"<p style=\"font-size: 50px; margin: 0; text-align: center;\">+</p>","response":null,"trial_type":"html-keyboard-response","trial_index":137,"plugin_version":"2.1.0","time_elapsed":248683,"subject_id":"91155","group":"Group2","condition":"3_Rep","full_date":"2026-02-16T19:45:31.280Z","date":"2026-02-16","time":"19:45:31"},{"task":"memory_phase","broad_category":"S","image_png":"S_Shale_02.png","image_id":466,"category_name":"Shale","category":30,"distinct_rating":2.9,"distinct_type":"Bottom","rt":null,"stimulus":"Stimuli_Rocks480/S_Shale_02.png","response":null,"trial_type":"image-keyboard-response","trial_index":138,"plugin_version":"2.1.0","time_elapsed":251186,"subject_id":"91155","group":"Group2","condition":"3_Rep","full_date":"2026-02-16T19:45:31.280Z","date":"2026-02-16","time":"19:45:31"},{"rt":null,"stimulus":"<p style=\"font-size: 50px; margin: 0; text-align: center;\">+</p>","response":null,"trial_type":"html-keyboard-response","trial_index":139,"plugin_version":"2.1.0","time_elapsed":252188,"subject_id":"91155","group":"Group2","condition":"3_Rep","full_date":"2026-02-16T19:45:31.280Z","date":"2026-02-16","time":"19:45:31"},{"task":"memory_phase","broad_category":"M","image_png":"M_Quartzite_15.png","image_id":287,"category_name":"Quartzite","category":18,"distinct_rating":2.19,"distinct_type":"Bottom","rt":null,"stimulus":"Stimuli_Rocks480/M_Quartzite_15.png","response":null,"trial_type":"image-keyboard-response","trial_index":140,"plugin_version":"2.1.0","time_elapsed":254692,"subject_id":"91155","group":"Group2","condition":"3_Rep","full_date":"2026-02-16T19:45:31.280Z","date":"2026-02-16","time":"19:45:31"},{"rt":null,"stimulus":"<p style=\"font-size: 50px; margin: 0; text-align: center;\">+</p>","response":null,"trial_type":"html-keyboard-response","trial_index":141,"plugin_version":"2.1.0","time_elapsed":255695,"subject_id":"91155","group":"Group2","condition":"3_Rep","full_date":"2026-02-16T19:45:31.280Z","date":"2026-02-16","time":"19:45:31"},{"task":"memory_phase","broad_category":"I","image_png":"I_Andesite_03.png","image_id":3,"category_name":"Andesite","category":1,"distinct_rating":3.17,"distinct_type":"Bottom","rt":null,"stimulus":"Stimuli_Rocks480/I_Andesite_03.png","response":null,"trial_type":"image-keyboard-response","trial_index":142,"plugin_version":"2.1.0","time_elapsed":258198,"subject_id":"91155","group":"Group2","condition":"3_Rep","full_date":"2026-02-16T19:45:31.280Z","date":"2026-02-16","time":"19:45:31"},{"rt":null,"stimulus":"<p style=\"font-size: 50px; margin: 0; text-align: center;\">+</p>","response":null,"trial_type":"html-keyboard-response","trial_index":143,"plugin_version":"2.1.0","time_elapsed":259200,"subject_id":"91155","group":"Group2","condition":"3_Rep","full_date":"2026-02-16T19:45:31.280Z","date":"2026-02-16","time":"19:45:31"},{"task":"memory_phase","broad_category":"I","image_png":"I_Basalt_13.png","image_id":29,"category_name":"Basalt","category":2,"distinct_rating":2.68,"distinct_type":"Bottom","rt":null,"stimulus":"Stimuli_Rocks480/I_Basalt_13.png","response":null,"trial_type":"image-keyboard-response","trial_index":144,"plugin_version":"2.1.0","time_elapsed":261704,"subject_id":"91155","group":"Group2","condition":"3_Rep","full_date":"2026-02-16T19:45:31.280Z","date":"2026-02-16","time":"19:45:31"},{"rt":null,"stimulus":"<p style=\"font-size: 50px; margin: 0; text-align: center;\">+</p>","response":null,"trial_type":"html-keyboard-response","trial_index":145,"plugin_version":"2.1.0","time_elapsed":262707,"subject_id":"91155","group":"Group2","condition":"3_Rep","full_date":"2026-02-16T19:45:31.280Z","date":"2026-02-16","time":"19:45:31"},{"task":"memory_phase","broad_category":"M","image_png":"M_Quartzite_12.png","image_id":284,"category_name":"Quartzite","category":18,"distinct_rating":1.92,"distinct_type":"Bottom","rt":null,"stimulus":"Stimuli_Rocks480/M_Quartzite_12.png","response":null,"trial_type":"image-keyboard-response","trial_index":146,"plugin_version":"2.1.0","time_elapsed":265210,"subject_id":"91155","group":"Group2","condition":"3_Rep","full_date":"2026-02-16T19:45:31.280Z","date":"2026-02-16","time":"19:45:31"},{"rt":null,"stimulus":"<p style=\"font-size: 50px; margin: 0; text-align: center;\">+</p>","response":null,"trial_type":"html-keyboard-response","trial_index":147,"plugin_version":"2.1.0","time_elapsed":266212,"subject_id":"91155","group":"Group2","condition":"3_Rep","full_date":"2026-02-16T19:45:31.280Z","date":"2026-02-16","time":"19:45:31"},{"task":"memory_phase","broad_category":"S","image_png":"S_Rock Salt_15.png","image_id":447,"category_name":"Rock Salt","category":28,"distinct_rating":7.79,"distinct_type":"Top","rt":null,"stimulus":"Stimuli_Rocks480/S_Rock Salt_15.png","response":null,"trial_type":"image-keyboard-response","trial_index":148,"plugin_version":"2.1.0","time_elapsed":268715,"subject_id":"91155","group":"Group2","condition":"3_Rep","full_date":"2026-02-16T19:45:31.280Z","date":"2026-02-16","time":"19:45:31"},{"rt":null,"stimulus":"<p style=\"font-size: 50px; margin: 0; text-align: center;\">+</p>","response":null,"trial_type":"html-keyboard-response","trial_index":149,"plugin_version":"2.1.0","time_elapsed":269718,"subject_id":"91155","group":"Group2","condition":"3_Rep","full_date":"2026-02-16T19:45:31.280Z","date":"2026-02-16","time":"19:45:31"},{"task":"memory_phase","broad_category":"I","image_png":"I_Andesite_04.png","image_id":4,"category_name":"Andesite","category":1,"distinct_rating":3.18,"distinct_type":"Bottom","rt":null,"stimulus":"Stimuli_Rocks480/I_Andesite_04.png","response":null,"trial_type":"image-keyboard-response","trial_index":150,"plugin_version":"2.1.0","time_elapsed":272221,"subject_id":"91155","group":"Group2","condition":"3_Rep","full_date":"2026-02-16T19:45:31.280Z","date":"2026-02-16","time":"19:45:31"},{"rt":null,"stimulus":"<p style=\"font-size: 50px; margin: 0; text-align: center;\">+</p>","response":null,"trial_type":"html-keyboard-response","trial_index":151,"plugin_version":"2.1.0","time_elapsed":273224,"subject_id":"91155","group":"Group2","condition":"3_Rep","full_date":"2026-02-16T19:45:31.280Z","date":"2026-02-16","time":"19:45:31"},{"task":"memory_phase","broad_category":"M","image_png":"M_Marble_14.png","image_id":238,"category_name":"Marble","category":15,"distinct_rating":3.31,"distinct_type":"Bottom","rt":null,"stimulus":"Stimuli_Rocks480/M_Marble_14.png","response":null,"trial_type":"image-keyboard-response","trial_index":152,"plugin_version":"2.1.0","time_elapsed":275727,"subject_id":"91155","group":"Group2","condition":"3_Rep","full_date":"2026-02-16T19:45:31.280Z","date":"2026-02-16","time":"19:45:31"},{"rt":null,"stimulus":"<p style=\"font-size: 50px; margin: 0; text-align: center;\">+</p>","response":null,"trial_type":"html-keyboard-response","trial_index":153,"plugin_version":"2.1.0","time_elapsed":276729,"subject_id":"91155","group":"Group2","condition":"3_Rep","full_date":"2026-02-16T19:45:31.280Z","date":"2026-02-16","time":"19:45:31"},{"task":"memory_phase","broad_category":"M","image_png":"M_Phyllite_02.png","image_id":258,"category_name":"Phyllite","category":17,"distinct_rating":2.89,"distinct_type":"Bottom","rt":null,"stimulus":"Stimuli_Rocks480/M_Phyllite_02.png","response":null,"trial_type":"image-keyboard-response","trial_index":154,"plugin_version":"2.1.0","time_elapsed":279232,"subject_id":"91155","group":"Group2","condition":"3_Rep","full_date":"2026-02-16T19:45:31.280Z","date":"2026-02-16","time":"19:45:31"},{"rt":null,"stimulus":"<p style=\"font-size: 50px; margin: 0; text-align: center;\">+</p>","response":null,"trial_type":"html-keyboard-response","trial_index":155,"plugin_version":"2.1.0","time_elapsed":280235,"subject_id":"91155","group":"Group2","condition":"3_Rep","full_date":"2026-02-16T19:45:31.280Z","date":"2026-02-16","time":"19:45:31"},{"task":"memory_phase","broad_category":"I","image_png":"I_Gabbro_14.png","image_id":62,"category_name":"Gabbro","category":4,"distinct_rating":2.95,"distinct_type":"Bottom","rt":null,"stimulus":"Stimuli_Rocks480/I_Gabbro_14.png","response":null,"trial_type":"image-keyboard-response","trial_index":156,"plugin_version":"2.1.0","time_elapsed":282739,"subject_id":"91155","group":"Group2","condition":"3_Rep","full_date":"2026-02-16T19:45:31.280Z","date":"2026-02-16","time":"19:45:31"},{"rt":2270,"stimulus":"<p style=\"max-width: 760px; margin: auto; font-size: 35px; line-height: 1.5;\">\n                Press SPACE to continue study phase\n              </p>","response":" ","trial_type":"html-keyboard-response","trial_index":157,"plugin_version":"2.1.0","time_elapsed":285009,"subject_id":"91155","group":"Group2","condition":"3_Rep","full_date":"2026-02-16T19:45:31.280Z","date":"2026-02-16","time":"19:45:31"},{"rt":null,"stimulus":"<p style=\"font-size: 50px; margin: 0; text-align: center;\">+</p>","response":null,"trial_type":"html-keyboard-response","trial_index":158,"plugin_version":"2.1.0","time_elapsed":286011,"subject_id":"91155","group":"Group2","condition":"3_Rep","full_date":"2026-02-16T19:45:31.280Z","date":"2026-02-16","time":"19:45:31"},{"task":"memory_phase","broad_category":"M","image_png":"M_Marble_02.png","image_id":226,"category_name":"Marble","category":15,"distinct_rating":3.2,"distinct_type":"Bottom","rt":null,"stimulus":"Stimuli_Rocks480/M_Marble_02.png","response":null,"trial_type":"image-keyboard-response","trial_index":159,"plugin_version":"2.1.0","time_elapsed":288515,"subject_id":"91155","group":"Group2","condition":"3_Rep","full_date":"2026-02-16T19:45:31.280Z","date":"2026-02-16","time":"19:45:31"},{"rt":null,"stimulus":"<p style=\"font-size: 50px; margin: 0; text-align: center;\">+</p>","response":null,"trial_type":"html-keyboard-response","trial_index":160,"plugin_version":"2.1.0","time_elapsed":289517,"subject_id":"91155","group":"Group2","condition":"3_Rep","full_date":"2026-02-16T19:45:31.280Z","date":"2026-02-16","time":"19:45:31"},{"task":"memory_phase","broad_category":"I","image_png":"I_Pumice_13.png","image_id":141,"category_name":"Pumice","category":9,"distinct_rating":3.12,"distinct_type":"Bottom","rt":null,"stimulus":"Stimuli_Rocks480/I_Pumice_13.png","response":null,"trial_type":"image-keyboard-response","trial_index":161,"plugin_version":"2.1.0","time_elapsed":292021,"subject_id":"91155","group":"Group2","condition":"3_Rep","full_date":"2026-02-16T19:45:31.280Z","date":"2026-02-16","time":"19:45:31"},{"rt":null,"stimulus":"<p style=\"font-size: 50px; margin: 0; text-align: center;\">+</p>","response":null,"trial_type":"html-keyboard-response","trial_index":162,"plugin_version":"2.1.0","time_elapsed":293023,"subject_id":"91155","group":"Group2","condition":"3_Rep","full_date":"2026-02-16T19:45:31.280Z","date":"2026-02-16","time":"19:45:31"},{"task":"memory_phase","broad_category":"I","image_png":"I_Andesite_09.png","image_id":9,"category_name":"Andesite","category":1,"distinct_rating":2.49,"distinct_type":"Bottom","rt":null,"stimulus":"Stimuli_Rocks480/I_Andesite_09.png","response":null,"trial_type":"image-keyboard-response","trial_index":163,"plugin_version":"2.1.0","time_elapsed":295526,"subject_id":"91155","group":"Group2","condition":"3_Rep","full_date":"2026-02-16T19:45:31.280Z","date":"2026-02-16","time":"19:45:31"},{"rt":null,"stimulus":"<p style=\"font-size: 50px; margin: 0; text-align: center;\">+</p>","response":null,"trial_type":"html-keyboard-response","trial_index":164,"plugin_version":"2.1.0","time_elapsed":296529,"subject_id":"91155","group":"Group2","condition":"3_Rep","full_date":"2026-02-16T19:45:31.280Z","date":"2026-02-16","time":"19:45:31"},{"task":"memory_phase","broad_category":"I","image_png":"I_Rhyolite_08.png","image_id":152,"category_name":"Rhyolite","category":10,"distinct_rating":1.38,"distinct_type":"Bottom","rt":null,"stimulus":"Stimuli_Rocks480/I_Rhyolite_08.png","response":null,"trial_type":"image-keyboard-response","trial_index":165,"plugin_version":"2.1.0","time_elapsed":299033,"subject_id":"91155","group":"Group2","condition":"3_Rep","full_date":"2026-02-16T19:45:31.280Z","date":"2026-02-16","time":"19:45:31"},{"rt":null,"stimulus":"<p style=\"font-size: 50px; margin: 0; text-align: center;\">+</p>","response":null,"trial_type":"html-keyboard-response","trial_index":166,"plugin_version":"2.1.0","time_elapsed":300035,"subject_id":"91155","group":"Group2","condition":"3_Rep","full_date":"2026-02-16T19:45:31.280Z","date":"2026-02-16","time":"19:45:31"},{"task":"memory_phase","broad_category":"I","image_png":"I_Diorite_15.png","image_id":47,"category_name":"Diorite","category":3,"distinct_rating":3.05,"distinct_type":"Bottom","rt":null,"stimulus":"Stimuli_Rocks480/I_Diorite_15.png","response":null,"trial_type":"image-keyboard-response","trial_index":167,"plugin_version":"2.1.0","time_elapsed":302539,"subject_id":"91155","group":"Group2","condition":"3_Rep","full_date":"2026-02-16T19:45:31.280Z","date":"2026-02-16","time":"19:45:31"},{"rt":null,"stimulus":"<p style=\"font-size: 50px; margin: 0; text-align: center;\">+</p>","response":null,"trial_type":"html-keyboard-response","trial_index":168,"plugin_version":"2.1.0","time_elapsed":303541,"subject_id":"91155","group":"Group2","condition":"3_Rep","full_date":"2026-02-16T19:45:31.280Z","date":"2026-02-16","time":"19:45:31"},{"task":"memory_phase","broad_category":"M","image_png":"M_Slate_14.png","image_id":318,"category_name":"Slate","category":20,"distinct_rating":2.58,"distinct_type":"Bottom","rt":null,"stimulus":"Stimuli_Rocks480/M_Slate_14.png","response":null,"trial_type":"image-keyboard-response","trial_index":169,"plugin_version":"2.1.0","time_elapsed":306044,"subject_id":"91155","group":"Group2","condition":"3_Rep","full_date":"2026-02-16T19:45:31.280Z","date":"2026-02-16","time":"19:45:31"},{"rt":null,"stimulus":"<p style=\"font-size: 50px; margin: 0; text-align: center;\">+</p>","response":null,"trial_type":"html-keyboard-response","trial_index":170,"plugin_version":"2.1.0","time_elapsed":307046,"subject_id":"91155","group":"Group2","condition":"3_Rep","full_date":"2026-02-16T19:45:31.280Z","date":"2026-02-16","time":"19:45:31"},{"task":"memory_phase","broad_category":"I","image_png":"I_Gabbro_02.png","image_id":50,"category_name":"Gabbro","category":4,"distinct_rating":2.73,"distinct_type":"Bottom","rt":null,"stimulus":"Stimuli_Rocks480/I_Gabbro_02.png","response":null,"trial_type":"image-keyboard-response","trial_index":171,"plugin_version":"2.1.0","time_elapsed":309550,"subject_id":"91155","group":"Group2","condition":"3_Rep","full_date":"2026-02-16T19:45:31.280Z","date":"2026-02-16","time":"19:45:31"},{"rt":null,"stimulus":"<p style=\"font-size: 50px; margin: 0; text-align: center;\">+</p>","response":null,"trial_type":"html-keyboard-response","trial_index":172,"plugin_version":"2.1.0","time_elapsed":310553,"subject_id":"91155","group":"Group2","condition":"3_Rep","full_date":"2026-02-16T19:45:31.280Z","date":"2026-02-16","time":"19:45:31"},{"task":"memory_phase","broad_category":"I","image_png":"I_Gabbro_12.png","image_id":60,"category_name":"Gabbro","category":4,"distinct_rating":2.6,"distinct_type":"Bottom","rt":null,"stimulus":"Stimuli_Rocks480/I_Gabbro_12.png","response":null,"trial_type":"image-keyboard-response","trial_index":173,"plugin_version":"2.1.0","time_elapsed":313055,"subject_id":"91155","group":"Group2","condition":"3_Rep","full_date":"2026-02-16T19:45:31.280Z","date":"2026-02-16","time":"19:45:31"},{"rt":null,"stimulus":"<p style=\"font-size: 50px; margin: 0; text-align: center;\">+</p>","response":null,"trial_type":"html-keyboard-response","trial_index":174,"plugin_version":"2.1.0","time_elapsed":314058,"subject_id":"91155","group":"Group2","condition":"3_Rep","full_date":"2026-02-16T19:45:31.280Z","date":"2026-02-16","time":"19:45:31"},{"task":"memory_phase","broad_category":"S","image_png":"S_Conglomerate_14.png","image_id":382,"category_name":"Conglomerate","category":24,"distinct_rating":6.86,"distinct_type":"Top","rt":null,"stimulus":"Stimuli_Rocks480/S_Conglomerate_14.png","response":null,"trial_type":"image-keyboard-response","trial_index":175,"plugin_version":"2.1.0","time_elapsed":316561,"subject_id":"91155","group":"Group2","condition":"3_Rep","full_date":"2026-02-16T19:45:31.280Z","date":"2026-02-16","time":"19:45:31"},{"rt":null,"stimulus":"<p style=\"font-size: 50px; margin: 0; text-align: center;\">+</p>","response":null,"trial_type":"html-keyboard-response","trial_index":176,"plugin_version":"2.1.0","time_elapsed":317564,"subject_id":"91155","group":"Group2","condition":"3_Rep","full_date":"2026-02-16T19:45:31.280Z","date":"2026-02-16","time":"19:45:31"},{"task":"memory_phase","broad_category":"M","image_png":"M_Phyllite_05.png","image_id":261,"category_name":"Phyllite","category":17,"distinct_rating":2.14,"distinct_type":"Bottom","rt":null,"stimulus":"Stimuli_Rocks480/M_Phyllite_05.png","response":null,"trial_type":"image-keyboard-response","trial_index":177,"plugin_version":"2.1.0","time_elapsed":320068,"subject_id":"91155","group":"Group2","condition":"3_Rep","full_date":"2026-02-16T19:45:31.280Z","date":"2026-02-16","time":"19:45:31"},{"rt":null,"stimulus":"<p style=\"font-size: 50px; margin: 0; text-align: center;\">+</p>","response":null,"trial_type":"html-keyboard-response","trial_index":178,"plugin_version":"2.1.0","time_elapsed":321070,"subject_id":"91155","group":"Group2","condition":"3_Rep","full_date":"2026-02-16T19:45:31.280Z","date":"2026-02-16","time":"19:45:31"},{"task":"memory_phase","broad_category":"I","image_png":"I_Diorite_01.png","image_id":33,"category_name":"Diorite","category":3,"distinct_rating":2.97,"distinct_type":"Bottom","rt":null,"stimulus":"Stimuli_Rocks480/I_Diorite_01.png","response":null,"trial_type":"image-keyboard-response","trial_index":179,"plugin_version":"2.1.0","time_elapsed":323574,"subject_id":"91155","group":"Group2","condition":"3_Rep","full_date":"2026-02-16T19:45:31.280Z","date":"2026-02-16","time":"19:45:31"},{"rt":null,"stimulus":"<p style=\"font-size: 50px; margin: 0; text-align: center;\">+</p>","response":null,"trial_type":"html-keyboard-response","trial_index":180,"plugin_version":"2.1.0","time_elapsed":324576,"subject_id":"91155","group":"Group2","condition":"3_Rep","full_date":"2026-02-16T19:45:31.280Z","date":"2026-02-16","time":"19:45:31"},{"task":"memory_phase","broad_category":"S","image_png":"S_Dolomite_07.png","image_id":391,"category_name":"Dolomite","category":25,"distinct_rating":1.73,"distinct_type":"Bottom","rt":null,"stimulus":"Stimuli_Rocks480/S_Dolomite_07.png","response":null,"trial_type":"image-keyboard-response","trial_index":181,"plugin_version":"2.1.0","time_elapsed":327080,"subject_id":"91155","group":"Group2","condition":"3_Rep","full_date":"2026-02-16T19:45:31.280Z","date":"2026-02-16","time":"19:45:31"},{"rt":null,"stimulus":"<p style=\"font-size: 50px; margin: 0; text-align: center;\">+</p>","response":null,"trial_type":"html-keyboard-response","trial_index":182,"plugin_version":"2.1.0","time_elapsed":328082,"subject_id":"91155","group":"Group2","condition":"3_Rep","full_date":"2026-02-16T19:45:31.280Z","date":"2026-02-16","time":"19:45:31"},{"task":"memory_phase","broad_category":"I","image_png":"I_Basalt_10.png","image_id":26,"category_name":"Basalt","category":2,"distinct_rating":2.76,"distinct_type":"Bottom","rt":null,"stimulus":"Stimuli_Rocks480/I_Basalt_10.png","response":null,"trial_type":"image-keyboard-response","trial_index":183,"plugin_version":"2.1.0","time_elapsed":330585,"subject_id":"91155","group":"Group2","condition":"3_Rep","full_date":"2026-02-16T19:45:31.280Z","date":"2026-02-16","time":"19:45:31"},{"rt":null,"stimulus":"<p style=\"font-size: 50px; margin: 0; text-align: center;\">+</p>","response":null,"trial_type":"html-keyboard-response","trial_index":184,"plugin_version":"2.1.0","time_elapsed":331587,"subject_id":"91155","group":"Group2","condition":"3_Rep","full_date":"2026-02-16T19:45:31.280Z","date":"2026-02-16","time":"19:45:31"},{"task":"memory_phase","broad_category":"I","image_png":"I_Pegmatite_03.png","image_id":99,"category_name":"Pegmatite","category":7,"distinct_rating":7.24,"distinct_type":"Top","rt":null,"stimulus":"Stimuli_Rocks480/I_Pegmatite_03.png","response":null,"trial_type":"image-keyboard-response","trial_index":185,"plugin_version":"2.1.0","time_elapsed":334090,"subject_id":"91155","group":"Group2","condition":"3_Rep","full_date":"2026-02-16T19:45:31.280Z","date":"2026-02-16","time":"19:45:31"},{"rt":null,"stimulus":"<p style=\"font-size: 50px; margin: 0; text-align: center;\">+</p>","response":null,"trial_type":"html-keyboard-response","trial_index":186,"plugin_version":"2.1.0","time_elapsed":335093,"subject_id":"91155","group":"Group2","condition":"3_Rep","full_date":"2026-02-16T19:45:31.280Z","date":"2026-02-16","time":"19:45:31"},{"task":"memory_phase","broad_category":"S","image_png":"S_Dolomite_01.png","image_id":385,"category_name":"Dolomite","category":25,"distinct_rating":1.43,"distinct_type":"Bottom","rt":null,"stimulus":"Stimuli_Rocks480/S_Dolomite_01.png","response":null,"trial_type":"image-keyboard-response","trial_index":187,"plugin_version":"2.1.0","time_elapsed":337596,"subject_id":"91155","group":"Group2","condition":"3_Rep","full_date":"2026-02-16T19:45:31.280Z","date":"2026-02-16","time":"19:45:31"},{"rt":null,"stimulus":"<p style=\"font-size: 50px; margin: 0; text-align: center;\">+</p>","response":null,"trial_type":"html-keyboard-response","trial_index":188,"plugin_version":"2.1.0","time_elapsed":338598,"subject_id":"91155","group":"Group2","condition":"3_Rep","full_date":"2026-02-16T19:45:31.280Z","date":"2026-02-16","time":"19:45:31"},{"task":"memory_phase","broad_category":"I","image_png":"I_Rhyolite_10.png","image_id":154,"category_name":"Rhyolite","category":10,"distinct_rating":2.88,"distinct_type":"Bottom","rt":null,"stimulus":"Stimuli_Rocks480/I_Rhyolite_10.png","response":null,"trial_type":"image-keyboard-response","trial_index":189,"plugin_version":"2.1.0","time_elapsed":341102,"subject_id":"91155","group":"Group2","condition":"3_Rep","full_date":"2026-02-16T19:45:31.280Z","date":"2026-02-16","time":"19:45:31"},{"rt":null,"stimulus":"<p style=\"font-size: 50px; margin: 0; text-align: center;\">+</p>","response":null,"trial_type":"html-keyboard-response","trial_index":190,"plugin_version":"2.1.0","time_elapsed":342104,"subject_id":"91155","group":"Group2","condition":"3_Rep","full_date":"2026-02-16T19:45:31.280Z","date":"2026-02-16","time":"19:45:31"},{"task":"memory_phase","broad_category":"M","image_png":"M_Marble_03.png","image_id":227,"category_name":"Marble","category":15,"distinct_rating":2.67,"distinct_type":"Bottom","rt":null,"stimulus":"Stimuli_Rocks480/M_Marble_03.png","response":null,"trial_type":"image-keyboard-response","trial_index":191,"plugin_version":"2.1.0","time_elapsed":344607,"subject_id":"91155","group":"Group2","condition":"3_Rep","full_date":"2026-02-16T19:45:31.280Z","date":"2026-02-16","time":"19:45:31"},{"rt":null,"stimulus":"<p style=\"font-size: 50px; margin: 0; text-align: center;\">+</p>","response":null,"trial_type":"html-keyboard-response","trial_index":192,"plugin_version":"2.1.0","time_elapsed":345609,"subject_id":"91155","group":"Group2","condition":"3_Rep","full_date":"2026-02-16T19:45:31.280Z","date":"2026-02-16","time":"19:45:31"},{"task":"memory_phase","broad_category":"S","image_png":"S_Sandstone_08.png","image_id":456,"category_name":"Sandstone","category":29,"distinct_rating":1.5,"distinct_type":"Bottom","rt":null,"stimulus":"Stimuli_Rocks480/S_Sandstone_08.png","response":null,"trial_type":"image-keyboard-response","trial_index":193,"plugin_version":"2.1.0","time_elapsed":348112,"subject_id":"91155","group":"Group2","condition":"3_Rep","full_date":"2026-02-16T19:45:31.280Z","date":"2026-02-16","time":"19:45:31"},{"rt":null,"stimulus":"<p style=\"font-size: 50px; margin: 0; text-align: center;\">+</p>","response":null,"trial_type":"html-keyboard-response","trial_index":194,"plugin_version":"2.1.0","time_elapsed":349115,"subject_id":"91155","group":"Group2","condition":"3_Rep","full_date":"2026-02-16T19:45:31.280Z","date":"2026-02-16","time":"19:45:31"},{"task":"memory_phase","broad_category":"I","image_png":"I_Rhyolite_05.png","image_id":149,"category_name":"Rhyolite","category":10,"distinct_rating":3.02,"distinct_type":"Bottom","rt":null,"stimulus":"Stimuli_Rocks480/I_Rhyolite_05.png","response":null,"trial_type":"image-keyboard-response","trial_index":195,"plugin_version":"2.1.0","time_elapsed":351618,"subject_id":"91155","group":"Group2","condition":"3_Rep","full_date":"2026-02-16T19:45:31.280Z","date":"2026-02-16","time":"19:45:31"},{"rt":null,"stimulus":"<p style=\"font-size: 50px; margin: 0; text-align: center;\">+</p>","response":null,"trial_type":"html-keyboard-response","trial_index":196,"plugin_version":"2.1.0","time_elapsed":352621,"subject_id":"91155","group":"Group2","condition":"3_Rep","full_date":"2026-02-16T19:45:31.280Z","date":"2026-02-16","time":"19:45:31"},{"task":"memory_phase","broad_category":"I","image_png":"I_Basalt_08.png","image_id":24,"category_name":"Basalt","category":2,"distinct_rating":2.31,"distinct_type":"Bottom","rt":null,"stimulus":"Stimuli_Rocks480/I_Basalt_08.png","response":null,"trial_type":"image-keyboard-response","trial_index":197,"plugin_version":"2.1.0","time_elapsed":355125,"subject_id":"91155","group":"Group2","condition":"3_Rep","full_date":"2026-02-16T19:45:31.280Z","date":"2026-02-16","time":"19:45:31"},{"rt":null,"stimulus":"<p style=\"font-size: 50px; margin: 0; text-align: center;\">+</p>","response":null,"trial_type":"html-keyboard-response","trial_index":198,"plugin_version":"2.1.0","time_elapsed":356127,"subject_id":"91155","group":"Group2","condition":"3_Rep","full_date":"2026-02-16T19:45:31.280Z","date":"2026-02-16","time":"19:45:31"},{"task":"memory_phase","broad_category":"M","image_png":"M_Gneiss_15.png","image_id":207,"category_name":"Gneiss","category":13,"distinct_rating":3.11,"distinct_type":"Bottom","rt":null,"stimulus":"Stimuli_Rocks480/M_Gneiss_15.png","response":null,"trial_type":"image-keyboard-response","trial_index":199,"plugin_version":"2.1.0","time_elapsed":358630,"subject_id":"91155","group":"Group2","condition":"3_Rep","full_date":"2026-02-16T19:45:31.280Z","date":"2026-02-16","time":"19:45:31"},{"rt":null,"stimulus":"<p style=\"font-size: 50px; margin: 0; text-align: center;\">+</p>","response":null,"trial_type":"html-keyboard-response","trial_index":200,"plugin_version":"2.1.0","time_elapsed":359632,"subject_id":"91155","group":"Group2","condition":"3_Rep","full_date":"2026-02-16T19:45:31.280Z","date":"2026-02-16","time":"19:45:31"},{"task":"memory_phase","broad_category":"I","image_png":"I_Pumice_01.png","image_id":129,"category_name":"Pumice","category":9,"distinct_rating":3.25,"distinct_type":"Bottom","rt":null,"stimulus":"Stimuli_Rocks480/I_Pumice_01.png","response":null,"trial_type":"image-keyboard-response","trial_index":201,"plugin_version":"2.1.0","time_elapsed":362135,"subject_id":"91155","group":"Group2","condition":"3_Rep","full_date":"2026-02-16T19:45:31.280Z","date":"2026-02-16","time":"19:45:31"},{"rt":null,"stimulus":"<p style=\"font-size: 50px; margin: 0; text-align: center;\">+</p>","response":null,"trial_type":"html-keyboard-response","trial_index":202,"plugin_version":"2.1.0","time_elapsed":363137,"subject_id":"91155","group":"Group2","condition":"3_Rep","full_date":"2026-02-16T19:45:31.280Z","date":"2026-02-16","time":"19:45:31"},{"task":"memory_phase","broad_category":"I","image_png":"I_Diorite_10.png","image_id":42,"category_name":"Diorite","category":3,"distinct_rating":2.84,"distinct_type":"Bottom","rt":null,"stimulus":"Stimuli_Rocks480/I_Diorite_10.png","response":null,"trial_type":"image-keyboard-response","trial_index":203,"plugin_version":"2.1.0","time_elapsed":365640,"subject_id":"91155","group":"Group2","condition":"3_Rep","full_date":"2026-02-16T19:45:31.280Z","date":"2026-02-16","time":"19:45:31"},{"rt":null,"stimulus":"<p style=\"font-size: 50px; margin: 0; text-align: center;\">+</p>","response":null,"trial_type":"html-keyboard-response","trial_index":204,"plugin_version":"2.1.0","time_elapsed":366643,"subject_id":"91155","group":"Group2","condition":"3_Rep","full_date":"2026-02-16T19:45:31.280Z","date":"2026-02-16","time":"19:45:31"},{"task":"memory_phase","broad_category":"S","image_png":"S_Rock Salt_13.png","image_id":445,"category_name":"Rock Salt","category":28,"distinct_rating":7.58,"distinct_type":"Top","rt":null,"stimulus":"Stimuli_Rocks480/S_Rock Salt_13.png","response":null,"trial_type":"image-keyboard-response","trial_index":205,"plugin_version":"2.1.0","time_elapsed":369146,"subject_id":"91155","group":"Group2","condition":"3_Rep","full_date":"2026-02-16T19:45:31.280Z","date":"2026-02-16","time":"19:45:31"},{"rt":null,"stimulus":"<p style=\"font-size: 50px; margin: 0; text-align: center;\">+</p>","response":null,"trial_type":"html-keyboard-response","trial_index":206,"plugin_version":"2.1.0","time_elapsed":370148,"subject_id":"91155","group":"Group2","condition":"3_Rep","full_date":"2026-02-16T19:45:31.280Z","date":"2026-02-16","time":"19:45:31"},{"task":"memory_phase","broad_category":"I","image_png":"I_Pegmatite_11.png","image_id":107,"category_name":"Pegmatite","category":7,"distinct_rating":7.11,"distinct_type":"Top","rt":null,"stimulus":"Stimuli_Rocks480/I_Pegmatite_11.png","response":null,"trial_type":"image-keyboard-response","trial_index":207,"plugin_version":"2.1.0","time_elapsed":372651,"subject_id":"91155","group":"Group2","condition":"3_Rep","full_date":"2026-02-16T19:45:31.280Z","date":"2026-02-16","time":"19:45:31"},{"rt":2407,"stimulus":"<p style=\"max-width: 760px; margin: auto; font-size: 35px; line-height: 1.5;\">\n                You have completed 2 study phases. \n                Now, we'll show you all the images again 1 more time.\n                <br><br>Press SPACE to continue\n              </p>","response":" ","trial_type":"html-keyboard-response","trial_index":208,"plugin_version":"2.1.0","time_elapsed":375060,"subject_id":"91155","group":"Group2","condition":"3_Rep","full_date":"2026-02-16T19:45:31.280Z","date":"2026-02-16","time":"19:45:31"},{"rt":null,"stimulus":"<p style=\"font-size: 50px; margin: 0; text-align: center;\">+</p>","response":null,"trial_type":"html-keyboard-response","trial_index":209,"plugin_version":"2.1.0","time_elapsed":376062,"subject_id":"91155","group":"Group2","condition":"3_Rep","full_date":"2026-02-16T19:45:31.280Z","date":"2026-02-16","time":"19:45:31"},{"task":"memory_phase","broad_category":"M","image_png":"M_Gneiss_15.png","image_id":207,"category_name":"Gneiss","category":13,"distinct_rating":3.11,"distinct_type":"Bottom","rt":null,"stimulus":"Stimuli_Rocks480/M_Gneiss_15.png","response":null,"trial_type":"image-keyboard-response","trial_index":210,"plugin_version":"2.1.0","time_elapsed":378566,"subject_id":"91155","group":"Group2","condition":"3_Rep","full_date":"2026-02-16T19:45:31.280Z","date":"2026-02-16","time":"19:45:31"},{"rt":null,"stimulus":"<p style=\"font-size: 50px; margin: 0; text-align: center;\">+</p>","response":null,"trial_type":"html-keyboard-response","trial_index":211,"plugin_version":"2.1.0","time_elapsed":379568,"subject_id":"91155","group":"Group2","condition":"3_Rep","full_date":"2026-02-16T19:45:31.280Z","date":"2026-02-16","time":"19:45:31"},{"task":"memory_phase","broad_category":"I","image_png":"I_Basalt_10.png","image_id":26,"category_name":"Basalt","category":2,"distinct_rating":2.76,"distinct_type":"Bottom","rt":null,"stimulus":"Stimuli_Rocks480/I_Basalt_10.png","response":null,"trial_type":"image-keyboard-response","trial_index":212,"plugin_version":"2.1.0","time_elapsed":382072,"subject_id":"91155","group":"Group2","condition":"3_Rep","full_date":"2026-02-16T19:45:31.280Z","date":"2026-02-16","time":"19:45:31"},{"rt":null,"stimulus":"<p style=\"font-size: 50px; margin: 0; text-align: center;\">+</p>","response":null,"trial_type":"html-keyboard-response","trial_index":213,"plugin_version":"2.1.0","time_elapsed":383074,"subject_id":"91155","group":"Group2","condition":"3_Rep","full_date":"2026-02-16T19:45:31.280Z","date":"2026-02-16","time":"19:45:31"},{"task":"memory_phase","broad_category":"S","image_png":"S_Conglomerate_14.png","image_id":382,"category_name":"Conglomerate","category":24,"distinct_rating":6.86,"distinct_type":"Top","rt":null,"stimulus":"Stimuli_Rocks480/S_Conglomerate_14.png","response":null,"trial_type":"image-keyboard-response","trial_index":214,"plugin_version":"2.1.0","time_elapsed":385578,"subject_id":"91155","group":"Group2","condition":"3_Rep","full_date":"2026-02-16T19:45:31.280Z","date":"2026-02-16","time":"19:45:31"},{"rt":null,"stimulus":"<p style=\"font-size: 50px; margin: 0; text-align: center;\">+</p>","response":null,"trial_type":"html-keyboard-response","trial_index":215,"plugin_version":"2.1.0","time_elapsed":386580,"subject_id":"91155","group":"Group2","condition":"3_Rep","full_date":"2026-02-16T19:45:31.280Z","date":"2026-02-16","time":"19:45:31"},{"task":"memory_phase","broad_category":"S","image_png":"S_Sandstone_08.png","image_id":456,"category_name":"Sandstone","category":29,"distinct_rating":1.5,"distinct_type":"Bottom","rt":null,"stimulus":"Stimuli_Rocks480/S_Sandstone_08.png","response":null,"trial_type":"image-keyboard-response","trial_index":216,"plugin_version":"2.1.0","time_elapsed":389084,"subject_id":"91155","group":"Group2","condition":"3_Rep","full_date":"2026-02-16T19:45:31.280Z","date":"2026-02-16","time":"19:45:31"},{"rt":null,"stimulus":"<p style=\"font-size: 50px; margin: 0; text-align: center;\">+</p>","response":null,"trial_type":"html-keyboard-response","trial_index":217,"plugin_version":"2.1.0","time_elapsed":390085,"subject_id":"91155","group":"Group2","condition":"3_Rep","full_date":"2026-02-16T19:45:31.280Z","date":"2026-02-16","time":"19:45:31"},{"task":"memory_phase","broad_category":"M","image_png":"M_Slate_10.png","image_id":314,"category_name":"Slate","category":20,"distinct_rating":1.94,"distinct_type":"Bottom","rt":null,"stimulus":"Stimuli_Rocks480/M_Slate_10.png","response":null,"trial_type":"image-keyboard-response","trial_index":218,"plugin_version":"2.1.0","time_elapsed":392589,"subject_id":"91155","group":"Group2","condition":"3_Rep","full_date":"2026-02-16T19:45:31.280Z","date":"2026-02-16","time":"19:45:31"},{"rt":null,"stimulus":"<p style=\"font-size: 50px; margin: 0; text-align: center;\">+</p>","response":null,"trial_type":"html-keyboard-response","trial_index":219,"plugin_version":"2.1.0","time_elapsed":393591,"subject_id":"91155","group":"Group2","condition":"3_Rep","full_date":"2026-02-16T19:45:31.280Z","date":"2026-02-16","time":"19:45:31"},{"task":"memory_phase","broad_category":"M","image_png":"M_Marble_02.png","image_id":226,"category_name":"Marble","category":15,"distinct_rating":3.2,"distinct_type":"Bottom","rt":null,"stimulus":"Stimuli_Rocks480/M_Marble_02.png","response":null,"trial_type":"image-keyboard-response","trial_index":220,"plugin_version":"2.1.0","time_elapsed":396094,"subject_id":"91155","group":"Group2","condition":"3_Rep","full_date":"2026-02-16T19:45:31.280Z","date":"2026-02-16","time":"19:45:31"},{"rt":null,"stimulus":"<p style=\"font-size: 50px; margin: 0; text-align: center;\">+</p>","response":null,"trial_type":"html-keyboard-response","trial_index":221,"plugin_version":"2.1.0","time_elapsed":397097,"subject_id":"91155","group":"Group2","condition":"3_Rep","full_date":"2026-02-16T19:45:31.280Z","date":"2026-02-16","time":"19:45:31"},{"task":"memory_phase","broad_category":"S","image_png":"S_Chert_13.png","image_id":365,"category_name":"Chert","category":23,"distinct_rating":6.57,"distinct_type":"Top","rt":null,"stimulus":"Stimuli_Rocks480/S_Chert_13.png","response":null,"trial_type":"image-keyboard-response","trial_index":222,"plugin_version":"2.1.0","time_elapsed":399600,"subject_id":"91155","group":"Group2","condition":"3_Rep","full_date":"2026-02-16T19:45:31.280Z","date":"2026-02-16","time":"19:45:31"},{"rt":null,"stimulus":"<p style=\"font-size: 50px; margin: 0; text-align: center;\">+</p>","response":null,"trial_type":"html-keyboard-response","trial_index":223,"plugin_version":"2.1.0","time_elapsed":400603,"subject_id":"91155","group":"Group2","condition":"3_Rep","full_date":"2026-02-16T19:45:31.280Z","date":"2026-02-16","time":"19:45:31"},{"task":"memory_phase","broad_category":"M","image_png":"M_Slate_14.png","image_id":318,"category_name":"Slate","category":20,"distinct_rating":2.58,"distinct_type":"Bottom","rt":null,"stimulus":"Stimuli_Rocks480/M_Slate_14.png","response":null,"trial_type":"image-keyboard-response","trial_index":224,"plugin_version":"2.1.0","time_elapsed":403106,"subject_id":"91155","group":"Group2","condition":"3_Rep","full_date":"2026-02-16T19:45:31.280Z","date":"2026-02-16","time":"19:45:31"},{"rt":null,"stimulus":"<p style=\"font-size: 50px; margin: 0; text-align: center;\">+</p>","response":null,"trial_type":"html-keyboard-response","trial_index":225,"plugin_version":"2.1.0","time_elapsed":404108,"subject_id":"91155","group":"Group2","condition":"3_Rep","full_date":"2026-02-16T19:45:31.280Z","date":"2026-02-16","time":"19:45:31"},{"task":"memory_phase","broad_category":"I","image_png":"I_Diorite_10.png","image_id":42,"category_name":"Diorite","category":3,"distinct_rating":2.84,"distinct_type":"Bottom","rt":null,"stimulus":"Stimuli_Rocks480/I_Diorite_10.png","response":null,"trial_type":"image-keyboard-response","trial_index":226,"plugin_version":"2.1.0","time_elapsed":406611,"subject_id":"91155","group":"Group2","condition":"3_Rep","full_date":"2026-02-16T19:45:31.280Z","date":"2026-02-16","time":"19:45:31"},{"rt":null,"stimulus":"<p style=\"font-size: 50px; margin: 0; text-align: center;\">+</p>","response":null,"trial_type":"html-keyboard-response","trial_index":227,"plugin_version":"2.1.0","time_elapsed":407613,"subject_id":"91155","group":"Group2","condition":"3_Rep","full_date":"2026-02-16T19:45:31.280Z","date":"2026-02-16","time":"19:45:31"},{"task":"memory_phase","broad_category":"S","image_png":"S_Sandstone_04.png","image_id":452,"category_name":"Sandstone","category":29,"distinct_rating":1.8,"distinct_type":"Bottom","rt":null,"stimulus":"Stimuli_Rocks480/S_Sandstone_04.png","response":null,"trial_type":"image-keyboard-response","trial_index":228,"plugin_version":"2.1.0","time_elapsed":410117,"subject_id":"91155","group":"Group2","condition":"3_Rep","full_date":"2026-02-16T19:45:31.280Z","date":"2026-02-16","time":"19:45:31"},{"rt":null,"stimulus":"<p style=\"font-size: 50px; margin: 0; text-align: center;\">+</p>","response":null,"trial_type":"html-keyboard-response","trial_index":229,"plugin_version":"2.1.0","time_elapsed":411119,"subject_id":"91155","group":"Group2","condition":"3_Rep","full_date":"2026-02-16T19:45:31.280Z","date":"2026-02-16","time":"19:45:31"},{"task":"memory_phase","broad_category":"I","image_png":"I_Gabbro_12.png","image_id":60,"category_name":"Gabbro","category":4,"distinct_rating":2.6,"distinct_type":"Bottom","rt":null,"stimulus":"Stimuli_Rocks480/I_Gabbro_12.png","response":null,"trial_type":"image-keyboard-response","trial_index":230,"plugin_version":"2.1.0","time_elapsed":413622,"subject_id":"91155","group":"Group2","condition":"3_Rep","full_date":"2026-02-16T19:45:31.280Z","date":"2026-02-16","time":"19:45:31"},{"rt":null,"stimulus":"<p style=\"font-size: 50px; margin: 0; text-align: center;\">+</p>","response":null,"trial_type":"html-keyboard-response","trial_index":231,"plugin_version":"2.1.0","time_elapsed":414624,"subject_id":"91155","group":"Group2","condition":"3_Rep","full_date":"2026-02-16T19:45:31.280Z","date":"2026-02-16","time":"19:45:31"},{"task":"memory_phase","broad_category":"I","image_png":"I_Peridotite_13.png","image_id":125,"category_name":"Peridotite","category":8,"distinct_rating":7.28,"distinct_type":"Top","rt":null,"stimulus":"Stimuli_Rocks480/I_Peridotite_13.png","response":null,"trial_type":"image-keyboard-response","trial_index":232,"plugin_version":"2.1.0","time_elapsed":417127,"subject_id":"91155","group":"Group2","condition":"3_Rep","full_date":"2026-02-16T19:45:31.280Z","date":"2026-02-16","time":"19:45:31"},{"rt":null,"stimulus":"<p style=\"font-size: 50px; margin: 0; text-align: center;\">+</p>","response":null,"trial_type":"html-keyboard-response","trial_index":233,"plugin_version":"2.1.0","time_elapsed":418129,"subject_id":"91155","group":"Group2","condition":"3_Rep","full_date":"2026-02-16T19:45:31.280Z","date":"2026-02-16","time":"19:45:31"},{"task":"memory_phase","broad_category":"I","image_png":"I_Rhyolite_08.png","image_id":152,"category_name":"Rhyolite","category":10,"distinct_rating":1.38,"distinct_type":"Bottom","rt":null,"stimulus":"Stimuli_Rocks480/I_Rhyolite_08.png","response":null,"trial_type":"image-keyboard-response","trial_index":234,"plugin_version":"2.1.0","time_elapsed":420632,"subject_id":"91155","group":"Group2","condition":"3_Rep","full_date":"2026-02-16T19:45:31.280Z","date":"2026-02-16","time":"19:45:31"},{"rt":null,"stimulus":"<p style=\"font-size: 50px; margin: 0; text-align: center;\">+</p>","response":null,"trial_type":"html-keyboard-response","trial_index":235,"plugin_version":"2.1.0","time_elapsed":421635,"subject_id":"91155","group":"Group2","condition":"3_Rep","full_date":"2026-02-16T19:45:31.280Z","date":"2026-02-16","time":"19:45:31"},{"task":"memory_phase","broad_category":"I","image_png":"I_Basalt_13.png","image_id":29,"category_name":"Basalt","category":2,"distinct_rating":2.68,"distinct_type":"Bottom","rt":null,"stimulus":"Stimuli_Rocks480/I_Basalt_13.png","response":null,"tri