[{"width":1470,"height":766,"webaudio":true,"browser":"safari","browser_version":"18.6.0","mobile":false,"os":"Mac OS","fullscreen":true,"vsync_rate":59.64,"webcam":true,"microphone":true,"trial_type":"browser-check","trial_index":0,"plugin_version":"2.1.0","time_elapsed":1017,"subject_id":"92059","group":"Group1","condition":"1_Rep","full_date":"2026-01-24T21:28:10.119Z","date":"2026-01-24","time":"21:28:10"},{"success":true,"timeout":false,"failed_images":[],"failed_audio":[],"failed_video":[],"trial_type":"preload","trial_index":1,"plugin_version":"2.1.0","time_elapsed":3963,"subject_id":"92059","group":"Group1","condition":"1_Rep","full_date":"2026-01-24T21:28:10.119Z","date":"2026-01-24","time":"21:28:10"},{"rt":28836,"url":"SONA_consent_memorability.html","trial_type":"external-html","trial_index":2,"plugin_version":"2.1.0","time_elapsed":32852,"subject_id":"92059","group":"Group1","condition":"1_Rep","full_date":"2026-01-24T21:28:10.119Z","date":"2026-01-24","time":"21:28:10"},{"success":true,"rt":3230,"trial_type":"fullscreen","trial_index":3,"plugin_version":"2.1.0","time_elapsed":37085,"subject_id":"92059","group":"Group1","condition":"1_Rep","full_date":"2026-01-24T21:28:10.119Z","date":"2026-01-24","time":"21:28:10"},{"rt":166919,"stimulus":"<div style=\"max-width: 760px; margin: auto; font-size: 20px; line-height: 1.5;\">\n      <h1 style=\"text-align:center; font-size: 30px;\">Instructions</h1>\n      <p>\n        Welcome to the study on <b>visual memory</b>. This experiment consists of <b>two phases</b>: \n        a <b>study phase</b> and a <b>test phase</b>.\n      </p>\n      <p>\n        In the study phase, you will see a series of rock images along with their category labels.\n        The images will appear one at a time.\n        <b>Your task</b> is to learn the categories to which the rock images belong \n        and to remember each image as accurately as possible.\n      </p> \n      <p>\n        Note that you will see each image only <b>once</b> during the study phase. \n          So, please pay close attention and try to remember each image carefully.\n      </p>\n      <p>\n        After the study phase, <b>your memory will be tested</b>. \n        Additional instructions for the test phase will be provided at that time.\n      </p>\n      <p>\n        If your computer has multiple <b>language settings</b> (e.g., English and another language),\n        please make sure it is set to English before starting.\n      </p>\n      <p>\n        You can track your progress using the <b>completion bar</b> at the top of the screen. \n        Please note that the bar will refresh when the test phase begins \n        to give you an accurate sense of your progress in both phases.\n      </p> \n      <p>\n        Press the button below when you are ready to begin.\n      </p>\n    </div>","response":0,"trial_type":"html-button-response","trial_index":4,"plugin_version":"2.1.0","time_elapsed":204006,"subject_id":"92059","group":"Group1","condition":"1_Rep","full_date":"2026-01-24T21:28:10.119Z","date":"2026-01-24","time":"21:28:10"},{"rt":null,"stimulus":"<p style=\"font-size: 50px; margin: 0; text-align: center;\">+</p>","response":null,"trial_type":"html-keyboard-response","trial_index":5,"plugin_version":"2.1.0","time_elapsed":205010,"subject_id":"92059","group":"Group1","condition":"1_Rep","full_date":"2026-01-24T21:28:10.119Z","date":"2026-01-24","time":"21:28:10"},{"task":"memory_phase","broad_category":"S","image_png":"S_Chert_10.png","image_id":362,"category_name":"Chert","category":23,"distinct_rating":7.17,"distinct_type":"Top","rt":null,"stimulus":"Stimuli_Rocks480/S_Chert_10.png","response":null,"trial_type":"image-keyboard-response","trial_index":6,"plugin_version":"2.1.0","time_elapsed":207528,"subject_id":"92059","group":"Group1","condition":"1_Rep","full_date":"2026-01-24T21:28:10.119Z","date":"2026-01-24","time":"21:28:10"},{"rt":null,"stimulus":"<p style=\"font-size: 50px; margin: 0; text-align: center;\">+</p>","response":null,"trial_type":"html-keyboard-response","trial_index":7,"plugin_version":"2.1.0","time_elapsed":208531,"subject_id":"92059","group":"Group1","condition":"1_Rep","full_date":"2026-01-24T21:28:10.119Z","date":"2026-01-24","time":"21:28:10"},{"task":"memory_phase","broad_category":"I","image_png":"I_Pegmatite_10.png","image_id":106,"category_name":"Pegmatite","category":7,"distinct_rating":7.66,"distinct_type":"Top","rt":null,"stimulus":"Stimuli_Rocks480/I_Pegmatite_10.png","response":null,"trial_type":"image-keyboard-response","trial_index":8,"plugin_version":"2.1.0","time_elapsed":211044,"subject_id":"92059","group":"Group1","condition":"1_Rep","full_date":"2026-01-24T21:28:10.119Z","date":"2026-01-24","time":"21:28:10"},{"rt":null,"stimulus":"<p style=\"font-size: 50px; margin: 0; text-align: center;\">+</p>","response":null,"trial_type":"html-keyboard-response","trial_index":9,"plugin_version":"2.1.0","time_elapsed":212047,"subject_id":"92059","group":"Group1","condition":"1_Rep","full_date":"2026-01-24T21:28:10.119Z","date":"2026-01-24","time":"21:28:10"},{"task":"memory_phase","broad_category":"I","image_png":"I_Pumice_12.png","image_id":140,"category_name":"Pumice","category":9,"distinct_rating":2.97,"distinct_type":"Bottom","rt":null,"stimulus":"Stimuli_Rocks480/I_Pumice_12.png","response":null,"trial_type":"image-keyboard-response","trial_index":10,"plugin_version":"2.1.0","time_elapsed":214558,"subject_id":"92059","group":"Group1","condition":"1_Rep","full_date":"2026-01-24T21:28:10.119Z","date":"2026-01-24","time":"21:28:10"},{"rt":null,"stimulus":"<p style=\"font-size: 50px; margin: 0; text-align: center;\">+</p>","response":null,"trial_type":"html-keyboard-response","trial_index":11,"plugin_version":"2.1.0","time_elapsed":215560,"subject_id":"92059","group":"Group1","condition":"1_Rep","full_date":"2026-01-24T21:28:10.119Z","date":"2026-01-24","time":"21:28:10"},{"task":"memory_phase","broad_category":"I","image_png":"I_Pumice_08.png","image_id":136,"category_name":"Pumice","category":9,"distinct_rating":3.1,"distinct_type":"Bottom","rt":null,"stimulus":"Stimuli_Rocks480/I_Pumice_08.png","response":null,"trial_type":"image-keyboard-response","trial_index":12,"plugin_version":"2.1.0","time_elapsed":218076,"subject_id":"92059","group":"Group1","condition":"1_Rep","full_date":"2026-01-24T21:28:10.119Z","date":"2026-01-24","time":"21:28:10"},{"rt":null,"stimulus":"<p style=\"font-size: 50px; margin: 0; text-align: center;\">+</p>","response":null,"trial_type":"html-keyboard-response","trial_index":13,"plugin_version":"2.1.0","time_elapsed":219079,"subject_id":"92059","group":"Group1","condition":"1_Rep","full_date":"2026-01-24T21:28:10.119Z","date":"2026-01-24","time":"21:28:10"},{"task":"memory_phase","broad_category":"I","image_png":"I_Basalt_02.png","image_id":18,"category_name":"Basalt","category":2,"distinct_rating":1.84,"distinct_type":"Bottom","rt":null,"stimulus":"Stimuli_Rocks480/I_Basalt_02.png","response":null,"trial_type":"image-keyboard-response","trial_index":14,"plugin_version":"2.1.0","time_elapsed":221595,"subject_id":"92059","group":"Group1","condition":"1_Rep","full_date":"2026-01-24T21:28:10.119Z","date":"2026-01-24","time":"21:28:10"},{"rt":null,"stimulus":"<p style=\"font-size: 50px; margin: 0; text-align: center;\">+</p>","response":null,"trial_type":"html-keyboard-response","trial_index":15,"plugin_version":"2.1.0","time_elapsed":222597,"subject_id":"92059","group":"Group1","condition":"1_Rep","full_date":"2026-01-24T21:28:10.119Z","date":"2026-01-24","time":"21:28:10"},{"task":"memory_phase","broad_category":"S","image_png":"S_Sandstone_03.png","image_id":451,"category_name":"Sandstone","category":29,"distinct_rating":1.86,"distinct_type":"Bottom","rt":null,"stimulus":"Stimuli_Rocks480/S_Sandstone_03.png","response":null,"trial_type":"image-keyboard-response","trial_index":16,"plugin_version":"2.1.0","time_elapsed":225114,"subject_id":"92059","group":"Group1","condition":"1_Rep","full_date":"2026-01-24T21:28:10.119Z","date":"2026-01-24","time":"21:28:10"},{"rt":null,"stimulus":"<p style=\"font-size: 50px; margin: 0; text-align: center;\">+</p>","response":null,"trial_type":"html-keyboard-response","trial_index":17,"plugin_version":"2.1.0","time_elapsed":226117,"subject_id":"92059","group":"Group1","condition":"1_Rep","full_date":"2026-01-24T21:28:10.119Z","date":"2026-01-24","time":"21:28:10"},{"task":"memory_phase","broad_category":"S","image_png":"S_Shale_12.png","image_id":476,"category_name":"Shale","category":30,"distinct_rating":2.48,"distinct_type":"Bottom","rt":null,"stimulus":"Stimuli_Rocks480/S_Shale_12.png","response":null,"trial_type":"image-keyboard-response","trial_index":18,"plugin_version":"2.1.0","time_elapsed":228632,"subject_id":"92059","group":"Group1","condition":"1_Rep","full_date":"2026-01-24T21:28:10.119Z","date":"2026-01-24","time":"21:28:10"},{"rt":null,"stimulus":"<p style=\"font-size: 50px; margin: 0; text-align: center;\">+</p>","response":null,"trial_type":"html-keyboard-response","trial_index":19,"plugin_version":"2.1.0","time_elapsed":229635,"subject_id":"92059","group":"Group1","condition":"1_Rep","full_date":"2026-01-24T21:28:10.119Z","date":"2026-01-24","time":"21:28:10"},{"task":"memory_phase","broad_category":"M","image_png":"M_Gneiss_13.png","image_id":205,"category_name":"Gneiss","category":13,"distinct_rating":3.26,"distinct_type":"Bottom","rt":null,"stimulus":"Stimuli_Rocks480/M_Gneiss_13.png","response":null,"trial_type":"image-keyboard-response","trial_index":20,"plugin_version":"2.1.0","time_elapsed":232149,"subject_id":"92059","group":"Group1","condition":"1_Rep","full_date":"2026-01-24T21:28:10.119Z","date":"2026-01-24","time":"21:28:10"},{"rt":null,"stimulus":"<p style=\"font-size: 50px; margin: 0; text-align: center;\">+</p>","response":null,"trial_type":"html-keyboard-response","trial_index":21,"plugin_version":"2.1.0","time_elapsed":233152,"subject_id":"92059","group":"Group1","condition":"1_Rep","full_date":"2026-01-24T21:28:10.119Z","date":"2026-01-24","time":"21:28:10"},{"task":"memory_phase","broad_category":"I","image_png":"I_Basalt_09.png","image_id":25,"category_name":"Basalt","category":2,"distinct_rating":1.89,"distinct_type":"Bottom","rt":null,"stimulus":"Stimuli_Rocks480/I_Basalt_09.png","response":null,"trial_type":"image-keyboard-response","trial_index":22,"plugin_version":"2.1.0","time_elapsed":235665,"subject_id":"92059","group":"Group1","condition":"1_Rep","full_date":"2026-01-24T21:28:10.119Z","date":"2026-01-24","time":"21:28:10"},{"rt":null,"stimulus":"<p style=\"font-size: 50px; margin: 0; text-align: center;\">+</p>","response":null,"trial_type":"html-keyboard-response","trial_index":23,"plugin_version":"2.1.0","time_elapsed":236668,"subject_id":"92059","group":"Group1","condition":"1_Rep","full_date":"2026-01-24T21:28:10.119Z","date":"2026-01-24","time":"21:28:10"},{"task":"memory_phase","broad_category":"M","image_png":"M_Marble_16.png","image_id":240,"category_name":"Marble","category":15,"distinct_rating":2.57,"distinct_type":"Bottom","rt":null,"stimulus":"Stimuli_Rocks480/M_Marble_16.png","response":null,"trial_type":"image-keyboard-response","trial_index":24,"plugin_version":"2.1.0","time_elapsed":239182,"subject_id":"92059","group":"Group1","condition":"1_Rep","full_date":"2026-01-24T21:28:10.119Z","date":"2026-01-24","time":"21:28:10"},{"rt":null,"stimulus":"<p style=\"font-size: 50px; margin: 0; text-align: center;\">+</p>","response":null,"trial_type":"html-keyboard-response","trial_index":25,"plugin_version":"2.1.0","time_elapsed":240184,"subject_id":"92059","group":"Group1","condition":"1_Rep","full_date":"2026-01-24T21:28:10.119Z","date":"2026-01-24","time":"21:28:10"},{"task":"memory_phase","broad_category":"S","image_png":"S_Shale_08.png","image_id":472,"category_name":"Shale","category":30,"distinct_rating":2.55,"distinct_type":"Bottom","rt":null,"stimulus":"Stimuli_Rocks480/S_Shale_08.png","response":null,"trial_type":"image-keyboard-response","trial_index":26,"plugin_version":"2.1.0","time_elapsed":242701,"subject_id":"92059","group":"Group1","condition":"1_Rep","full_date":"2026-01-24T21:28:10.119Z","date":"2026-01-24","time":"21:28:10"},{"rt":null,"stimulus":"<p style=\"font-size: 50px; margin: 0; text-align: center;\">+</p>","response":null,"trial_type":"html-keyboard-response","trial_index":27,"plugin_version":"2.1.0","time_elapsed":243704,"subject_id":"92059","group":"Group1","condition":"1_Rep","full_date":"2026-01-24T21:28:10.119Z","date":"2026-01-24","time":"21:28:10"},{"task":"memory_phase","broad_category":"I","image_png":"I_Diorite_05.png","image_id":37,"category_name":"Diorite","category":3,"distinct_rating":3.08,"distinct_type":"Bottom","rt":null,"stimulus":"Stimuli_Rocks480/I_Diorite_05.png","response":null,"trial_type":"image-keyboard-response","trial_index":28,"plugin_version":"2.1.0","time_elapsed":246219,"subject_id":"92059","group":"Group1","condition":"1_Rep","full_date":"2026-01-24T21:28:10.119Z","date":"2026-01-24","time":"21:28:10"},{"rt":null,"stimulus":"<p style=\"font-size: 50px; margin: 0; text-align: center;\">+</p>","response":null,"trial_type":"html-keyboard-response","trial_index":29,"plugin_version":"2.1.0","time_elapsed":247222,"subject_id":"92059","group":"Group1","condition":"1_Rep","full_date":"2026-01-24T21:28:10.119Z","date":"2026-01-24","time":"21:28:10"},{"task":"memory_phase","broad_category":"S","image_png":"S_Sandstone_16.png","image_id":464,"category_name":"Sandstone","category":29,"distinct_rating":1.93,"distinct_type":"Bottom","rt":null,"stimulus":"Stimuli_Rocks480/S_Sandstone_16.png","response":null,"trial_type":"image-keyboard-response","trial_index":30,"plugin_version":"2.1.0","time_elapsed":249736,"subject_id":"92059","group":"Group1","condition":"1_Rep","full_date":"2026-01-24T21:28:10.119Z","date":"2026-01-24","time":"21:28:10"},{"rt":null,"stimulus":"<p style=\"font-size: 50px; margin: 0; text-align: center;\">+</p>","response":null,"trial_type":"html-keyboard-response","trial_index":31,"plugin_version":"2.1.0","time_elapsed":250738,"subject_id":"92059","group":"Group1","condition":"1_Rep","full_date":"2026-01-24T21:28:10.119Z","date":"2026-01-24","time":"21:28:10"},{"task":"memory_phase","broad_category":"M","image_png":"M_Quartzite_08.png","image_id":280,"category_name":"Quartzite","category":18,"distinct_rating":2.15,"distinct_type":"Bottom","rt":null,"stimulus":"Stimuli_Rocks480/M_Quartzite_08.png","response":null,"trial_type":"image-keyboard-response","trial_index":32,"plugin_version":"2.1.0","time_elapsed":253253,"subject_id":"92059","group":"Group1","condition":"1_Rep","full_date":"2026-01-24T21:28:10.119Z","date":"2026-01-24","time":"21:28:10"},{"rt":null,"stimulus":"<p style=\"font-size: 50px; margin: 0; text-align: center;\">+</p>","response":null,"trial_type":"html-keyboard-response","trial_index":33,"plugin_version":"2.1.0","time_elapsed":254256,"subject_id":"92059","group":"Group1","condition":"1_Rep","full_date":"2026-01-24T21:28:10.119Z","date":"2026-01-24","time":"21:28:10"},{"task":"memory_phase","broad_category":"I","image_png":"I_Diorite_03.png","image_id":35,"category_name":"Diorite","category":3,"distinct_rating":3.14,"distinct_type":"Bottom","rt":null,"stimulus":"Stimuli_Rocks480/I_Diorite_03.png","response":null,"trial_type":"image-keyboard-response","trial_index":34,"plugin_version":"2.1.0","time_elapsed":256773,"subject_id":"92059","group":"Group1","condition":"1_Rep","full_date":"2026-01-24T21:28:10.119Z","date":"2026-01-24","time":"21:28:10"},{"rt":null,"stimulus":"<p style=\"font-size: 50px; margin: 0; text-align: center;\">+</p>","response":null,"trial_type":"html-keyboard-response","trial_index":35,"plugin_version":"2.1.0","time_elapsed":257775,"subject_id":"92059","group":"Group1","condition":"1_Rep","full_date":"2026-01-24T21:28:10.119Z","date":"2026-01-24","time":"21:28:10"},{"task":"memory_phase","broad_category":"M","image_png":"M_Marble_06.png","image_id":230,"category_name":"Marble","category":15,"distinct_rating":3.4,"distinct_type":"Bottom","rt":null,"stimulus":"Stimuli_Rocks480/M_Marble_06.png","response":null,"trial_type":"image-keyboard-response","trial_index":36,"plugin_version":"2.1.0","time_elapsed":260290,"subject_id":"92059","group":"Group1","condition":"1_Rep","full_date":"2026-01-24T21:28:10.119Z","date":"2026-01-24","time":"21:28:10"},{"rt":null,"stimulus":"<p style=\"font-size: 50px; margin: 0; text-align: center;\">+</p>","response":null,"trial_type":"html-keyboard-response","trial_index":37,"plugin_version":"2.1.0","time_elapsed":261292,"subject_id":"92059","group":"Group1","condition":"1_Rep","full_date":"2026-01-24T21:28:10.119Z","date":"2026-01-24","time":"21:28:10"},{"task":"memory_phase","broad_category":"I","image_png":"I_Andesite_10.png","image_id":10,"category_name":"Andesite","category":1,"distinct_rating":3.15,"distinct_type":"Bottom","rt":null,"stimulus":"Stimuli_Rocks480/I_Andesite_10.png","response":null,"trial_type":"image-keyboard-response","trial_index":38,"plugin_version":"2.1.0","time_elapsed":263805,"subject_id":"92059","group":"Group1","condition":"1_Rep","full_date":"2026-01-24T21:28:10.119Z","date":"2026-01-24","time":"21:28:10"},{"rt":null,"stimulus":"<p style=\"font-size: 50px; margin: 0; text-align: center;\">+</p>","response":null,"trial_type":"html-keyboard-response","trial_index":39,"plugin_version":"2.1.0","time_elapsed":264807,"subject_id":"92059","group":"Group1","condition":"1_Rep","full_date":"2026-01-24T21:28:10.119Z","date":"2026-01-24","time":"21:28:10"},{"task":"memory_phase","broad_category":"I","image_png":"I_Gabbro_16.png","image_id":64,"category_name":"Gabbro","category":4,"distinct_rating":2.52,"distinct_type":"Bottom","rt":null,"stimulus":"Stimuli_Rocks480/I_Gabbro_16.png","response":null,"trial_type":"image-keyboard-response","trial_index":40,"plugin_version":"2.1.0","time_elapsed":267322,"subject_id":"92059","group":"Group1","condition":"1_Rep","full_date":"2026-01-24T21:28:10.119Z","date":"2026-01-24","time":"21:28:10"},{"rt":null,"stimulus":"<p style=\"font-size: 50px; margin: 0; text-align: center;\">+</p>","response":null,"trial_type":"html-keyboard-response","trial_index":41,"plugin_version":"2.1.0","time_elapsed":268324,"subject_id":"92059","group":"Group1","condition":"1_Rep","full_date":"2026-01-24T21:28:10.119Z","date":"2026-01-24","time":"21:28:10"},{"task":"memory_phase","broad_category":"M","image_png":"M_Phyllite_07.png","image_id":263,"category_name":"Phyllite","category":17,"distinct_rating":2.59,"distinct_type":"Bottom","rt":null,"stimulus":"Stimuli_Rocks480/M_Phyllite_07.png","response":null,"trial_type":"image-keyboard-response","trial_index":42,"plugin_version":"2.1.0","time_elapsed":270838,"subject_id":"92059","group":"Group1","condition":"1_Rep","full_date":"2026-01-24T21:28:10.119Z","date":"2026-01-24","time":"21:28:10"},{"rt":null,"stimulus":"<p style=\"font-size: 50px; margin: 0; text-align: center;\">+</p>","response":null,"trial_type":"html-keyboard-response","trial_index":43,"plugin_version":"2.1.0","time_elapsed":271841,"subject_id":"92059","group":"Group1","condition":"1_Rep","full_date":"2026-01-24T21:28:10.119Z","date":"2026-01-24","time":"21:28:10"},{"task":"memory_phase","broad_category":"I","image_png":"I_Gabbro_08.png","image_id":56,"category_name":"Gabbro","category":4,"distinct_rating":3.02,"distinct_type":"Bottom","rt":null,"stimulus":"Stimuli_Rocks480/I_Gabbro_08.png","response":null,"trial_type":"image-keyboard-response","trial_index":44,"plugin_version":"2.1.0","time_elapsed":274355,"subject_id":"92059","group":"Group1","condition":"1_Rep","full_date":"2026-01-24T21:28:10.119Z","date":"2026-01-24","time":"21:28:10"},{"rt":null,"stimulus":"<p style=\"font-size: 50px; margin: 0; text-align: center;\">+</p>","response":null,"trial_type":"html-keyboard-response","trial_index":45,"plugin_version":"2.1.0","time_elapsed":275357,"subject_id":"92059","group":"Group1","condition":"1_Rep","full_date":"2026-01-24T21:28:10.119Z","date":"2026-01-24","time":"21:28:10"},{"task":"memory_phase","broad_category":"S","image_png":"S_Breccia_11.png","image_id":347,"category_name":"Breccia","category":22,"distinct_rating":6.7,"distinct_type":"Top","rt":null,"stimulus":"Stimuli_Rocks480/S_Breccia_11.png","response":null,"trial_type":"image-keyboard-response","trial_index":46,"plugin_version":"2.1.0","time_elapsed":277879,"subject_id":"92059","group":"Group1","condition":"1_Rep","full_date":"2026-01-24T21:28:10.119Z","date":"2026-01-24","time":"21:28:10"},{"rt":null,"stimulus":"<p style=\"font-size: 50px; margin: 0; text-align: center;\">+</p>","response":null,"trial_type":"html-keyboard-response","trial_index":47,"plugin_version":"2.1.0","time_elapsed":278881,"subject_id":"92059","group":"Group1","condition":"1_Rep","full_date":"2026-01-24T21:28:10.119Z","date":"2026-01-24","time":"21:28:10"},{"task":"memory_phase","broad_category":"S","image_png":"S_Rock Gypsum_04.png","image_id":420,"category_name":"Rock Gypsum","category":27,"distinct_rating":7.61,"distinct_type":"Top","rt":null,"stimulus":"Stimuli_Rocks480/S_Rock Gypsum_04.png","response":null,"trial_type":"image-keyboard-response","trial_index":48,"plugin_version":"2.1.0","time_elapsed":281397,"subject_id":"92059","group":"Group1","condition":"1_Rep","full_date":"2026-01-24T21:28:10.119Z","date":"2026-01-24","time":"21:28:10"},{"rt":null,"stimulus":"<p style=\"font-size: 50px; margin: 0; text-align: center;\">+</p>","response":null,"trial_type":"html-keyboard-response","trial_index":49,"plugin_version":"2.1.0","time_elapsed":282400,"subject_id":"92059","group":"Group1","condition":"1_Rep","full_date":"2026-01-24T21:28:10.119Z","date":"2026-01-24","time":"21:28:10"},{"task":"memory_phase","broad_category":"I","image_png":"I_Andesite_08.png","image_id":8,"category_name":"Andesite","category":1,"distinct_rating":1.95,"distinct_type":"Bottom","rt":null,"stimulus":"Stimuli_Rocks480/I_Andesite_08.png","response":null,"trial_type":"image-keyboard-response","trial_index":50,"plugin_version":"2.1.0","time_elapsed":284916,"subject_id":"92059","group":"Group1","condition":"1_Rep","full_date":"2026-01-24T21:28:10.119Z","date":"2026-01-24","time":"21:28:10"},{"rt":null,"stimulus":"<p style=\"font-size: 50px; margin: 0; text-align: center;\">+</p>","response":null,"trial_type":"html-keyboard-response","trial_index":51,"plugin_version":"2.1.0","time_elapsed":285918,"subject_id":"92059","group":"Group1","condition":"1_Rep","full_date":"2026-01-24T21:28:10.119Z","date":"2026-01-24","time":"21:28:10"},{"task":"memory_phase","broad_category":"I","image_png":"I_Rhyolite_16.png","image_id":160,"category_name":"Rhyolite","category":10,"distinct_rating":2.19,"distinct_type":"Bottom","rt":null,"stimulus":"Stimuli_Rocks480/I_Rhyolite_16.png","response":null,"trial_type":"image-keyboard-response","trial_index":52,"plugin_version":"2.1.0","time_elapsed":288432,"subject_id":"92059","group":"Group1","condition":"1_Rep","full_date":"2026-01-24T21:28:10.119Z","date":"2026-01-24","time":"21:28:10"},{"rt":null,"stimulus":"<p style=\"font-size: 50px; margin: 0; text-align: center;\">+</p>","response":null,"trial_type":"html-keyboard-response","trial_index":53,"plugin_version":"2.1.0","time_elapsed":289434,"subject_id":"92059","group":"Group1","condition":"1_Rep","full_date":"2026-01-24T21:28:10.119Z","date":"2026-01-24","time":"21:28:10"},{"task":"memory_phase","broad_category":"I","image_png":"I_Pegmatite_16.png","image_id":112,"category_name":"Pegmatite","category":7,"distinct_rating":7.03,"distinct_type":"Top","rt":null,"stimulus":"Stimuli_Rocks480/I_Pegmatite_16.png","response":null,"trial_type":"image-keyboard-response","trial_index":54,"plugin_version":"2.1.0","time_elapsed":291950,"subject_id":"92059","group":"Group1","condition":"1_Rep","full_date":"2026-01-24T21:28:10.119Z","date":"2026-01-24","time":"21:28:10"},{"rt":2579,"stimulus":"<p style=\"max-width: 760px; margin: auto; font-size: 35px; line-height: 1.5;\">\n                Press SPACE to continue study phase\n              </p>","response":" ","trial_type":"html-keyboard-response","trial_index":55,"plugin_version":"2.1.0","time_elapsed":294532,"subject_id":"92059","group":"Group1","condition":"1_Rep","full_date":"2026-01-24T21:28:10.119Z","date":"2026-01-24","time":"21:28:10"},{"rt":null,"stimulus":"<p style=\"font-size: 50px; margin: 0; text-align: center;\">+</p>","response":null,"trial_type":"html-keyboard-response","trial_index":56,"plugin_version":"2.1.0","time_elapsed":295534,"subject_id":"92059","group":"Group1","condition":"1_Rep","full_date":"2026-01-24T21:28:10.119Z","date":"2026-01-24","time":"21:28:10"},{"task":"memory_phase","broad_category":"M","image_png":"M_Gneiss_05.png","image_id":197,"category_name":"Gneiss","category":13,"distinct_rating":2.97,"distinct_type":"Bottom","rt":null,"stimulus":"Stimuli_Rocks480/M_Gneiss_05.png","response":null,"trial_type":"image-keyboard-response","trial_index":57,"plugin_version":"2.1.0","time_elapsed":298054,"subject_id":"92059","group":"Group1","condition":"1_Rep","full_date":"2026-01-24T21:28:10.119Z","date":"2026-01-24","time":"21:28:10"},{"rt":null,"stimulus":"<p style=\"font-size: 50px; margin: 0; text-align: center;\">+</p>","response":null,"trial_type":"html-keyboard-response","trial_index":58,"plugin_version":"2.1.0","time_elapsed":299056,"subject_id":"92059","group":"Group1","condition":"1_Rep","full_date":"2026-01-24T21:28:10.119Z","date":"2026-01-24","time":"21:28:10"},{"task":"memory_phase","broad_category":"M","image_png":"M_Phyllite_03.png","image_id":259,"category_name":"Phyllite","category":17,"distinct_rating":2.5,"distinct_type":"Bottom","rt":null,"stimulus":"Stimuli_Rocks480/M_Phyllite_03.png","response":null,"trial_type":"image-keyboard-response","trial_index":59,"plugin_version":"2.1.0","time_elapsed":301572,"subject_id":"92059","group":"Group1","condition":"1_Rep","full_date":"2026-01-24T21:28:10.119Z","date":"2026-01-24","time":"21:28:10"},{"rt":null,"stimulus":"<p style=\"font-size: 50px; margin: 0; text-align: center;\">+</p>","response":null,"trial_type":"html-keyboard-response","trial_index":60,"plugin_version":"2.1.0","time_elapsed":302574,"subject_id":"92059","group":"Group1","condition":"1_Rep","full_date":"2026-01-24T21:28:10.119Z","date":"2026-01-24","time":"21:28:10"},{"task":"memory_phase","broad_category":"S","image_png":"S_Dolomite_12.png","image_id":396,"category_name":"Dolomite","category":25,"distinct_rating":1.85,"distinct_type":"Bottom","rt":null,"stimulus":"Stimuli_Rocks480/S_Dolomite_12.png","response":null,"trial_type":"image-keyboard-response","trial_index":61,"plugin_version":"2.1.0","time_elapsed":305090,"subject_id":"92059","group":"Group1","condition":"1_Rep","full_date":"2026-01-24T21:28:10.119Z","date":"2026-01-24","time":"21:28:10"},{"rt":null,"stimulus":"<p style=\"font-size: 50px; margin: 0; text-align: center;\">+</p>","response":null,"trial_type":"html-keyboard-response","trial_index":62,"plugin_version":"2.1.0","time_elapsed":306092,"subject_id":"92059","group":"Group1","condition":"1_Rep","full_date":"2026-01-24T21:28:10.119Z","date":"2026-01-24","time":"21:28:10"},{"task":"memory_phase","broad_category":"S","image_png":"S_Conglomerate_05.png","image_id":373,"category_name":"Conglomerate","category":24,"distinct_rating":7.32,"distinct_type":"Top","rt":null,"stimulus":"Stimuli_Rocks480/S_Conglomerate_05.png","response":null,"trial_type":"image-keyboard-response","trial_index":63,"plugin_version":"2.1.0","time_elapsed":308607,"subject_id":"92059","group":"Group1","condition":"1_Rep","full_date":"2026-01-24T21:28:10.119Z","date":"2026-01-24","time":"21:28:10"},{"rt":null,"stimulus":"<p style=\"font-size: 50px; margin: 0; text-align: center;\">+</p>","response":null,"trial_type":"html-keyboard-response","trial_index":64,"plugin_version":"2.1.0","time_elapsed":309610,"subject_id":"92059","group":"Group1","condition":"1_Rep","full_date":"2026-01-24T21:28:10.119Z","date":"2026-01-24","time":"21:28:10"},{"task":"memory_phase","broad_category":"M","image_png":"M_Slate_03.png","image_id":307,"category_name":"Slate","category":20,"distinct_rating":1.87,"distinct_type":"Bottom","rt":null,"stimulus":"Stimuli_Rocks480/M_Slate_03.png","response":null,"trial_type":"image-keyboard-response","trial_index":65,"plugin_version":"2.1.0","time_elapsed":312126,"subject_id":"92059","group":"Group1","condition":"1_Rep","full_date":"2026-01-24T21:28:10.119Z","date":"2026-01-24","time":"21:28:10"},{"rt":null,"stimulus":"<p style=\"font-size: 50px; margin: 0; text-align: center;\">+</p>","response":null,"trial_type":"html-keyboard-response","trial_index":66,"plugin_version":"2.1.0","time_elapsed":313129,"subject_id":"92059","group":"Group1","condition":"1_Rep","full_date":"2026-01-24T21:28:10.119Z","date":"2026-01-24","time":"21:28:10"},{"task":"memory_phase","broad_category":"M","image_png":"M_Gneiss_06.png","image_id":198,"category_name":"Gneiss","category":13,"distinct_rating":2.65,"distinct_type":"Bottom","rt":null,"stimulus":"Stimuli_Rocks480/M_Gneiss_06.png","response":null,"trial_type":"image-keyboard-response","trial_index":67,"plugin_version":"2.1.0","time_elapsed":315647,"subject_id":"92059","group":"Group1","condition":"1_Rep","full_date":"2026-01-24T21:28:10.119Z","date":"2026-01-24","time":"21:28:10"},{"rt":null,"stimulus":"<p style=\"font-size: 50px; margin: 0; text-align: center;\">+</p>","response":null,"trial_type":"html-keyboard-response","trial_index":68,"plugin_version":"2.1.0","time_elapsed":316649,"subject_id":"92059","group":"Group1","condition":"1_Rep","full_date":"2026-01-24T21:28:10.119Z","date":"2026-01-24","time":"21:28:10"},{"task":"memory_phase","broad_category":"I","image_png":"I_Basalt_01.png","image_id":17,"category_name":"Basalt","category":2,"distinct_rating":1.92,"distinct_type":"Bottom","rt":null,"stimulus":"Stimuli_Rocks480/I_Basalt_01.png","response":null,"trial_type":"image-keyboard-response","trial_index":69,"plugin_version":"2.1.0","time_elapsed":319167,"subject_id":"92059","group":"Group1","condition":"1_Rep","full_date":"2026-01-24T21:28:10.119Z","date":"2026-01-24","time":"21:28:10"},{"rt":null,"stimulus":"<p style=\"font-size: 50px; margin: 0; text-align: center;\">+</p>","response":null,"trial_type":"html-keyboard-response","trial_index":70,"plugin_version":"2.1.0","time_elapsed":320169,"subject_id":"92059","group":"Group1","condition":"1_Rep","full_date":"2026-01-24T21:28:10.119Z","date":"2026-01-24","time":"21:28:10"},{"task":"memory_phase","broad_category":"I","image_png":"I_Obsidian_05.png","image_id":85,"category_name":"Obsidian","category":6,"distinct_rating":7.32,"distinct_type":"Top","rt":null,"stimulus":"Stimuli_Rocks480/I_Obsidian_05.png","response":null,"trial_type":"image-keyboard-response","trial_index":71,"plugin_version":"2.1.0","time_elapsed":322686,"subject_id":"92059","group":"Group1","condition":"1_Rep","full_date":"2026-01-24T21:28:10.119Z","date":"2026-01-24","time":"21:28:10"},{"rt":null,"stimulus":"<p style=\"font-size: 50px; margin: 0; text-align: center;\">+</p>","response":null,"trial_type":"html-keyboard-response","trial_index":72,"plugin_version":"2.1.0","time_elapsed":323688,"subject_id":"92059","group":"Group1","condition":"1_Rep","full_date":"2026-01-24T21:28:10.119Z","date":"2026-01-24","time":"21:28:10"},{"task":"memory_phase","broad_category":"M","image_png":"M_Quartzite_13.png","image_id":285,"category_name":"Quartzite","category":18,"distinct_rating":2.27,"distinct_type":"Bottom","rt":null,"stimulus":"Stimuli_Rocks480/M_Quartzite_13.png","response":null,"trial_type":"image-keyboard-response","trial_index":73,"plugin_version":"2.1.0","time_elapsed":326204,"subject_id":"92059","group":"Group1","condition":"1_Rep","full_date":"2026-01-24T21:28:10.119Z","date":"2026-01-24","time":"21:28:10"},{"rt":null,"stimulus":"<p style=\"font-size: 50px; margin: 0; text-align: center;\">+</p>","response":null,"trial_type":"html-keyboard-response","trial_index":74,"plugin_version":"2.1.0","time_elapsed":327206,"subject_id":"92059","group":"Group1","condition":"1_Rep","full_date":"2026-01-24T21:28:10.119Z","date":"2026-01-24","time":"21:28:10"},{"task":"memory_phase","broad_category":"S","image_png":"S_Shale_01.png","image_id":465,"category_name":"Shale","category":30,"distinct_rating":2.7,"distinct_type":"Bottom","rt":null,"stimulus":"Stimuli_Rocks480/S_Shale_01.png","response":null,"trial_type":"image-keyboard-response","trial_index":75,"plugin_version":"2.1.0","time_elapsed":329721,"subject_id":"92059","group":"Group1","condition":"1_Rep","full_date":"2026-01-24T21:28:10.119Z","date":"2026-01-24","time":"21:28:10"},{"rt":null,"stimulus":"<p style=\"font-size: 50px; margin: 0; text-align: center;\">+</p>","response":null,"trial_type":"html-keyboard-response","trial_index":76,"plugin_version":"2.1.0","time_elapsed":330723,"subject_id":"92059","group":"Group1","condition":"1_Rep","full_date":"2026-01-24T21:28:10.119Z","date":"2026-01-24","time":"21:28:10"},{"task":"memory_phase","broad_category":"S","image_png":"S_Dolomite_14.png","image_id":398,"category_name":"Dolomite","category":25,"distinct_rating":1.43,"distinct_type":"Bottom","rt":null,"stimulus":"Stimuli_Rocks480/S_Dolomite_14.png","response":null,"trial_type":"image-keyboard-response","trial_index":77,"plugin_version":"2.1.0","time_elapsed":333238,"subject_id":"92059","group":"Group1","condition":"1_Rep","full_date":"2026-01-24T21:28:10.119Z","date":"2026-01-24","time":"21:28:10"},{"rt":null,"stimulus":"<p style=\"font-size: 50px; margin: 0; text-align: center;\">+</p>","response":null,"trial_type":"html-keyboard-response","trial_index":78,"plugin_version":"2.1.0","time_elapsed":334240,"subject_id":"92059","group":"Group1","condition":"1_Rep","full_date":"2026-01-24T21:28:10.119Z","date":"2026-01-24","time":"21:28:10"},{"task":"memory_phase","broad_category":"I","image_png":"I_Rhyolite_11.png","image_id":155,"category_name":"Rhyolite","category":10,"distinct_rating":1.73,"distinct_type":"Bottom","rt":null,"stimulus":"Stimuli_Rocks480/I_Rhyolite_11.png","response":null,"trial_type":"image-keyboard-response","trial_index":79,"plugin_version":"2.1.0","time_elapsed":336754,"subject_id":"92059","group":"Group1","condition":"1_Rep","full_date":"2026-01-24T21:28:10.119Z","date":"2026-01-24","time":"21:28:10"},{"rt":null,"stimulus":"<p style=\"font-size: 50px; margin: 0; text-align: center;\">+</p>","response":null,"trial_type":"html-keyboard-response","trial_index":80,"plugin_version":"2.1.0","time_elapsed":337756,"subject_id":"92059","group":"Group1","condition":"1_Rep","full_date":"2026-01-24T21:28:10.119Z","date":"2026-01-24","time":"21:28:10"},{"task":"memory_phase","broad_category":"I","image_png":"I_Andesite_06.png","image_id":6,"category_name":"Andesite","category":1,"distinct_rating":3.17,"distinct_type":"Bottom","rt":null,"stimulus":"Stimuli_Rocks480/I_Andesite_06.png","response":null,"trial_type":"image-keyboard-response","trial_index":81,"plugin_version":"2.1.0","time_elapsed":340273,"subject_id":"92059","group":"Group1","condition":"1_Rep","full_date":"2026-01-24T21:28:10.119Z","date":"2026-01-24","time":"21:28:10"},{"rt":null,"stimulus":"<p style=\"font-size: 50px; margin: 0; text-align: center;\">+</p>","response":null,"trial_type":"html-keyboard-response","trial_index":82,"plugin_version":"2.1.0","time_elapsed":341275,"subject_id":"92059","group":"Group1","condition":"1_Rep","full_date":"2026-01-24T21:28:10.119Z","date":"2026-01-24","time":"21:28:10"},{"task":"memory_phase","broad_category":"M","image_png":"M_Slate_11.png","image_id":315,"category_name":"Slate","category":20,"distinct_rating":2.75,"distinct_type":"Bottom","rt":null,"stimulus":"Stimuli_Rocks480/M_Slate_11.png","response":null,"trial_type":"image-keyboard-response","trial_index":83,"plugin_version":"2.1.0","time_elapsed":343787,"subject_id":"92059","group":"Group1","condition":"1_Rep","full_date":"2026-01-24T21:28:10.119Z","date":"2026-01-24","time":"21:28:10"},{"rt":null,"stimulus":"<p style=\"font-size: 50px; margin: 0; text-align: center;\">+</p>","response":null,"trial_type":"html-keyboard-response","trial_index":84,"plugin_version":"2.1.0","time_elapsed":344789,"subject_id":"92059","group":"Group1","condition":"1_Rep","full_date":"2026-01-24T21:28:10.119Z","date":"2026-01-24","time":"21:28:10"},{"task":"memory_phase","broad_category":"S","image_png":"S_Sandstone_15.png","image_id":463,"category_name":"Sandstone","category":29,"distinct_rating":2,"distinct_type":"Bottom","rt":null,"stimulus":"Stimuli_Rocks480/S_Sandstone_15.png","response":null,"trial_type":"image-keyboard-response","trial_index":85,"plugin_version":"2.1.0","time_elapsed":347305,"subject_id":"92059","group":"Group1","condition":"1_Rep","full_date":"2026-01-24T21:28:10.119Z","date":"2026-01-24","time":"21:28:10"},{"rt":null,"stimulus":"<p style=\"font-size: 50px; margin: 0; text-align: center;\">+</p>","response":null,"trial_type":"html-keyboard-response","trial_index":86,"plugin_version":"2.1.0","time_elapsed":348308,"subject_id":"92059","group":"Group1","condition":"1_Rep","full_date":"2026-01-24T21:28:10.119Z","date":"2026-01-24","time":"21:28:10"},{"task":"memory_phase","broad_category":"M","image_png":"M_Slate_15.png","image_id":319,"category_name":"Slate","category":20,"distinct_rating":2.13,"distinct_type":"Bottom","rt":null,"stimulus":"Stimuli_Rocks480/M_Slate_15.png","response":null,"trial_type":"image-keyboard-response","trial_index":87,"plugin_version":"2.1.0","time_elapsed":350821,"subject_id":"92059","group":"Group1","condition":"1_Rep","full_date":"2026-01-24T21:28:10.119Z","date":"2026-01-24","time":"21:28:10"},{"rt":null,"stimulus":"<p style=\"font-size: 50px; margin: 0; text-align: center;\">+</p>","response":null,"trial_type":"html-keyboard-response","trial_index":88,"plugin_version":"2.1.0","time_elapsed":351823,"subject_id":"92059","group":"Group1","condition":"1_Rep","full_date":"2026-01-24T21:28:10.119Z","date":"2026-01-24","time":"21:28:10"},{"task":"memory_phase","broad_category":"S","image_png":"S_Rock Salt_01.png","image_id":433,"category_name":"Rock Salt","category":28,"distinct_rating":7.18,"distinct_type":"Top","rt":null,"stimulus":"Stimuli_Rocks480/S_Rock Salt_01.png","response":null,"trial_type":"image-keyboard-response","trial_index":89,"plugin_version":"2.1.0","time_elapsed":354340,"subject_id":"92059","group":"Group1","condition":"1_Rep","full_date":"2026-01-24T21:28:10.119Z","date":"2026-01-24","time":"21:28:10"},{"rt":null,"stimulus":"<p style=\"font-size: 50px; margin: 0; text-align: center;\">+</p>","response":null,"trial_type":"html-keyboard-response","trial_index":90,"plugin_version":"2.1.0","time_elapsed":355342,"subject_id":"92059","group":"Group1","condition":"1_Rep","full_date":"2026-01-24T21:28:10.119Z","date":"2026-01-24","time":"21:28:10"},{"task":"memory_phase","broad_category":"M","image_png":"M_Quartzite_05.png","image_id":277,"category_name":"Quartzite","category":18,"distinct_rating":2.23,"distinct_type":"Bottom","rt":null,"stimulus":"Stimuli_Rocks480/M_Quartzite_05.png","response":null,"trial_type":"image-keyboard-response","trial_index":91,"plugin_version":"2.1.0","time_elapsed":357859,"subject_id":"92059","group":"Group1","condition":"1_Rep","full_date":"2026-01-24T21:28:10.119Z","date":"2026-01-24","time":"21:28:10"},{"rt":null,"stimulus":"<p style=\"font-size: 50px; margin: 0; text-align: center;\">+</p>","response":null,"trial_type":"html-keyboard-response","trial_index":92,"plugin_version":"2.1.0","time_elapsed":358861,"subject_id":"92059","group":"Group1","condition":"1_Rep","full_date":"2026-01-24T21:28:10.119Z","date":"2026-01-24","time":"21:28:10"},{"task":"memory_phase","broad_category":"I","image_png":"I_Pumice_11.png","image_id":139,"category_name":"Pumice","category":9,"distinct_rating":1.74,"distinct_type":"Bottom","rt":null,"stimulus":"Stimuli_Rocks480/I_Pumice_11.png","response":null,"trial_type":"image-keyboard-response","trial_index":93,"plugin_version":"2.1.0","time_elapsed":361376,"subject_id":"92059","group":"Group1","condition":"1_Rep","full_date":"2026-01-24T21:28:10.119Z","date":"2026-01-24","time":"21:28:10"},{"rt":null,"stimulus":"<p style=\"font-size: 50px; margin: 0; text-align: center;\">+</p>","response":null,"trial_type":"html-keyboard-response","trial_index":94,"plugin_version":"2.1.0","time_elapsed":362378,"subject_id":"92059","group":"Group1","condition":"1_Rep","full_date":"2026-01-24T21:28:10.119Z","date":"2026-01-24","time":"21:28:10"},{"task":"memory_phase","broad_category":"M","image_png":"M_Marble_04.png","image_id":228,"category_name":"Marble","category":15,"distinct_rating":3.15,"distinct_type":"Bottom","rt":null,"stimulus":"Stimuli_Rocks480/M_Marble_04.png","response":null,"trial_type":"image-keyboard-response","trial_index":95,"plugin_version":"2.1.0","time_elapsed":364894,"subject_id":"92059","group":"Group1","condition":"1_Rep","full_date":"2026-01-24T21:28:10.119Z","date":"2026-01-24","time":"21:28:10"},{"rt":null,"stimulus":"<p style=\"font-size: 50px; margin: 0; text-align: center;\">+</p>","response":null,"trial_type":"html-keyboard-response","trial_index":96,"plugin_version":"2.1.0","time_elapsed":365896,"subject_id":"92059","group":"Group1","condition":"1_Rep","full_date":"2026-01-24T21:28:10.119Z","date":"2026-01-24","time":"21:28:10"},{"task":"memory_phase","broad_category":"I","image_png":"I_Diorite_04.png","image_id":36,"category_name":"Diorite","category":3,"distinct_rating":2.98,"distinct_type":"Bottom","rt":null,"stimulus":"Stimuli_Rocks480/I_Diorite_04.png","response":null,"trial_type":"image-keyboard-response","trial_index":97,"plugin_version":"2.1.0","time_elapsed":368413,"subject_id":"92059","group":"Group1","condition":"1_Rep","full_date":"2026-01-24T21:28:10.119Z","date":"2026-01-24","time":"21:28:10"},{"rt":null,"stimulus":"<p style=\"font-size: 50px; margin: 0; text-align: center;\">+</p>","response":null,"trial_type":"html-keyboard-response","trial_index":98,"plugin_version":"2.1.0","time_elapsed":369415,"subject_id":"92059","group":"Group1","condition":"1_Rep","full_date":"2026-01-24T21:28:10.119Z","date":"2026-01-24","time":"21:28:10"},{"task":"memory_phase","broad_category":"S","image_png":"S_Dolomite_13.png","image_id":397,"category_name":"Dolomite","category":25,"distinct_rating":1.77,"distinct_type":"Bottom","rt":null,"stimulus":"Stimuli_Rocks480/S_Dolomite_13.png","response":null,"trial_type":"image-keyboard-response","trial_index":99,"plugin_version":"2.1.0","time_elapsed":371931,"subject_id":"92059","group":"Group1","condition":"1_Rep","full_date":"2026-01-24T21:28:10.119Z","date":"2026-01-24","time":"21:28:10"},{"rt":null,"stimulus":"<p style=\"font-size: 50px; margin: 0; text-align: center;\">+</p>","response":null,"trial_type":"html-keyboard-response","trial_index":100,"plugin_version":"2.1.0","time_elapsed":372933,"subject_id":"92059","group":"Group1","condition":"1_Rep","full_date":"2026-01-24T21:28:10.119Z","date":"2026-01-24","time":"21:28:10"},{"task":"memory_phase","broad_category":"I","image_png":"I_Rhyolite_14.png","image_id":158,"category_name":"Rhyolite","category":10,"distinct_rating":2.59,"distinct_type":"Bottom","rt":null,"stimulus":"Stimuli_Rocks480/I_Rhyolite_14.png","response":null,"trial_type":"image-keyboard-response","trial_index":101,"plugin_version":"2.1.0","time_elapsed":375446,"subject_id":"92059","group":"Group1","condition":"1_Rep","full_date":"2026-01-24T21:28:10.119Z","date":"2026-01-24","time":"21:28:10"},{"rt":null,"stimulus":"<p style=\"font-size: 50px; margin: 0; text-align: center;\">+</p>","response":null,"trial_type":"html-keyboard-response","trial_index":102,"plugin_version":"2.1.0","time_elapsed":376448,"subject_id":"92059","group":"Group1","condition":"1_Rep","full_date":"2026-01-24T21:28:10.119Z","date":"2026-01-24","time":"21:28:10"},{"task":"memory_phase","broad_category":"M","image_png":"M_Phyllite_10.png","image_id":266,"category_name":"Phyllite","category":17,"distinct_rating":2.6,"distinct_type":"Bottom","rt":null,"stimulus":"Stimuli_Rocks480/M_Phyllite_10.png","response":null,"trial_type":"image-keyboard-response","trial_index":103,"plugin_version":"2.1.0","time_elapsed":378960,"subject_id":"92059","group":"Group1","condition":"1_Rep","full_date":"2026-01-24T21:28:10.119Z","date":"2026-01-24","time":"21:28:10"},{"rt":null,"stimulus":"<p style=\"font-size: 50px; margin: 0; text-align: center;\">+</p>","response":null,"trial_type":"html-keyboard-response","trial_index":104,"plugin_version":"2.1.0","time_elapsed":379962,"subject_id":"92059","group":"Group1","condition":"1_Rep","full_date":"2026-01-24T21:28:10.119Z","date":"2026-01-24","time":"21:28:10"},{"task":"memory_phase","broad_category":"I","image_png":"I_Gabbro_11.png","image_id":59,"category_name":"Gabbro","category":4,"distinct_rating":1.99,"distinct_type":"Bottom","rt":null,"stimulus":"Stimuli_Rocks480/I_Gabbro_11.png","response":null,"trial_type":"image-keyboard-response","trial_index":105,"plugin_version":"2.1.0","time_elapsed":382475,"subject_id":"92059","group":"Group1","condition":"1_Rep","full_date":"2026-01-24T21:28:10.119Z","date":"2026-01-24","time":"21:28:10"},{"rt":17023,"stimulus":"<div style=\"max-width: 760px; margin: auto; font-size: 20px; line-height: 1.5;\">\n      <h1 style=\"text-align:center; font-size: 30px;\">Instructions for the Test Phase</h1>\n      <p>\n        The study phase is now complete.\n      </p>\n      <p>\n        In the test phase, you will again see a series of rock images. \n        Some will be ones you saw before - during the study phase, while others will be new.  \n        <b>Your task</b> is to decide whether you have seen each image before by pressing the corresponding key on your keyboard:<br><br>\n          <b>A</b> - NO (you did not see this image before)<br>\n          <b>L</b> - YES (you saw this image before)<br><br>\n        The test will proceed at your own pace. You will receive feedback after each response.  \n        Please try to respond <b>as accurately as possible</b>.\n      </p>\n      <p>\n        <b>Reminder:</b> If your computer has multiple language settings (e.g., English and another language),\n        please ensure it is set to English during the test phase.\n      </p>\n      <p>\n        You can track your progress using the <b>completion bar</b> at the top of the screen.  \n        Note that it has been refreshed to reflect your progress during this final phase.\n      </p>\n      <p>\n        Press the button below when you are ready to continue.\n      </p>\n    </div>","response":0,"trial_type":"html-button-response","trial_index":106,"plugin_version":"2.1.0","time_elapsed":399500,"subject_id":"92059","group":"Group1","condition":"1_Rep","full_date":"2026-01-24T21:28:10.119Z","date":"2026-01-24","time":"21:28:10"},{"correct_response":"l","task":"test_phase","broad_category":"S","image_png":"S_Rock Gypsum_04.png","image_id":420,"category_name":"Rock Gypsum","category":27,"distinct_rating":7.61,"distinct_type":"Top","item_type":"Target","rt":3240,"stimulus":"Stimuli_Rocks480/S_Rock Gypsum_04.png","response":"a","trial_type":"image-keyboard-response","trial_index":107,"plugin_version":"2.1.0","time_elapsed":402754,"subject_id":"92059","group":"Group1","condition":"1_Rep","full_date":"2026-01-24T21:28:10.119Z","date":"2026-01-24","time":"21:28:10","cor_ans":false},{"trial_type":"html-keyboard-response","rt":null,"stimulus":"<p style=\"color: red; font-size: 50px; font-weight: bold;\">Incorrect</p>","response":null,"trial_index":108,"plugin_version":"2.1.0","time_elapsed":403257,"subject_id":"92059","group":"Group1","condition":"1_Rep","full_date":"2026-01-24T21:28:10.119Z","date":"2026-01-24","time":"21:28:10"},{"correct_response":"l","task":"test_phase","broad_category":"I","image_png":"I_Rhyolite_16.png","image_id":160,"category_name":"Rhyolite","category":10,"distinct_rating":2.19,"distinct_type":"Bottom","item_type":"Target","rt":2674,"stimulus":"Stimuli_Rocks480/I_Rhyolite_16.png","response":"l","trial_type":"image-keyboard-response","trial_index":109,"plugin_version":"2.1.0","time_elapsed":405933,"subject_id":"92059","group":"Group1","condition":"1_Rep","full_date":"2026-01-24T21:28:10.119Z","date":"2026-01-24","time":"21:28:10","cor_ans":true},{"trial_type":"html-keyboard-response","rt":null,"stimulus":"<p style=\"color: green; font-size: 50px; font-weight: bold;\">Correct</p>","response":null,"trial_index":110,"plugin_version":"2.1.0","time_elapsed":406436,"subject_id":"92059","group":"Group1","condition":"1_Rep","full_date":"2026-01-24T21:28:10.119Z","date":"2026-01-24","time":"21:28:10"},{"correct_response":"l","task":"test_phase","broad_category":"I","image_png":"I_Pumice_11.png","image_id":139,"category_name":"Pumice","category":9,"distinct_rating":1.74,"distinct_type":"Bottom","item_type":"Target","rt":1245,"stimulus":"Stimuli_Rocks480/I_Pumice_11.png","response":"l","trial_type":"image-keyboard-response","trial_index":111,"plugin_version":"2.1.0","time_elapsed":407682,"subject_id":"92059","group":"Group1","condition":"1_Rep","full_date":"2026-01-24T21:28:10.119Z","date":"2026-01-24","time":"21:28:10","cor_ans":true},{"trial_type":"html-keyboard-response","rt":null,"stimulus":"<p style=\"color: green; font-size: 50px; font-weight: bold;\">Correct</p>","response":null,"trial_index":112,"plugin_version":"2.1.0","time_elapsed":408184,"subject_id":"92059","group":"Group1","condition":"1_Rep","full_date":"2026-01-24T21:28:10.119Z","date":"2026-01-24","time":"21:28:10"},{"correct_response":"l","task":"test_phase","broad_category":"S","image_png":"S_Shale_01.png","image_id":465,"category_name":"Shale","category":30,"distinct_rating":2.7,"distinct_type":"Bottom","item_type":"Target","rt":1236,"stimulus":"Stimuli_Rocks480/S_Shale_01.png","response":"l","trial_type":"image-keyboard-response","trial_index":113,"plugin_version":"2.1.0","time_elapsed":409422,"subject_id":"92059","group":"Group1","condition":"1_Rep","full_date":"2026-01-24T21:28:10.119Z","date":"2026-01-24","time":"21:28:10","cor_ans":true},{"trial_type":"html-keyboard-response","rt":null,"stimulus":"<p style=\"color: green; font-size: 50px; font-weight: bold;\">Correct</p>","response":null,"trial_index":114,"plugin_version":"2.1.0","time_elapsed":409924,"subject_id":"92059","group":"Group1","condition":"1_Rep","full_date":"2026-01-24T21:28:10.119Z","date":"2026-01-24","time":"21:28:10"},{"correct_response":"a","task":"test_phase","broad_category":"M","image_png":"M_Slate_14.png","image_id":318,"category_name":"Slate","category":20,"distinct_rating":2.58,"distinct_type":"Bottom","item_type":"Foil","rt":1395,"stimulus":"Stimuli_Rocks480/M_Slate_14.png","response":"l","trial_type":"image-keyboard-response","trial_index":115,"plugin_version":"2.1.0","time_elapsed":411329,"subject_id":"92059","group":"Group1","condition":"1_Rep","full_date":"2026-01-24T21:28:10.119Z","date":"2026-01-24","time":"21:28:10","cor_ans":false},{"trial_type":"html-keyboard-response","rt":null,"stimulus":"<p style=\"color: red; font-size: 50px; font-weight: bold;\">Incorrect</p>","response":null,"trial_index":116,"plugin_version":"2.1.0","time_elapsed":411831,"subject_id":"92059","group":"Group1","condition":"1_Rep","full_date":"2026-01-24T21:28:10.119Z","date":"2026-01-24","time":"21:28:10"},{"correct_response":"l","task":"test_phase","broad_category":"M","image_png":"M_Gneiss_05.png","image_id":197,"category_name":"Gneiss","category":13,"distinct_rating":2.97,"distinct_type":"Bottom","item_type":"Target","rt":961,"stimulus":"Stimuli_Rocks480/M_Gneiss_05.png","response":"l","trial_type":"image-keyboard-response","trial_index":117,"plugin_version":"2.1.0","time_elapsed":412797,"subject_id":"92059","group":"Group1","condition":"1_Rep","full_date":"2026-01-24T21:28:10.119Z","date":"2026-01-24","time":"21:28:10","cor_ans":true},{"trial_type":"html-keyboard-response","rt":null,"stimulus":"<p style=\"color: green; font-size: 50px; font-weight: bold;\">Correct</p>","response":null,"trial_index":118,"plugin_version":"2.1.0","time_elapsed":413301,"subject_id":"92059","group":"Group1","condition":"1_Rep","full_date":"2026-01-24T21:28:10.119Z","date":"2026-01-24","time":"21:28:10"},{"correct_response":"l","task":"test_phase","broad_category":"I","image_png":"I_Andesite_08.png","image_id":8,"category_name":"Andesite","category":1,"distinct_rating":1.95,"distinct_type":"Bottom","item_type":"Target","rt":922,"stimulus":"Stimuli_Rocks480/I_Andesite_08.png","response":"l","trial_type":"image-keyboard-response","trial_index":119,"plugin_version":"2.1.0","time_elapsed":414225,"subject_id":"92059","group":"Group1","condition":"1_Rep","full_date":"2026-01-24T21:28:10.119Z","date":"2026-01-24","time":"21:28:10","cor_ans":true},{"trial_type":"html-keyboard-response","rt":null,"stimulus":"<p style=\"color: green; font-size: 50px; font-weight: bold;\">Correct</p>","response":null,"trial_index":120,"plugin_version":"2.1.0","time_elapsed":414727,"subject_id":"92059","group":"Group1","condition":"1_Rep","full_date":"2026-01-24T21:28:10.119Z","date":"2026-01-24","time":"21:28:10"},{"correct_response":"a","task":"test_phase","broad_category":"M","image_png":"M_Marble_03.png","image_id":227,"category_name":"Marble","category":15,"distinct_rating":2.67,"distinct_type":"Bottom","item_type":"Foil","rt":1854,"stimulus":"Stimuli_Rocks480/M_Marble_03.png","response":"a","trial_type":"image-keyboard-response","trial_index":121,"plugin_version":"2.1.0","time_elapsed":416595,"subject_id":"92059","group":"Group1","condition":"1_Rep","full_date":"2026-01-24T21:28:10.119Z","date":"2026-01-24","time":"21:28:10","cor_ans":true},{"trial_type":"html-keyboard-response","rt":null,"stimulus":"<p style=\"color: green; font-size: 50px; font-weight: bold;\">Correct</p>","response":null,"trial_index":122,"plugin_version":"2.1.0","time_elapsed":417097,"subject_id":"92059","group":"Group1","condition":"1_Rep","full_date":"2026-01-24T21:28:10.119Z","date":"2026-01-24","time":"21:28:10"},{"correct_response":"l","task":"test_phase","broad_category":"I","image_png":"I_Pumice_08.png","image_id":136,"category_name":"Pumice","category":9,"distinct_rating":3.1,"distinct_type":"Bottom","item_type":"Target","rt":1164,"stimulus":"Stimuli_Rocks480/I_Pumice_08.png","response":"l","trial_type":"image-keyboard-response","trial_index":123,"plugin_version":"2.1.0","time_elapsed":418274,"subject_id":"92059","group":"Group1","condition":"1_Rep","full_date":"2026-01-24T21:28:10.119Z","date":"2026-01-24","time":"21:28:10","cor_ans":true},{"trial_type":"html-keyboard-response","rt":null,"stimulus":"<p style=\"color: green; font-size: 50px; font-weight: bold;\">Correct</p>","response":null,"trial_index":124,"plugin_version":"2.1.0","time_elapsed":418777,"subject_id":"92059","group":"Group1","condition":"1_Rep","full_date":"2026-01-24T21:28:10.119Z","date":"2026-01-24","time":"21:28:10"},{"correct_response":"a","task":"test_phase","broad_category":"I","image_png":"I_Basalt_08.png","image_id":24,"category_name":"Basalt","category":2,"distinct_rating":2.31,"distinct_type":"Bottom","item_type":"Foil","rt":1488,"stimulus":"Stimuli_Rocks480/I_Basalt_08.png","response":"a","trial_type":"image-keyboard-response","trial_index":125,"plugin_version":"2.1.0","time_elapsed":420285,"subject_id":"92059","group":"Group1","condition":"1_Rep","full_date":"2026-01-24T21:28:10.119Z","date":"2026-01-24","time":"21:28:10","cor_ans":true},{"trial_type":"html-keyboard-response","rt":null,"stimulus":"<p style=\"color: green; font-size: 50px; font-weight: bold;\">Correct</p>","response":null,"trial_index":126,"plugin_version":"2.1.0","time_elapsed":420787,"subject_id":"92059","group":"Group1","condition":"1_Rep","full_date":"2026-01-24T21:28:10.119Z","date":"2026-01-24","time":"21:28:10"},{"correct_response":"l","task":"test_phase","broad_category":"I","image_png":"I_Gabbro_16.png","image_id":64,"category_name":"Gabbro","category":4,"distinct_rating":2.52,"distinct_type":"Bottom","item_type":"Target","rt":1159,"stimulus":"Stimuli_Rocks480/I_Gabbro_16.png","response":"l","trial_type":"image-keyboard-response","trial_index":127,"plugin_version":"2.1.0","time_elapsed":421959,"subject_id":"92059","group":"Group1","condition":"1_Rep","full_date":"2026-01-24T21:28:10.119Z","date":"2026-01-24","time":"21:28:10","cor_ans":true},{"trial_type":"html-keyboard-response","rt":null,"stimulus":"<p style=\"color: green; font-size: 50px; font-weight: bold;\">Correct</p>","response":null,"trial_index":128,"plugin_version":"2.1.0","time_elapsed":422461,"subject_id":"92059","group":"Group1","condition":"1_Rep","full_date":"2026-01-24T21:28:10.119Z","date":"2026-01-24","time":"21:28:10"},{"correct_response":"a","task":"test_phase","broad_category":"I","image_png":"I_Pegmatite_03.png","image_id":99,"category_name":"Pegmatite","category":7,"distinct_rating":7.24,"distinct_type":"Top","item_type":"Foil","rt":1390,"stimulus":"Stimuli_Rocks480/I_Pegmatite_03.png","response":"a","trial_type":"image-keyboard-response","trial_index":129,"plugin_version":"2.1.0","time_elapsed":423864,"subject_id":"92059","group":"Group1","condition":"1_Rep","full_date":"2026-01-24T21:28:10.119Z","date":"2026-01-24","time":"21:28:10","cor_ans":true},{"trial_type":"html-keyboard-response","rt":null,"stimulus":"<p style=\"color: green; font-size: 50px; font-weight: bold;\">Correct</p>","response":null,"trial_index":130,"plugin_version":"2.1.0","time_elapsed":424367,"subject_id":"92059","group":"Group1","condition":"1_Rep","full_date":"2026-01-24T21:28:10.119Z","date":"2026-01-24","time":"21:28:10"},{"correct_response":"a","task":"test_phase","broad_category":"M","image_png":"M_Slate_04.png","image_id":308,"category_name":"Slate","category":20,"distinct_rating":2.2,"distinct_type":"Bottom","item_type":"Foil","rt":1113,"stimulus":"Stimuli_Rocks480/M_Slate_04.png","response":"l","trial_type":"image-keyboard-response","trial_index":131,"plugin_version":"2.1.0","time_elapsed":425490,"subject_id":"92059","group":"Group1","condition":"1_Rep","full_date":"2026-01-24T21:28:10.119Z","date":"2026-01-24","time":"21:28:10","cor_ans":false},{"trial_type":"html-keyboard-response","rt":null,"stimulus":"<p style=\"color: red; font-size: 50px; font-weight: bold;\">Incorrect</p>","response":null,"trial_index":132,"plugin_version":"2.1.0","time_elapsed":425992,"subject_id":"92059","group":"Group1","condition":"1_Rep","full_date":"2026-01-24T21:28:10.119Z","date":"2026-01-24","time":"21:28:10"},{"correct_response":"l","task":"test_phase","broad_category":"M","image_png":"M_Gneiss_13.png","image_id":205,"category_name":"Gneiss","category":13,"distinct_rating":3.26,"distinct_type":"Bottom","item_type":"Target","rt":1087,"stimulus":"Stimuli_Rocks480/M_Gneiss_13.png","response":"l","trial_type":"image-keyboard-response","trial_index":133,"plugin_version":"2.1.0","time_elapsed":427093,"subject_id":"92059","group":"Group1","condition":"1_Rep","full_date":"2026-01-24T21:28:10.119Z","date":"2026-01-24","time":"21:28:10","cor_ans":true},{"trial_type":"html-keyboard-response","rt":null,"stimulus":"<p style=\"color: green; font-size: 50px; font-weight: bold;\">Correct</p>","response":null,"trial_index":134,"plugin_version":"2.1.0","time_elapsed":427596,"subject_id":"92059","group":"Group1","condition":"1_Rep","full_date":"2026-01-24T21:28:10.119Z","date":"2026-01-24","time":"21:28:10"},{"correct_response":"l","task":"test_phase","broad_category":"S","image_png":"S_Dolomite_12.png","image_id":396,"category_name":"Dolomite","category":25,"distinct_rating":1.85,"distinct_type":"Bottom","item_type":"Target","rt":844,"stimulus":"Stimuli_Rocks480/S_Dolomite_12.png","response":"l","trial_type":"image-keyboard-response","trial_index":135,"plugin_version":"2.1.0","time_elapsed":428454,"subject_id":"92059","group":"Group1","condition":"1_Rep","full_date":"2026-01-24T21:28:10.119Z","date":"2026-01-24","time":"21:28:10","cor_ans":true},{"trial_type":"html-keyboard-response","rt":null,"stimulus":"<p style=\"color: green; font-size: 50px; font-weight: bold;\">Correct</p>","response":null,"trial_index":136,"plugin_version":"2.1.0","time_elapsed":428956,"subject_id":"92059","group":"Group1","condition":"1_Rep","full_date":"2026-01-24T21:28:10.119Z","date":"2026-01-24","time":"21:28:10"},{"correct_response":"a","task":"test_phase","broad_category":"S","image_png":"S_Dolomite_16.png","image_id":400,"category_name":"Dolomite","category":25,"distinct_rating":1.71,"distinct_type":"Bottom","item_type":"Foil","rt":839,"stimulus":"Stimuli_Rocks480/S_Dolomite_16.png","response":"l","trial_type":"image-keyboard-response","trial_index":137,"plugin_version":"2.1.0","time_elapsed":429809,"subject_id":"92059","group":"Group1","condition":"1_Rep","full_date":"2026-01-24T21:28:10.119Z","date":"2026-01-24","time":"21:28:10","cor_ans":false},{"trial_type":"html-keyboard-response","rt":null,"stimulus":"<p style=\"color: red; font-size: 50px; font-weight: bold;\">Incorrect</p>","response":null,"trial_index":138,"plugin_version":"2.1.0","time_elapsed":430312,"subject_id":"92059","group":"Group1","condition":"1_Rep","full_date":"2026-01-24T21:28:10.119Z","date":"2026-01-24","time":"21:28:10"},{"correct_response":"l","task":"test_phase","broad_category":"I","image_png":"I_Rhyolite_14.png","image_id":158,"category_name":"Rhyolite","category":10,"distinct_rating":2.59,"distinct_type":"Bottom","item_type":"Target","rt":1669,"stimulus":"Stimuli_Rocks480/I_Rhyolite_14.png","response":"a","trial_type":"image-keyboard-response","trial_index":139,"plugin_version":"2.1.0","time_elapsed":431983,"subject_id":"92059","group":"Group1","condition":"1_Rep","full_date":"2026-01-24T21:28:10.119Z","date":"2026-01-24","time":"21:28:10","cor_ans":false},{"trial_type":"html-keyboard-response","rt":null,"stimulus":"<p style=\"color: red; font-size: 50px; font-weight: bold;\">Incorrect</p>","response":null,"trial_index":140,"plugin_version":"2.1.0","time_elapsed":432485,"subject_id":"92059","group":"Group1","condition":"1_Rep","full_date":"2026-01-24T21:28:10.119Z","date":"2026-01-24","time":"21:28:10"},{"correct_response":"a","task":"test_phase","broad_category":"I","image_png":"I_Andesite_09.png","image_id":9,"category_name":"Andesite","category":1,"distinct_rating":2.49,"distinct_type":"Bottom","item_type":"Foil","rt":1068,"stimulus":"Stimuli_Rocks480/I_Andesite_09.png","response":"l","trial_type":"image-keyboard-response","trial_index":141,"plugin_version":"2.1.0","time_elapsed":433569,"subject_id":"92059","group":"Group1","condition":"1_Rep","full_date":"2026-01-24T21:28:10.119Z","date":"2026-01-24","time":"21:28:10","cor_ans":false},{"trial_type":"html-keyboard-response","rt":null,"stimulus":"<p style=\"color: red; font-size: 50px; font-weight: bold;\">Incorrect</p>","response":null,"trial_index":142,"plugin_version":"2.1.0","time_elapsed":434071,"subject_id":"92059","group":"Group1","condition":"1_Rep","full_date":"2026-01-24T21:28:10.119Z","date":"2026-01-24","time":"21:28:10"},{"correct_response":"a","task":"test_phase","broad_category":"I","image_png":"I_Gabbro_02.png","image_id":50,"category_name":"Gabbro","category":4,"distinct_rating":2.73,"distinct_type":"Bottom","item_type":"Foil","rt":955,"stimulus":"Stimuli_Rocks480/I_Gabbro_02.png","response":"l","trial_type":"image-keyboard-response","trial_index":143,"plugin_version":"2.1.0","time_elapsed":435041,"subject_id":"92059","group":"Group1","condition":"1_Rep","full_date":"2026-01-24T21:28:10.119Z","date":"2026-01-24","time":"21:28:10","cor_ans":false},{"trial_type":"html-keyboard-response","rt":null,"stimulus":"<p style=\"color: red; font-size: 50px; font-weight: bold;\">Incorrect</p>","response":null,"trial_index":144,"plugin_version":"2.1.0","time_elapsed":435543,"subject_id":"92059","group":"Group1","condition":"1_Rep","full_date":"2026-01-24T21:28:10.119Z","date":"2026-01-24","time":"21:28:10"},{"correct_response":"l","task":"test_phase","broad_category":"M","image_png":"M_Quartzite_08.png","image_id":280,"category_name":"Quartzite","category":18,"distinct_rating":2.15,"distinct_type":"Bottom","item_type":"Target","rt":789,"stimulus":"Stimuli_Rocks480/M_Quartzite_08.png","response":"l","trial_type":"image-keyboard-response","trial_index":145,"plugin_version":"2.1.0","time_elapsed":436347,"subject_id":"92059","group":"Group1","condition":"1_Rep","full_date":"2026-01-24T21:28:10.119Z","date":"2026-01-24","time":"21:28:10","cor_ans":true},{"trial_type":"html-keyboard-response","rt":null,"stimulus":"<p style=\"color: green; font-size: 50px; font-weight: bold;\">Correct</p>","response":null,"trial_index":146,"plugin_version":"2.1.0","time_elapsed":436849,"subject_id":"92059","group":"Group1","condition":"1_Rep","full_date":"2026-01-24T21:28:10.119Z","date":"2026-01-24","time":"21:28:10"},{"correct_response":"a","task":"test_phase","broad_category":"S","image_png":"S_Sandstone_04.png","image_id":452,"category_name":"Sandstone","category":29,"distinct_rating":1.8,"distinct_type":"Bottom","item_type":"Foil","rt":1528,"stimulus":"Stimuli_Rocks480/S_Sandstone_04.png","response":"l","trial_type":"image-keyboard-response","trial_index":147,"plugin_version":"2.1.0","time_elapsed":438392,"subject_id":"92059","group":"Group1","condition":"1_Rep","full_date":"2026-01-24T21:28:10.119Z","date":"2026-01-24","time":"21:28:10","cor_ans":false},{"trial_type":"html-keyboard-response","rt":null,"stimulus":"<p style=\"color: red; font-size: 50px; font-weight: bold;\">Incorrect</p>","response":null,"trial_index":148,"plugin_version":"2.1.0","time_elapsed":438894,"subject_id":"92059","group":"Group1","condition":"1_Rep","full_date":"2026-01-24T21:28:10.119Z","date":"2026-01-24","time":"21:28:10"},{"correct_response":"l","task":"test_phase","broad_category":"M","image_png":"M_Gneiss_06.png","image_id":198,"category_name":"Gneiss","category":13,"distinct_rating":2.65,"distinct_type":"Bottom","item_type":"Target","rt":1312,"stimulus":"Stimuli_Rocks480/M_Gneiss_06.png","response":"a","trial_type":"image-keyboard-response","trial_index":149,"plugin_version":"2.1.0","time_elapsed":440222,"subject_id":"92059","group":"Group1","condition":"1_Rep","full_date":"2026-01-24T21:28:10.119Z","date":"2026-01-24","time":"21:28:10","cor_ans":false},{"trial_type":"html-keyboard-response","rt":null,"stimulus":"<p style=\"color: red; font-size: 50px; font-weight: bold;\">Incorrect</p>","response":null,"trial_index":150,"plugin_version":"2.1.0","time_elapsed":440724,"subject_id":"92059","group":"Group1","condition":"1_Rep","full_date":"2026-01-24T21:28:10.119Z","date":"2026-01-24","time":"21:28:10"},{"correct_response":"a","task":"test_phase","broad_category":"M","image_png":"M_Marble_14.png","image_id":238,"category_name":"Marble","category":15,"distinct_rating":3.31,"distinct_type":"Bottom","item_type":"Foil","rt":1758,"stimulus":"Stimuli_Rocks480/M_Marble_14.png","response":"a","trial_type":"image-keyboard-response","trial_index":151,"plugin_version":"2.1.0","time_elapsed":442496,"subject_id":"92059","group":"Group1","condition":"1_Rep","full_date":"2026-01-24T21:28:10.119Z","date":"2026-01-24","time":"21:28:10","cor_ans":true},{"trial_type":"html-keyboard-response","rt":null,"stimulus":"<p style=\"color: green; font-size: 50px; font-weight: bold;\">Correct</p>","response":null,"trial_index":152,"plugin_version":"2.1.0","time_elapsed":442998,"subject_id":"92059","group":"Group1","condition":"1_Rep","full_date":"2026-01-24T21:28:10.119Z","date":"2026-01-24","time":"21:28:10"},{"correct_response":"a","task":"test_phase","broad_category":"I","image_png":"I_Diorite_10.png","image_id":42,"category_name":"Diorite","category":3,"distinct_rating":2.84,"distinct_type":"Bottom","item_type":"Foil","rt":1593,"stimulus":"Stimuli_Rocks480/I_Diorite_10.png","response":"a","trial_type":"image-keyboard-response","trial_index":153,"plugin_version":"2.1.0","time_elapsed":444604,"subject_id":"92059","group":"Group1","condition":"1_Rep","full_date":"2026-01-24T21:28:10.119Z","date":"2026-01-24","time":"21:28:10","cor_ans":true},{"trial_type":"html-keyboard-response","rt":null,"stimulus":"<p style=\"color: green; font-size: 50px; font-weight: bold;\">Correct</p>","response":null,"trial_index":154,"plugin_version":"2.1.0","time_elapsed":445106,"subject_id":"92059","group":"Group1","condition":"1_Rep","full_date":"2026-01-24T21:28:10.119Z","date":"2026-01-24","time":"21:28:10"},{"correct_response":"a","task":"test_phase","broad_category":"S","image_png":"S_Shale_07.png","image_id":471,"category_name":"Shale","category":30,"distinct_rating":2.73,"distinct_type":"Bottom","item_type":"Foil","rt":1497,"stimulus":"Stimuli_Rocks480/S_Shale_07.png","response":"a","trial_type":"image-keyboard-response","trial_index":155,"plugin_version":"2.1.0","time_elapsed":446616,"subject_id":"92059","group":"Group1","condition":"1_Rep","full_date":"2026-01-24T21:28:10.119Z","date":"2026-01-24","time":"21:28:10","cor_ans":true},{"trial_type":"html-keyboard-response","rt":null,"stimulus":"<p style=\"color: green; font-size: 50px; font-weight: bold;\">Correct</p>","response":null,"trial_index":156,"plugin_version":"2.1.0","time_elapsed":447118,"subject_id":"92059","group":"Group1","condition":"1_Rep","full_date":"2026-01-24T21:28:10.119Z","date":"2026-01-24","time":"21:28:10"},{"correct_response":"a","task":"test_phase","broad_category":"M","image_png":"M_Gneiss_10.png","image_id":202,"category_name":"Gneiss","category":13,"distinct_rating":3.09,"distinct_type":"Bottom","item_type":"Foil","rt":1409,"stimulus":"Stimuli_Rocks480/M_Gneiss_10.png","response":"a","trial_type":"image-keyboard-response","trial_index":157,"plugin_version":"2.1.0","time_elapsed":448542,"subject_id":"92059","group":"Group1","condition":"1_Rep","full_date":"2026-01-24T21:28:10.119Z","date":"2026-01-24","time":"21:28:10","cor_ans":true},{"trial_type":"html-keyboard-response","rt":null,"stimulus":"<p style=\"color: green; font-size: 50px; font-weight: bold;\">Correct</p>","response":null,"trial_index":158,"plugin_version":"2.1.0","time_elapsed":449044,"subject_id":"92059","group":"Group1","condition":"1_Rep","full_date":"2026-01-24T21:28:10.119Z","date":"2026-01-24","time":"21:28:10"},{"correct_response":"a","task":"test_phase","broad_category":"M","image_png":"M_Gneiss_15.png","image_id":207,"category_name":"Gneiss","category":13,"distinct_rating":3.11,"distinct_type":"Bottom","item_type":"Foil","rt":1419,"stimulus":"Stimuli_Rocks480/M_Gneiss_15.png","response":"a","trial_type":"image-keyboard-response","trial_index":159,"plugin_version":"2.1.0","time_elapsed":450478,"subject_id":"92059","group":"Group1","condition":"1_Rep","full_date":"2026-01-24T21:28:10.119Z","date":"2026-01-24","time":"21:28:10","cor_ans":true},{"trial_type":"html-keyboard-response","rt":null,"stimulus":"<p style=\"color: green; font-size: 50px; font-weight: bold;\">Correct</p>","response":null,"trial_index":160,"plugin_version":"2.1.0","time_elapsed":450980,"subject_id":"92059","group":"Group1","condition":"1_Rep","full_date":"2026-01-24T21:28:10.119Z","date":"2026-01-24","time":"21:28:10"},{"correct_response":"l","task":"test_phase","broad_category":"M","image_png":"M_Phyllite_07.png","image_id":263,"category_name":"Phyllite","category":17,"distinct_rating":2.59,"distinct_type":"Bottom","item_type":"Target","rt":1127,"stimulus":"Stimuli_Rocks480/M_Phyllite_07.png","response":"a","trial_type":"image-keyboard-response","trial_index":161,"plugin_version":"2.1.0","time_elapsed":452118,"subject_id":"92059","group":"Group1","condition":"1_Rep","full_date":"2026-01-24T21:28:10.119Z","date":"2026-01-24","time":"21:28:10","cor_ans":false},{"trial_type":"html-keyboard-response","rt":null,"stimulus":"<p style=\"color: red; font-size: 50px; font-weight: bold;\">Incorrect</p>","response":null,"trial_index":162,"plugin_version":"2.1.0","time_elapsed":452620,"subject_id":"92059","group":"Group1","condition":"1_Rep","full_date":"2026-01-24T21:28:10.119Z","date":"2026-01-24","time":"21:28:10"},{"correct_response":"a","task":"test_phase","broad_category":"S","image_png":"S_Rock Salt_15.png","image_id":447,"category_name":"Rock Salt","category":28,"distinct_rating":7.79,"distinct_type":"Top","item_type":"Foil","rt":1226,"stimulus":"Stimuli_Rocks480/S_Rock Salt_15.png","response":"a","trial_type":"image-keyboard-response","trial_index":163,"plugin_version":"2.1.0","time_elapsed":453858,"subject_id":"92059","group":"Group1","condition":"1_Rep","full_date":"2026-01-24T21:28:10.119Z","date":"2026-01-24","time":"21:28:10","cor_ans":true},{"trial_type":"html-keyboard-response","rt":null,"stimulus":"<p style=\"color: green; font-size: 50px; font-weight: bold;\">Correct</p>","response":null,"trial_index":164,"plugin_version":"2.1.0","time_elapsed":454361,"subject_id":"92059","group":"Group1","condition":"1_Rep","full_date":"2026-01-24T21:28:10.119Z","date":"2026-01-24","time":"21:28:10"},{"correct_response":"a","task":"test_phase","broad_category":"I","image_png":"I_Basalt_13.png","image_id":29,"category_name":"Basalt","category":2,"distinct_rating":2.68,"distinct_type":"Bottom","item_type":"Foil","rt":1104,"stimulus":"Stimuli_Rocks480/I_Basalt_13.png","response":"a","trial_type":"image-keyboard-response","trial_index":165,"plugin_version":"2.1.0","time_elapsed":455478,"subject_id":"92059","group":"Group1","condition":"1_Rep","full_date":"2026-01-24T21:28:10.119Z","date":"2026-01-24","time":"21:28:10","cor_ans":true},{"trial_type":"html-keyboard-response","rt":null,"stimulus":"<p style=\"color: green; font-size: 50px; font-weight: bold;\">Correct</p>","response":null,"trial_index":166,"plugin_version":"2.1.0","time_elapsed":455981,"subject_id":"92059","group":"Group1","condition":"1_Rep","full_date":"2026-01-24T21:28:10.119Z","date":"2026-01-24","time":"21:28:10"},{"correct_response":"a","task":"test_phase","broad_category":"I","image_png":"I_Pumice_14.png","image_id":142,"category_name":"Pumice","category":9,"distinct_rating":3.22,"distinct_type":"Bottom","item_type":"Foil","rt":2283,"stimulus":"Stimuli_Rocks480/I_Pumice_14.png","response":"l","trial_type":"image-keyboard-response","trial_index":167,"plugin_version":"2.1.0","time_elapsed":458276,"subject_id":"92059","group":"Group1","condition":"1_Rep","full_date":"2026-01-24T21:28:10.119Z","date":"2026-01-24","time":"21:28:10","cor_ans":false},{"trial_type":"html-keyboard-response","rt":null,"stimulus":"<p style=\"color: red; font-size: 50px; font-weight: bold;\">Incorrect</p>","response":null,"trial_index":168,"plugin_version":"2.1.0","time_elapsed":458778,"subject_id":"92059","group":"Group1","condition":"1_Rep","full_date":"2026-01-24T21:28:10.119Z","date":"2026-01-24","time":"21:28:10"},{"correct_response":"l","task":"test_phase","broad_category":"S","image_png":"S_Sandstone_15.png","image_id":463,"category_name":"Sandstone","category":29,"distinct_rating":2,"distinct_type":"Bottom","item_type":"Target","rt":950,"stimulus":"Stimuli_Rocks480/S_Sandstone_15.png","response":"l","trial_type":"image-keyboard-response","trial_index":169,"plugin_version":"2.1.0","time_elapsed":459744,"subject_id":"92059","group":"Group1","condition":"1_Rep","full_date":"2026-01-24T21:28:10.119Z","date":"2026-01-24","time":"21:28:10","cor_ans":true},{"trial_type":"html-keyboard-response","rt":null,"stimulus":"<p style=\"color: green; font-size: 50px; font-weight: bold;\">Correct</p>","response":null,"trial_index":170,"plugin_version":"2.1.0","time_elapsed":460246,"subject_id":"92059","group":"Group1","condition":"1_Rep","full_date":"2026-01-24T21:28:10.119Z","date":"2026-01-24","time":"21:28:10"},{"correct_response":"a","task":"test_phase","broad_category":"S","image_png":"S_Shale_03.png","image_id":467,"category_name":"Shale","category":30,"distinct_rating":1.95,"distinct_type":"Bottom","item_type":"Foil","rt":1342,"stimulus":"Stimuli_Rocks480/S_Shale_03.png","response":"a","trial_type":"image-keyboard-response","trial_index":171,"plugin_version":"2.1.0","time_elapsed":461604,"subject_id":"92059","group":"Group1","condition":"1_Rep","full_date":"2026-01-24T21:28:10.119Z","date":"2026-01-24","time":"21:28:10","cor_ans":true},{"trial_type":"html-keyboard-response","rt":null,"stimulus":"<p style=\"color: green; font-size: 50px; font-weight: bold;\">Correct</p>","response":null,"trial_index":172,"plugin_version":"2.1.0","time_elapsed":462107,"subject_id":"92059","group":"Group1","condition":"1_Rep","full_date":"2026-01-24T21:28:10.119Z","date":"2026-01-24","time":"21:28:10"},{"correct_response":"l","task":"test_phase","broad_category":"M","image_png":"M_Marble_16.png","image_id":240,"category_name":"Marble","category":15,"distinct_rating":2.57,"distinct_type":"Bottom","item_type":"Target","rt":1712,"stimulus":"Stimuli_Rocks480/M_Marble_16.png","response":"l","trial_type":"image-keyboard-response","trial_index":173,"plugin_version":"2.1.0","time_elapsed":463835,"subject_id":"92059","group":"Group1","condition":"1_Rep","full_date":"2026-01-24T21:28:10.119Z","date":"2026-01-24","time":"21:28:10","cor_ans":true},{"trial_type":"html-keyboard-response","rt":null,"stimulus":"<p style=\"color: green; font-size: 50px; font-weight: bold;\">Correct</p>","response":null,"trial_index":174,"plugin_version":"2.1.0","time_elapsed":464338,"subject_id":"92059","group":"Group1","condition":"1_Rep","full_date":"2026-01-24T21:28:10.119Z","date":"2026-01-24","time":"21:28:10"},{"correct_response":"l","task":"test_phase","broad_category":"M","image_png":"M_Quartzite_05.png","image_id":277,"category_name":"Quartzite","category":18,"distinct_rating":2.23,"distinct_type":"Bottom","item_type":"Target","rt":1033,"stimulus":"Stimuli_Rocks480/M_Quartzite_05.png","response":"l","trial_type":"image-keyboard-response","trial_index":175,"plugin_version":"2.1.0","time_elapsed":465386,"subject_id":"92059","group":"Group1","condition":"1_Rep","full_date":"2026-01-24T21:28:10.119Z","date":"2026-01-24","time":"21:28:10","cor_ans":true},{"trial_type":"html-keyboard-response","rt":null,"stimulus":"<p style=\"color: green; font-size: 50px; font-weight: bold;\">Correct</p>","response":null,"trial_index":176,"plugin_version":"2.1.0","time_elapsed":465889,"subject_id":"92059","group":"Group1","condition":"1_Rep","full_date":"2026-01-24T21:28:10.119Z","date":"2026-01-24","time":"21:28:10"},{"correct_response":"a","task":"test_phase","broad_category":"I","image_png":"I_Pumice_13.png","image_id":141,"category_name":"Pumice","category":9,"distinct_rating":3.12,"distinct_type":"Bottom","item_type":"Foil","rt":1358,"stimulus":"Stimuli_Rocks480/I_Pumice_13.png","response":"a","trial_type":"image-keyboard-response","trial_index":177,"plugin_version":"2.1.0","time_elapsed":467262,"subject_id":"92059","group":"Group1","condition":"1_Rep","full_date":"2026-01-24T21:28:10.119Z","date":"2026-01-24","time":"21:28:10","cor_ans":true},{"trial_type":"html-keyboard-response","rt":null,"stimulus":"<p style=\"color: green; font-size: 50px; font-weight: bold;\">Correct</p>","response":null,"trial_index":178,"plugin_version":"2.1.0","time_elapsed":467764,"subject_id":"92059","group":"Group1","condition":"1_Rep","full_date":"2026-01-24T21:28:10.119Z","date":"2026-01-24","time":"21:28:10"},{"correct_response":"l","task":"test_phase","broad_category":"I","image_png":"I_Pumice_12.png","image_id":140,"category_name":"Pumice","category":9,"distinct_rating":2.97,"distinct_type":"Bottom","item_type":"Target","rt":1331,"stimulus":"Stimuli_Rocks480/I_Pumice_12.png","response":"a","trial_type":"image-keyboard-response","trial_index":179,"plugin_version":"2.1.0","time_elapsed":469107,"subject_id":"92059","group":"Group1","condition":"1_Rep","full_date":"2026-01-24T21:28:10.119Z","date":"2026-01-24","time":"21:28:10","cor_ans":false},{"trial_type":"html-keyboard-response","rt":null,"stimulus":"<p style=\"color: red; font-size: 50px; font-weight: bold;\">Incorrect</p>","response":null,"trial_index":180,"plugin_version":"2.1.0","time_elapsed":469609,"subject_id":"92059","group":"Group1","condition":"1_Rep","full_date":"2026-01-24T21:28:10.119Z","date":"2026-01-24","time":"21:28:10"},{"correct_response":"l","task":"test_phase","broad_category":"I","image_png":"I_Pegmatite_16.png","image_id":112,"category_name":"Pegmatite","category":7,"distinct_rating":7.03,"distinct_type":"Top","item_type":"Target","rt":1560,"stimulus":"Stimuli_Rocks480/I_Pegmatite_16.png","response":"a","trial_type":"image-keyboard-response","trial_index":181,"plugin_version":"2.1.0","time_elapsed":471184,"subject_id":"92059","group":"Group1","condition":"1_Rep","full_date":"2026-01-24T21:28:10.119Z","date":"2026-01-24","time":"21:28:10","cor_ans":false},{"trial_type":"html-keyboard-response","rt":null,"stimulus":"<p style=\"color: red; font-size: 50px; font-weight: bold;\">Incorrect</p>","response":null,"trial_index":182,"plugin_version":"2.1.0","time_elapsed":471686,"subject_id":"92059","group":"Group1","condition":"1_Rep","full_date":"2026-01-24T21:28:10.119Z","date":"2026-01-24","time":"21:28:10"},{"correct_response":"l","task":"test_phase","broad_category":"S","image_png":"S_Shale_12.png","image_id":476,"category_name":"Shale","category":30,"distinct_rating":2.48,"distinct_type":"Bottom","item_type":"Target","rt":1561,"stimulus":"Stimuli_Rocks480/S_Shale_12.png","response":"l","trial_type":"image-keyboard-response","trial_index":183,"plugin_version":"2.1.0","time_elapsed":473263,"subject_id":"92059","group":"Group1","condition":"1_Rep","full_date":"2026-01-24T21:28:10.119Z","date":"2026-01-24","time":"21:28:10","cor_ans":true},{"trial_type":"html-keyboard-response","rt":null,"stimulus":"<p style=\"color: green; font-size: 50px; font-weight: bold;\">Correct</p>","response":null,"trial_index":184,"plugin_version":"2.1.0","time_elapsed":473765,"subject_id":"92059","group":"Group1","condition":"1_Rep","full_date":"2026-01-24T21:28:10.119Z","date":"2026-01-24","time":"21:28:10"},{"correct_response":"l","task":"test_phase","broad_category":"S","image_png":"S_Sandstone_16.png","image_id":464,"category_name":"Sandstone","category":29,"distinct_rating":1.93,"distinct_type":"Bottom","item_type":"Target","rt":868,"stimulus":"Stimuli_Rocks480/S_Sandstone_16.png","response":"l","trial_type":"image-keyboard-response","trial_index":185,"plugin_version":"2.1.0","time_elapsed":474645,"subject_id":"92059","group":"Group1","condition":"1_Rep","full_date":"2026-01-24T21:28:10.119Z","date":"2026-01-24","time":"21:28:10","cor_ans":true},{"trial_type":"html-keyboard-response","rt":null,"stimulus":"<p style=\"color: green; font-size: 50px; font-weight: bold;\">Correct</p>","response":null,"trial_index":186,"plugin_version":"2.1.0","time_elapsed":475147,"subject_id":"92059","group":"Group1","condition":"1_Rep","full_date":"2026-01-24T21:28:10.119Z","date":"2026-01-24","time":"21:28:10"},{"correct_response":"a","task":"test_phase","broad_category":"S","image_png":"S_Chert_13.png","image_id":365,"category_name":"Chert","category":23,"distinct_rating":6.57,"distinct_type":"Top","item_type":"Foil","rt":1205,"stimulus":"Stimuli_Rocks480/S_Chert_13.png","response":"a","trial_type":"image-keyboard-response","trial_index":187,"plugin_version":"2.1.0","time_elapsed":476364,"subject_id":"92059","group":"Group1","condition":"1_Rep","full_date":"2026-01-24T21:28:10.119Z","date":"2026-01-24","time":"21:28:10","cor_ans":true},{"trial_type":"html-keyboard-response","rt":null,"stimulus":"<p style=\"color: green; font-size: 50px; font-weight: bold;\">Correct</p>","response":null,"trial_index":188,"plugin_version":"2.1.0","time_elapsed":476866,"subject_id":"92059","group":"Group1","condition":"1_Rep","full_date":"2026-01-24T21:28:10.119Z","date":"2026-01-24","time":"21:28:10"},{"correct_response":"a","task":"test_phase","broad_category":"M","image_png":"M_Gneiss_14.png","image_id":206,"category_name":"Gneiss","category":13,"distinct_rating":3.41,"distinct_type":"Bottom","item_type":"Foil","rt":1347,"stimulus":"Stimuli_Rocks480/M_Gneiss_14.png","response":"a","trial_type":"image-keyboard-response","trial_index":189,"plugin_version":"2.1.0","time_elapsed":478228,"subject_id":"92059","group":"Group1","condition":"1_Rep","full_date":"2026-01-24T21:28:10.119Z","date":"2026-01-24","time":"21:28:10","cor_ans":true},{"trial_type":"html-keyboard-response","rt":null,"stimulus":"<p style=\"color: green; font-size: 50px; font-weight: bold;\">Correct</p>","response":null,"trial_index":190,"plugin_version":"2.1.0","time_elapsed":478730,"subject_id":"92059","group":"Group1","condition":"1_Rep","full_date":"2026-01-24T21:28:10.119Z","date":"2026-01-24","time":"21:28:10"},{"correct_response":"a","task":"test_phase","broad_category":"S","image_png":"S_Shale_02.png","image_id":466,"category_name":"Shale","category":30,"distinct_rating":2.9,"distinct_type":"Bottom","item_type":"Foil","rt":1121,"stimulus":"Stimuli_Rocks480/S_Shale_02.png","response":"a","trial_type":"image-keyboard-response","trial_index":191,"plugin_version":"2.1.0","time_elapsed":479864,"subject_id":"92059","group":"Group1","condition":"1_Rep","full_date":"2026-01-24T21:28:10.119Z","date":"2026-01-24","time":"21:28:10","cor_ans":true},{"trial_type":"html-keyboard-response","rt":null,"stimulus":"<p style=\"color: green; font-size: 50px; font-weight: bold;\">Correct</p>","response":null,"trial_index":192,"plugin_version":"2.1.0","time_elapsed":480367,"subject_id":"92059","group":"Group1","condition":"1_Rep","full_date":"2026-01-24T21:28:10.119Z","date":"2026-01-24","time":"21:28:10"},{"correct_response":"a","task":"test_phase","broad_category":"I","image_png":"I_Basalt_10.png","image_id":26,"category_name":"Basalt","category":2,"distinct_rating":2.76,"distinct_type":"Bottom","item_type":"Foil","rt":1147,"stimulus":"Stimuli_Rocks480/I_Basalt_10.png","response":"a","trial_type":"image-keyboard-response","trial_index":193,"plugin_version":"2.1.0","time_elapsed":481529,"subject_id":"92059","group":"Group1","condition":"1_Rep","full_date":"2026-01-24T21:28:10.119Z","date":"2026-01-24","time":"21:28:10","cor_ans":true},{"trial_type":"html-keyboard-response","rt":null,"stimulus":"<p style=\"color: green; font-size: 50px; font-weight: bold;\">Correct</p>","response":null,"trial_index":194,"plugin_version":"2.1.0","time_elapsed":482031,"subject_id":"92059","group":"Group1","condition":"1_Rep","full_date":"2026-01-24T21:28:10.119Z","date":"2026-01-24","time":"21:28:10"},{"correct_response":"l","task":"test_phase","broad_category":"I","image_png":"I_Andesite_06.png","image_id":6,"category_name":"Andesite","category":1,"distinct_rating":3.17,"distinct_type":"Bottom","item_type":"Target","rt":1075,"stimulus":"Stimuli_Rocks480/I_Andesite_06.png","response":"a","trial_type":"image-keyboard-response","trial_index":195,"plugin_version":"2.1.0","time_elapsed":483121,"subject_id":"92059","group":"Group1","condition":"1_Rep","full_date":"2026-01-24T21:28:10.119Z","date":"2026-01-24","time":"21:28:10","cor_ans":false},{"trial_type":"html-keyboard-response","rt":null,"stimulus":"<p style=\"color: red; font-size: 50px; font-weight: bold;\">Incorrect</p>","response":null,"trial_index":196,"plugin_version":"2.1.0","time_elapsed":483623,"subject_id":"92059","group":"Group1","condition":"1_Rep","full_date":"2026-01-24T21:28:10.119Z","date":"2026-01-24","time":"21:28:10"},{"correct_response":"a","task":"test_phase","broad_category":"M","image_png":"M_Marble_02.png","image_id":226,"category_name":"Marble","category":15,"distinct_rating":3.2,"distinct_type":"Bottom","item_type":"Foil","rt":1074,"stimulus":"Stimuli_Rocks480/M_Marble_02.png","response":"a","trial_type":"image-keyboard-response","trial_index":197,"plugin_version":"2.1.0","time_elapsed":484708,"subject_id":"92059","group":"Group1","condition":"1_Rep","full_date":"2026-01-24T21:28:10.119Z","date":"2026-01-24","time":"21:28:10","cor_ans":true},{"trial_type":"html-keyboard-response","rt":null,"stimulus":"<p style=\"color: green; font-size: 50px; font-weight: bold;\">Correct</p>","response":null,"trial_index":198,"plugin_version":"2.1.0","time_elapsed":485211,"subject_id":"92059","group":"Group1","condition":"1_Rep","full_date":"2026-01-24T21:28:10.119Z","date":"2026-01-24","time":"21:28:10"},{"correct_response":"a","task":"test_phase","broad_category":"S","image_png":"S_Sandstone_11.png","image_id":459,"category_name":"Sandstone","category":29,"distinct_rating":1.82,"distinct_type":"Bottom","item_type":"Foil","rt":1543,"stimulus":"Stimuli_Rocks480/S_Sandstone_11.png","response":"l","trial_type":"image-keyboard-response","trial_index":199,"plugin_version":"2.1.0","time_elapsed":486770,"subject_id":"92059","group":"Group1","condition":"1_Rep","full_date":"2026-01-24T21:28:10.119Z","date":"2026-01-24","time":"21:28:10","cor_ans":false},{"trial_type":"html-keyboard-response","rt":null,"stimulus":"<p style=\"color: red; font-size: 50px; font-weight: bold;\">Incorrect</p>","response":null,"trial_index":200,"plugin_version":"2.1.0","time_elapsed":487273,"subject_id":"92059","group":"Group1","condition":"1_Rep","full_date":"2026-01-24T21:28:10.119Z","date":"2026-01-24","time":"21:28:10"},{"correct_response":"a","task":"test_phase","broad_category":"S","image_png":"S_Rock Salt_13.png","image_id":445,"category_name":"Rock Salt","category":28,"distinct_rating":7.58,"distinct_type":"Top","item_type":"Foil","rt":1201,"stimulus":"Stimuli_Rocks480/S_Rock Salt_13.png","response":"a","trial_type":"image-keyboard-response","trial_index":201,"plugin_version":"2.1.0","time_elapsed":488489,"subject_id":"92059","group":"Group1","condition":"1_Rep","full_date":"2026-01-24T21:28:10.119Z","date":"2026-01-24","time":"21:28:10","cor_ans":true},{"trial_type":"html-keyboard-response","rt":null,"stimulus":"<p style=\"color: green; font-size: 50px; font-weight: bold;\">Correct</p>","response":null,"trial_index":202,"plugin_version":"2.1.0","time_elapsed":488992,"subject_id":"92059","group":"Group1","condition":"1_Rep","full_date":"2026-01-24T21:28:10.119Z","date":"2026-01-24","time":"21:28:10"},{"correct_response":"a","task":"test_phase","broad_category":"S","image_png":"S_Conglomerate_14.png","image_id":382,"category_name":"Conglomerate","category":24,"distinct_rating":6.86,"distinct_type":"Top","item_type":"Foil","rt":1093,"stimulus":"Stimuli_Rocks480/S_Conglomerate_14.png","response":"a","trial_type":"image-keyboard-response","trial_index":203,"plugin_version":"2.1.0","time_elapsed":490098,"subject_id":"92059","group":"Group1","condition":"1_Rep","full_date":"2026-01-24T21:28:10.119Z","date":"2026-01-24","time":"21:28:10","cor_ans":true},{"trial_type":"html-keyboard-response","rt":null,"stimulus":"<p style=\"color: green; font-size: 50px; font-weight: bold;\">Correct</p>","response":null,"trial_index":204,"plugin_version":"2.1.0","time_elapsed":490601,"subject_id":"92059","group":"Group1","condition":"1_Rep","full_date":"2026-01-24T21:28:10.119Z","date":"2026-01-24","time":"21:28:10"},{"correct_response":"l","task":"test_phase","broad_category":"S","image_png":"S_Chert_10.png","image_id":362,"category_name":"Chert","category":23,"distinct_rating":7.17,"distinct_type":"Top","item_type":"Target","rt":1501,"stimulus":"Stimuli_Rocks480/S_Chert_10.png","response":"l","trial_type":"image-keyboard-response","trial_index":205,"plugin_version":"2.1.0","time_elapsed":492117,"subject_id":"92059","group":"Group1","condition":"1_Rep","full_date":"2026-01-24T21:28:10.119Z","date":"2026-01-24","time":"21:28:10","cor_ans":true},{"trial_type":"html-keyboard-response","rt":null,"stimulus":"<p style=\"color: green; font-size: 50px; font-weight: bold;\">Correct</p>","response":null,"trial_index":206,"plugin_version":"2.1.0","time_elapsed":492619,"subject_id":"92059","group":"Group1","condition":"1_Rep","full_date":"2026-01-24T21:28:10.119Z","date":"2026-01-24","time":"21:28:10"},{"correct_response":"a","task":"test_phase","broad_category":"M","image_png":"M_Quartzite_15.png","image_id":287,"category_name":"Quartzite","category":18,"distinct_rating":2.19,"distinct_type":"Bottom","item_type":"Foil","rt":1238,"stimulus":"Stimuli_Rocks480/M_Quartzite_15.png","response":"a","trial_type":"image-keyboard-response","trial_index":207,"plugin_version":"2.1.0","time_elapsed":493872,"subject_id":"92059","group":"Group1","condition":"1_Rep","full_date":"2026-01-24T21:28:10.119Z","date":"2026-01-24","time":"21:28:10","cor_ans":true},{"trial_type":"html-keyboard-response","rt":null,"stimulus":"<p style=\"color: green; font-size: 50px; font-weight: bold;\">Correct</p>","response":null,"trial_index":208,"plugin_version":"2.1.0","time_elapsed":494374,"subject_id":"92059","group":"Group1","condition":"1_Rep","full_date":"2026-01-24T21:28:10.119Z","date":"2026-01-24","time":"21:28:10"},{"correct_response":"a","task":"test_phase","broad_category":"M","image_png":"M_Phyllite_05.png","image_id":261,"category_name":"Phyllite","category":17,"distinct_rating":2.14,"distinct_type":"Bottom","item_type":"Foil","rt":1366,"stimulus":"Stimuli_Rocks480/M_Phyllite_05.png","response":"l","trial_type":"image-keyboard-response","trial_index":209,"plugin_version":"2.1.0","time_elapsed":495752,"subject_id":"92059","group":"Group1","condition":"1_Rep","full_date":"2026-01-24T21:28:10.119Z","date":"2026-01-24","time":"21:28:10","cor_ans":false},{"trial_type":"html-keyboard-response","rt":null,"stimulus":"<p style=\"color: red; font-size: 50px; font-weight: bold;\">Incorrect</p>","response":null,"trial_index":210,"plugin_version":"2.1.0","time_elapsed":496254,"subject_id":"92059","group":"Group1","condition":"1_Rep","full_date":"2026-01-24T21:28:10.119Z","date":"2026-01-24","time":"21:28:10"},{"correct_response":"a","task":"test_phase","broad_category":"M","image_png":"M_Quartzite_07.png","image_id":279,"category_name":"Quartzite","category":18,"distinct_rating":1.97,"distinct_type":"Bottom","item_type":"Foil","rt":1005,"stimulus":"Stimuli_Rocks480/M_Quartzite_07.png","response":"l","trial_type":"image-keyboard-response","trial_index":211,"plugin_version":"2.1.0","time_elapsed":497274,"subject_id":"92059","group":"Group1","condition":"1_Rep","full_date":"2026-01-24T21:28:10.119Z","date":"2026-01-24","time":"21:28:10","cor_ans":false},{"trial_type":"html-keyboard-response","rt":null,"stimulus":"<p style=\"color: red; font-size: 50px; font-weight: bold;\">Incorrect</p>","response":null,"trial_index":212,"plugin_version":"2.1.0","time_elapsed":497776,"subject_id":"92059","group":"Group1","condition":"1_Rep","full_date":"2026-01-24T21:28:10.119Z","date":"2026-01-24","time":"21:28:10"},{"correct_response":"l","task":"test_phase","broad_category":"I","image_png":"I_Basalt_09.png","image_id":25,"category_name":"Basalt","category":2,"distinct_rating":1.89,"distinct_type":"Bottom","item_type":"Target","rt":1020,"stimulus":"Stimuli_Rocks480/I_Basalt_09.png","response":"l","trial_type":"image-keyboard-response","trial_index":213,"plugin_version":"2.1.0","time_elapsed":498807,"subject_id":"92059","group":"Group1","condition":"1_Rep","full_date":"2026-01-24T21:28:10.119Z","date":"2026-01-24","time":"21:28:10","cor_ans":true},{"trial_type":"html-keyboard-response","rt":null,"stimulus":"<p style=\"color: green; font-size: 50px; font-weight: bold;\">Correct</p>","response":null,"trial_index":214,"plugin_version":"2.1.0","time_elapsed":499309,"subject_id":"92059","group":"Group1","condition":"1_Rep","full_date":"2026-01-24T21:28:10.119Z","date":"2026-01-24","time":"21:28:10"},{"correct_response":"l","task":"test_phase","broad_category":"M","image_png":"M_Marble_06.png","image_id":230,"category_name":"Marble","category":15,"distinct_rating":3.4,"distinct_type":"Bottom","item_type":"Target","rt":1047,"stimulus":"Stimuli_Rocks480/M_Marble_06.png","response":"l","trial_type":"image-keyboard-response","trial_index":215,"plugin_version":"2.1.0","time_elapsed":500368,"subject_id":"92059","group":"Group1","condition":"1_Rep","full_date":"2026-01-24T21:28:10.119Z","date":"2026-01-24","time":"21:28:10","cor_ans":true},{"trial_type":"html-keyboard-response","rt":null,"stimulus":"<p style=\"color: green; font-size: 50px; font-weight: bold;\">Correct</p>","response":null,"trial_index":216,"plugin_version":"2.1.0","time_elapsed":500870,"subject_id":"92059","group":"Group1","condition":"1_Rep","full_date":"2026-01-24T21:28:10.119Z","date":"2026-01-24","time":"21:28:10"},{"correct_response":"l","task":"test_phase","broad_category":"I","image_png":"I_Andesite_10.png","image_id":10,"category_name":"Andesite","category":1,"distinct_rating":3.15,"distinct_type":"Bottom","item_type":"Target","rt":1370,"stimulus":"Stimuli_Rocks480/I_Andesite_10.png","response":"a","trial_type":"image-keyboard-response","trial_index":217,"plugin_version":"2.1.0","time_elapsed":502251,"subject_id":"92059","group":"Group1","condition":"1_Rep","full_date":"2026-01-24T21:28:10.119Z","date":"2026-01-24","time":"21:28:10","cor_ans":false},{"trial_type":"html-keyboard-response","rt":null,"stimulus":"<p style=\"color: red; font-size: 50px; font-weight: bold;\">Incorrect</p>","response":null,"trial_index":218,"plugin_version":"2.1.0","time_elapsed":502753,"subject_id":"92059","group":"Group1","condition":"1_Rep","full_date":"2026-01-24T21:28:10.119Z","date":"2026-01-24","time":"21:28:10"},{"correct_response":"l","task":"test_phase","broad_category":"I","image_png":"I_Basalt_02.png","image_id":18,"category_name":"Basalt","category":2,"distinct_rating":1.84,"distinct_type":"Bottom","item_type":"Target","rt":1383,"stimulus":"Stimuli_Rocks480/I_Basalt_02.png","response":"a","trial_type":"image-keyboard-response","trial_index":219,"plugin_version":"2.1.0","time_elapsed":504153,"subject_id":"92059","group":"Group1","condition":"1_Rep","full_date":"2026-01-24T21:28:10.119Z","date":"2026-01-24","time":"21:28:10","cor_ans":false},{"trial_type":"html-keyboard-response","rt":null,"stimulus":"<p style=\"color: red; font-size: 50px; font-weight: bold;\">Incorrect</p>","response":null,"trial_index":220,"plugin_version":"2.1.0","time_elapsed":504655,"subject_id":"92059","group":"Group1","condition":"1_Rep","full_date":"2026-01-24T21:28:10.119Z","date":"2026-01-24","time":"21:28:10"},{"correct_response":"a","task":"test_phase","broad_category":"M","image_png":"M_Phyllite_13.png","image_id":269,"category_name":"Phyllite","category":17,"distinct_rating":2.8,"distinct_type":"Bottom","item_type":"Foil","rt":1089,"stimulus":"Stimuli_Rocks480/M_Phyllite_13.png","response":"a","trial_type":"image-keyboard-response","trial_index":221,"plugin_version":"2.1.0","time_elapsed":505759,"subject_id":"92059","group":"Group1","condition":"1_Rep","full_date":"2026-01-24T21:28:10.119Z","date":"2026-01-24","time":"21:28:10","cor_ans":true},{"trial_type":"html-keyboard-response","rt":null,"stimulus":"<p style=\"color: green; font-size: 50px; font-weight: bold;\">Correct</p>","response":null,"trial_index":222,"plugin_version":"2.1.0","time_elapsed":506261,"subject_id":"92059","group":"Group1","condition":"1_Rep","full_date":"2026-01-24T21:28:10.119Z","date":"2026-01-24","time":"21:28:10"},{"correct_response":"a","task":"test_phase","broad_category":"S","image_png":"S_Dolomite_07.png","image_id":391,"category_name":"Dolomite","category":25,"distinct_rating":1.73,"distinct_type":"Bottom","item_type":"Foil","rt":1870,"stimulus":"Stimuli_Rocks480/S_Dolomite_07.png","response":"a","trial_type":"image-keyboard-response","trial_index":223,"plugin_version":"2.1.0","time_elapsed":508145,"subject_id":"92059","group":"Group1","condition":"1_Rep","full_date":"2026-01-24T21:28:10.119Z","date":"2026-01-24","time":"21:28:10","cor_ans":true},{"trial_type":"html-keyboard-response","rt":null,"stimulus":"<p style=\"color: green; font-size: 50px; font-weight: bold;\">Correct</p>","response":null,"trial_index":224,"plugin_version":"2.1.0","time_elapsed":508647,"subject_id":"92059","group":"Group1","condition":"1_Rep","full_date":"2026-01-24T21:28:10.119Z","date":"2026-01-24","time":"21:28:10"},{"correct_response":"l","task":"test_phase","broad_ca