[{"width":1165,"height":685,"webaudio":true,"browser":"safari","browser_version":"18.6.0","mobile":false,"os":"Mac OS","fullscreen":true,"vsync_rate":60,"webcam":true,"microphone":true,"trial_type":"browser-check","trial_index":0,"plugin_version":"2.1.0","time_elapsed":1013,"subject_id":"92480","group":"Group1","condition":"1_Rep","full_date":"2026-02-04T16:49:10.123Z","date":"2026-02-04","time":"16:49:10"},{"success":true,"timeout":false,"failed_images":[],"failed_audio":[],"failed_video":[],"trial_type":"preload","trial_index":1,"plugin_version":"2.1.0","time_elapsed":3481,"subject_id":"92480","group":"Group1","condition":"1_Rep","full_date":"2026-02-04T16:49:10.123Z","date":"2026-02-04","time":"16:49:10"},{"rt":91665,"url":"SONA_consent_memorability.html","trial_type":"external-html","trial_index":2,"plugin_version":"2.1.0","time_elapsed":95191,"subject_id":"92480","group":"Group1","condition":"1_Rep","full_date":"2026-02-04T16:49:10.123Z","date":"2026-02-04","time":"16:49:10"},{"success":true,"rt":832,"trial_type":"fullscreen","trial_index":3,"plugin_version":"2.1.0","time_elapsed":97027,"subject_id":"92480","group":"Group1","condition":"1_Rep","full_date":"2026-02-04T16:49:10.123Z","date":"2026-02-04","time":"16:49:10"},{"rt":960,"stimulus":"<div style=\"max-width: 760px; margin: auto; font-size: 20px; line-height: 1.5;\">\n      <h1 style=\"text-align:center; font-size: 30px;\">Instructions</h1>\n      <p>\n        Welcome to the study on <b>visual memory</b>. This experiment consists of <b>two phases</b>: \n        a <b>study phase</b> and a <b>test phase</b>.\n      </p>\n      <p>\n        In the study phase, you will see a series of rock images along with their category labels.\n        The images will appear one at a time.\n        <b>Your task</b> is to learn the categories to which the rock images belong \n        and to remember each image as accurately as possible.\n      </p> \n      <p>\n        Note that you will see each image only <b>once</b> during the study phase. \n          So, please pay close attention and try to remember each image carefully.\n      </p>\n      <p>\n        After the study phase, <b>your memory will be tested</b>. \n        Additional instructions for the test phase will be provided at that time.\n      </p>\n      <p>\n        If your computer has multiple <b>language settings</b> (e.g., English and another language),\n        please make sure it is set to English before starting.\n      </p>\n      <p>\n        You can track your progress using the <b>completion bar</b> at the top of the screen. \n        Please note that the bar will refresh when the test phase begins \n        to give you an accurate sense of your progress in both phases.\n      </p> \n      <p>\n        Press the button below when you are ready to begin.\n      </p>\n    </div>","response":0,"trial_type":"html-button-response","trial_index":4,"plugin_version":"2.1.0","time_elapsed":97991,"subject_id":"92480","group":"Group1","condition":"1_Rep","full_date":"2026-02-04T16:49:10.123Z","date":"2026-02-04","time":"16:49:10"},{"rt":null,"stimulus":"<p style=\"font-size: 50px; margin: 0; text-align: center;\">+</p>","response":null,"trial_type":"html-keyboard-response","trial_index":5,"plugin_version":"2.1.0","time_elapsed":98994,"subject_id":"92480","group":"Group1","condition":"1_Rep","full_date":"2026-02-04T16:49:10.123Z","date":"2026-02-04","time":"16:49:10"},{"task":"memory_phase","broad_category":"M","image_png":"M_Gneiss_06.png","image_id":198,"category_name":"Gneiss","category":13,"distinct_rating":2.65,"distinct_type":"Bottom","rt":null,"stimulus":"Stimuli_Rocks480/M_Gneiss_06.png","response":null,"trial_type":"image-keyboard-response","trial_index":6,"plugin_version":"2.1.0","time_elapsed":101527,"subject_id":"92480","group":"Group1","condition":"1_Rep","full_date":"2026-02-04T16:49:10.123Z","date":"2026-02-04","time":"16:49:10"},{"rt":null,"stimulus":"<p style=\"font-size: 50px; margin: 0; text-align: center;\">+</p>","response":null,"trial_type":"html-keyboard-response","trial_index":7,"plugin_version":"2.1.0","time_elapsed":102530,"subject_id":"92480","group":"Group1","condition":"1_Rep","full_date":"2026-02-04T16:49:10.123Z","date":"2026-02-04","time":"16:49:10"},{"task":"memory_phase","broad_category":"S","image_png":"S_Chert_10.png","image_id":362,"category_name":"Chert","category":23,"distinct_rating":7.17,"distinct_type":"Top","rt":null,"stimulus":"Stimuli_Rocks480/S_Chert_10.png","response":null,"trial_type":"image-keyboard-response","trial_index":8,"plugin_version":"2.1.0","time_elapsed":105056,"subject_id":"92480","group":"Group1","condition":"1_Rep","full_date":"2026-02-04T16:49:10.123Z","date":"2026-02-04","time":"16:49:10"},{"rt":null,"stimulus":"<p style=\"font-size: 50px; margin: 0; text-align: center;\">+</p>","response":null,"trial_type":"html-keyboard-response","trial_index":9,"plugin_version":"2.1.0","time_elapsed":106059,"subject_id":"92480","group":"Group1","condition":"1_Rep","full_date":"2026-02-04T16:49:10.123Z","date":"2026-02-04","time":"16:49:10"},{"task":"memory_phase","broad_category":"M","image_png":"M_Quartzite_13.png","image_id":285,"category_name":"Quartzite","category":18,"distinct_rating":2.27,"distinct_type":"Bottom","rt":null,"stimulus":"Stimuli_Rocks480/M_Quartzite_13.png","response":null,"trial_type":"image-keyboard-response","trial_index":10,"plugin_version":"2.1.0","time_elapsed":108583,"subject_id":"92480","group":"Group1","condition":"1_Rep","full_date":"2026-02-04T16:49:10.123Z","date":"2026-02-04","time":"16:49:10"},{"rt":null,"stimulus":"<p style=\"font-size: 50px; margin: 0; text-align: center;\">+</p>","response":null,"trial_type":"html-keyboard-response","trial_index":11,"plugin_version":"2.1.0","time_elapsed":109585,"subject_id":"92480","group":"Group1","condition":"1_Rep","full_date":"2026-02-04T16:49:10.123Z","date":"2026-02-04","time":"16:49:10"},{"task":"memory_phase","broad_category":"S","image_png":"S_Rock Salt_01.png","image_id":433,"category_name":"Rock Salt","category":28,"distinct_rating":7.18,"distinct_type":"Top","rt":null,"stimulus":"Stimuli_Rocks480/S_Rock Salt_01.png","response":null,"trial_type":"image-keyboard-response","trial_index":12,"plugin_version":"2.1.0","time_elapsed":112111,"subject_id":"92480","group":"Group1","condition":"1_Rep","full_date":"2026-02-04T16:49:10.123Z","date":"2026-02-04","time":"16:49:10"},{"rt":null,"stimulus":"<p style=\"font-size: 50px; margin: 0; text-align: center;\">+</p>","response":null,"trial_type":"html-keyboard-response","trial_index":13,"plugin_version":"2.1.0","time_elapsed":113114,"subject_id":"92480","group":"Group1","condition":"1_Rep","full_date":"2026-02-04T16:49:10.123Z","date":"2026-02-04","time":"16:49:10"},{"task":"memory_phase","broad_category":"M","image_png":"M_Slate_15.png","image_id":319,"category_name":"Slate","category":20,"distinct_rating":2.13,"distinct_type":"Bottom","rt":null,"stimulus":"Stimuli_Rocks480/M_Slate_15.png","response":null,"trial_type":"image-keyboard-response","trial_index":14,"plugin_version":"2.1.0","time_elapsed":115631,"subject_id":"92480","group":"Group1","condition":"1_Rep","full_date":"2026-02-04T16:49:10.123Z","date":"2026-02-04","time":"16:49:10"},{"rt":null,"stimulus":"<p style=\"font-size: 50px; margin: 0; text-align: center;\">+</p>","response":null,"trial_type":"html-keyboard-response","trial_index":15,"plugin_version":"2.1.0","time_elapsed":116634,"subject_id":"92480","group":"Group1","condition":"1_Rep","full_date":"2026-02-04T16:49:10.123Z","date":"2026-02-04","time":"16:49:10"},{"task":"memory_phase","broad_category":"S","image_png":"S_Sandstone_15.png","image_id":463,"category_name":"Sandstone","category":29,"distinct_rating":2,"distinct_type":"Bottom","rt":null,"stimulus":"Stimuli_Rocks480/S_Sandstone_15.png","response":null,"trial_type":"image-keyboard-response","trial_index":16,"plugin_version":"2.1.0","time_elapsed":119162,"subject_id":"92480","group":"Group1","condition":"1_Rep","full_date":"2026-02-04T16:49:10.123Z","date":"2026-02-04","time":"16:49:10"},{"rt":null,"stimulus":"<p style=\"font-size: 50px; margin: 0; text-align: center;\">+</p>","response":null,"trial_type":"html-keyboard-response","trial_index":17,"plugin_version":"2.1.0","time_elapsed":120164,"subject_id":"92480","group":"Group1","condition":"1_Rep","full_date":"2026-02-04T16:49:10.123Z","date":"2026-02-04","time":"16:49:10"},{"task":"memory_phase","broad_category":"I","image_png":"I_Pumice_11.png","image_id":139,"category_name":"Pumice","category":9,"distinct_rating":1.74,"distinct_type":"Bottom","rt":null,"stimulus":"Stimuli_Rocks480/I_Pumice_11.png","response":null,"trial_type":"image-keyboard-response","trial_index":18,"plugin_version":"2.1.0","time_elapsed":122680,"subject_id":"92480","group":"Group1","condition":"1_Rep","full_date":"2026-02-04T16:49:10.123Z","date":"2026-02-04","time":"16:49:10"},{"rt":null,"stimulus":"<p style=\"font-size: 50px; margin: 0; text-align: center;\">+</p>","response":null,"trial_type":"html-keyboard-response","trial_index":19,"plugin_version":"2.1.0","time_elapsed":123683,"subject_id":"92480","group":"Group1","condition":"1_Rep","full_date":"2026-02-04T16:49:10.123Z","date":"2026-02-04","time":"16:49:10"},{"task":"memory_phase","broad_category":"S","image_png":"S_Conglomerate_05.png","image_id":373,"category_name":"Conglomerate","category":24,"distinct_rating":7.32,"distinct_type":"Top","rt":null,"stimulus":"Stimuli_Rocks480/S_Conglomerate_05.png","response":null,"trial_type":"image-keyboard-response","trial_index":20,"plugin_version":"2.1.0","time_elapsed":126209,"subject_id":"92480","group":"Group1","condition":"1_Rep","full_date":"2026-02-04T16:49:10.123Z","date":"2026-02-04","time":"16:49:10"},{"rt":null,"stimulus":"<p style=\"font-size: 50px; margin: 0; text-align: center;\">+</p>","response":null,"trial_type":"html-keyboard-response","trial_index":21,"plugin_version":"2.1.0","time_elapsed":127212,"subject_id":"92480","group":"Group1","condition":"1_Rep","full_date":"2026-02-04T16:49:10.123Z","date":"2026-02-04","time":"16:49:10"},{"task":"memory_phase","broad_category":"I","image_png":"I_Gabbro_16.png","image_id":64,"category_name":"Gabbro","category":4,"distinct_rating":2.52,"distinct_type":"Bottom","rt":null,"stimulus":"Stimuli_Rocks480/I_Gabbro_16.png","response":null,"trial_type":"image-keyboard-response","trial_index":22,"plugin_version":"2.1.0","time_elapsed":129734,"subject_id":"92480","group":"Group1","condition":"1_Rep","full_date":"2026-02-04T16:49:10.123Z","date":"2026-02-04","time":"16:49:10"},{"rt":null,"stimulus":"<p style=\"font-size: 50px; margin: 0; text-align: center;\">+</p>","response":null,"trial_type":"html-keyboard-response","trial_index":23,"plugin_version":"2.1.0","time_elapsed":130737,"subject_id":"92480","group":"Group1","condition":"1_Rep","full_date":"2026-02-04T16:49:10.123Z","date":"2026-02-04","time":"16:49:10"},{"task":"memory_phase","broad_category":"I","image_png":"I_Pumice_08.png","image_id":136,"category_name":"Pumice","category":9,"distinct_rating":3.1,"distinct_type":"Bottom","rt":null,"stimulus":"Stimuli_Rocks480/I_Pumice_08.png","response":null,"trial_type":"image-keyboard-response","trial_index":24,"plugin_version":"2.1.0","time_elapsed":133258,"subject_id":"92480","group":"Group1","condition":"1_Rep","full_date":"2026-02-04T16:49:10.123Z","date":"2026-02-04","time":"16:49:10"},{"rt":null,"stimulus":"<p style=\"font-size: 50px; margin: 0; text-align: center;\">+</p>","response":null,"trial_type":"html-keyboard-response","trial_index":25,"plugin_version":"2.1.0","time_elapsed":134260,"subject_id":"92480","group":"Group1","condition":"1_Rep","full_date":"2026-02-04T16:49:10.123Z","date":"2026-02-04","time":"16:49:10"},{"task":"memory_phase","broad_category":"I","image_png":"I_Basalt_09.png","image_id":25,"category_name":"Basalt","category":2,"distinct_rating":1.89,"distinct_type":"Bottom","rt":null,"stimulus":"Stimuli_Rocks480/I_Basalt_09.png","response":null,"trial_type":"image-keyboard-response","trial_index":26,"plugin_version":"2.1.0","time_elapsed":136780,"subject_id":"92480","group":"Group1","condition":"1_Rep","full_date":"2026-02-04T16:49:10.123Z","date":"2026-02-04","time":"16:49:10"},{"rt":null,"stimulus":"<p style=\"font-size: 50px; margin: 0; text-align: center;\">+</p>","response":null,"trial_type":"html-keyboard-response","trial_index":27,"plugin_version":"2.1.0","time_elapsed":137783,"subject_id":"92480","group":"Group1","condition":"1_Rep","full_date":"2026-02-04T16:49:10.123Z","date":"2026-02-04","time":"16:49:10"},{"task":"memory_phase","broad_category":"M","image_png":"M_Quartzite_05.png","image_id":277,"category_name":"Quartzite","category":18,"distinct_rating":2.23,"distinct_type":"Bottom","rt":null,"stimulus":"Stimuli_Rocks480/M_Quartzite_05.png","response":null,"trial_type":"image-keyboard-response","trial_index":28,"plugin_version":"2.1.0","time_elapsed":140310,"subject_id":"92480","group":"Group1","condition":"1_Rep","full_date":"2026-02-04T16:49:10.123Z","date":"2026-02-04","time":"16:49:10"},{"rt":null,"stimulus":"<p style=\"font-size: 50px; margin: 0; text-align: center;\">+</p>","response":null,"trial_type":"html-keyboard-response","trial_index":29,"plugin_version":"2.1.0","time_elapsed":141313,"subject_id":"92480","group":"Group1","condition":"1_Rep","full_date":"2026-02-04T16:49:10.123Z","date":"2026-02-04","time":"16:49:10"},{"task":"memory_phase","broad_category":"S","image_png":"S_Shale_12.png","image_id":476,"category_name":"Shale","category":30,"distinct_rating":2.48,"distinct_type":"Bottom","rt":null,"stimulus":"Stimuli_Rocks480/S_Shale_12.png","response":null,"trial_type":"image-keyboard-response","trial_index":30,"plugin_version":"2.1.0","time_elapsed":143840,"subject_id":"92480","group":"Group1","condition":"1_Rep","full_date":"2026-02-04T16:49:10.123Z","date":"2026-02-04","time":"16:49:10"},{"rt":null,"stimulus":"<p style=\"font-size: 50px; margin: 0; text-align: center;\">+</p>","response":null,"trial_type":"html-keyboard-response","trial_index":31,"plugin_version":"2.1.0","time_elapsed":144843,"subject_id":"92480","group":"Group1","condition":"1_Rep","full_date":"2026-02-04T16:49:10.123Z","date":"2026-02-04","time":"16:49:10"},{"task":"memory_phase","broad_category":"I","image_png":"I_Diorite_05.png","image_id":37,"category_name":"Diorite","category":3,"distinct_rating":3.08,"distinct_type":"Bottom","rt":null,"stimulus":"Stimuli_Rocks480/I_Diorite_05.png","response":null,"trial_type":"image-keyboard-response","trial_index":32,"plugin_version":"2.1.0","time_elapsed":147366,"subject_id":"92480","group":"Group1","condition":"1_Rep","full_date":"2026-02-04T16:49:10.123Z","date":"2026-02-04","time":"16:49:10"},{"rt":null,"stimulus":"<p style=\"font-size: 50px; margin: 0; text-align: center;\">+</p>","response":null,"trial_type":"html-keyboard-response","trial_index":33,"plugin_version":"2.1.0","time_elapsed":148369,"subject_id":"92480","group":"Group1","condition":"1_Rep","full_date":"2026-02-04T16:49:10.123Z","date":"2026-02-04","time":"16:49:10"},{"task":"memory_phase","broad_category":"M","image_png":"M_Gneiss_05.png","image_id":197,"category_name":"Gneiss","category":13,"distinct_rating":2.97,"distinct_type":"Bottom","rt":null,"stimulus":"Stimuli_Rocks480/M_Gneiss_05.png","response":null,"trial_type":"image-keyboard-response","trial_index":34,"plugin_version":"2.1.0","time_elapsed":150899,"subject_id":"92480","group":"Group1","condition":"1_Rep","full_date":"2026-02-04T16:49:10.123Z","date":"2026-02-04","time":"16:49:10"},{"rt":null,"stimulus":"<p style=\"font-size: 50px; margin: 0; text-align: center;\">+</p>","response":null,"trial_type":"html-keyboard-response","trial_index":35,"plugin_version":"2.1.0","time_elapsed":151901,"subject_id":"92480","group":"Group1","condition":"1_Rep","full_date":"2026-02-04T16:49:10.123Z","date":"2026-02-04","time":"16:49:10"},{"task":"memory_phase","broad_category":"I","image_png":"I_Diorite_04.png","image_id":36,"category_name":"Diorite","category":3,"distinct_rating":2.98,"distinct_type":"Bottom","rt":null,"stimulus":"Stimuli_Rocks480/I_Diorite_04.png","response":null,"trial_type":"image-keyboard-response","trial_index":36,"plugin_version":"2.1.0","time_elapsed":154426,"subject_id":"92480","group":"Group1","condition":"1_Rep","full_date":"2026-02-04T16:49:10.123Z","date":"2026-02-04","time":"16:49:10"},{"rt":null,"stimulus":"<p style=\"font-size: 50px; margin: 0; text-align: center;\">+</p>","response":null,"trial_type":"html-keyboard-response","trial_index":37,"plugin_version":"2.1.0","time_elapsed":155429,"subject_id":"92480","group":"Group1","condition":"1_Rep","full_date":"2026-02-04T16:49:10.123Z","date":"2026-02-04","time":"16:49:10"},{"task":"memory_phase","broad_category":"I","image_png":"I_Pegmatite_16.png","image_id":112,"category_name":"Pegmatite","category":7,"distinct_rating":7.03,"distinct_type":"Top","rt":null,"stimulus":"Stimuli_Rocks480/I_Pegmatite_16.png","response":null,"trial_type":"image-keyboard-response","trial_index":38,"plugin_version":"2.1.0","time_elapsed":157954,"subject_id":"92480","group":"Group1","condition":"1_Rep","full_date":"2026-02-04T16:49:10.123Z","date":"2026-02-04","time":"16:49:10"},{"rt":null,"stimulus":"<p style=\"font-size: 50px; margin: 0; text-align: center;\">+</p>","response":null,"trial_type":"html-keyboard-response","trial_index":39,"plugin_version":"2.1.0","time_elapsed":158957,"subject_id":"92480","group":"Group1","condition":"1_Rep","full_date":"2026-02-04T16:49:10.123Z","date":"2026-02-04","time":"16:49:10"},{"task":"memory_phase","broad_category":"S","image_png":"S_Dolomite_14.png","image_id":398,"category_name":"Dolomite","category":25,"distinct_rating":1.43,"distinct_type":"Bottom","rt":null,"stimulus":"Stimuli_Rocks480/S_Dolomite_14.png","response":null,"trial_type":"image-keyboard-response","trial_index":40,"plugin_version":"2.1.0","time_elapsed":161480,"subject_id":"92480","group":"Group1","condition":"1_Rep","full_date":"2026-02-04T16:49:10.123Z","date":"2026-02-04","time":"16:49:10"},{"rt":null,"stimulus":"<p style=\"font-size: 50px; margin: 0; text-align: center;\">+</p>","response":null,"trial_type":"html-keyboard-response","trial_index":41,"plugin_version":"2.1.0","time_elapsed":162483,"subject_id":"92480","group":"Group1","condition":"1_Rep","full_date":"2026-02-04T16:49:10.123Z","date":"2026-02-04","time":"16:49:10"},{"task":"memory_phase","broad_category":"M","image_png":"M_Marble_04.png","image_id":228,"category_name":"Marble","category":15,"distinct_rating":3.15,"distinct_type":"Bottom","rt":null,"stimulus":"Stimuli_Rocks480/M_Marble_04.png","response":null,"trial_type":"image-keyboard-response","trial_index":42,"plugin_version":"2.1.0","time_elapsed":165006,"subject_id":"92480","group":"Group1","condition":"1_Rep","full_date":"2026-02-04T16:49:10.123Z","date":"2026-02-04","time":"16:49:10"},{"rt":null,"stimulus":"<p style=\"font-size: 50px; margin: 0; text-align: center;\">+</p>","response":null,"trial_type":"html-keyboard-response","trial_index":43,"plugin_version":"2.1.0","time_elapsed":166008,"subject_id":"92480","group":"Group1","condition":"1_Rep","full_date":"2026-02-04T16:49:10.123Z","date":"2026-02-04","time":"16:49:10"},{"task":"memory_phase","broad_category":"I","image_png":"I_Rhyolite_11.png","image_id":155,"category_name":"Rhyolite","category":10,"distinct_rating":1.73,"distinct_type":"Bottom","rt":null,"stimulus":"Stimuli_Rocks480/I_Rhyolite_11.png","response":null,"trial_type":"image-keyboard-response","trial_index":44,"plugin_version":"2.1.0","time_elapsed":168530,"subject_id":"92480","group":"Group1","condition":"1_Rep","full_date":"2026-02-04T16:49:10.123Z","date":"2026-02-04","time":"16:49:10"},{"rt":null,"stimulus":"<p style=\"font-size: 50px; margin: 0; text-align: center;\">+</p>","response":null,"trial_type":"html-keyboard-response","trial_index":45,"plugin_version":"2.1.0","time_elapsed":169532,"subject_id":"92480","group":"Group1","condition":"1_Rep","full_date":"2026-02-04T16:49:10.123Z","date":"2026-02-04","time":"16:49:10"},{"task":"memory_phase","broad_category":"I","image_png":"I_Gabbro_11.png","image_id":59,"category_name":"Gabbro","category":4,"distinct_rating":1.99,"distinct_type":"Bottom","rt":null,"stimulus":"Stimuli_Rocks480/I_Gabbro_11.png","response":null,"trial_type":"image-keyboard-response","trial_index":46,"plugin_version":"2.1.0","time_elapsed":172052,"subject_id":"92480","group":"Group1","condition":"1_Rep","full_date":"2026-02-04T16:49:10.123Z","date":"2026-02-04","time":"16:49:10"},{"rt":null,"stimulus":"<p style=\"font-size: 50px; margin: 0; text-align: center;\">+</p>","response":null,"trial_type":"html-keyboard-response","trial_index":47,"plugin_version":"2.1.0","time_elapsed":173057,"subject_id":"92480","group":"Group1","condition":"1_Rep","full_date":"2026-02-04T16:49:10.123Z","date":"2026-02-04","time":"16:49:10"},{"task":"memory_phase","broad_category":"M","image_png":"M_Quartzite_08.png","image_id":280,"category_name":"Quartzite","category":18,"distinct_rating":2.15,"distinct_type":"Bottom","rt":null,"stimulus":"Stimuli_Rocks480/M_Quartzite_08.png","response":null,"trial_type":"image-keyboard-response","trial_index":48,"plugin_version":"2.1.0","time_elapsed":175580,"subject_id":"92480","group":"Group1","condition":"1_Rep","full_date":"2026-02-04T16:49:10.123Z","date":"2026-02-04","time":"16:49:10"},{"rt":null,"stimulus":"<p style=\"font-size: 50px; margin: 0; text-align: center;\">+</p>","response":null,"trial_type":"html-keyboard-response","trial_index":49,"plugin_version":"2.1.0","time_elapsed":176583,"subject_id":"92480","group":"Group1","condition":"1_Rep","full_date":"2026-02-04T16:49:10.123Z","date":"2026-02-04","time":"16:49:10"},{"task":"memory_phase","broad_category":"S","image_png":"S_Rock Gypsum_04.png","image_id":420,"category_name":"Rock Gypsum","category":27,"distinct_rating":7.61,"distinct_type":"Top","rt":null,"stimulus":"Stimuli_Rocks480/S_Rock Gypsum_04.png","response":null,"trial_type":"image-keyboard-response","trial_index":50,"plugin_version":"2.1.0","time_elapsed":179107,"subject_id":"92480","group":"Group1","condition":"1_Rep","full_date":"2026-02-04T16:49:10.123Z","date":"2026-02-04","time":"16:49:10"},{"rt":null,"stimulus":"<p style=\"font-size: 50px; margin: 0; text-align: center;\">+</p>","response":null,"trial_type":"html-keyboard-response","trial_index":51,"plugin_version":"2.1.0","time_elapsed":180109,"subject_id":"92480","group":"Group1","condition":"1_Rep","full_date":"2026-02-04T16:49:10.123Z","date":"2026-02-04","time":"16:49:10"},{"task":"memory_phase","broad_category":"S","image_png":"S_Dolomite_13.png","image_id":397,"category_name":"Dolomite","category":25,"distinct_rating":1.77,"distinct_type":"Bottom","rt":null,"stimulus":"Stimuli_Rocks480/S_Dolomite_13.png","response":null,"trial_type":"image-keyboard-response","trial_index":52,"plugin_version":"2.1.0","time_elapsed":182633,"subject_id":"92480","group":"Group1","condition":"1_Rep","full_date":"2026-02-04T16:49:10.123Z","date":"2026-02-04","time":"16:49:10"},{"rt":null,"stimulus":"<p style=\"font-size: 50px; margin: 0; text-align: center;\">+</p>","response":null,"trial_type":"html-keyboard-response","trial_index":53,"plugin_version":"2.1.0","time_elapsed":183635,"subject_id":"92480","group":"Group1","condition":"1_Rep","full_date":"2026-02-04T16:49:10.123Z","date":"2026-02-04","time":"16:49:10"},{"task":"memory_phase","broad_category":"I","image_png":"I_Andesite_08.png","image_id":8,"category_name":"Andesite","category":1,"distinct_rating":1.95,"distinct_type":"Bottom","rt":null,"stimulus":"Stimuli_Rocks480/I_Andesite_08.png","response":null,"trial_type":"image-keyboard-response","trial_index":54,"plugin_version":"2.1.0","time_elapsed":186160,"subject_id":"92480","group":"Group1","condition":"1_Rep","full_date":"2026-02-04T16:49:10.123Z","date":"2026-02-04","time":"16:49:10"},{"rt":2189,"stimulus":"<p style=\"max-width: 760px; margin: auto; font-size: 35px; line-height: 1.5;\">\n                Press SPACE to continue study phase\n              </p>","response":" ","trial_type":"html-keyboard-response","trial_index":55,"plugin_version":"2.1.0","time_elapsed":188353,"subject_id":"92480","group":"Group1","condition":"1_Rep","full_date":"2026-02-04T16:49:10.123Z","date":"2026-02-04","time":"16:49:10"},{"rt":null,"stimulus":"<p style=\"font-size: 50px; margin: 0; text-align: center;\">+</p>","response":null,"trial_type":"html-keyboard-response","trial_index":56,"plugin_version":"2.1.0","time_elapsed":189356,"subject_id":"92480","group":"Group1","condition":"1_Rep","full_date":"2026-02-04T16:49:10.123Z","date":"2026-02-04","time":"16:49:10"},{"task":"memory_phase","broad_category":"I","image_png":"I_Gabbro_08.png","image_id":56,"category_name":"Gabbro","category":4,"distinct_rating":3.02,"distinct_type":"Bottom","rt":null,"stimulus":"Stimuli_Rocks480/I_Gabbro_08.png","response":null,"trial_type":"image-keyboard-response","trial_index":57,"plugin_version":"2.1.0","time_elapsed":191875,"subject_id":"92480","group":"Group1","condition":"1_Rep","full_date":"2026-02-04T16:49:10.123Z","date":"2026-02-04","time":"16:49:10"},{"rt":null,"stimulus":"<p style=\"font-size: 50px; margin: 0; text-align: center;\">+</p>","response":null,"trial_type":"html-keyboard-response","trial_index":58,"plugin_version":"2.1.0","time_elapsed":192878,"subject_id":"92480","group":"Group1","condition":"1_Rep","full_date":"2026-02-04T16:49:10.123Z","date":"2026-02-04","time":"16:49:10"},{"task":"memory_phase","broad_category":"S","image_png":"S_Sandstone_03.png","image_id":451,"category_name":"Sandstone","category":29,"distinct_rating":1.86,"distinct_type":"Bottom","rt":null,"stimulus":"Stimuli_Rocks480/S_Sandstone_03.png","response":null,"trial_type":"image-keyboard-response","trial_index":59,"plugin_version":"2.1.0","time_elapsed":195403,"subject_id":"92480","group":"Group1","condition":"1_Rep","full_date":"2026-02-04T16:49:10.123Z","date":"2026-02-04","time":"16:49:10"},{"rt":null,"stimulus":"<p style=\"font-size: 50px; margin: 0; text-align: center;\">+</p>","response":null,"trial_type":"html-keyboard-response","trial_index":60,"plugin_version":"2.1.0","time_elapsed":196406,"subject_id":"92480","group":"Group1","condition":"1_Rep","full_date":"2026-02-04T16:49:10.123Z","date":"2026-02-04","time":"16:49:10"},{"task":"memory_phase","broad_category":"I","image_png":"I_Andesite_10.png","image_id":10,"category_name":"Andesite","category":1,"distinct_rating":3.15,"distinct_type":"Bottom","rt":null,"stimulus":"Stimuli_Rocks480/I_Andesite_10.png","response":null,"trial_type":"image-keyboard-response","trial_index":61,"plugin_version":"2.1.0","time_elapsed":198924,"subject_id":"92480","group":"Group1","condition":"1_Rep","full_date":"2026-02-04T16:49:10.123Z","date":"2026-02-04","time":"16:49:10"},{"rt":null,"stimulus":"<p style=\"font-size: 50px; margin: 0; text-align: center;\">+</p>","response":null,"trial_type":"html-keyboard-response","trial_index":62,"plugin_version":"2.1.0","time_elapsed":199926,"subject_id":"92480","group":"Group1","condition":"1_Rep","full_date":"2026-02-04T16:49:10.123Z","date":"2026-02-04","time":"16:49:10"},{"task":"memory_phase","broad_category":"S","image_png":"S_Dolomite_12.png","image_id":396,"category_name":"Dolomite","category":25,"distinct_rating":1.85,"distinct_type":"Bottom","rt":null,"stimulus":"Stimuli_Rocks480/S_Dolomite_12.png","response":null,"trial_type":"image-keyboard-response","trial_index":63,"plugin_version":"2.1.0","time_elapsed":202449,"subject_id":"92480","group":"Group1","condition":"1_Rep","full_date":"2026-02-04T16:49:10.123Z","date":"2026-02-04","time":"16:49:10"},{"rt":null,"stimulus":"<p style=\"font-size: 50px; margin: 0; text-align: center;\">+</p>","response":null,"trial_type":"html-keyboard-response","trial_index":64,"plugin_version":"2.1.0","time_elapsed":203452,"subject_id":"92480","group":"Group1","condition":"1_Rep","full_date":"2026-02-04T16:49:10.123Z","date":"2026-02-04","time":"16:49:10"},{"task":"memory_phase","broad_category":"I","image_png":"I_Rhyolite_14.png","image_id":158,"category_name":"Rhyolite","category":10,"distinct_rating":2.59,"distinct_type":"Bottom","rt":null,"stimulus":"Stimuli_Rocks480/I_Rhyolite_14.png","response":null,"trial_type":"image-keyboard-response","trial_index":65,"plugin_version":"2.1.0","time_elapsed":205973,"subject_id":"92480","group":"Group1","condition":"1_Rep","full_date":"2026-02-04T16:49:10.123Z","date":"2026-02-04","time":"16:49:10"},{"rt":null,"stimulus":"<p style=\"font-size: 50px; margin: 0; text-align: center;\">+</p>","response":null,"trial_type":"html-keyboard-response","trial_index":66,"plugin_version":"2.1.0","time_elapsed":206975,"subject_id":"92480","group":"Group1","condition":"1_Rep","full_date":"2026-02-04T16:49:10.123Z","date":"2026-02-04","time":"16:49:10"},{"task":"memory_phase","broad_category":"I","image_png":"I_Pegmatite_10.png","image_id":106,"category_name":"Pegmatite","category":7,"distinct_rating":7.66,"distinct_type":"Top","rt":null,"stimulus":"Stimuli_Rocks480/I_Pegmatite_10.png","response":null,"trial_type":"image-keyboard-response","trial_index":67,"plugin_version":"2.1.0","time_elapsed":209497,"subject_id":"92480","group":"Group1","condition":"1_Rep","full_date":"2026-02-04T16:49:10.123Z","date":"2026-02-04","time":"16:49:10"},{"rt":null,"stimulus":"<p style=\"font-size: 50px; margin: 0; text-align: center;\">+</p>","response":null,"trial_type":"html-keyboard-response","trial_index":68,"plugin_version":"2.1.0","time_elapsed":210500,"subject_id":"92480","group":"Group1","condition":"1_Rep","full_date":"2026-02-04T16:49:10.123Z","date":"2026-02-04","time":"16:49:10"},{"task":"memory_phase","broad_category":"I","image_png":"I_Diorite_03.png","image_id":35,"category_name":"Diorite","category":3,"distinct_rating":3.14,"distinct_type":"Bottom","rt":null,"stimulus":"Stimuli_Rocks480/I_Diorite_03.png","response":null,"trial_type":"image-keyboard-response","trial_index":69,"plugin_version":"2.1.0","time_elapsed":213028,"subject_id":"92480","group":"Group1","condition":"1_Rep","full_date":"2026-02-04T16:49:10.123Z","date":"2026-02-04","time":"16:49:10"},{"rt":null,"stimulus":"<p style=\"font-size: 50px; margin: 0; text-align: center;\">+</p>","response":null,"trial_type":"html-keyboard-response","trial_index":70,"plugin_version":"2.1.0","time_elapsed":214030,"subject_id":"92480","group":"Group1","condition":"1_Rep","full_date":"2026-02-04T16:49:10.123Z","date":"2026-02-04","time":"16:49:10"},{"task":"memory_phase","broad_category":"M","image_png":"M_Gneiss_13.png","image_id":205,"category_name":"Gneiss","category":13,"distinct_rating":3.26,"distinct_type":"Bottom","rt":null,"stimulus":"Stimuli_Rocks480/M_Gneiss_13.png","response":null,"trial_type":"image-keyboard-response","trial_index":71,"plugin_version":"2.1.0","time_elapsed":216550,"subject_id":"92480","group":"Group1","condition":"1_Rep","full_date":"2026-02-04T16:49:10.123Z","date":"2026-02-04","time":"16:49:10"},{"rt":null,"stimulus":"<p style=\"font-size: 50px; margin: 0; text-align: center;\">+</p>","response":null,"trial_type":"html-keyboard-response","trial_index":72,"plugin_version":"2.1.0","time_elapsed":217552,"subject_id":"92480","group":"Group1","condition":"1_Rep","full_date":"2026-02-04T16:49:10.123Z","date":"2026-02-04","time":"16:49:10"},{"task":"memory_phase","broad_category":"I","image_png":"I_Andesite_06.png","image_id":6,"category_name":"Andesite","category":1,"distinct_rating":3.17,"distinct_type":"Bottom","rt":null,"stimulus":"Stimuli_Rocks480/I_Andesite_06.png","response":null,"trial_type":"image-keyboard-response","trial_index":73,"plugin_version":"2.1.0","time_elapsed":220078,"subject_id":"92480","group":"Group1","condition":"1_Rep","full_date":"2026-02-04T16:49:10.123Z","date":"2026-02-04","time":"16:49:10"},{"rt":null,"stimulus":"<p style=\"font-size: 50px; margin: 0; text-align: center;\">+</p>","response":null,"trial_type":"html-keyboard-response","trial_index":74,"plugin_version":"2.1.0","time_elapsed":221080,"subject_id":"92480","group":"Group1","condition":"1_Rep","full_date":"2026-02-04T16:49:10.123Z","date":"2026-02-04","time":"16:49:10"},{"task":"memory_phase","broad_category":"I","image_png":"I_Basalt_01.png","image_id":17,"category_name":"Basalt","category":2,"distinct_rating":1.92,"distinct_type":"Bottom","rt":null,"stimulus":"Stimuli_Rocks480/I_Basalt_01.png","response":null,"trial_type":"image-keyboard-response","trial_index":75,"plugin_version":"2.1.0","time_elapsed":223609,"subject_id":"92480","group":"Group1","condition":"1_Rep","full_date":"2026-02-04T16:49:10.123Z","date":"2026-02-04","time":"16:49:10"},{"rt":null,"stimulus":"<p style=\"font-size: 50px; margin: 0; text-align: center;\">+</p>","response":null,"trial_type":"html-keyboard-response","trial_index":76,"plugin_version":"2.1.0","time_elapsed":224611,"subject_id":"92480","group":"Group1","condition":"1_Rep","full_date":"2026-02-04T16:49:10.123Z","date":"2026-02-04","time":"16:49:10"},{"task":"memory_phase","broad_category":"M","image_png":"M_Slate_03.png","image_id":307,"category_name":"Slate","category":20,"distinct_rating":1.87,"distinct_type":"Bottom","rt":null,"stimulus":"Stimuli_Rocks480/M_Slate_03.png","response":null,"trial_type":"image-keyboard-response","trial_index":77,"plugin_version":"2.1.0","time_elapsed":227135,"subject_id":"92480","group":"Group1","condition":"1_Rep","full_date":"2026-02-04T16:49:10.123Z","date":"2026-02-04","time":"16:49:10"},{"rt":null,"stimulus":"<p style=\"font-size: 50px; margin: 0; text-align: center;\">+</p>","response":null,"trial_type":"html-keyboard-response","trial_index":78,"plugin_version":"2.1.0","time_elapsed":228138,"subject_id":"92480","group":"Group1","condition":"1_Rep","full_date":"2026-02-04T16:49:10.123Z","date":"2026-02-04","time":"16:49:10"},{"task":"memory_phase","broad_category":"M","image_png":"M_Marble_06.png","image_id":230,"category_name":"Marble","category":15,"distinct_rating":3.4,"distinct_type":"Bottom","rt":null,"stimulus":"Stimuli_Rocks480/M_Marble_06.png","response":null,"trial_type":"image-keyboard-response","trial_index":79,"plugin_version":"2.1.0","time_elapsed":230660,"subject_id":"92480","group":"Group1","condition":"1_Rep","full_date":"2026-02-04T16:49:10.123Z","date":"2026-02-04","time":"16:49:10"},{"rt":null,"stimulus":"<p style=\"font-size: 50px; margin: 0; text-align: center;\">+</p>","response":null,"trial_type":"html-keyboard-response","trial_index":80,"plugin_version":"2.1.0","time_elapsed":231663,"subject_id":"92480","group":"Group1","condition":"1_Rep","full_date":"2026-02-04T16:49:10.123Z","date":"2026-02-04","time":"16:49:10"},{"task":"memory_phase","broad_category":"S","image_png":"S_Sandstone_16.png","image_id":464,"category_name":"Sandstone","category":29,"distinct_rating":1.93,"distinct_type":"Bottom","rt":null,"stimulus":"Stimuli_Rocks480/S_Sandstone_16.png","response":null,"trial_type":"image-keyboard-response","trial_index":81,"plugin_version":"2.1.0","time_elapsed":234181,"subject_id":"92480","group":"Group1","condition":"1_Rep","full_date":"2026-02-04T16:49:10.123Z","date":"2026-02-04","time":"16:49:10"},{"rt":null,"stimulus":"<p style=\"font-size: 50px; margin: 0; text-align: center;\">+</p>","response":null,"trial_type":"html-keyboard-response","trial_index":82,"plugin_version":"2.1.0","time_elapsed":235184,"subject_id":"92480","group":"Group1","condition":"1_Rep","full_date":"2026-02-04T16:49:10.123Z","date":"2026-02-04","time":"16:49:10"},{"task":"memory_phase","broad_category":"M","image_png":"M_Slate_11.png","image_id":315,"category_name":"Slate","category":20,"distinct_rating":2.75,"distinct_type":"Bottom","rt":null,"stimulus":"Stimuli_Rocks480/M_Slate_11.png","response":null,"trial_type":"image-keyboard-response","trial_index":83,"plugin_version":"2.1.0","time_elapsed":237705,"subject_id":"92480","group":"Group1","condition":"1_Rep","full_date":"2026-02-04T16:49:10.123Z","date":"2026-02-04","time":"16:49:10"},{"rt":null,"stimulus":"<p style=\"font-size: 50px; margin: 0; text-align: center;\">+</p>","response":null,"trial_type":"html-keyboard-response","trial_index":84,"plugin_version":"2.1.0","time_elapsed":238707,"subject_id":"92480","group":"Group1","condition":"1_Rep","full_date":"2026-02-04T16:49:10.123Z","date":"2026-02-04","time":"16:49:10"},{"task":"memory_phase","broad_category":"M","image_png":"M_Marble_16.png","image_id":240,"category_name":"Marble","category":15,"distinct_rating":2.57,"distinct_type":"Bottom","rt":null,"stimulus":"Stimuli_Rocks480/M_Marble_16.png","response":null,"trial_type":"image-keyboard-response","trial_index":85,"plugin_version":"2.1.0","time_elapsed":241234,"subject_id":"92480","group":"Group1","condition":"1_Rep","full_date":"2026-02-04T16:49:10.123Z","date":"2026-02-04","time":"16:49:10"},{"rt":null,"stimulus":"<p style=\"font-size: 50px; margin: 0; text-align: center;\">+</p>","response":null,"trial_type":"html-keyboard-response","trial_index":86,"plugin_version":"2.1.0","time_elapsed":242236,"subject_id":"92480","group":"Group1","condition":"1_Rep","full_date":"2026-02-04T16:49:10.123Z","date":"2026-02-04","time":"16:49:10"},{"task":"memory_phase","broad_category":"I","image_png":"I_Basalt_02.png","image_id":18,"category_name":"Basalt","category":2,"distinct_rating":1.84,"distinct_type":"Bottom","rt":null,"stimulus":"Stimuli_Rocks480/I_Basalt_02.png","response":null,"trial_type":"image-keyboard-response","trial_index":87,"plugin_version":"2.1.0","time_elapsed":244762,"subject_id":"92480","group":"Group1","condition":"1_Rep","full_date":"2026-02-04T16:49:10.123Z","date":"2026-02-04","time":"16:49:10"},{"rt":null,"stimulus":"<p style=\"font-size: 50px; margin: 0; text-align: center;\">+</p>","response":null,"trial_type":"html-keyboard-response","trial_index":88,"plugin_version":"2.1.0","time_elapsed":245764,"subject_id":"92480","group":"Group1","condition":"1_Rep","full_date":"2026-02-04T16:49:10.123Z","date":"2026-02-04","time":"16:49:10"},{"task":"memory_phase","broad_category":"I","image_png":"I_Rhyolite_16.png","image_id":160,"category_name":"Rhyolite","category":10,"distinct_rating":2.19,"distinct_type":"Bottom","rt":null,"stimulus":"Stimuli_Rocks480/I_Rhyolite_16.png","response":null,"trial_type":"image-keyboard-response","trial_index":89,"plugin_version":"2.1.0","time_elapsed":248283,"subject_id":"92480","group":"Group1","condition":"1_Rep","full_date":"2026-02-04T16:49:10.123Z","date":"2026-02-04","time":"16:49:10"},{"rt":null,"stimulus":"<p style=\"font-size: 50px; margin: 0; text-align: center;\">+</p>","response":null,"trial_type":"html-keyboard-response","trial_index":90,"plugin_version":"2.1.0","time_elapsed":249286,"subject_id":"92480","group":"Group1","condition":"1_Rep","full_date":"2026-02-04T16:49:10.123Z","date":"2026-02-04","time":"16:49:10"},{"task":"memory_phase","broad_category":"S","image_png":"S_Breccia_11.png","image_id":347,"category_name":"Breccia","category":22,"distinct_rating":6.7,"distinct_type":"Top","rt":null,"stimulus":"Stimuli_Rocks480/S_Breccia_11.png","response":null,"trial_type":"image-keyboard-response","trial_index":91,"plugin_version":"2.1.0","time_elapsed":251822,"subject_id":"92480","group":"Group1","condition":"1_Rep","full_date":"2026-02-04T16:49:10.123Z","date":"2026-02-04","time":"16:49:10"},{"rt":null,"stimulus":"<p style=\"font-size: 50px; margin: 0; text-align: center;\">+</p>","response":null,"trial_type":"html-keyboard-response","trial_index":92,"plugin_version":"2.1.0","time_elapsed":252824,"subject_id":"92480","group":"Group1","condition":"1_Rep","full_date":"2026-02-04T16:49:10.123Z","date":"2026-02-04","time":"16:49:10"},{"task":"memory_phase","broad_category":"M","image_png":"M_Phyllite_07.png","image_id":263,"category_name":"Phyllite","category":17,"distinct_rating":2.59,"distinct_type":"Bottom","rt":null,"stimulus":"Stimuli_Rocks480/M_Phyllite_07.png","response":null,"trial_type":"image-keyboard-response","trial_index":93,"plugin_version":"2.1.0","time_elapsed":255344,"subject_id":"92480","group":"Group1","condition":"1_Rep","full_date":"2026-02-04T16:49:10.123Z","date":"2026-02-04","time":"16:49:10"},{"rt":null,"stimulus":"<p style=\"font-size: 50px; margin: 0; text-align: center;\">+</p>","response":null,"trial_type":"html-keyboard-response","trial_index":94,"plugin_version":"2.1.0","time_elapsed":256346,"subject_id":"92480","group":"Group1","condition":"1_Rep","full_date":"2026-02-04T16:49:10.123Z","date":"2026-02-04","time":"16:49:10"},{"task":"memory_phase","broad_category":"I","image_png":"I_Pumice_12.png","image_id":140,"category_name":"Pumice","category":9,"distinct_rating":2.97,"distinct_type":"Bottom","rt":null,"stimulus":"Stimuli_Rocks480/I_Pumice_12.png","response":null,"trial_type":"image-keyboard-response","trial_index":95,"plugin_version":"2.1.0","time_elapsed":258863,"subject_id":"92480","group":"Group1","condition":"1_Rep","full_date":"2026-02-04T16:49:10.123Z","date":"2026-02-04","time":"16:49:10"},{"rt":null,"stimulus":"<p style=\"font-size: 50px; margin: 0; text-align: center;\">+</p>","response":null,"trial_type":"html-keyboard-response","trial_index":96,"plugin_version":"2.1.0","time_elapsed":259866,"subject_id":"92480","group":"Group1","condition":"1_Rep","full_date":"2026-02-04T16:49:10.123Z","date":"2026-02-04","time":"16:49:10"},{"task":"memory_phase","broad_category":"I","image_png":"I_Obsidian_05.png","image_id":85,"category_name":"Obsidian","category":6,"distinct_rating":7.32,"distinct_type":"Top","rt":null,"stimulus":"Stimuli_Rocks480/I_Obsidian_05.png","response":null,"trial_type":"image-keyboard-response","trial_index":97,"plugin_version":"2.1.0","time_elapsed":262394,"subject_id":"92480","group":"Group1","condition":"1_Rep","full_date":"2026-02-04T16:49:10.123Z","date":"2026-02-04","time":"16:49:10"},{"rt":null,"stimulus":"<p style=\"font-size: 50px; margin: 0; text-align: center;\">+</p>","response":null,"trial_type":"html-keyboard-response","trial_index":98,"plugin_version":"2.1.0","time_elapsed":263398,"subject_id":"92480","group":"Group1","condition":"1_Rep","full_date":"2026-02-04T16:49:10.123Z","date":"2026-02-04","time":"16:49:10"},{"task":"memory_phase","broad_category":"S","image_png":"S_Shale_01.png","image_id":465,"category_name":"Shale","category":30,"distinct_rating":2.7,"distinct_type":"Bottom","rt":null,"stimulus":"Stimuli_Rocks480/S_Shale_01.png","response":null,"trial_type":"image-keyboard-response","trial_index":99,"plugin_version":"2.1.0","time_elapsed":265920,"subject_id":"92480","group":"Group1","condition":"1_Rep","full_date":"2026-02-04T16:49:10.123Z","date":"2026-02-04","time":"16:49:10"},{"rt":null,"stimulus":"<p style=\"font-size: 50px; margin: 0; text-align: center;\">+</p>","response":null,"trial_type":"html-keyboard-response","trial_index":100,"plugin_version":"2.1.0","time_elapsed":266923,"subject_id":"92480","group":"Group1","condition":"1_Rep","full_date":"2026-02-04T16:49:10.123Z","date":"2026-02-04","time":"16:49:10"},{"task":"memory_phase","broad_category":"M","image_png":"M_Phyllite_10.png","image_id":266,"category_name":"Phyllite","category":17,"distinct_rating":2.6,"distinct_type":"Bottom","rt":null,"stimulus":"Stimuli_Rocks480/M_Phyllite_10.png","response":null,"trial_type":"image-keyboard-response","trial_index":101,"plugin_version":"2.1.0","time_elapsed":269443,"subject_id":"92480","group":"Group1","condition":"1_Rep","full_date":"2026-02-04T16:49:10.123Z","date":"2026-02-04","time":"16:49:10"},{"rt":null,"stimulus":"<p style=\"font-size: 50px; margin: 0; text-align: center;\">+</p>","response":null,"trial_type":"html-keyboard-response","trial_index":102,"plugin_version":"2.1.0","time_elapsed":270446,"subject_id":"92480","group":"Group1","condition":"1_Rep","full_date":"2026-02-04T16:49:10.123Z","date":"2026-02-04","time":"16:49:10"},{"task":"memory_phase","broad_category":"M","image_png":"M_Phyllite_03.png","image_id":259,"category_name":"Phyllite","category":17,"distinct_rating":2.5,"distinct_type":"Bottom","rt":null,"stimulus":"Stimuli_Rocks480/M_Phyllite_03.png","response":null,"trial_type":"image-keyboard-response","trial_index":103,"plugin_version":"2.1.0","time_elapsed":272970,"subject_id":"92480","group":"Group1","condition":"1_Rep","full_date":"2026-02-04T16:49:10.123Z","date":"2026-02-04","time":"16:49:10"},{"rt":null,"stimulus":"<p style=\"font-size: 50px; margin: 0; text-align: center;\">+</p>","response":null,"trial_type":"html-keyboard-response","trial_index":104,"plugin_version":"2.1.0","time_elapsed":273973,"subject_id":"92480","group":"Group1","condition":"1_Rep","full_date":"2026-02-04T16:49:10.123Z","date":"2026-02-04","time":"16:49:10"},{"task":"memory_phase","broad_category":"S","image_png":"S_Shale_08.png","image_id":472,"category_name":"Shale","category":30,"distinct_rating":2.55,"distinct_type":"Bottom","rt":null,"stimulus":"Stimuli_Rocks480/S_Shale_08.png","response":null,"trial_type":"image-keyboard-response","trial_index":105,"plugin_version":"2.1.0","time_elapsed":276498,"subject_id":"92480","group":"Group1","condition":"1_Rep","full_date":"2026-02-04T16:49:10.123Z","date":"2026-02-04","time":"16:49:10"},{"rt":8123,"stimulus":"<div style=\"max-width: 760px; margin: auto; font-size: 20px; line-height: 1.5;\">\n      <h1 style=\"text-align:center; font-size: 30px;\">Instructions for the Test Phase</h1>\n      <p>\n        The study phase is now complete.\n      </p>\n      <p>\n        In the test phase, you will again see a series of rock images. \n        Some will be ones you saw before - during the study phase, while others will be new.  \n        <b>Your task</b> is to decide whether you have seen each image before by pressing the corresponding key on your keyboard:<br><br>\n          <b>A</b> - NO (you did not see this image before)<br>\n          <b>L</b> - YES (you saw this image before)<br><br>\n        The test will proceed at your own pace. You will receive feedback after each response.  \n        Please try to respond <b>as accurately as possible</b>.\n      </p>\n      <p>\n        <b>Reminder:</b> If your computer has multiple language settings (e.g., English and another language),\n        please ensure it is set to English during the test phase.\n      </p>\n      <p>\n        You can track your progress using the <b>completion bar</b> at the top of the screen.  \n        Note that it has been refreshed to reflect your progress during this final phase.\n      </p>\n      <p>\n        Press the button below when you are ready to continue.\n      </p>\n    </div>","response":0,"trial_type":"html-button-response","trial_index":106,"plugin_version":"2.1.0","time_elapsed":284625,"subject_id":"92480","group":"Group1","condition":"1_Rep","full_date":"2026-02-04T16:49:10.123Z","date":"2026-02-04","time":"16:49:10"},{"correct_response":"a","task":"test_phase","broad_category":"I","image_png":"I_Gabbro_12.png","image_id":60,"category_name":"Gabbro","category":4,"distinct_rating":2.6,"distinct_type":"Bottom","item_type":"Foil","rt":4078,"stimulus":"Stimuli_Rocks480/I_Gabbro_12.png","response":"l","trial_type":"image-keyboard-response","trial_index":107,"plugin_version":"2.1.0","time_elapsed":288731,"subject_id":"92480","group":"Group1","condition":"1_Rep","full_date":"2026-02-04T16:49:10.123Z","date":"2026-02-04","time":"16:49:10","cor_ans":false},{"trial_type":"html-keyboard-response","rt":null,"stimulus":"<p style=\"color: red; font-size: 50px; font-weight: bold;\">Incorrect</p>","response":null,"trial_index":108,"plugin_version":"2.1.0","time_elapsed":289234,"subject_id":"92480","group":"Group1","condition":"1_Rep","full_date":"2026-02-04T16:49:10.123Z","date":"2026-02-04","time":"16:49:10"},{"correct_response":"l","task":"test_phase","broad_category":"I","image_png":"I_Rhyolite_14.png","image_id":158,"category_name":"Rhyolite","category":10,"distinct_rating":2.59,"distinct_type":"Bottom","item_type":"Target","rt":1808,"stimulus":"Stimuli_Rocks480/I_Rhyolite_14.png","response":"l","trial_type":"image-keyboard-response","trial_index":109,"plugin_version":"2.1.0","time_elapsed":291061,"subject_id":"92480","group":"Group1","condition":"1_Rep","full_date":"2026-02-04T16:49:10.123Z","date":"2026-02-04","time":"16:49:10","cor_ans":true},{"trial_type":"html-keyboard-response","rt":null,"stimulus":"<p style=\"color: green; font-size: 50px; font-weight: bold;\">Correct</p>","response":null,"trial_index":110,"plugin_version":"2.1.0","time_elapsed":291564,"subject_id":"92480","group":"Group1","condition":"1_Rep","full_date":"2026-02-04T16:49:10.123Z","date":"2026-02-04","time":"16:49:10"},{"correct_response":"l","task":"test_phase","broad_category":"S","image_png":"S_Sandstone_03.png","image_id":451,"category_name":"Sandstone","category":29,"distinct_rating":1.86,"distinct_type":"Bottom","item_type":"Target","rt":1119,"stimulus":"Stimuli_Rocks480/S_Sandstone_03.png","response":"l","trial_type":"image-keyboard-response","trial_index":111,"plugin_version":"2.1.0","time_elapsed":292705,"subject_id":"92480","group":"Group1","condition":"1_Rep","full_date":"2026-02-04T16:49:10.123Z","date":"2026-02-04","time":"16:49:10","cor_ans":true},{"trial_type":"html-keyboard-response","rt":null,"stimulus":"<p style=\"color: green; font-size: 50px; font-weight: bold;\">Correct</p>","response":null,"trial_index":112,"plugin_version":"2.1.0","time_elapsed":293208,"subject_id":"92480","group":"Group1","condition":"1_Rep","full_date":"2026-02-04T16:49:10.123Z","date":"2026-02-04","time":"16:49:10"},{"correct_response":"l","task":"test_phase","broad_category":"I","image_png":"I_Gabbro_11.png","image_id":59,"category_name":"Gabbro","category":4,"distinct_rating":1.99,"distinct_type":"Bottom","item_type":"Target","rt":1093,"stimulus":"Stimuli_Rocks480/I_Gabbro_11.png","response":"a","trial_type":"image-keyboard-response","trial_index":113,"plugin_version":"2.1.0","time_elapsed":294318,"subject_id":"92480","group":"Group1","condition":"1_Rep","full_date":"2026-02-04T16:49:10.123Z","date":"2026-02-04","time":"16:49:10","cor_ans":false},{"trial_type":"html-keyboard-response","rt":null,"stimulus":"<p style=\"color: red; font-size: 50px; font-weight: bold;\">Incorrect</p>","response":null,"trial_index":114,"plugin_version":"2.1.0","time_elapsed":294820,"subject_id":"92480","group":"Group1","condition":"1_Rep","full_date":"2026-02-04T16:49:10.123Z","date":"2026-02-04","time":"16:49:10"},{"correct_response":"a","task":"test_phase","broad_category":"S","image_png":"S_Shale_02.png","image_id":466,"category_name":"Shale","category":30,"distinct_rating":2.9,"distinct_type":"Bottom","item_type":"Foil","rt":926,"stimulus":"Stimuli_Rocks480/S_Shale_02.png","response":"l","trial_type":"image-keyboard-response","trial_index":115,"plugin_version":"2.1.0","time_elapsed":295765,"subject_id":"92480","group":"Group1","condition":"1_Rep","full_date":"2026-02-04T16:49:10.123Z","date":"2026-02-04","time":"16:49:10","cor_ans":false},{"trial_type":"html-keyboard-response","rt":null,"stimulus":"<p style=\"color: red; font-size: 50px; font-weight: bold;\">Incorrect</p>","response":null,"trial_index":116,"plugin_version":"2.1.0","time_elapsed":296267,"subject_id":"92480","group":"Group1","condition":"1_Rep","full_date":"2026-02-04T16:49:10.123Z","date":"2026-02-04","time":"16:49:10"},{"correct_response":"a","task":"test_phase","broad_category":"M","image_png":"M_Marble_14.png","image_id":238,"category_name":"Marble","category":15,"distinct_rating":3.31,"distinct_type":"Bottom","item_type":"Foil","rt":1347,"stimulus":"Stimuli_Rocks480/M_Marble_14.png","response":"l","trial_type":"image-keyboard-response","trial_index":117,"plugin_version":"2.1.0","time_elapsed":297635,"subject_id":"92480","group":"Group1","condition":"1_Rep","full_date":"2026-02-04T16:49:10.123Z","date":"2026-02-04","time":"16:49:10","cor_ans":false},{"trial_type":"html-keyboard-response","rt":null,"stimulus":"<p style=\"color: red; font-size: 50px; font-weight: bold;\">Incorrect</p>","response":null,"trial_index":118,"plugin_version":"2.1.0","time_elapsed":298138,"subject_id":"92480","group":"Group1","condition":"1_Rep","full_date":"2026-02-04T16:49:10.123Z","date":"2026-02-04","time":"16:49:10"},{"correct_response":"l","task":"test_phase","broad_category":"M","image_png":"M_Slate_15.png","image_id":319,"category_name":"Slate","category":20,"distinct_rating":2.13,"distinct_type":"Bottom","item_type":"Target","rt":740,"stimulus":"Stimuli_Rocks480/M_Slate_15.png","response":"l","trial_type":"image-keyboard-response","trial_index":119,"plugin_version":"2.1.0","time_elapsed":298888,"subject_id":"92480","group":"Group1","condition":"1_Rep","full_date":"2026-02-04T16:49:10.123Z","date":"2026-02-04","time":"16:49:10","cor_ans":true},{"trial_type":"html-keyboard-response","rt":null,"stimulus":"<p style=\"color: green; font-size: 50px; font-weight: bold;\">Correct</p>","response":null,"trial_index":120,"plugin_version":"2.1.0","time_elapsed":299391,"subject_id":"92480","group":"Group1","condition":"1_Rep","full_date":"2026-02-04T16:49:10.123Z","date":"2026-02-04","time":"16:49:10"},{"correct_response":"a","task":"test_phase","broad_category":"S","image_png":"S_Chert_13.png","image_id":365,"category_name":"Chert","category":23,"distinct_rating":6.57,"distinct_type":"Top","item_type":"Foil","rt":1013,"stimulus":"Stimuli_Rocks480/S_Chert_13.png","response":"l","trial_type":"image-keyboard-response","trial_index":121,"plugin_version":"2.1.0","time_elapsed":300419,"subject_id":"92480","group":"Group1","condition":"1_Rep","full_date":"2026-02-04T16:49:10.123Z","date":"2026-02-04","time":"16:49:10","cor_ans":false},{"trial_type":"html-keyboard-response","rt":null,"stimulus":"<p style=\"color: red; font-size: 50px; font-weight: bold;\">Incorrect</p>","response":null,"trial_index":122,"plugin_version":"2.1.0","time_elapsed":300921,"subject_id":"92480","group":"Group1","condition":"1_Rep","full_date":"2026-02-04T16:49:10.123Z","date":"2026-02-04","time":"16:49:10"},{"correct_response":"a","task":"test_phase","broad_category":"I","image_png":"I_Pumice_14.png","image_id":142,"category_name":"Pumice","category":9,"distinct_rating":3.22,"distinct_type":"Bottom","item_type":"Foil","rt":1050,"stimulus":"Stimuli_Rocks480/I_Pumice_14.png","response":"a","trial_type":"image-keyboard-response","trial_index":123,"plugin_version":"2.1.0","time_elapsed":301993,"subject_id":"92480","group":"Group1","condition":"1_Rep","full_date":"2026-02-04T16:49:10.123Z","date":"2026-02-04","time":"16:49:10","cor_ans":true},{"trial_type":"html-keyboard-response","rt":null,"stimulus":"<p style=\"color: green; font-size: 50px; font-weight: bold;\">Correct</p>","response":null,"trial_index":124,"plugin_version":"2.1.0","time_elapsed":302496,"subject_id":"92480","group":"Group1","condition":"1_Rep","full_date":"2026-02-04T16:49:10.123Z","date":"2026-02-04","time":"16:49:10"},{"correct_response":"a","task":"test_phase","broad_category":"I","image_png":"I_Andesite_04.png","image_id":4,"category_name":"Andesite","category":1,"distinct_rating":3.18,"distinct_type":"Bottom","item_type":"Foil","rt":1078,"stimulus":"Stimuli_Rocks480/I_Andesite_04.png","response":"a","trial_type":"image-keyboard-response","trial_index":125,"plugin_version":"2.1.0","time_elapsed":303595,"subject_id":"92480","group":"Group1","condition":"1_Rep","full_date":"2026-02-04T16:49:10.123Z","date":"2026-02-04","time":"16:49:10","cor_ans":true},{"trial_type":"html-keyboard-response","rt":null,"stimulus":"<p style=\"color: green; font-size: 50px; font-weight: bold;\">Correct</p>","response":null,"trial_index":126,"plugin_version":"2.1.0","time_elapsed":304098,"subject_id":"92480","group":"Group1","condition":"1_Rep","full_date":"2026-02-04T16:49:10.123Z","date":"2026-02-04","time":"16:49:10"},{"correct_response":"a","task":"test_phase","broad_category":"M","image_png":"M_Gneiss_15.png","image_id":207,"category_name":"Gneiss","category":13,"distinct_rating":3.11,"distinct_type":"Bottom","item_type":"Foil","rt":1050,"stimulus":"Stimuli_Rocks480/M_Gneiss_15.png","response":"a","trial_type":"image-keyboard-response","trial_index":127,"plugin_version":"2.1.0","time_elapsed":305164,"subject_id":"92480","group":"Group1","condition":"1_Rep","full_date":"2026-02-04T16:49:10.123Z","date":"2026-02-04","time":"16:49:10","cor_ans":true},{"trial_type":"html-keyboard-response","rt":null,"stimulus":"<p style=\"color: green; font-size: 50px; font-weight: bold;\">Correct</p>","response":null,"trial_index":128,"plugin_version":"2.1.0","time_elapsed":305666,"subject_id":"92480","group":"Group1","condition":"1_Rep","full_date":"2026-02-04T16:49:10.123Z","date":"2026-02-04","time":"16:49:10"},{"correct_response":"a","task":"test_phase","broad_category":"M","image_png":"M_Marble_02.png","image_id":226,"category_name":"Marble","category":15,"distinct_rating":3.2,"distinct_type":"Bottom","item_type":"Foil","rt":861,"stimulus":"Stimuli_Rocks480/M_Marble_02.png","response":"l","trial_type":"image-keyboard-response","trial_index":129,"plugin_version":"2.1.0","time_elapsed":306546,"subject_id":"92480","group":"Group1","condition":"1_Rep","full_date":"2026-02-04T16:49:10.123Z","date":"2026-02-04","time":"16:49:10","cor_ans":false},{"trial_type":"html-keyboard-response","rt":null,"stimulus":"<p style=\"color: red; font-size: 50px; font-weight: bold;\">Incorrect</p>","response":null,"trial_index":130,"plugin_version":"2.1.0","time_elapsed":307049,"subject_id":"92480","group":"Group1","condition":"1_Rep","full_date":"2026-02-04T16:49:10.123Z","date":"2026-02-04","time":"16:49:10"},{"correct_response":"a","task":"test_phase","broad_category":"I","image_png":"I_Rhyolite_10.png","image_id":154,"category_name":"Rhyolite","category":10,"distinct_rating":2.88,"distinct_type":"Bottom","item_type":"Foil","rt":741,"stimulus":"Stimuli_Rocks480/I_Rhyolite_10.png","response":"a","trial_type":"image-keyboard-response","trial_index":131,"plugin_version":"2.1.0","time_elapsed":307822,"subject_id":"92480","group":"Group1","condition":"1_Rep","full_date":"2026-02-04T16:49:10.123Z","date":"2026-02-04","time":"16:49:10","cor_ans":true},{"trial_type":"html-keyboard-response","rt":null,"stimulus":"<p style=\"color: green; font-size: 50px; font-weight: bold;\">Correct</p>","response":null,"trial_index":132,"plugin_version":"2.1.0","time_elapsed":308325,"subject_id":"92480","group":"Group1","condition":"1_Rep","full_date":"2026-02-04T16:49:10.123Z","date":"2026-02-04","time":"16:49:10"},{"correct_response":"l","task":"test_phase","broad_category":"I","image_png":"I_Diorite_04.png","image_id":36,"category_name":"Diorite","category":3,"distinct_rating":2.98,"distinct_type":"Bottom","item_type":"Target","rt":881,"stimulus":"Stimuli_Rocks480/I_Diorite_04.png","response":"l","trial_type":"image-keyboard-response","trial_index":133,"plugin_version":"2.1.0","time_elapsed":309228,"subject_id":"92480","group":"Group1","condition":"1_Rep","full_date":"2026-02-04T16:49:10.123Z","date":"2026-02-04","time":"16:49:10","cor_ans":true},{"trial_type":"html-keyboard-response","rt":null,"stimulus":"<p style=\"color: green; font-size: 50px; font-weight: bold;\">Correct</p>","response":null,"trial_index":134,"plugin_version":"2.1.0","time_elapsed":309731,"subject_id":"92480","group":"Group1","condition":"1_Rep","full_date":"2026-02-04T16:49:10.123Z","date":"2026-02-04","time":"16:49:10"},{"correct_response":"l","task":"test_phase","broad_category":"S","image_png":"S_Shale_08.png","image_id":472,"category_name":"Shale","category":30,"distinct_rating":2.55,"distinct_type":"Bottom","item_type":"Target","rt":778,"stimulus":"Stimuli_Rocks480/S_Shale_08.png","response":"a","trial_type":"image-keyboard-response","trial_index":135,"plugin_version":"2.1.0","time_elapsed":310512,"subject_id":"92480","group":"Group1","condition":"1_Rep","full_date":"2026-02-04T16:49:10.123Z","date":"2026-02-04","time":"16:49:10","cor_ans":false},{"trial_type":"html-keyboard-response","rt":null,"stimulus":"<p style=\"color: red; font-size: 50px; font-weight: bold;\">Incorrect</p>","response":null,"trial_index":136,"plugin_version":"2.1.0","time_elapsed":311015,"subject_id":"92480","group":"Group1","condition":"1_Rep","full_date":"2026-02-04T16:49:10.123Z","date":"2026-02-04","time":"16:49:10"},{"correct_response":"a","task":"test_phase","broad_category":"M","image_png":"M_Marble_03.png","image_id":227,"category_name":"Marble","category":15,"distinct_rating":2.67,"distinct_type":"Bottom","item_type":"Foil","rt":684,"stimulus":"Stimuli_Rocks480/M_Marble_03.png","response":"l","trial_type":"image-keyboard-response","trial_index":137,"plugin_version":"2.1.0","time_elapsed":311721,"subject_id":"92480","group":"Group1","condition":"1_Rep","full_date":"2026-02-04T16:49:10.123Z","date":"2026-02-04","time":"16:49:10","cor_ans":false},{"trial_type":"html-keyboard-response","rt":null,"stimulus":"<p style=\"color: red; font-size: 50px; font-weight: bold;\">Incorrect</p>","response":null,"trial_index":138,"plugin_version":"2.1.0","time_elapsed":312223,"subject_id":"92480","group":"Group1","condition":"1_Rep","full_date":"2026-02-04T16:49:10.123Z","date":"2026-02-04","time":"16:49:10"},{"correct_response":"l","task":"test_phase","broad_category":"I","image_png":"I_Pumice_12.png","image_id":140,"category_name":"Pumice","category":9,"distinct_rating":2.97,"distinct_type":"Bottom","item_type":"Target","rt":575,"stimulus":"Stimuli_Rocks480/I_Pumice_12.png","response":"l","trial_type":"image-keyboard-response","trial_index":139,"plugin_version":"2.1.0","time_elapsed":312801,"subject_id":"92480","group":"Group1","condition":"1_Rep","full_date":"2026-02-04T16:49:10.123Z","date":"2026-02-04","time":"16:49:10","cor_ans":true},{"trial_type":"html-keyboard-response","rt":null,"stimulus":"<p style=\"color: green; font-size: 50px; font-weight: bold;\">Correct</p>","response":null,"trial_index":140,"plugin_version":"2.1.0","time_elapsed":313304,"subject_id":"92480","group":"Group1","condition":"1_Rep","full_date":"2026-02-04T16:49:10.123Z","date":"2026-02-04","time":"16:49:10"},{"correct_response":"l","task":"test_phase","broad_category":"I","image_png":"I_Andesite_10.png","image_id":10,"category_name":"Andesite","category":1,"distinct_rating":3.15,"distinct_type":"Bottom","item_type":"Target","rt":1011,"stimulus":"Stimuli_Rocks480/I_Andesite_10.png","response":"a","trial_type":"image-keyboard-response","trial_index":141,"plugin_version":"2.1.0","time_elapsed":314329,"subject_id":"92480","group":"Group1","condition":"1_Rep","full_date":"2026-02-04T16:49:10.123Z","date":"2026-02-04","time":"16:49:10","cor_ans":false},{"trial_type":"html-keyboard-response","rt":null,"stimulus":"<p style=\"color: red; font-size: 50px; font-weight: bold;\">Incorrect</p>","response":null,"trial_index":142,"plugin_version":"2.1.0","time_elapsed":314832,"subject_id":"92480","group":"Group1","condition":"1_Rep","full_date":"2026-02-04T16:49:10.123Z","date":"2026-02-04","time":"16:49:10"},{"correct_response":"l","task":"test_phase","broad_category":"I","image_png":"I_Pumice_08.png","image_id":136,"category_name":"Pumice","category":9,"distinct_rating":3.1,"distinct_type":"Bottom","item_type":"Target","rt":1025,"stimulus":"Stimuli_Rocks480/I_Pumice_08.png","response":"a","trial_type":"image-keyboard-response","trial_index":143,"plugin_version":"2.1.0","time_elapsed":315879,"subject_id":"92480","group":"Group1","condition":"1_Rep","full_date":"2026-02-04T16:49:10.123Z","date":"2026-02-04","time":"16:49:10","cor_ans":false},{"trial_type":"html-keyboard-response","rt":null,"stimulus":"<p style=\"color: red; font-size: 50px; font-weight: bold;\">Incorrect</p>","response":null,"trial_index":144,"plugin_version":"2.1.0","time_elapsed":316381,"subject_id":"92480","group":"Group1","condition":"1_Rep","full_date":"2026-02-04T16:49:10.123Z","date":"2026-02-04","time":"16:49:10"},{"correct_response":"a","task":"test_phase","broad_category":"I","image_png":"I_Obsidian_06.png","image_id":86,"category_name":"Obsidian","category":6,"distinct_rating":8.01,"distinct_type":"Top","item_type":"Foil","rt":718,"stimulus":"Stimuli_Rocks480/I_Obsidian_06.png","response":"a","trial_type":"image-keyboard-response","trial_index":145,"plugin_version":"2.1.0","time_elapsed":317126,"subject_id":"92480","group":"Group1","condition":"1_Rep","full_date":"2026-02-04T16:49:10.123Z","date":"2026-02-04","time":"16:49:10","cor_ans":true},{"trial_type":"html-keyboard-response","rt":null,"stimulus":"<p style=\"color: green; font-size: 50px; font-weight: bold;\">Correct</p>","response":null,"trial_index":146,"plugin_version":"2.1.0","time_elapsed":317629,"subject_id":"92480","group":"Group1","condition":"1_Rep","full_date":"2026-02-04T16:49:10.123Z","date":"2026-02-04","time":"16:49:10"},{"correct_response":"a","task":"test_phase","broad_category":"I","image_png":"I_Diorite_01.png","image_id":33,"category_name":"Diorite","category":3,"distinct_rating":2.97,"distinct_type":"Bottom","item_type":"Foil","rt":635,"stimulus":"Stimuli_Rocks480/I_Diorite_01.png","response":"a","trial_type":"image-keyboard-response","trial_index":147,"plugin_version":"2.1.0","time_elapsed":318295,"subject_id":"92480","group":"Group1","condition":"1_Rep","full_date":"2026-02-04T16:49:10.123Z","date":"2026-02-04","time":"16:49:10","cor_ans":true},{"trial_type":"html-keyboard-response","rt":null,"stimulus":"<p style=\"color: green; font-size: 50px; font-weight: bold;\">Correct</p>","response":null,"trial_index":148,"plugin_version":"2.1.0","time_elapsed":318799,"subject_id":"92480","group":"Group1","condition":"1_Rep","full_date":"2026-02-04T16:49:10.123Z","date":"2026-02-04","time":"16:49:10"},{"correct_response":"a","task":"test_phase","broad_category":"I","image_png":"I_Diorite_15.png","image_id":47,"category_name":"Diorite","category":3,"distinct_rating":3.05,"distinct_type":"Bottom","item_type":"Foil","rt":645,"stimulus":"Stimuli_Rocks480/I_Diorite_15.png","response":"a","trial_type":"image-keyboard-response","trial_index":149,"plugin_version":"2.1.0","time_elapsed":319465,"subject_id":"92480","group":"Group1","condition":"1_Rep","full_date":"2026-02-04T16:49:10.123Z","date":"2026-02-04","time":"16:49:10","cor_ans":true},{"trial_type":"html-keyboard-response","rt":null,"stimulus":"<p style=\"color: green; font-size: 50px; font-weight: bold;\">Correct</p>","response":null,"trial_index":150,"plugin_version":"2.1.0","time_elapsed":319968,"subject_id":"92480","group":"Group1","condition":"1_Rep","full_date":"2026-02-04T16:49:10.123Z","date":"2026-02-04","time":"16:49:10"},{"correct_response":"l","task":"test_phase","broad_category":"I","image_png":"I_Pegmatite_10.png","image_id":106,"category_name":"Pegmatite","category":7,"distinct_rating":7.66,"distinct_type":"Top","item_type":"Target","rt":1205,"stimulus":"Stimuli_Rocks480/I_Pegmatite_10.png","response":"a","trial_type":"image-keyboard-response","trial_index":151,"plugin_version":"2.1.0","time_elapsed":321191,"subject_id":"92480","group":"Group1","condition":"1_Rep","full_date":"2026-02-04T16:49:10.123Z","date":"2026-02-04","time":"16:49:10","cor_ans":false},{"trial_type":"html-keyboard-response","rt":null,"stimulus":"<p style=\"color: red; font-size: 50px; font-weight: bold;\">Incorrect</p>","response":null,"trial_index":152,"plugin_version":"2.1.0","time_elapsed":321694,"subject_id":"92480","group":"Group1","condition":"1_Rep","full_date":"2026-02-04T16:49:10.123Z","date":"2026-02-04","time":"16:49:10"},{"correct_response":"l","task":"test_phase","broad_category":"M","image_png":"M_Phyllite_07.png","image_id":263,"category_name":"Phyllite","category":17,"distinct_rating":2.59,"distinct_type":"Bottom","item_type":"Target","rt":845,"stimulus":"Stimuli_Rocks480/M_Phyllite_07.png","response":"l","trial_type":"image-keyboard-response","trial_index":153,"plugin_version":"2.1.0","time_elapsed":322541,"subject_id":"92480","group":"Group1","condition":"1_Rep","full_date":"2026-02-04T16:49:10.123Z","date":"2026-02-04","time":"16:49:10","cor_ans":true},{"trial_type":"html-keyboard-response","rt":null,"stimulus":"<p style=\"color: green; font-size: 50px; font-weight: bold;\">Correct</p>","response":null,"trial_index":154,"plugin_version":"2.1.0","time_elapsed":323044,"subject_id":"92480","group":"Group1","condition":"1_Rep","full_date":"2026-02-04T16:49:10.123Z","date":"2026-02-04","time":"16:49:10"},{"correct_response":"a","task":"test_phase","broad_category":"M","image_png":"M_Gneiss_10.png","image_id":202,"category_name":"Gneiss","category":13,"distinct_rating":3.09,"distinct_type":"Bottom","item_type":"Foil","rt":696,"stimulus":"Stimuli_Rocks480/M_Gneiss_10.png","response":"l","trial_type":"image-keyboard-response","trial_index":155,"plugin_version":"2.1.0","time_elapsed":323762,"subject_id":"92480","group":"Group1","condition":"1_Rep","full_date":"2026-02-04T16:49:10.123Z","date":"2026-02-04","time":"16:49:10","cor_ans":false},{"trial_type":"html-keyboard-response","rt":null,"stimulus":"<p style=\"color: red; font-size: 50px; font-weight: bold;\">Incorrect</p>","response":null,"trial_index":156,"plugin_version":"2.1.0","time_elapsed":324265,"subject_id":"92480","group":"Group1","condition":"1_Rep","full_date":"2026-02-04T16:49:10.123Z","date":"2026-02-04","time":"16:49:10"},{"correct_response":"l","task":"test_phase","broad_category":"I","image_png":"I_Diorite_03.png","image_id":35,"category_name":"Diorite","category":3,"distinct_rating":3.14,"distinct_type":"Bottom","item_type":"Target","rt":585,"stimulus":"Stimuli_Rocks480/I_Diorite_03.png","response":"l","trial_type":"image-keyboard-response","trial_index":157,"plugin_version":"2.1.0","time_elapsed":324879,"subject_id":"92480","group":"Group1","condition":"1_Rep","full_date":"2026-02-04T16:49:10.123Z","date":"2026-02-04","time":"16:49:10","cor_ans":true},{"trial_type":"html-keyboard-response","rt":null,"stimulus":"<p style=\"color: green; font-size: 50px; font-weight: bold;\">Correct</p>","response":null,"trial_index":158,"plugin_version":"2.1.0","time_elapsed":325382,"subject_id":"92480","group":"Group1","condition":"1_Rep","full_date":"2026-02-04T16:49:10.123Z","date":"2026-02-04","time":"16:49:10"},{"correct_response":"l","task":"test_phase","broad_category":"S","image_png":"S_Shale_12.png","image_id":476,"category_name":"Shale","category":30,"distinct_rating":2.48,"distinct_type":"Bottom","item_type":"Target","rt":679,"stimulus":"Stimuli_Rocks480/S_Shale_12.png","response":"l","trial_type":"image-keyboard-response","trial_index":159,"plugin_version":"2.1.0","time_elapsed":326084,"subject_id":"92480","group":"Group1","condition":"1_Rep","full_date":"2026-02-04T16:49:10.123Z","date":"2026-02-04","time":"16:49:10","cor_ans":true},{"trial_type":"html-keyboard-response","rt":null,"stimulus":"<p style=\"color: green; font-size: 50px; font-weight: bold;\">Correct</p>","response":null,"trial_index":160,"plugin_version":"2.1.0","time_elapsed":326586,"subject_id":"92480","group":"Group1","condition":"1_Rep","full_date":"2026-02-04T16:49:10.123Z","date":"2026-02-04","time":"16:49:10"},{"correct_response":"a","task":"test_phase","broad_category":"S","image_png":"S_Sandstone_11.png","image_id":459,"category_name":"Sandstone","category":29,"distinct_rating":1.82,"distinct_type":"Bottom","item_type":"Foil","rt":630,"stimulus":"Stimuli_Rocks480/S_Sandstone_11.png","response":"l","trial_type":"image-keyboard-response","trial_index":161,"plugin_version":"2.1.0","time_elapsed":327243,"subject_id":"92480","group":"Group1","condition":"1_Rep","full_date":"2026-02-04T16:49:10.123Z","date":"2026-02-04","time":"16:49:10","cor_ans":false},{"trial_type":"html-keyboard-response","rt":null,"stimulus":"<p style=\"color: red; font-size: 50px; font-weight: bold;\">Incorrect</p>","response":null,"trial_index":162,"plugin_version":"2.1.0","time_elapsed":327746,"subject_id":"92480","group":"Group1","condition":"1_Rep","full_date":"2026-02-04T16:49:10.123Z","date":"2026-02-04","time":"16:49:10"},{"correct_response":"a","task":"test_phase","broad_category":"I","image_png":"I_Basalt_10.png","image_id":26,"category_name":"Basalt","category":2,"distinct_rating":2.76,"distinct_type":"Bottom","item_type":"Foil","rt":758,"stimulus":"Stimuli_Rocks480/I_Basalt_10.png","response":"a","trial_type":"image-keyboard-response","trial_index":163,"plugin_version":"2.1.0","time_elapsed":328526,"subject_id":"92480","group":"Group1","condition":"1_Rep","full_date":"2026-02-04T16:49:10.123Z","date":"2026-02-04","time":"16:49:10","cor_ans":true},{"trial_type":"html-keyboard-response","rt":null,"stimulus":"<p style=\"color: green; font-size: 50px; font-weight: bold;\">Correct</p>","response":null,"trial_index":164,"plugin_version":"2.1.0","time_elapsed":329029,"subject_id":"92480","group":"Group1","condition":"1_Rep","full_date":"2026-02-04T16:49:10.123Z","date":"2026-02-04","time":"16:49:10"},{"correct_response":"a","task":"test_phase","broad_category":"M","image_png":"M_Slate_14.png","image_id":318,"category_name":"Slate","category":20,"distinct_rating":2.58,"distinct_type":"Bottom","item_type":"Foil","rt":894,"stimulus":"Stimuli_Rocks480/M_Slate_14.png","response":"l","trial_type":"image-keyboard-response","trial_index":165,"plugin_version":"2.1.0","time_elapsed":329940,"subject_id":"92480","group":"Group1","condition":"1_Rep","full_date":"2026-02-04T16:49:10.123Z","date":"2026-02-04","time":"16:49:10","cor_ans":false},{"trial_type":"html-keyboard-response","rt":null,"stimulus":"<p style=\"color: red; font-size: 50px; font-weight: bold;\">Incorrect</p>","response":null,"trial_index":166,"plugin_version":"2.1.0","time_elapsed":330443,"subject_id":"92480","group":"Group1","condition":"1_Rep","full_date":"2026-02-04T16:49:10.123Z","date":"2026-02-04","time":"16:49:10"},{"correct_response":"l","task":"test_phase","broad_category":"M","image_png":"M_Phyllite_03.png","image_id":259,"category_name":"Phyllite","category":17,"distinct_rating":2.5,"distinct_type":"Bottom","item_type":"Target","rt":1084,"stimulus":"Stimuli_Rocks480/M_Phyllite_03.png","response":"l","trial_type":"image-keyboard-response","trial_index":167,"plugin_version":"2.1.0","time_elapsed":331546,"subject_id":"92480","group":"Group1","condition":"1_Rep","full_date":"2026-02-04T16:49:10.123Z","date":"2026-02-04","time":"16:49:10","cor_ans":true},{"trial_type":"html-keyboard-response","rt":null,"stimulus":"<p style=\"color: green; font-size: 50px; font-weight: bold;\">Correct</p>","response":null,"trial_index":168,"plugin_version":"2.1.0","time_elapsed":332049,"subject_id":"92480","group":"Group1","condition":"1_Rep","full_date":"2026-02-04T16:49:10.123Z","date":"2026-02-04","time":"16:49:10"},{"correct_response":"a","task":"test_phase","broad_category":"I","image_png":"I_Rhyolite_05.png","image_id":149,"category_name":"Rhyolite","category":10,"distinct_rating":3.02,"distinct_type":"Bottom","item_type":"Foil","rt":1036,"stimulus":"Stimuli_Rocks480/I_Rhyolite_05.png","response":"l","trial_type":"image-keyboard-response","trial_index":169,"plugin_version":"2.1.0","time_elapsed":333111,"subject_id":"92480","group":"Group1","condition":"1_Rep","full_date":"2026-02-04T16:49:10.123Z","date":"2026-02-04","time":"16:49:10","cor_ans":false},{"trial_type":"html-keyboard-response","rt":null,"stimulus":"<p style=\"color: red; font-size: 50px; font-weight: bold;\">Incorrect</p>","response":null,"trial_index":170,"plugin_version":"2.1.0","time_elapsed":333613,"subject_id":"92480","group":"Group1","condition":"1_Rep","full_date":"2026-02-04T16:49:10.123Z","date":"2026-02-04","time":"16:49:10"},{"correct_response":"l","task":"test_phase","broad_category":"M","image_png":"M_Slate_11.png","image_id":315,"category_name":"Slate","category":20,"distinct_rating":2.75,"distinct_type":"Bottom","item_type":"Target","rt":688,"stimulus":"Stimuli_Rocks480/M_Slate_11.png","response":"a","trial_type":"image-keyboard-response","trial_index":171,"plugin_version":"2.1.0","time_elapsed":334315,"subject_id":"92480","group":"Group1","condition":"1_Rep","full_date":"2026-02-04T16:49:10.123Z","date":"2026-02-04","time":"16:49:10","cor_ans":false},{"trial_type":"html-keyboard-response","rt":null,"stimulus":"<p style=\"color: red; font-size: 50px; font-weight: bold;\">Incorrect</p>","response":null,"trial_index":172,"plugin_version":"2.1.0","time_elapsed":334818,"subject_id":"92480","group":"Group1","condition":"1_Rep","full_date":"2026-02-04T16:49:10.123Z","date":"2026-02-04","time":"16:49:10"},{"correct_response":"l","task":"test_phase","broad_category":"S","image_png":"S_Sandstone_15.png","image_id":463,"category_name":"Sandstone","category":29,"distinct_rating":2,"distinct_type":"Bottom","item_type":"Target","rt":442,"stimulus":"Stimuli_Rocks480/S_Sandstone_15.png","response":"a","trial_type":"image-keyboard-response","trial_index":173,"plugin_version":"2.1.0","time_elapsed":335286,"subject_id":"92480","group":"Group1","condition":"1_Rep","full_date":"2026-02-04T16:49:10.123Z","date":"2026-02-04","time":"16:49:10","cor_ans":false},{"trial_type":"html-keyboard-response","rt":null,"stimulus":"<p style=\"color: red; font-size: 50px; font-weight: bold;\">Incorrect</p>","response":null,"trial_index":174,"plugin_version":"2.1.0","time_elapsed":335789,"subject_id":"92480","group":"Group1","condition":"1_Rep","full_date":"2026-02-04T16:49:10.123Z","date":"2026-02-04","time":"16:49:10"},{"correct_response":"l","task":"test_phase","broad_category":"M","image_png":"M_Gneiss_13.png","image_id":205,"category_name":"Gneiss","category":13,"distinct_rating":3.26,"distinct_type":"Bottom","item_type":"Target","rt":834,"stimulus":"Stimuli_Rocks480/M_Gneiss_13.png","response":"l","trial_type":"image-keyboard-response","trial_index":175,"plugin_version":"2.1.0","time_elapsed":336640,"subject_id":"92480","group":"Group1","condition":"1_Rep","full_date":"2026-02-04T16:49:10.123Z","date":"2026-02-04","time":"16:49:10","cor_ans":true},{"trial_type":"html-keyboard-response","rt":null,"stimulus":"<p style=\"color: green; font-size: 50px; font-weight: bold;\">Correct</p>","response":null,"trial_index":176,"plugin_version":"2.1.0","time_elapsed":337143,"subject_id":"92480","group":"Group1","condition":"1_Rep","full_date":"2026-02-04T16:49:10.123Z","date":"2026-02-04","time":"16:49:10"},{"correct_response":"l","task":"test_phase","broad_category":"I","image_png":"I_Basalt_09.png","image_id":25,"category_name":"Basalt","category":2,"distinct_rating":1.89,"distinct_type":"Bottom","item_type":"Target","rt":901,"stimulus":"Stimuli_Rocks480/I_Basalt_09.png","response":"l","trial_type":"image-keyboard-response","trial_index":177,"plugin_version":"2.1.0","time_elapsed":338062,"subject_id":"92480","group":"Group1","condition":"1_Rep","full_date":"2026-02-04T16:49:10.123Z","date":"2026-02-04","time":"16:49:10","cor_ans":true},{"trial_type":"html-keyboard-response","rt":null,"stimulus":"<p style=\"color: green; font-size: 50px; font-weight: bold;\">Correct</p>","response":null,"trial_index":178,"plugin_version":"2.1.0","time_elapsed":338565,"subject_id":"92480","group":"Group1","condition":"1_Rep","full_date":"2026-02-04T16:49:10.123Z","date":"2026-02-04","time":"16:49:10"},{"correct_response":"l","task":"test_phase","broad_category":"M","image_png":"M_Gneiss_06.png","image_id":198,"category_name":"Gneiss","category":13,"distinct_rating":2.65,"distinct_type":"Bottom","item_type":"Target","rt":699,"stimulus":"Stimuli_Rocks480/M_Gneiss_06.png","response":"l","trial_type":"image-keyboard-response","trial_index":179,"plugin_version":"2.1.0","time_elapsed":339291,"subject_id":"92480","group":"Group1","condition":"1_Rep","full_date":"2026-02-04T16:49:10.123Z","date":"2026-02-04","time":"16:49:10","cor_ans":true},{"trial_type":"html-keyboard-response","rt":null,"stimulus":"<p style=\"color: green; font-size: 50px; font-weight: bold;\">Correct</p>","response":null,"trial_index":180,"plugin_version":"2.1.0","time_elapsed":339793,"subject_id":"92480","group":"Group1","condition":"1_Rep","full_date":"2026-02-04T16:49:10.123Z","date":"2026-02-04","time":"16:49:10"},{"correct_response":"a","task":"test_phase","broad_category":"M","image_png":"M_Phyllite_05.png","image_id":261,"category_name":"Phyllite","category":17,"distinct_rating":2.14,"distinct_type":"Bottom","item_type":"Foil","rt":3449,"stimulus":"Stimuli_Rocks480/M_Phyllite_05.png","response":"l","trial_type":"image-keyboard-response","trial_index":181,"plugin_version":"2.1.0","time_elapsed":343259,"subject_id":"92480","group":"Group1","condition":"1_Rep","full_date":"2026-02-04T16:49:10.123Z","date":"2026-02-04","time":"16:49:10","cor_ans":false},{"trial_type":"html-keyboard-response","rt":null,"stimulus":"<p style=\"color: red; font-size: 50px; font-weight: bold;\">Incorrect</p>","response":null,"trial_index":182,"plugin_version":"2.1.0","time_elapsed":343762,"subject_id":"92480","group":"Group1","condition":"1_Rep","full_date":"2026-02-04T16:49:10.123Z","date":"2026-02-04","time":"16:49:10"},{"correct_response":"a","task":"test_phase","broad_category":"I","image_png":"I_Pegmatite_11.png","image_id":107,"category_name":"Pegmatite","category":7,"distinct_rating":7.11,"distinct_type":"Top","item_type":"Foil","rt":1529,"stimulus":"Stimuli_Rocks480/I_Pegmatite_11.png","response":"a","trial_type":"image-keyboard-response","trial_index":183,"plugin_version":"2.1.0","time_elapsed":345319,"subject_id":"92480","group":"Group1","condition":"1_Rep","full_date":"2026-02-04T16:49:10.123Z","date":"2026-02-04","time":"16:49:10","cor_ans":true},{"trial_type":"html-keyboard-response","rt":null,"stimulus":"<p style=\"color: green; font-size: 50px; font-weight: bold;\">Correct</p>","response":null,"trial_index":184,"plugin_version":"2.1.0","time_elapsed":345822,"subject_id":"92480","group":"Group1","condition":"1_Rep","full_date":"2026-02-04T16:49:10.123Z","date":"2026-02-04","time":"16:49:10"},{"correct_response":"l","task":"test_phase","broad_category":"M","image_png":"M_Phyllite_10.png","image_id":266,"category_name":"Phyllite","category":17,"distinct_rating":2.6,"distinct_type":"Bottom","item_type":"Target","rt":662,"stimulus":"Stimuli_Rocks480/M_Phyllite_10.png","response":"l","trial_type":"image-keyboard-response","trial_index":185,"plugin_version":"2.1.0","time_elapsed":346503,"subject_id":"92480","group":"Group1","condition":"1_Rep","full_date":"2026-02-04T16:49:10.123Z","date":"2026-02-04","time":"16:49:10","cor_ans":true},{"trial_type":"html-keyboard-response","rt":null,"stimulus":"<p style=\"color: green; font-size: 50px; font-weight: bold;\">Correct</p>","response":null,"trial_index":186,"plugin_version":"2.1.0","time_elapsed":347006,"subject_id":"92480","group":"Group1","condition":"1_Rep","full_date":"2026-02-04T16:49:10.123Z","date":"2026-02-04","time":"16:49:10"},{"correct_response":"a","task":"test_phase","broad_category":"M","image_png":"M_Quartzite_07.png","image_id":279,"category_name":"Quartzite","category":18,"distinct_rating":1.97,"distinct_type":"Bottom","item_type":"Foil","rt":558,"stimulus":"Stimuli_Rocks480/M_Quartzite_07.png","response":"a","trial_type":"image-keyboard-response","trial_index":187,"plugin_version":"2.1.0","time_elapsed":347589,"subject_id":"92480","group":"Group1","condition":"1_Rep","full_date":"2026-02-04T16:49:10.123Z","date":"2026-02-04","time":"16:49:10","cor_ans":true},{"trial_type":"html-keyboard-response","rt":null,"stimulus":"<p style=\"color: green; font-size: 50px; font-weight: bold;\">Correct</p>","response":null,"trial_index":188,"plugin_version":"2.1.0","time_elapsed":348092,"subject_id":"92480","group":"Group1","condition":"1_Rep","full_date":"2026-02-04T16:49:10.123Z","date":"2026-02-04","time":"16:49:10"},{"correct_response":"l","task":"test_phase","broad_category":"S","image_png":"S_Dolomite_13.png","image_id":397,"category_name":"Dolomite","category":25,"distinct_rating":1.77,"distinct_type":"Bottom","item_type":"Target","rt":626,"stimulus":"Stimuli_Rocks480/S_Dolomite_13.png","response":"l","trial_type":"image-keyboard-response","trial_index":189,"plugin_version":"2.1.0","time_elapsed":348738,"subject_id":"92480","group":"Group1","condition":"1_Rep","full_date":"2026-02-04T16:49:10.123Z","date":"2026-02-04","time":"16:49:10","cor_ans":true},{"trial_type":"html-keyboard-response","rt":null,"stimulus":"<p style=\"color: green; font-size: 50px; font-weight: bold;\">Correct</p>","response":null,"trial_index":190,"plugin_version":"2.1.0","time_elapsed":349240,"subject_id":"92480","group":"Group1","condition":"1_Rep","full_date":"2026-02-04T16:49:10.123Z","date":"2026-02-04","time":"16:49:10"},{"correct_response":"l","task":"test_phase","broad_category":"M","image_png":"M_Marble_06.png","image_id":230,"category_name":"Marble","category":15,"distinct_rating":3.4,"distinct_type":"Bottom","item_type":"Target","rt":580,"stimulus":"Stimuli_Rocks480/M_Marble_06.png","response":"a","trial_type":"image-keyboard-response","trial_index":191,"plugin_version":"2.1.0","time_elapsed":349843,"subject_id":"92480","group":"Group1","condition":"1_Rep","full_date":"2026-02-04T16:49:10.123Z","date":"2026-02-04","time":"16:49:10","cor_ans":false},{"trial_type":"html-keyboard-response","rt":null,"stimulus":"<p style=\"color: red; font-size: 50px; font-weight: bold;\">Incorrect</p>","response":null,"trial_index":192,"plugin_version":"2.1.0","time_elapsed":350346,"subject_id":"92480","group":"Group1","condition":"1_Rep","full_date":"2026-02-04T16:49:10.123Z","date":"2026-02-04","time":"16:49:10"},{"correct_response":"l","task":"test_phase","broad_category":"M","image_png":"M_Quartzite_05.png","image_id":277,"category_name":"Quartzite","category":18,"distinct_rating":2.23,"distinct_type":"Bottom","item_type":"Target","rt":488,"stimulus":"Stimuli_Rocks480/M_Quartzite_05.png","response":"a","trial_type":"image-keyboard-response","trial_index":193,"plugin_version":"2.1.0","time_elapsed":350862,"subject_id":"92480","group":"Group1","condition":"1_Rep","full_date":"2026-02-04T16:49:10.123Z","date":"2026-02-04","time":"16:49:10","cor_ans":false},{"trial_type":"html-keyboard-response","rt":null,"stimulus":"<p style=\"color: red; font-size: 50px; font-weight: bold;\">Incorrect</p>","response":null,"trial_index":194,"plugin_version":"2.1.0","time_elapsed":351366,"subject_id":"92480","group":"Group1","condition":"1_Rep","full_date":"2026-02-04T16:49:10.123Z","date":"2026-02-04","time":"16:49:10"},{"correct_response":"l","task":"test_phase","broad_category":"S","image_png":"S_Rock Salt_01.png","image_id":433,"category_name":"Rock Salt","category":28,"distinct_rating":7.18,"distinct_type":"Top","item_type":"Target","rt":854,"stimulus":"Stimuli_Rocks480/S_Rock Salt_01.png","response":"l","trial_type":"image-keyboard-response","trial_index":195,"plugin_version":"2.1.0","time_elapsed":352246,"subject_id":"92480","group":"Group1","condition":"1_Rep","full_date":"2026-02-04T16:49:10.123Z","date":"2026-02-04","time":"16:49:10","cor_ans":true},{"trial_type":"html-keyboard-response","rt":null,"stimulus":"<p style=\"color: green; font-size: 50px; font-weight: bold;\">Correct</p>","response":null,"trial_index":196,"plugin_version":"2.1.0","time_elapsed":352750,"subject_id":"92480","group":"Group1","condition":"1_Rep","full_date":"2026-02-04T16:49:10.123Z","date":"2026-02-04","time":"16:49:10"},{"correct_response":"a","task":"test_phase","broad_category":"I","image_png":"I_Diorite_10.png","image_id":42,"category_name":"Diorite","category":3,"distinct_rating":2.84,"distinct_type":"Bottom","item_type":"Foil","rt":752,"stimulus":"Stimuli_Rocks480/I_Diorite_10.png","response":"l","trial_type":"image-keyboard-response","trial_index":197,"plugin_version":"2.1.0","time_elapsed":353524,"subject_id":"92480","group":"Group1","condition":"1_Rep","full_date":"2026-02-04T16:49:10.123Z","date":"2026-02-04","time":"16:49:10","cor_ans":false},{"trial_type":"html-keyboard-response","rt":null,"stimulus":"<p style=\"color: red; font-size: 50px; font-weight: bold;\">Incorrect</p>","response":null,"trial_index":198,"plugin_version":"2.1.0","time_elapsed":354027,"subject_id":"92480","group":"Group1","condition":"1_Rep","full_date":"2026-02-04T16:49:10.123Z","date":"2026-02-04","time":"16:49:10"},{"correct_response":"l","task":"test_phase","broad_category":"M","image_png":"M_Marble_16.png","image_id":240,"category_name":"Marble","category":15,"distinct_rating":2.57,"distinct_type":"Bottom","item_type":"Target","rt":797,"stimulus":"Stimuli_Rocks480/M_Marble_16.png","response":"l","trial_type":"image-keyboard-response","trial_index":199,"plugin_version":"2.1.0","time_elapsed":354847,"subject_id":"92480","group":"Group1","condition":"1_Rep","full_date":"2026-02-04T16:49:10.123Z","date":"2026-02-04","time":"16:49:10","cor_ans":true},{"trial_type":"html-keyboard-response","rt":null,"stimulus":"<p style=\"color: green; font-size: 50px; font-weight: bold;\">Correct</p>","response":null,"trial_index":200,"plugin_version":"2.1.0","time_elapsed":355350,"subject_id":"92480","group":"Group1","condition":"1_Rep","full_date":"2026-02-04T16:49:10.123Z","date":"2026-02-04","time":"16:49:10"},{"correct_response":"a","task":"test_phase","broad_category":"I","image_png":"I_Andesite_03.png","image_id":3,"category_name":"Andesite","category":1,"distinct_rating":3.17,"distinct_type":"Bottom","item_type":"Foil","rt":765,"stimulus":"Stimuli_Rocks480/I_Andesite_03.png","response":"a","trial_type":"image-keyboard-response","trial_index":201,"plugin_version":"2.1.0","time_elapsed":356129,"subject_id":"92480","group":"Group1","condition":"1_Rep","full_date":"2026-02-04T16:49:10.123Z","date":"2026-02-04","time":"16:49:10","cor_ans":true},{"trial_type":"html-keyboard-response","rt":null,"stimulus":"<p style=\"color: green; font-size: 50px; font-weight: bold;\">Correct</p>","response":null,"trial_index":202,"plugin_version":"2.1.0","time_elapsed":356632,"subject_id":"92480","group":"Group1","condition":"1_Rep","full_date":"2026-02-04T16:49:10.123Z","date":"2026-02-04","time":"16:49:10"},{"correct_response":"a","task":"test_phase","broad_category":"I","image_png":"I_Andesite_09.png","image_id":9,"category_name":"Andesite","category":1,"distinct_rating":2.49,"distinct_type":"Bottom","item_type":"Foil","rt":599,"stimulus":"Stimuli_Rocks480/I_Andesite_09.png","response":"l","trial_type":"image-keyboard-response","trial_index":203,"plugin_version":"2.1.0","time_elapsed":357252,"subject_id":"92480","group":"Group1","condition":"1_Rep","full_date":"2026-02-04T16:49:10.123Z","date":"2026-02-04","time":"16:49:10","cor_ans":false},{"trial_type":"html-keyboard-response","rt":null,"stimulus":"<p style=\"color: red; font-size: 50px; font-weight: bold;\">Incorrect</p>","response":null,"trial_index":204,"plugin_version":"2.1.0","time_elapsed":357754,"subject_id":"92480","group":"Group1","condition":"1_Rep","full_date":"2026-02-04T16:49:10.123Z","date":"2026-02-04","time":"16:49:10"},{"correct_response":"l","task":"test_phase","broad_category":"S","image_png":"S_Rock Gypsum_04.png","image_id":420,"category_name":"Rock Gypsum","category":27,"distinct_rating":7.61,"distinct_type":"Top","item_type":"Target","rt":1068,"stimulus":"Stimuli_Rocks480/S_Rock Gypsum_04.png","response":"a","trial_type":"image-keyboard-response","trial_index":205,"plugin_version":"2.1.0","time_elapsed":358844,"subject_id":"92480","group":"Group1","condition":"1_Rep","full_date":"2026-02-04T16:49:10.123Z","date":"2026-02-04","time":"16:49:10","cor_ans":false},{"trial_type":"html-keyboard-response","rt":null,"stimulus":"<p style=\"color: red; font-size: 50px; font-weight: bold;\">Incorrect</p>","response":null,"trial_index":206,"plugin_version":"2.1.0","time_elapsed":359347,"subject_id":"92480","group":"Group1","condition":"1_Rep","full_date":"2026-02-04T16:49:10.123Z","date":"2026-02-04","time":"16:49:10"},{"correct_response":"a","task":"test_phase","broad_category":"M","image_png":"M_Slate_10.png","image_id":314,"category_name":"Slate","category":20,"distinct_rating":1.94,"distinct_type":"Bottom","item_type":"Foil","rt":647,"stimulus":"Stimuli_Rocks480/M_Slate_10.png","response":"l","trial_type":"image-keyboard-response","trial_index":207,"plugin_version":"2.1.0","time_elapsed":360011,"subject_id":"92480","group":"Group1","condition":"1_Rep","full_date":"2026-02-04T16:49:10.123Z","date":"2026-02-04","time":"16:49:10","cor_ans":false},{"trial_type":"html-keyboard-response","rt":null,"stimulus":"<p style=\"color: red; font-size: 50px; font-weight: bold;\">Incorrect</p>","response":null,"trial_index":208,"plugin_version":"2.1.0","time_elapsed":360514,"subject_id":"92480","group":"Group1","condition":"1_Rep","full_date":"2026-02-04T16:49:10.123Z","date":"2026-02-04","time":"16:49:10"},{"correct_response":"a","task":"test_phase","broad_category":"I","image_png":"I_Rhyolite_08.png","image_id":152,"category_name":"Rhyolite","category":10,"distinct_rating":1.38,"distinct_type":"Bottom","item_type":"Foil","rt":416,"stimulus":"Stimuli_Rocks480/I_Rhyolite_08.png","response":"l","trial_type":"image-keyboard-response","trial_index":209,"plugin_version":"2.1.0","time_elapsed":360950,"subject_id":"92480","group":"Group1","condition":"1_Rep","full_date":"2026-02-04T16:49:10.123Z","date":"2026-02-04","time":"16:49:10","cor_ans":false},{"trial_type":"html-keyboard-response","rt":null,"stimulus":"<p style=\"color: red; font-size: 50px; font-weight: bold;\">Incorrect</p>","response":null,"trial_index":210,"plugin_version":"2.1.0","time_elapsed":361453,"subject_id":"92480","group":"Group1","condition":"1_Rep","full_date":"2026-02-04T16:49:10.123Z","date":"2026-02-04","time":"16:49:10"},{"correct_response":"l","task":"test_phase","broad_category":"M","image_png":"M_Slate_03.png","image_id":307,"category_name":"Slate","category":20,"distinct_rating":1.87,"distinct_type":"Bottom","item_type":"Target","rt":772,"stimulus":"Stimuli_Rocks480/M_Slate_03.png","response":"l","trial_type":"image-keyboard-response","trial_index":211,"plugin_version":"2.1.0","time_elapsed":362244,"subject_id":"92480","group":"Group1","condition":"1_Rep","full_date":"2026-02-04T16:49:10.123Z","date":"2026-02-04","time":"16:49:10","cor_ans":true},{"trial_type":"html-keyboard-response","rt":null,"stimulus":"<p style=\"color: green; font-size: 50px; font-weight: bold;\">Correct</p>","response":null,"trial_index":212,"plugin_version":"2.1.0","time_elapsed":362747,"subject_id":"92480","group":"Group1","condition":"1_Rep","full_date":"2026-02-04T16:49:10.123Z","date":"2026-02-04","time":"16:49:10"},{"correct_response":"l","task":"test_phase","broad_category":"M","image_png":"M_Quartzite_08.png","image_id":280,"category_name":"Quartzite","category":18,"distinct_rating":2.15,"distinct_type":"Bottom","item_type":"Target","rt":1015,"stimulus":"Stimuli_Rocks480/M_Quartzite_08.png","response":"a","trial_type":"image-keyboard-response","trial_index":213,"plugin_version":"2.1.0","time_elapsed":363784,"subject_id":"92480","group":"Group1","condition":"1_Rep","full_date":"2026-02-04T16:49:10.123Z","date":"2026-02-04","time":"16:49:10","cor_ans":false},{"trial_type":"html-keyboard-response","rt":null,"stimulus":"<p style=\"color: red; font-size: 50px; font-weight: bold;\">Incorrect</p>","response":null,"trial_index":214,"plugin_version":"2.1.0","time_elapsed":364286,"subject_id":"92480","group":"Group1","condition":"1_Rep","full_date":"2026-02-04T16:49:10.123Z","date":"2026-02-04","time":"16:49:10"},{"correct_response":"a","task":"test_phase","broad_category":"S","image_png":"S_Sandstone_04.png","image_id":452,"category_name":"Sandstone","category":29,"distinct_rating":1.8,"distinct_type":"Bottom","item_type":"Foil","rt":472,"stimulus":"Stimuli_Rocks480/S_Sandstone_04.png","response":"l","trial_type":"image-keyboard-response","trial_index":215,"plugin_version":"2.1.0","time_elapsed":364780,"subject_id":"92480","group":"Group1","condition":"1_Rep","full_date":"2026-02-04T16:49:10.123Z","date":"2026-02-04","time":"16:49:10","cor_ans":false},{"trial_type":"html-keyboard-response","rt":null,"stimulus":"<p style=\"color: red; font-size: 50px; font-weight: bold;\">Incorrect</p>","response":null,"trial_index":216,"plugin_version":"2.1.0","time_elapsed":365283,"subject_id":"92480","group":"Group1","condition":"1_Rep","full_date":"2026-02-04T16:49:10.123Z","date":"2026-02-04","time":"16:49:10"},{"correct_response":"a","task":"test_phase","broad_category":"M","image_png":"M_Slate_04.png","image_id":308,"category_name":"Slate","category":20,"distinct_rating":2.2,"distinct_type":"Bottom","item_type":"Foil","rt":546,"stimulus":"Stimuli_Rocks480/M_Slate_04.png","response":"l","trial_type":"image-keyboard-response","trial_index":217,"plugin_version":"2.1.0","time_elapsed":365845,"subject_id":"92480","group":"Group1","condition":"1_Rep","full_date":"2026-02-04T16:49:10.123Z","date":"2026-02-04","time":"16:49:10","cor_ans":false},{"trial_type":"html-keyboard-response","rt":null,"stimulus":"<p style=\"color: red; font-size: 50px; font-weight: bold;\">Incorrect</p>","response":null,"trial_index":218,"plugin_version":"2.1.0","time_elapsed":366348,"subject_id":"92480","group":"Group1","condition":"1_Rep","full_date":"2026-02-04T16:49:10.123Z","date":"2026-02-04","time":"16:49:10"},{"correct_response":"l","task":"test_phase","broad_category":"I","image_png":"I_Gabbro_16.png","image_id":64,"category_name":"Gabbro","category":4,"distinct_rating":2.52,"distinct_type":"Bottom","item_type":"Target","rt":870,"stimulus":"Stimuli_Rocks480/I_Gabbro_16.png","response":"l","trial_type":"image-keyboard-response","trial_index":219,"plugin_version":"2.1.0","time_elapsed":367240,"subject_id":"92480","group":"Group1","condition":"1_Rep","full_date":"2026-02-04T16:49:10.123Z","date":"2026-02-04","time":"16:49:10","cor_ans":true},{"trial_type":"html-keyboard-response","rt":null,"stimulus":"<p style=\"color: green; font-size: 50px; font-weight: bold;\">Correct</p>","response":null,"trial_index":220,"plugin_version":"2.1.0","time_elapsed":367743,"subject_id":"92480","group":"Group1","condition":"1_Rep","full_date":"2026-02-04T16:49:10.123Z","date":"2026-02-04","time":"16:49:10"},{"correct_response":"l","task":"test_phase","broad_category":"S","image_png":"S_Dolomite_14.png","image_id":398,"category_name":"Dolomite","category":25,"distinct_rating":1.43,"distinct_type":"Bottom","item_type":"Target","rt":1464,"stimulus":"Stimuli_Rocks480/S_Dolomite_14.png","response":"a","trial_type":"image-keyboard-response","trial_index":221,"plugin_version":"2.1.0","time_elapsed":369226,"subject_id":"92480","group":"Group1","condition":"1_Rep","full_date":"2026-02-04T16:49:10.123Z","date":"2026-02-04","time":"16:49:10","cor_ans":false},{"trial_type":"html-keyboard-response","rt":null,"stimulus":"<p style=\"color: red; font-size: 50px; font-weight: bold;\">Incorrect</p>","response":null,"trial_index":222,"plugin_version":"2.1.0","time_elapsed":369729,"subject_id":"92480","group":"Group1","condition":"1_Rep","full_date":"2026-02-04T16:49:10.123Z","date":"2026-02-04","time":"16:49:10"},{"correct_response":"l","task":"test_phase","broad_category":"I","image_png":"I_Basalt_01.png","image_id":17,"category_name":"Basalt","category":2,"distinct_rating":1.92,"distinct_type":"Bottom","item_type":"Target","rt":1121,"stimulus":"Stimuli_Rocks480/I_Basalt_01.png","response":"l","trial_type":"image-keyboard-response","trial_index":223,"plugin_version":"2.1.0","time_elapsed":370875,"subject_id":"92480","group":"Group1","condition":"1_Rep","full_date":"2026-02-04T16:49:10.123Z","date":"2026-02-04","time":"16:49:10","cor_ans":true},{"trial_type":"html-keyboard-response","rt":null,"stimulus":"<p style=\"color: green; font-size: 50px; font-weight: bold;\">Correct</p>","response":null,"trial_index":224,"plugin_version":"2.1.0","time_elapsed":371378,"subject_id":"92480","group":"Group1","condition":"1_Rep","full_date":"2026-02-04T16:49:10.123Z","date":"2026-02-04","time":"16:49:10"},{"correct_response":"a","task":"test_phase","broad_category":"S","image_png":"S_Dolom