[{"width":1470,"height":761,"webaudio":true,"browser":"safari","browser_version":"26.3.0","mobile":false,"os":"Mac OS","fullscreen":true,"vsync_rate":59.94,"webcam":true,"microphone":true,"trial_type":"browser-check","trial_index":0,"plugin_version":"2.1.0","time_elapsed":1008,"subject_id":"92128","group":"Group2","condition":"1_Rep","full_date":"2026-03-04T16:39:12.223Z","date":"2026-03-04","time":"16:39:12"},{"success":true,"timeout":false,"failed_images":[],"failed_audio":[],"failed_video":[],"trial_type":"preload","trial_index":1,"plugin_version":"2.1.0","time_elapsed":8260,"subject_id":"92128","group":"Group2","condition":"1_Rep","full_date":"2026-03-04T16:39:12.223Z","date":"2026-03-04","time":"16:39:12"},{"rt":35938,"url":"SONA_consent_memorability.html","trial_type":"external-html","trial_index":2,"plugin_version":"2.1.0","time_elapsed":44252,"subject_id":"92128","group":"Group2","condition":"1_Rep","full_date":"2026-03-04T16:39:12.223Z","date":"2026-03-04","time":"16:39:12"},{"success":true,"rt":1176,"trial_type":"fullscreen","trial_index":3,"plugin_version":"2.1.0","time_elapsed":46434,"subject_id":"92128","group":"Group2","condition":"1_Rep","full_date":"2026-03-04T16:39:12.223Z","date":"2026-03-04","time":"16:39:12"},{"rt":10109,"stimulus":"<div style=\"max-width: 760px; margin: auto; font-size: 20px; line-height: 1.5;\">\n      <h1 style=\"text-align:center; font-size: 30px;\">Instructions</h1>\n      <p>\n        Welcome to the study on <b>visual memory</b>. This experiment consists of <b>two phases</b>: \n        a <b>study phase</b> and a <b>test phase</b>.\n      </p>\n      <p>\n        In the study phase, you will see a series of rock images along with their category labels.\n        The images will appear one at a time.\n        <b>Your task</b> is to learn the categories to which the rock images belong \n        and to remember each image as accurately as possible.\n      </p> \n      <p>\n        Note that you will see each image only <b>once</b> during the study phase. \n          So, please pay close attention and try to remember each image carefully.\n      </p>\n      <p>\n        After the study phase, <b>your memory will be tested</b>. \n        Additional instructions for the test phase will be provided at that time.\n      </p>\n      <p>\n        If your computer has multiple <b>language settings</b> (e.g., English and another language),\n        please make sure it is set to English before starting.\n      </p>\n      <p>\n        You can track your progress using the <b>completion bar</b> at the top of the screen. \n        Please note that the bar will refresh when the test phase begins \n        to give you an accurate sense of your progress in both phases.\n      </p> \n      <p>\n        Press the button below when you are ready to begin.\n      </p>\n    </div>","response":0,"trial_type":"html-button-response","trial_index":4,"plugin_version":"2.1.0","time_elapsed":56547,"subject_id":"92128","group":"Group2","condition":"1_Rep","full_date":"2026-03-04T16:39:12.223Z","date":"2026-03-04","time":"16:39:12"},{"rt":null,"stimulus":"<p style=\"font-size: 50px; margin: 0; text-align: center;\">+</p>","response":null,"trial_type":"html-keyboard-response","trial_index":5,"plugin_version":"2.1.0","time_elapsed":57550,"subject_id":"92128","group":"Group2","condition":"1_Rep","full_date":"2026-03-04T16:39:12.223Z","date":"2026-03-04","time":"16:39:12"},{"task":"memory_phase","broad_category":"I","image_png":"I_Pumice_14.png","image_id":142,"category_name":"Pumice","category":9,"distinct_rating":3.22,"distinct_type":"Bottom","rt":null,"stimulus":"Stimuli_Rocks480/I_Pumice_14.png","response":null,"trial_type":"image-keyboard-response","trial_index":6,"plugin_version":"2.1.0","time_elapsed":60069,"subject_id":"92128","group":"Group2","condition":"1_Rep","full_date":"2026-03-04T16:39:12.223Z","date":"2026-03-04","time":"16:39:12"},{"rt":null,"stimulus":"<p style=\"font-size: 50px; margin: 0; text-align: center;\">+</p>","response":null,"trial_type":"html-keyboard-response","trial_index":7,"plugin_version":"2.1.0","time_elapsed":61071,"subject_id":"92128","group":"Group2","condition":"1_Rep","full_date":"2026-03-04T16:39:12.223Z","date":"2026-03-04","time":"16:39:12"},{"task":"memory_phase","broad_category":"I","image_png":"I_Gabbro_12.png","image_id":60,"category_name":"Gabbro","category":4,"distinct_rating":2.6,"distinct_type":"Bottom","rt":null,"stimulus":"Stimuli_Rocks480/I_Gabbro_12.png","response":null,"trial_type":"image-keyboard-response","trial_index":8,"plugin_version":"2.1.0","time_elapsed":63584,"subject_id":"92128","group":"Group2","condition":"1_Rep","full_date":"2026-03-04T16:39:12.223Z","date":"2026-03-04","time":"16:39:12"},{"rt":null,"stimulus":"<p style=\"font-size: 50px; margin: 0; text-align: center;\">+</p>","response":null,"trial_type":"html-keyboard-response","trial_index":9,"plugin_version":"2.1.0","time_elapsed":64587,"subject_id":"92128","group":"Group2","condition":"1_Rep","full_date":"2026-03-04T16:39:12.223Z","date":"2026-03-04","time":"16:39:12"},{"task":"memory_phase","broad_category":"M","image_png":"M_Quartzite_12.png","image_id":284,"category_name":"Quartzite","category":18,"distinct_rating":1.92,"distinct_type":"Bottom","rt":null,"stimulus":"Stimuli_Rocks480/M_Quartzite_12.png","response":null,"trial_type":"image-keyboard-response","trial_index":10,"plugin_version":"2.1.0","time_elapsed":67101,"subject_id":"92128","group":"Group2","condition":"1_Rep","full_date":"2026-03-04T16:39:12.223Z","date":"2026-03-04","time":"16:39:12"},{"rt":null,"stimulus":"<p style=\"font-size: 50px; margin: 0; text-align: center;\">+</p>","response":null,"trial_type":"html-keyboard-response","trial_index":11,"plugin_version":"2.1.0","time_elapsed":68104,"subject_id":"92128","group":"Group2","condition":"1_Rep","full_date":"2026-03-04T16:39:12.223Z","date":"2026-03-04","time":"16:39:12"},{"task":"memory_phase","broad_category":"I","image_png":"I_Andesite_09.png","image_id":9,"category_name":"Andesite","category":1,"distinct_rating":2.49,"distinct_type":"Bottom","rt":null,"stimulus":"Stimuli_Rocks480/I_Andesite_09.png","response":null,"trial_type":"image-keyboard-response","trial_index":12,"plugin_version":"2.1.0","time_elapsed":70618,"subject_id":"92128","group":"Group2","condition":"1_Rep","full_date":"2026-03-04T16:39:12.223Z","date":"2026-03-04","time":"16:39:12"},{"rt":null,"stimulus":"<p style=\"font-size: 50px; margin: 0; text-align: center;\">+</p>","response":null,"trial_type":"html-keyboard-response","trial_index":13,"plugin_version":"2.1.0","time_elapsed":71620,"subject_id":"92128","group":"Group2","condition":"1_Rep","full_date":"2026-03-04T16:39:12.223Z","date":"2026-03-04","time":"16:39:12"},{"task":"memory_phase","broad_category":"M","image_png":"M_Gneiss_14.png","image_id":206,"category_name":"Gneiss","category":13,"distinct_rating":3.41,"distinct_type":"Bottom","rt":null,"stimulus":"Stimuli_Rocks480/M_Gneiss_14.png","response":null,"trial_type":"image-keyboard-response","trial_index":14,"plugin_version":"2.1.0","time_elapsed":74134,"subject_id":"92128","group":"Group2","condition":"1_Rep","full_date":"2026-03-04T16:39:12.223Z","date":"2026-03-04","time":"16:39:12"},{"rt":null,"stimulus":"<p style=\"font-size: 50px; margin: 0; text-align: center;\">+</p>","response":null,"trial_type":"html-keyboard-response","trial_index":15,"plugin_version":"2.1.0","time_elapsed":75138,"subject_id":"92128","group":"Group2","condition":"1_Rep","full_date":"2026-03-04T16:39:12.223Z","date":"2026-03-04","time":"16:39:12"},{"task":"memory_phase","broad_category":"I","image_png":"I_Andesite_03.png","image_id":3,"category_name":"Andesite","category":1,"distinct_rating":3.17,"distinct_type":"Bottom","rt":null,"stimulus":"Stimuli_Rocks480/I_Andesite_03.png","response":null,"trial_type":"image-keyboard-response","trial_index":16,"plugin_version":"2.1.0","time_elapsed":77650,"subject_id":"92128","group":"Group2","condition":"1_Rep","full_date":"2026-03-04T16:39:12.223Z","date":"2026-03-04","time":"16:39:12"},{"rt":null,"stimulus":"<p style=\"font-size: 50px; margin: 0; text-align: center;\">+</p>","response":null,"trial_type":"html-keyboard-response","trial_index":17,"plugin_version":"2.1.0","time_elapsed":78652,"subject_id":"92128","group":"Group2","condition":"1_Rep","full_date":"2026-03-04T16:39:12.223Z","date":"2026-03-04","time":"16:39:12"},{"task":"memory_phase","broad_category":"M","image_png":"M_Marble_14.png","image_id":238,"category_name":"Marble","category":15,"distinct_rating":3.31,"distinct_type":"Bottom","rt":null,"stimulus":"Stimuli_Rocks480/M_Marble_14.png","response":null,"trial_type":"image-keyboard-response","trial_index":18,"plugin_version":"2.1.0","time_elapsed":81167,"subject_id":"92128","group":"Group2","condition":"1_Rep","full_date":"2026-03-04T16:39:12.223Z","date":"2026-03-04","time":"16:39:12"},{"rt":null,"stimulus":"<p style=\"font-size: 50px; margin: 0; text-align: center;\">+</p>","response":null,"trial_type":"html-keyboard-response","trial_index":19,"plugin_version":"2.1.0","time_elapsed":82170,"subject_id":"92128","group":"Group2","condition":"1_Rep","full_date":"2026-03-04T16:39:12.223Z","date":"2026-03-04","time":"16:39:12"},{"task":"memory_phase","broad_category":"I","image_png":"I_Basalt_08.png","image_id":24,"category_name":"Basalt","category":2,"distinct_rating":2.31,"distinct_type":"Bottom","rt":null,"stimulus":"Stimuli_Rocks480/I_Basalt_08.png","response":null,"trial_type":"image-keyboard-response","trial_index":20,"plugin_version":"2.1.0","time_elapsed":84690,"subject_id":"92128","group":"Group2","condition":"1_Rep","full_date":"2026-03-04T16:39:12.223Z","date":"2026-03-04","time":"16:39:12"},{"rt":null,"stimulus":"<p style=\"font-size: 50px; margin: 0; text-align: center;\">+</p>","response":null,"trial_type":"html-keyboard-response","trial_index":21,"plugin_version":"2.1.0","time_elapsed":85692,"subject_id":"92128","group":"Group2","condition":"1_Rep","full_date":"2026-03-04T16:39:12.223Z","date":"2026-03-04","time":"16:39:12"},{"task":"memory_phase","broad_category":"S","image_png":"S_Shale_02.png","image_id":466,"category_name":"Shale","category":30,"distinct_rating":2.9,"distinct_type":"Bottom","rt":null,"stimulus":"Stimuli_Rocks480/S_Shale_02.png","response":null,"trial_type":"image-keyboard-response","trial_index":22,"plugin_version":"2.1.0","time_elapsed":88206,"subject_id":"92128","group":"Group2","condition":"1_Rep","full_date":"2026-03-04T16:39:12.223Z","date":"2026-03-04","time":"16:39:12"},{"rt":null,"stimulus":"<p style=\"font-size: 50px; margin: 0; text-align: center;\">+</p>","response":null,"trial_type":"html-keyboard-response","trial_index":23,"plugin_version":"2.1.0","time_elapsed":89209,"subject_id":"92128","group":"Group2","condition":"1_Rep","full_date":"2026-03-04T16:39:12.223Z","date":"2026-03-04","time":"16:39:12"},{"task":"memory_phase","broad_category":"I","image_png":"I_Obsidian_06.png","image_id":86,"category_name":"Obsidian","category":6,"distinct_rating":8.01,"distinct_type":"Top","rt":null,"stimulus":"Stimuli_Rocks480/I_Obsidian_06.png","response":null,"trial_type":"image-keyboard-response","trial_index":24,"plugin_version":"2.1.0","time_elapsed":91726,"subject_id":"92128","group":"Group2","condition":"1_Rep","full_date":"2026-03-04T16:39:12.223Z","date":"2026-03-04","time":"16:39:12"},{"rt":null,"stimulus":"<p style=\"font-size: 50px; margin: 0; text-align: center;\">+</p>","response":null,"trial_type":"html-keyboard-response","trial_index":25,"plugin_version":"2.1.0","time_elapsed":92728,"subject_id":"92128","group":"Group2","condition":"1_Rep","full_date":"2026-03-04T16:39:12.223Z","date":"2026-03-04","time":"16:39:12"},{"task":"memory_phase","broad_category":"I","image_png":"I_Diorite_10.png","image_id":42,"category_name":"Diorite","category":3,"distinct_rating":2.84,"distinct_type":"Bottom","rt":null,"stimulus":"Stimuli_Rocks480/I_Diorite_10.png","response":null,"trial_type":"image-keyboard-response","trial_index":26,"plugin_version":"2.1.0","time_elapsed":95243,"subject_id":"92128","group":"Group2","condition":"1_Rep","full_date":"2026-03-04T16:39:12.223Z","date":"2026-03-04","time":"16:39:12"},{"rt":null,"stimulus":"<p style=\"font-size: 50px; margin: 0; text-align: center;\">+</p>","response":null,"trial_type":"html-keyboard-response","trial_index":27,"plugin_version":"2.1.0","time_elapsed":96246,"subject_id":"92128","group":"Group2","condition":"1_Rep","full_date":"2026-03-04T16:39:12.223Z","date":"2026-03-04","time":"16:39:12"},{"task":"memory_phase","broad_category":"M","image_png":"M_Gneiss_15.png","image_id":207,"category_name":"Gneiss","category":13,"distinct_rating":3.11,"distinct_type":"Bottom","rt":null,"stimulus":"Stimuli_Rocks480/M_Gneiss_15.png","response":null,"trial_type":"image-keyboard-response","trial_index":28,"plugin_version":"2.1.0","time_elapsed":98757,"subject_id":"92128","group":"Group2","condition":"1_Rep","full_date":"2026-03-04T16:39:12.223Z","date":"2026-03-04","time":"16:39:12"},{"rt":null,"stimulus":"<p style=\"font-size: 50px; margin: 0; text-align: center;\">+</p>","response":null,"trial_type":"html-keyboard-response","trial_index":29,"plugin_version":"2.1.0","time_elapsed":99759,"subject_id":"92128","group":"Group2","condition":"1_Rep","full_date":"2026-03-04T16:39:12.223Z","date":"2026-03-04","time":"16:39:12"},{"task":"memory_phase","broad_category":"I","image_png":"I_Pumice_13.png","image_id":141,"category_name":"Pumice","category":9,"distinct_rating":3.12,"distinct_type":"Bottom","rt":null,"stimulus":"Stimuli_Rocks480/I_Pumice_13.png","response":null,"trial_type":"image-keyboard-response","trial_index":30,"plugin_version":"2.1.0","time_elapsed":102274,"subject_id":"92128","group":"Group2","condition":"1_Rep","full_date":"2026-03-04T16:39:12.223Z","date":"2026-03-04","time":"16:39:12"},{"rt":null,"stimulus":"<p style=\"font-size: 50px; margin: 0; text-align: center;\">+</p>","response":null,"trial_type":"html-keyboard-response","trial_index":31,"plugin_version":"2.1.0","time_elapsed":103276,"subject_id":"92128","group":"Group2","condition":"1_Rep","full_date":"2026-03-04T16:39:12.223Z","date":"2026-03-04","time":"16:39:12"},{"task":"memory_phase","broad_category":"S","image_png":"S_Shale_03.png","image_id":467,"category_name":"Shale","category":30,"distinct_rating":1.95,"distinct_type":"Bottom","rt":null,"stimulus":"Stimuli_Rocks480/S_Shale_03.png","response":null,"trial_type":"image-keyboard-response","trial_index":32,"plugin_version":"2.1.0","time_elapsed":105792,"subject_id":"92128","group":"Group2","condition":"1_Rep","full_date":"2026-03-04T16:39:12.223Z","date":"2026-03-04","time":"16:39:12"},{"rt":null,"stimulus":"<p style=\"font-size: 50px; margin: 0; text-align: center;\">+</p>","response":null,"trial_type":"html-keyboard-response","trial_index":33,"plugin_version":"2.1.0","time_elapsed":106794,"subject_id":"92128","group":"Group2","condition":"1_Rep","full_date":"2026-03-04T16:39:12.223Z","date":"2026-03-04","time":"16:39:12"},{"task":"memory_phase","broad_category":"M","image_png":"M_Phyllite_13.png","image_id":269,"category_name":"Phyllite","category":17,"distinct_rating":2.8,"distinct_type":"Bottom","rt":null,"stimulus":"Stimuli_Rocks480/M_Phyllite_13.png","response":null,"trial_type":"image-keyboard-response","trial_index":34,"plugin_version":"2.1.0","time_elapsed":109308,"subject_id":"92128","group":"Group2","condition":"1_Rep","full_date":"2026-03-04T16:39:12.223Z","date":"2026-03-04","time":"16:39:12"},{"rt":null,"stimulus":"<p style=\"font-size: 50px; margin: 0; text-align: center;\">+</p>","response":null,"trial_type":"html-keyboard-response","trial_index":35,"plugin_version":"2.1.0","time_elapsed":110310,"subject_id":"92128","group":"Group2","condition":"1_Rep","full_date":"2026-03-04T16:39:12.223Z","date":"2026-03-04","time":"16:39:12"},{"task":"memory_phase","broad_category":"S","image_png":"S_Sandstone_08.png","image_id":456,"category_name":"Sandstone","category":29,"distinct_rating":1.5,"distinct_type":"Bottom","rt":null,"stimulus":"Stimuli_Rocks480/S_Sandstone_08.png","response":null,"trial_type":"image-keyboard-response","trial_index":36,"plugin_version":"2.1.0","time_elapsed":112824,"subject_id":"92128","group":"Group2","condition":"1_Rep","full_date":"2026-03-04T16:39:12.223Z","date":"2026-03-04","time":"16:39:12"},{"rt":null,"stimulus":"<p style=\"font-size: 50px; margin: 0; text-align: center;\">+</p>","response":null,"trial_type":"html-keyboard-response","trial_index":37,"plugin_version":"2.1.0","time_elapsed":113825,"subject_id":"92128","group":"Group2","condition":"1_Rep","full_date":"2026-03-04T16:39:12.223Z","date":"2026-03-04","time":"16:39:12"},{"task":"memory_phase","broad_category":"I","image_png":"I_Diorite_01.png","image_id":33,"category_name":"Diorite","category":3,"distinct_rating":2.97,"distinct_type":"Bottom","rt":null,"stimulus":"Stimuli_Rocks480/I_Diorite_01.png","response":null,"trial_type":"image-keyboard-response","trial_index":38,"plugin_version":"2.1.0","time_elapsed":116336,"subject_id":"92128","group":"Group2","condition":"1_Rep","full_date":"2026-03-04T16:39:12.223Z","date":"2026-03-04","time":"16:39:12"},{"rt":null,"stimulus":"<p style=\"font-size: 50px; margin: 0; text-align: center;\">+</p>","response":null,"trial_type":"html-keyboard-response","trial_index":39,"plugin_version":"2.1.0","time_elapsed":117338,"subject_id":"92128","group":"Group2","condition":"1_Rep","full_date":"2026-03-04T16:39:12.223Z","date":"2026-03-04","time":"16:39:12"},{"task":"memory_phase","broad_category":"I","image_png":"I_Basalt_10.png","image_id":26,"category_name":"Basalt","category":2,"distinct_rating":2.76,"distinct_type":"Bottom","rt":null,"stimulus":"Stimuli_Rocks480/I_Basalt_10.png","response":null,"trial_type":"image-keyboard-response","trial_index":40,"plugin_version":"2.1.0","time_elapsed":119852,"subject_id":"92128","group":"Group2","condition":"1_Rep","full_date":"2026-03-04T16:39:12.223Z","date":"2026-03-04","time":"16:39:12"},{"rt":null,"stimulus":"<p style=\"font-size: 50px; margin: 0; text-align: center;\">+</p>","response":null,"trial_type":"html-keyboard-response","trial_index":41,"plugin_version":"2.1.0","time_elapsed":120854,"subject_id":"92128","group":"Group2","condition":"1_Rep","full_date":"2026-03-04T16:39:12.223Z","date":"2026-03-04","time":"16:39:12"},{"task":"memory_phase","broad_category":"M","image_png":"M_Slate_10.png","image_id":314,"category_name":"Slate","category":20,"distinct_rating":1.94,"distinct_type":"Bottom","rt":null,"stimulus":"Stimuli_Rocks480/M_Slate_10.png","response":null,"trial_type":"image-keyboard-response","trial_index":42,"plugin_version":"2.1.0","time_elapsed":123364,"subject_id":"92128","group":"Group2","condition":"1_Rep","full_date":"2026-03-04T16:39:12.223Z","date":"2026-03-04","time":"16:39:12"},{"rt":null,"stimulus":"<p style=\"font-size: 50px; margin: 0; text-align: center;\">+</p>","response":null,"trial_type":"html-keyboard-response","trial_index":43,"plugin_version":"2.1.0","time_elapsed":124365,"subject_id":"92128","group":"Group2","condition":"1_Rep","full_date":"2026-03-04T16:39:12.223Z","date":"2026-03-04","time":"16:39:12"},{"task":"memory_phase","broad_category":"I","image_png":"I_Basalt_13.png","image_id":29,"category_name":"Basalt","category":2,"distinct_rating":2.68,"distinct_type":"Bottom","rt":null,"stimulus":"Stimuli_Rocks480/I_Basalt_13.png","response":null,"trial_type":"image-keyboard-response","trial_index":44,"plugin_version":"2.1.0","time_elapsed":126878,"subject_id":"92128","group":"Group2","condition":"1_Rep","full_date":"2026-03-04T16:39:12.223Z","date":"2026-03-04","time":"16:39:12"},{"rt":null,"stimulus":"<p style=\"font-size: 50px; margin: 0; text-align: center;\">+</p>","response":null,"trial_type":"html-keyboard-response","trial_index":45,"plugin_version":"2.1.0","time_elapsed":127880,"subject_id":"92128","group":"Group2","condition":"1_Rep","full_date":"2026-03-04T16:39:12.223Z","date":"2026-03-04","time":"16:39:12"},{"task":"memory_phase","broad_category":"M","image_png":"M_Phyllite_02.png","image_id":258,"category_name":"Phyllite","category":17,"distinct_rating":2.89,"distinct_type":"Bottom","rt":null,"stimulus":"Stimuli_Rocks480/M_Phyllite_02.png","response":null,"trial_type":"image-keyboard-response","trial_index":46,"plugin_version":"2.1.0","time_elapsed":130393,"subject_id":"92128","group":"Group2","condition":"1_Rep","full_date":"2026-03-04T16:39:12.223Z","date":"2026-03-04","time":"16:39:12"},{"rt":null,"stimulus":"<p style=\"font-size: 50px; margin: 0; text-align: center;\">+</p>","response":null,"trial_type":"html-keyboard-response","trial_index":47,"plugin_version":"2.1.0","time_elapsed":131395,"subject_id":"92128","group":"Group2","condition":"1_Rep","full_date":"2026-03-04T16:39:12.223Z","date":"2026-03-04","time":"16:39:12"},{"task":"memory_phase","broad_category":"I","image_png":"I_Pegmatite_03.png","image_id":99,"category_name":"Pegmatite","category":7,"distinct_rating":7.24,"distinct_type":"Top","rt":null,"stimulus":"Stimuli_Rocks480/I_Pegmatite_03.png","response":null,"trial_type":"image-keyboard-response","trial_index":48,"plugin_version":"2.1.0","time_elapsed":133908,"subject_id":"92128","group":"Group2","condition":"1_Rep","full_date":"2026-03-04T16:39:12.223Z","date":"2026-03-04","time":"16:39:12"},{"rt":null,"stimulus":"<p style=\"font-size: 50px; margin: 0; text-align: center;\">+</p>","response":null,"trial_type":"html-keyboard-response","trial_index":49,"plugin_version":"2.1.0","time_elapsed":134910,"subject_id":"92128","group":"Group2","condition":"1_Rep","full_date":"2026-03-04T16:39:12.223Z","date":"2026-03-04","time":"16:39:12"},{"task":"memory_phase","broad_category":"M","image_png":"M_Phyllite_05.png","image_id":261,"category_name":"Phyllite","category":17,"distinct_rating":2.14,"distinct_type":"Bottom","rt":null,"stimulus":"Stimuli_Rocks480/M_Phyllite_05.png","response":null,"trial_type":"image-keyboard-response","trial_index":50,"plugin_version":"2.1.0","time_elapsed":137420,"subject_id":"92128","group":"Group2","condition":"1_Rep","full_date":"2026-03-04T16:39:12.223Z","date":"2026-03-04","time":"16:39:12"},{"rt":null,"stimulus":"<p style=\"font-size: 50px; margin: 0; text-align: center;\">+</p>","response":null,"trial_type":"html-keyboard-response","trial_index":51,"plugin_version":"2.1.0","time_elapsed":138422,"subject_id":"92128","group":"Group2","condition":"1_Rep","full_date":"2026-03-04T16:39:12.223Z","date":"2026-03-04","time":"16:39:12"},{"task":"memory_phase","broad_category":"S","image_png":"S_Dolomite_07.png","image_id":391,"category_name":"Dolomite","category":25,"distinct_rating":1.73,"distinct_type":"Bottom","rt":null,"stimulus":"Stimuli_Rocks480/S_Dolomite_07.png","response":null,"trial_type":"image-keyboard-response","trial_index":52,"plugin_version":"2.1.0","time_elapsed":140934,"subject_id":"92128","group":"Group2","condition":"1_Rep","full_date":"2026-03-04T16:39:12.223Z","date":"2026-03-04","time":"16:39:12"},{"rt":null,"stimulus":"<p style=\"font-size: 50px; margin: 0; text-align: center;\">+</p>","response":null,"trial_type":"html-keyboard-response","trial_index":53,"plugin_version":"2.1.0","time_elapsed":141936,"subject_id":"92128","group":"Group2","condition":"1_Rep","full_date":"2026-03-04T16:39:12.223Z","date":"2026-03-04","time":"16:39:12"},{"task":"memory_phase","broad_category":"S","image_png":"S_Sandstone_11.png","image_id":459,"category_name":"Sandstone","category":29,"distinct_rating":1.82,"distinct_type":"Bottom","rt":null,"stimulus":"Stimuli_Rocks480/S_Sandstone_11.png","response":null,"trial_type":"image-keyboard-response","trial_index":54,"plugin_version":"2.1.0","time_elapsed":144459,"subject_id":"92128","group":"Group2","condition":"1_Rep","full_date":"2026-03-04T16:39:12.223Z","date":"2026-03-04","time":"16:39:12"},{"rt":1122,"stimulus":"<p style=\"max-width: 760px; margin: auto; font-size: 35px; line-height: 1.5;\">\n                Press SPACE to continue study phase\n              </p>","response":" ","trial_type":"html-keyboard-response","trial_index":55,"plugin_version":"2.1.0","time_elapsed":145584,"subject_id":"92128","group":"Group2","condition":"1_Rep","full_date":"2026-03-04T16:39:12.223Z","date":"2026-03-04","time":"16:39:12"},{"rt":null,"stimulus":"<p style=\"font-size: 50px; margin: 0; text-align: center;\">+</p>","response":null,"trial_type":"html-keyboard-response","trial_index":56,"plugin_version":"2.1.0","time_elapsed":146586,"subject_id":"92128","group":"Group2","condition":"1_Rep","full_date":"2026-03-04T16:39:12.223Z","date":"2026-03-04","time":"16:39:12"},{"task":"memory_phase","broad_category":"M","image_png":"M_Slate_14.png","image_id":318,"category_name":"Slate","category":20,"distinct_rating":2.58,"distinct_type":"Bottom","rt":null,"stimulus":"Stimuli_Rocks480/M_Slate_14.png","response":null,"trial_type":"image-keyboard-response","trial_index":57,"plugin_version":"2.1.0","time_elapsed":149099,"subject_id":"92128","group":"Group2","condition":"1_Rep","full_date":"2026-03-04T16:39:12.223Z","date":"2026-03-04","time":"16:39:12"},{"rt":null,"stimulus":"<p style=\"font-size: 50px; margin: 0; text-align: center;\">+</p>","response":null,"trial_type":"html-keyboard-response","trial_index":58,"plugin_version":"2.1.0","time_elapsed":150102,"subject_id":"92128","group":"Group2","condition":"1_Rep","full_date":"2026-03-04T16:39:12.223Z","date":"2026-03-04","time":"16:39:12"},{"task":"memory_phase","broad_category":"S","image_png":"S_Chert_13.png","image_id":365,"category_name":"Chert","category":23,"distinct_rating":6.57,"distinct_type":"Top","rt":null,"stimulus":"Stimuli_Rocks480/S_Chert_13.png","response":null,"trial_type":"image-keyboard-response","trial_index":59,"plugin_version":"2.1.0","time_elapsed":152612,"subject_id":"92128","group":"Group2","condition":"1_Rep","full_date":"2026-03-04T16:39:12.223Z","date":"2026-03-04","time":"16:39:12"},{"rt":null,"stimulus":"<p style=\"font-size: 50px; margin: 0; text-align: center;\">+</p>","response":null,"trial_type":"html-keyboard-response","trial_index":60,"plugin_version":"2.1.0","time_elapsed":153614,"subject_id":"92128","group":"Group2","condition":"1_Rep","full_date":"2026-03-04T16:39:12.223Z","date":"2026-03-04","time":"16:39:12"},{"task":"memory_phase","broad_category":"I","image_png":"I_Pumice_01.png","image_id":129,"category_name":"Pumice","category":9,"distinct_rating":3.25,"distinct_type":"Bottom","rt":null,"stimulus":"Stimuli_Rocks480/I_Pumice_01.png","response":null,"trial_type":"image-keyboard-response","trial_index":61,"plugin_version":"2.1.0","time_elapsed":156129,"subject_id":"92128","group":"Group2","condition":"1_Rep","full_date":"2026-03-04T16:39:12.223Z","date":"2026-03-04","time":"16:39:12"},{"rt":null,"stimulus":"<p style=\"font-size: 50px; margin: 0; text-align: center;\">+</p>","response":null,"trial_type":"html-keyboard-response","trial_index":62,"plugin_version":"2.1.0","time_elapsed":157131,"subject_id":"92128","group":"Group2","condition":"1_Rep","full_date":"2026-03-04T16:39:12.223Z","date":"2026-03-04","time":"16:39:12"},{"task":"memory_phase","broad_category":"I","image_png":"I_Peridotite_13.png","image_id":125,"category_name":"Peridotite","category":8,"distinct_rating":7.28,"distinct_type":"Top","rt":null,"stimulus":"Stimuli_Rocks480/I_Peridotite_13.png","response":null,"trial_type":"image-keyboard-response","trial_index":63,"plugin_version":"2.1.0","time_elapsed":159644,"subject_id":"92128","group":"Group2","condition":"1_Rep","full_date":"2026-03-04T16:39:12.223Z","date":"2026-03-04","time":"16:39:12"},{"rt":null,"stimulus":"<p style=\"font-size: 50px; margin: 0; text-align: center;\">+</p>","response":null,"trial_type":"html-keyboard-response","trial_index":64,"plugin_version":"2.1.0","time_elapsed":160646,"subject_id":"92128","group":"Group2","condition":"1_Rep","full_date":"2026-03-04T16:39:12.223Z","date":"2026-03-04","time":"16:39:12"},{"task":"memory_phase","broad_category":"M","image_png":"M_Marble_03.png","image_id":227,"category_name":"Marble","category":15,"distinct_rating":2.67,"distinct_type":"Bottom","rt":null,"stimulus":"Stimuli_Rocks480/M_Marble_03.png","response":null,"trial_type":"image-keyboard-response","trial_index":65,"plugin_version":"2.1.0","time_elapsed":163161,"subject_id":"92128","group":"Group2","condition":"1_Rep","full_date":"2026-03-04T16:39:12.223Z","date":"2026-03-04","time":"16:39:12"},{"rt":null,"stimulus":"<p style=\"font-size: 50px; margin: 0; text-align: center;\">+</p>","response":null,"trial_type":"html-keyboard-response","trial_index":66,"plugin_version":"2.1.0","time_elapsed":164163,"subject_id":"92128","group":"Group2","condition":"1_Rep","full_date":"2026-03-04T16:39:12.223Z","date":"2026-03-04","time":"16:39:12"},{"task":"memory_phase","broad_category":"S","image_png":"S_Conglomerate_14.png","image_id":382,"category_name":"Conglomerate","category":24,"distinct_rating":6.86,"distinct_type":"Top","rt":null,"stimulus":"Stimuli_Rocks480/S_Conglomerate_14.png","response":null,"trial_type":"image-keyboard-response","trial_index":67,"plugin_version":"2.1.0","time_elapsed":166677,"subject_id":"92128","group":"Group2","condition":"1_Rep","full_date":"2026-03-04T16:39:12.223Z","date":"2026-03-04","time":"16:39:12"},{"rt":null,"stimulus":"<p style=\"font-size: 50px; margin: 0; text-align: center;\">+</p>","response":null,"trial_type":"html-keyboard-response","trial_index":68,"plugin_version":"2.1.0","time_elapsed":167679,"subject_id":"92128","group":"Group2","condition":"1_Rep","full_date":"2026-03-04T16:39:12.223Z","date":"2026-03-04","time":"16:39:12"},{"task":"memory_phase","broad_category":"I","image_png":"I_Pegmatite_11.png","image_id":107,"category_name":"Pegmatite","category":7,"distinct_rating":7.11,"distinct_type":"Top","rt":null,"stimulus":"Stimuli_Rocks480/I_Pegmatite_11.png","response":null,"trial_type":"image-keyboard-response","trial_index":69,"plugin_version":"2.1.0","time_elapsed":170199,"subject_id":"92128","group":"Group2","condition":"1_Rep","full_date":"2026-03-04T16:39:12.223Z","date":"2026-03-04","time":"16:39:12"},{"rt":null,"stimulus":"<p style=\"font-size: 50px; margin: 0; text-align: center;\">+</p>","response":null,"trial_type":"html-keyboard-response","trial_index":70,"plugin_version":"2.1.0","time_elapsed":171201,"subject_id":"92128","group":"Group2","condition":"1_Rep","full_date":"2026-03-04T16:39:12.223Z","date":"2026-03-04","time":"16:39:12"},{"task":"memory_phase","broad_category":"M","image_png":"M_Gneiss_10.png","image_id":202,"category_name":"Gneiss","category":13,"distinct_rating":3.09,"distinct_type":"Bottom","rt":null,"stimulus":"Stimuli_Rocks480/M_Gneiss_10.png","response":null,"trial_type":"image-keyboard-response","trial_index":71,"plugin_version":"2.1.0","time_elapsed":173717,"subject_id":"92128","group":"Group2","condition":"1_Rep","full_date":"2026-03-04T16:39:12.223Z","date":"2026-03-04","time":"16:39:12"},{"rt":null,"stimulus":"<p style=\"font-size: 50px; margin: 0; text-align: center;\">+</p>","response":null,"trial_type":"html-keyboard-response","trial_index":72,"plugin_version":"2.1.0","time_elapsed":174719,"subject_id":"92128","group":"Group2","condition":"1_Rep","full_date":"2026-03-04T16:39:12.223Z","date":"2026-03-04","time":"16:39:12"},{"task":"memory_phase","broad_category":"M","image_png":"M_Marble_02.png","image_id":226,"category_name":"Marble","category":15,"distinct_rating":3.2,"distinct_type":"Bottom","rt":null,"stimulus":"Stimuli_Rocks480/M_Marble_02.png","response":null,"trial_type":"image-keyboard-response","trial_index":73,"plugin_version":"2.1.0","time_elapsed":177233,"subject_id":"92128","group":"Group2","condition":"1_Rep","full_date":"2026-03-04T16:39:12.223Z","date":"2026-03-04","time":"16:39:12"},{"rt":null,"stimulus":"<p style=\"font-size: 50px; margin: 0; text-align: center;\">+</p>","response":null,"trial_type":"html-keyboard-response","trial_index":74,"plugin_version":"2.1.0","time_elapsed":178236,"subject_id":"92128","group":"Group2","condition":"1_Rep","full_date":"2026-03-04T16:39:12.223Z","date":"2026-03-04","time":"16:39:12"},{"task":"memory_phase","broad_category":"S","image_png":"S_Shale_07.png","image_id":471,"category_name":"Shale","category":30,"distinct_rating":2.73,"distinct_type":"Bottom","rt":null,"stimulus":"Stimuli_Rocks480/S_Shale_07.png","response":null,"trial_type":"image-keyboard-response","trial_index":75,"plugin_version":"2.1.0","time_elapsed":180748,"subject_id":"92128","group":"Group2","condition":"1_Rep","full_date":"2026-03-04T16:39:12.223Z","date":"2026-03-04","time":"16:39:12"},{"rt":null,"stimulus":"<p style=\"font-size: 50px; margin: 0; text-align: center;\">+</p>","response":null,"trial_type":"html-keyboard-response","trial_index":76,"plugin_version":"2.1.0","time_elapsed":181750,"subject_id":"92128","group":"Group2","condition":"1_Rep","full_date":"2026-03-04T16:39:12.223Z","date":"2026-03-04","time":"16:39:12"},{"task":"memory_phase","broad_category":"I","image_png":"I_Gabbro_02.png","image_id":50,"category_name":"Gabbro","category":4,"distinct_rating":2.73,"distinct_type":"Bottom","rt":null,"stimulus":"Stimuli_Rocks480/I_Gabbro_02.png","response":null,"trial_type":"image-keyboard-response","trial_index":77,"plugin_version":"2.1.0","time_elapsed":184267,"subject_id":"92128","group":"Group2","condition":"1_Rep","full_date":"2026-03-04T16:39:12.223Z","date":"2026-03-04","time":"16:39:12"},{"rt":null,"stimulus":"<p style=\"font-size: 50px; margin: 0; text-align: center;\">+</p>","response":null,"trial_type":"html-keyboard-response","trial_index":78,"plugin_version":"2.1.0","time_elapsed":185269,"subject_id":"92128","group":"Group2","condition":"1_Rep","full_date":"2026-03-04T16:39:12.223Z","date":"2026-03-04","time":"16:39:12"},{"task":"memory_phase","broad_category":"I","image_png":"I_Andesite_04.png","image_id":4,"category_name":"Andesite","category":1,"distinct_rating":3.18,"distinct_type":"Bottom","rt":null,"stimulus":"Stimuli_Rocks480/I_Andesite_04.png","response":null,"trial_type":"image-keyboard-response","trial_index":79,"plugin_version":"2.1.0","time_elapsed":187785,"subject_id":"92128","group":"Group2","condition":"1_Rep","full_date":"2026-03-04T16:39:12.223Z","date":"2026-03-04","time":"16:39:12"},{"rt":null,"stimulus":"<p style=\"font-size: 50px; margin: 0; text-align: center;\">+</p>","response":null,"trial_type":"html-keyboard-response","trial_index":80,"plugin_version":"2.1.0","time_elapsed":188787,"subject_id":"92128","group":"Group2","condition":"1_Rep","full_date":"2026-03-04T16:39:12.223Z","date":"2026-03-04","time":"16:39:12"},{"task":"memory_phase","broad_category":"S","image_png":"S_Dolomite_01.png","image_id":385,"category_name":"Dolomite","category":25,"distinct_rating":1.43,"distinct_type":"Bottom","rt":null,"stimulus":"Stimuli_Rocks480/S_Dolomite_01.png","response":null,"trial_type":"image-keyboard-response","trial_index":81,"plugin_version":"2.1.0","time_elapsed":191306,"subject_id":"92128","group":"Group2","condition":"1_Rep","full_date":"2026-03-04T16:39:12.223Z","date":"2026-03-04","time":"16:39:12"},{"rt":null,"stimulus":"<p style=\"font-size: 50px; margin: 0; text-align: center;\">+</p>","response":null,"trial_type":"html-keyboard-response","trial_index":82,"plugin_version":"2.1.0","time_elapsed":192308,"subject_id":"92128","group":"Group2","condition":"1_Rep","full_date":"2026-03-04T16:39:12.223Z","date":"2026-03-04","time":"16:39:12"},{"task":"memory_phase","broad_category":"I","image_png":"I_Rhyolite_10.png","image_id":154,"category_name":"Rhyolite","category":10,"distinct_rating":2.88,"distinct_type":"Bottom","rt":null,"stimulus":"Stimuli_Rocks480/I_Rhyolite_10.png","response":null,"trial_type":"image-keyboard-response","trial_index":83,"plugin_version":"2.1.0","time_elapsed":194828,"subject_id":"92128","group":"Group2","condition":"1_Rep","full_date":"2026-03-04T16:39:12.223Z","date":"2026-03-04","time":"16:39:12"},{"rt":null,"stimulus":"<p style=\"font-size: 50px; margin: 0; text-align: center;\">+</p>","response":null,"trial_type":"html-keyboard-response","trial_index":84,"plugin_version":"2.1.0","time_elapsed":195830,"subject_id":"92128","group":"Group2","condition":"1_Rep","full_date":"2026-03-04T16:39:12.223Z","date":"2026-03-04","time":"16:39:12"},{"task":"memory_phase","broad_category":"S","image_png":"S_Sandstone_04.png","image_id":452,"category_name":"Sandstone","category":29,"distinct_rating":1.8,"distinct_type":"Bottom","rt":null,"stimulus":"Stimuli_Rocks480/S_Sandstone_04.png","response":null,"trial_type":"image-keyboard-response","trial_index":85,"plugin_version":"2.1.0","time_elapsed":198347,"subject_id":"92128","group":"Group2","condition":"1_Rep","full_date":"2026-03-04T16:39:12.223Z","date":"2026-03-04","time":"16:39:12"},{"rt":null,"stimulus":"<p style=\"font-size: 50px; margin: 0; text-align: center;\">+</p>","response":null,"trial_type":"html-keyboard-response","trial_index":86,"plugin_version":"2.1.0","time_elapsed":199349,"subject_id":"92128","group":"Group2","condition":"1_Rep","full_date":"2026-03-04T16:39:12.223Z","date":"2026-03-04","time":"16:39:12"},{"task":"memory_phase","broad_category":"S","image_png":"S_Dolomite_16.png","image_id":400,"category_name":"Dolomite","category":25,"distinct_rating":1.71,"distinct_type":"Bottom","rt":null,"stimulus":"Stimuli_Rocks480/S_Dolomite_16.png","response":null,"trial_type":"image-keyboard-response","trial_index":87,"plugin_version":"2.1.0","time_elapsed":201863,"subject_id":"92128","group":"Group2","condition":"1_Rep","full_date":"2026-03-04T16:39:12.223Z","date":"2026-03-04","time":"16:39:12"},{"rt":null,"stimulus":"<p style=\"font-size: 50px; margin: 0; text-align: center;\">+</p>","response":null,"trial_type":"html-keyboard-response","trial_index":88,"plugin_version":"2.1.0","time_elapsed":202866,"subject_id":"92128","group":"Group2","condition":"1_Rep","full_date":"2026-03-04T16:39:12.223Z","date":"2026-03-04","time":"16:39:12"},{"task":"memory_phase","broad_category":"M","image_png":"M_Quartzite_15.png","image_id":287,"category_name":"Quartzite","category":18,"distinct_rating":2.19,"distinct_type":"Bottom","rt":null,"stimulus":"Stimuli_Rocks480/M_Quartzite_15.png","response":null,"trial_type":"image-keyboard-response","trial_index":89,"plugin_version":"2.1.0","time_elapsed":205383,"subject_id":"92128","group":"Group2","condition":"1_Rep","full_date":"2026-03-04T16:39:12.223Z","date":"2026-03-04","time":"16:39:12"},{"rt":null,"stimulus":"<p style=\"font-size: 50px; margin: 0; text-align: center;\">+</p>","response":null,"trial_type":"html-keyboard-response","trial_index":90,"plugin_version":"2.1.0","time_elapsed":206386,"subject_id":"92128","group":"Group2","condition":"1_Rep","full_date":"2026-03-04T16:39:12.223Z","date":"2026-03-04","time":"16:39:12"},{"task":"memory_phase","broad_category":"I","image_png":"I_Diorite_15.png","image_id":47,"category_name":"Diorite","category":3,"distinct_rating":3.05,"distinct_type":"Bottom","rt":null,"stimulus":"Stimuli_Rocks480/I_Diorite_15.png","response":null,"trial_type":"image-keyboard-response","trial_index":91,"plugin_version":"2.1.0","time_elapsed":208899,"subject_id":"92128","group":"Group2","condition":"1_Rep","full_date":"2026-03-04T16:39:12.223Z","date":"2026-03-04","time":"16:39:12"},{"rt":null,"stimulus":"<p style=\"font-size: 50px; margin: 0; text-align: center;\">+</p>","response":null,"trial_type":"html-keyboard-response","trial_index":92,"plugin_version":"2.1.0","time_elapsed":209901,"subject_id":"92128","group":"Group2","condition":"1_Rep","full_date":"2026-03-04T16:39:12.223Z","date":"2026-03-04","time":"16:39:12"},{"task":"memory_phase","broad_category":"M","image_png":"M_Slate_04.png","image_id":308,"category_name":"Slate","category":20,"distinct_rating":2.2,"distinct_type":"Bottom","rt":null,"stimulus":"Stimuli_Rocks480/M_Slate_04.png","response":null,"trial_type":"image-keyboard-response","trial_index":93,"plugin_version":"2.1.0","time_elapsed":212414,"subject_id":"92128","group":"Group2","condition":"1_Rep","full_date":"2026-03-04T16:39:12.223Z","date":"2026-03-04","time":"16:39:12"},{"rt":null,"stimulus":"<p style=\"font-size: 50px; margin: 0; text-align: center;\">+</p>","response":null,"trial_type":"html-keyboard-response","trial_index":94,"plugin_version":"2.1.0","time_elapsed":213416,"subject_id":"92128","group":"Group2","condition":"1_Rep","full_date":"2026-03-04T16:39:12.223Z","date":"2026-03-04","time":"16:39:12"},{"task":"memory_phase","broad_category":"S","image_png":"S_Rock Salt_15.png","image_id":447,"category_name":"Rock Salt","category":28,"distinct_rating":7.79,"distinct_type":"Top","rt":null,"stimulus":"Stimuli_Rocks480/S_Rock Salt_15.png","response":null,"trial_type":"image-keyboard-response","trial_index":95,"plugin_version":"2.1.0","time_elapsed":215930,"subject_id":"92128","group":"Group2","condition":"1_Rep","full_date":"2026-03-04T16:39:12.223Z","date":"2026-03-04","time":"16:39:12"},{"rt":null,"stimulus":"<p style=\"font-size: 50px; margin: 0; text-align: center;\">+</p>","response":null,"trial_type":"html-keyboard-response","trial_index":96,"plugin_version":"2.1.0","time_elapsed":216932,"subject_id":"92128","group":"Group2","condition":"1_Rep","full_date":"2026-03-04T16:39:12.223Z","date":"2026-03-04","time":"16:39:12"},{"task":"memory_phase","broad_category":"I","image_png":"I_Rhyolite_05.png","image_id":149,"category_name":"Rhyolite","category":10,"distinct_rating":3.02,"distinct_type":"Bottom","rt":null,"stimulus":"Stimuli_Rocks480/I_Rhyolite_05.png","response":null,"trial_type":"image-keyboard-response","trial_index":97,"plugin_version":"2.1.0","time_elapsed":219449,"subject_id":"92128","group":"Group2","condition":"1_Rep","full_date":"2026-03-04T16:39:12.223Z","date":"2026-03-04","time":"16:39:12"},{"rt":null,"stimulus":"<p style=\"font-size: 50px; margin: 0; text-align: center;\">+</p>","response":null,"trial_type":"html-keyboard-response","trial_index":98,"plugin_version":"2.1.0","time_elapsed":220451,"subject_id":"92128","group":"Group2","condition":"1_Rep","full_date":"2026-03-04T16:39:12.223Z","date":"2026-03-04","time":"16:39:12"},{"task":"memory_phase","broad_category":"I","image_png":"I_Gabbro_14.png","image_id":62,"category_name":"Gabbro","category":4,"distinct_rating":2.95,"distinct_type":"Bottom","rt":null,"stimulus":"Stimuli_Rocks480/I_Gabbro_14.png","response":null,"trial_type":"image-keyboard-response","trial_index":99,"plugin_version":"2.1.0","time_elapsed":222965,"subject_id":"92128","group":"Group2","condition":"1_Rep","full_date":"2026-03-04T16:39:12.223Z","date":"2026-03-04","time":"16:39:12"},{"rt":null,"stimulus":"<p style=\"font-size: 50px; margin: 0; text-align: center;\">+</p>","response":null,"trial_type":"html-keyboard-response","trial_index":100,"plugin_version":"2.1.0","time_elapsed":223967,"subject_id":"92128","group":"Group2","condition":"1_Rep","full_date":"2026-03-04T16:39:12.223Z","date":"2026-03-04","time":"16:39:12"},{"task":"memory_phase","broad_category":"S","image_png":"S_Rock Salt_13.png","image_id":445,"category_name":"Rock Salt","category":28,"distinct_rating":7.58,"distinct_type":"Top","rt":null,"stimulus":"Stimuli_Rocks480/S_Rock Salt_13.png","response":null,"trial_type":"image-keyboard-response","trial_index":101,"plugin_version":"2.1.0","time_elapsed":226484,"subject_id":"92128","group":"Group2","condition":"1_Rep","full_date":"2026-03-04T16:39:12.223Z","date":"2026-03-04","time":"16:39:12"},{"rt":null,"stimulus":"<p style=\"font-size: 50px; margin: 0; text-align: center;\">+</p>","response":null,"trial_type":"html-keyboard-response","trial_index":102,"plugin_version":"2.1.0","time_elapsed":227486,"subject_id":"92128","group":"Group2","condition":"1_Rep","full_date":"2026-03-04T16:39:12.223Z","date":"2026-03-04","time":"16:39:12"},{"task":"memory_phase","broad_category":"I","image_png":"I_Rhyolite_08.png","image_id":152,"category_name":"Rhyolite","category":10,"distinct_rating":1.38,"distinct_type":"Bottom","rt":null,"stimulus":"Stimuli_Rocks480/I_Rhyolite_08.png","response":null,"trial_type":"image-keyboard-response","trial_index":103,"plugin_version":"2.1.0","time_elapsed":230001,"subject_id":"92128","group":"Group2","condition":"1_Rep","full_date":"2026-03-04T16:39:12.223Z","date":"2026-03-04","time":"16:39:12"},{"rt":null,"stimulus":"<p style=\"font-size: 50px; margin: 0; text-align: center;\">+</p>","response":null,"trial_type":"html-keyboard-response","trial_index":104,"plugin_version":"2.1.0","time_elapsed":231004,"subject_id":"92128","group":"Group2","condition":"1_Rep","full_date":"2026-03-04T16:39:12.223Z","date":"2026-03-04","time":"16:39:12"},{"task":"memory_phase","broad_category":"M","image_png":"M_Quartzite_07.png","image_id":279,"category_name":"Quartzite","category":18,"distinct_rating":1.97,"distinct_type":"Bottom","rt":null,"stimulus":"Stimuli_Rocks480/M_Quartzite_07.png","response":null,"trial_type":"image-keyboard-response","trial_index":105,"plugin_version":"2.1.0","time_elapsed":233521,"subject_id":"92128","group":"Group2","condition":"1_Rep","full_date":"2026-03-04T16:39:12.223Z","date":"2026-03-04","time":"16:39:12"},{"rt":2622,"stimulus":"<div style=\"max-width: 760px; margin: auto; font-size: 20px; line-height: 1.5;\">\n      <h1 style=\"text-align:center; font-size: 30px;\">Instructions for the Test Phase</h1>\n      <p>\n        The study phase is now complete.\n      </p>\n      <p>\n        In the test phase, you will again see a series of rock images. \n        Some will be ones you saw before - during the study phase, while others will be new.  \n        <b>Your task</b> is to decide whether you have seen each image before by pressing the corresponding key on your keyboard:<br><br>\n          <b>A</b> - NO (you did not see this image before)<br>\n          <b>L</b> - YES (you saw this image before)<br><br>\n        The test will proceed at your own pace. You will receive feedback after each response.  \n        Please try to respond <b>as accurately as possible</b>.\n      </p>\n      <p>\n        <b>Reminder:</b> If your computer has multiple language settings (e.g., English and another language),\n        please ensure it is set to English during the test phase.\n      </p>\n      <p>\n        You can track your progress using the <b>completion bar</b> at the top of the screen.  \n        Note that it has been refreshed to reflect your progress during this final phase.\n      </p>\n      <p>\n        Press the button below when you are ready to continue.\n      </p>\n    </div>","response":0,"trial_type":"html-button-response","trial_index":106,"plugin_version":"2.1.0","time_elapsed":236147,"subject_id":"92128","group":"Group2","condition":"1_Rep","full_date":"2026-03-04T16:39:12.223Z","date":"2026-03-04","time":"16:39:12"},{"correct_response":"a","task":"test_phase","broad_category":"I","image_png":"I_Gabbro_08.png","image_id":56,"category_name":"Gabbro","category":4,"distinct_rating":3.02,"distinct_type":"Bottom","item_type":"Foil","rt":4640,"stimulus":"Stimuli_Rocks480/I_Gabbro_08.png","response":"l","trial_type":"image-keyboard-response","trial_index":107,"plugin_version":"2.1.0","time_elapsed":240801,"subject_id":"92128","group":"Group2","condition":"1_Rep","full_date":"2026-03-04T16:39:12.223Z","date":"2026-03-04","time":"16:39:12","cor_ans":false},{"trial_type":"html-keyboard-response","rt":null,"stimulus":"<p style=\"color: red; font-size: 50px; font-weight: bold;\">Incorrect</p>","response":null,"trial_index":108,"plugin_version":"2.1.0","time_elapsed":241303,"subject_id":"92128","group":"Group2","condition":"1_Rep","full_date":"2026-03-04T16:39:12.223Z","date":"2026-03-04","time":"16:39:12"},{"correct_response":"a","task":"test_phase","broad_category":"I","image_png":"I_Diorite_05.png","image_id":37,"category_name":"Diorite","category":3,"distinct_rating":3.08,"distinct_type":"Bottom","item_type":"Foil","rt":4283,"stimulus":"Stimuli_Rocks480/I_Diorite_05.png","response":"a","trial_type":"image-keyboard-response","trial_index":109,"plugin_version":"2.1.0","time_elapsed":245601,"subject_id":"92128","group":"Group2","condition":"1_Rep","full_date":"2026-03-04T16:39:12.223Z","date":"2026-03-04","time":"16:39:12","cor_ans":true},{"trial_type":"html-keyboard-response","rt":null,"stimulus":"<p style=\"color: green; font-size: 50px; font-weight: bold;\">Correct</p>","response":null,"trial_index":110,"plugin_version":"2.1.0","time_elapsed":246104,"subject_id":"92128","group":"Group2","condition":"1_Rep","full_date":"2026-03-04T16:39:12.223Z","date":"2026-03-04","time":"16:39:12"},{"correct_response":"l","task":"test_phase","broad_category":"M","image_png":"M_Gneiss_15.png","image_id":207,"category_name":"Gneiss","category":13,"distinct_rating":3.11,"distinct_type":"Bottom","item_type":"Target","rt":2010,"stimulus":"Stimuli_Rocks480/M_Gneiss_15.png","response":"l","trial_type":"image-keyboard-response","trial_index":111,"plugin_version":"2.1.0","time_elapsed":248125,"subject_id":"92128","group":"Group2","condition":"1_Rep","full_date":"2026-03-04T16:39:12.223Z","date":"2026-03-04","time":"16:39:12","cor_ans":true},{"trial_type":"html-keyboard-response","rt":null,"stimulus":"<p style=\"color: green; font-size: 50px; font-weight: bold;\">Correct</p>","response":null,"trial_index":112,"plugin_version":"2.1.0","time_elapsed":248627,"subject_id":"92128","group":"Group2","condition":"1_Rep","full_date":"2026-03-04T16:39:12.223Z","date":"2026-03-04","time":"16:39:12"},{"correct_response":"a","task":"test_phase","broad_category":"M","image_png":"M_Quartzite_05.png","image_id":277,"category_name":"Quartzite","category":18,"distinct_rating":2.23,"distinct_type":"Bottom","item_type":"Foil","rt":1533,"stimulus":"Stimuli_Rocks480/M_Quartzite_05.png","response":"a","trial_type":"image-keyboard-response","trial_index":113,"plugin_version":"2.1.0","time_elapsed":250175,"subject_id":"92128","group":"Group2","condition":"1_Rep","full_date":"2026-03-04T16:39:12.223Z","date":"2026-03-04","time":"16:39:12","cor_ans":true},{"trial_type":"html-keyboard-response","rt":null,"stimulus":"<p style=\"color: green; font-size: 50px; font-weight: bold;\">Correct</p>","response":null,"trial_index":114,"plugin_version":"2.1.0","time_elapsed":250677,"subject_id":"92128","group":"Group2","condition":"1_Rep","full_date":"2026-03-04T16:39:12.223Z","date":"2026-03-04","time":"16:39:12"},{"correct_response":"l","task":"test_phase","broad_category":"S","image_png":"S_Chert_13.png","image_id":365,"category_name":"Chert","category":23,"distinct_rating":6.57,"distinct_type":"Top","item_type":"Target","rt":771,"stimulus":"Stimuli_Rocks480/S_Chert_13.png","response":"l","trial_type":"image-keyboard-response","trial_index":115,"plugin_version":"2.1.0","time_elapsed":251455,"subject_id":"92128","group":"Group2","condition":"1_Rep","full_date":"2026-03-04T16:39:12.223Z","date":"2026-03-04","time":"16:39:12","cor_ans":true},{"trial_type":"html-keyboard-response","rt":null,"stimulus":"<p style=\"color: green; font-size: 50px; font-weight: bold;\">Correct</p>","response":null,"trial_index":116,"plugin_version":"2.1.0","time_elapsed":251956,"subject_id":"92128","group":"Group2","condition":"1_Rep","full_date":"2026-03-04T16:39:12.223Z","date":"2026-03-04","time":"16:39:12"},{"correct_response":"l","task":"test_phase","broad_category":"I","image_png":"I_Pegmatite_11.png","image_id":107,"category_name":"Pegmatite","category":7,"distinct_rating":7.11,"distinct_type":"Top","item_type":"Target","rt":926,"stimulus":"Stimuli_Rocks480/I_Pegmatite_11.png","response":"a","trial_type":"image-keyboard-response","trial_index":117,"plugin_version":"2.1.0","time_elapsed":252896,"subject_id":"92128","group":"Group2","condition":"1_Rep","full_date":"2026-03-04T16:39:12.223Z","date":"2026-03-04","time":"16:39:12","cor_ans":false},{"trial_type":"html-keyboard-response","rt":null,"stimulus":"<p style=\"color: red; font-size: 50px; font-weight: bold;\">Incorrect</p>","response":null,"trial_index":118,"plugin_version":"2.1.0","time_elapsed":253398,"subject_id":"92128","group":"Group2","condition":"1_Rep","full_date":"2026-03-04T16:39:12.223Z","date":"2026-03-04","time":"16:39:12"},{"correct_response":"a","task":"test_phase","broad_category":"S","image_png":"S_Rock Salt_01.png","image_id":433,"category_name":"Rock Salt","category":28,"distinct_rating":7.18,"distinct_type":"Top","item_type":"Foil","rt":850,"stimulus":"Stimuli_Rocks480/S_Rock Salt_01.png","response":"l","trial_type":"image-keyboard-response","trial_index":119,"plugin_version":"2.1.0","time_elapsed":254261,"subject_id":"92128","group":"Group2","condition":"1_Rep","full_date":"2026-03-04T16:39:12.223Z","date":"2026-03-04","time":"16:39:12","cor_ans":false},{"trial_type":"html-keyboard-response","rt":null,"stimulus":"<p style=\"color: red; font-size: 50px; font-weight: bold;\">Incorrect</p>","response":null,"trial_index":120,"plugin_version":"2.1.0","time_elapsed":254763,"subject_id":"92128","group":"Group2","condition":"1_Rep","full_date":"2026-03-04T16:39:12.223Z","date":"2026-03-04","time":"16:39:12"},{"correct_response":"a","task":"test_phase","broad_category":"S","image_png":"S_Dolomite_12.png","image_id":396,"category_name":"Dolomite","category":25,"distinct_rating":1.85,"distinct_type":"Bottom","item_type":"Foil","rt":902,"stimulus":"Stimuli_Rocks480/S_Dolomite_12.png","response":"l","trial_type":"image-keyboard-response","trial_index":121,"plugin_version":"2.1.0","time_elapsed":255679,"subject_id":"92128","group":"Group2","condition":"1_Rep","full_date":"2026-03-04T16:39:12.223Z","date":"2026-03-04","time":"16:39:12","cor_ans":false},{"trial_type":"html-keyboard-response","rt":null,"stimulus":"<p style=\"color: red; font-size: 50px; font-weight: bold;\">Incorrect</p>","response":null,"trial_index":122,"plugin_version":"2.1.0","time_elapsed":256182,"subject_id":"92128","group":"Group2","condition":"1_Rep","full_date":"2026-03-04T16:39:12.223Z","date":"2026-03-04","time":"16:39:12"},{"correct_response":"l","task":"test_phase","broad_category":"I","image_png":"I_Pumice_01.png","image_id":129,"category_name":"Pumice","category":9,"distinct_rating":3.25,"distinct_type":"Bottom","item_type":"Target","rt":1071,"stimulus":"Stimuli_Rocks480/I_Pumice_01.png","response":"l","trial_type":"image-keyboard-response","trial_index":123,"plugin_version":"2.1.0","time_elapsed":257264,"subject_id":"92128","group":"Group2","condition":"1_Rep","full_date":"2026-03-04T16:39:12.223Z","date":"2026-03-04","time":"16:39:12","cor_ans":true},{"trial_type":"html-keyboard-response","rt":null,"stimulus":"<p style=\"color: green; font-size: 50px; font-weight: bold;\">Correct</p>","response":null,"trial_index":124,"plugin_version":"2.1.0","time_elapsed":257766,"subject_id":"92128","group":"Group2","condition":"1_Rep","full_date":"2026-03-04T16:39:12.223Z","date":"2026-03-04","time":"16:39:12"},{"correct_response":"l","task":"test_phase","broad_category":"I","image_png":"I_Andesite_09.png","image_id":9,"category_name":"Andesite","category":1,"distinct_rating":2.49,"distinct_type":"Bottom","item_type":"Target","rt":863,"stimulus":"Stimuli_Rocks480/I_Andesite_09.png","response":"l","trial_type":"image-keyboard-response","trial_index":125,"plugin_version":"2.1.0","time_elapsed":258639,"subject_id":"92128","group":"Group2","condition":"1_Rep","full_date":"2026-03-04T16:39:12.223Z","date":"2026-03-04","time":"16:39:12","cor_ans":true},{"trial_type":"html-keyboard-response","rt":null,"stimulus":"<p style=\"color: green; font-size: 50px; font-weight: bold;\">Correct</p>","response":null,"trial_index":126,"plugin_version":"2.1.0","time_elapsed":259142,"subject_id":"92128","group":"Group2","condition":"1_Rep","full_date":"2026-03-04T16:39:12.223Z","date":"2026-03-04","time":"16:39:12"},{"correct_response":"a","task":"test_phase","broad_category":"S","image_png":"S_Dolomite_13.png","image_id":397,"category_name":"Dolomite","category":25,"distinct_rating":1.77,"distinct_type":"Bottom","item_type":"Foil","rt":968,"stimulus":"Stimuli_Rocks480/S_Dolomite_13.png","response":"l","trial_type":"image-keyboard-response","trial_index":127,"plugin_version":"2.1.0","time_elapsed":260120,"subject_id":"92128","group":"Group2","condition":"1_Rep","full_date":"2026-03-04T16:39:12.223Z","date":"2026-03-04","time":"16:39:12","cor_ans":false},{"trial_type":"html-keyboard-response","rt":null,"stimulus":"<p style=\"color: red; font-size: 50px; font-weight: bold;\">Incorrect</p>","response":null,"trial_index":128,"plugin_version":"2.1.0","time_elapsed":260623,"subject_id":"92128","group":"Group2","condition":"1_Rep","full_date":"2026-03-04T16:39:12.223Z","date":"2026-03-04","time":"16:39:12"},{"correct_response":"a","task":"test_phase","broad_category":"S","image_png":"S_Chert_10.png","image_id":362,"category_name":"Chert","category":23,"distinct_rating":7.17,"distinct_type":"Top","item_type":"Foil","rt":880,"stimulus":"Stimuli_Rocks480/S_Chert_10.png","response":"l","trial_type":"image-keyboard-response","trial_index":129,"plugin_version":"2.1.0","time_elapsed":261512,"subject_id":"92128","group":"Group2","condition":"1_Rep","full_date":"2026-03-04T16:39:12.223Z","date":"2026-03-04","time":"16:39:12","cor_ans":false},{"trial_type":"html-keyboard-response","rt":null,"stimulus":"<p style=\"color: red; font-size: 50px; font-weight: bold;\">Incorrect</p>","response":null,"trial_index":130,"plugin_version":"2.1.0","time_elapsed":262015,"subject_id":"92128","group":"Group2","condition":"1_Rep","full_date":"2026-03-04T16:39:12.223Z","date":"2026-03-04","time":"16:39:12"},{"correct_response":"a","task":"test_phase","broad_category":"S","image_png":"S_Shale_01.png","image_id":465,"category_name":"Shale","category":30,"distinct_rating":2.7,"distinct_type":"Bottom","item_type":"Foil","rt":3282,"stimulus":"Stimuli_Rocks480/S_Shale_01.png","response":"l","trial_type":"image-keyboard-response","trial_index":131,"plugin_version":"2.1.0","time_elapsed":265307,"subject_id":"92128","group":"Group2","condition":"1_Rep","full_date":"2026-03-04T16:39:12.223Z","date":"2026-03-04","time":"16:39:12","cor_ans":false},{"trial_type":"html-keyboard-response","rt":null,"stimulus":"<p style=\"color: red; font-size: 50px; font-weight: bold;\">Incorrect</p>","response":null,"trial_index":132,"plugin_version":"2.1.0","time_elapsed":265809,"subject_id":"92128","group":"Group2","condition":"1_Rep","full_date":"2026-03-04T16:39:12.223Z","date":"2026-03-04","time":"16:39:12"},{"correct_response":"a","task":"test_phase","broad_category":"M","image_png":"M_Slate_11.png","image_id":315,"category_name":"Slate","category":20,"distinct_rating":2.75,"distinct_type":"Bottom","item_type":"Foil","rt":920,"stimulus":"Stimuli_Rocks480/M_Slate_11.png","response":"l","trial_type":"image-keyboard-response","trial_index":133,"plugin_version":"2.1.0","time_elapsed":266737,"subject_id":"92128","group":"Group2","condition":"1_Rep","full_date":"2026-03-04T16:39:12.223Z","date":"2026-03-04","time":"16:39:12","cor_ans":false},{"trial_type":"html-keyboard-response","rt":null,"stimulus":"<p style=\"color: red; font-size: 50px; font-weight: bold;\">Incorrect</p>","response":null,"trial_index":134,"plugin_version":"2.1.0","time_elapsed":267240,"subject_id":"92128","group":"Group2","condition":"1_Rep","full_date":"2026-03-04T16:39:12.223Z","date":"2026-03-04","time":"16:39:12"},{"correct_response":"a","task":"test_phase","broad_category":"I","image_png":"I_Pumice_08.png","image_id":136,"category_name":"Pumice","category":9,"distinct_rating":3.1,"distinct_type":"Bottom","item_type":"Foil","rt":2088,"stimulus":"Stimuli_Rocks480/I_Pumice_08.png","response":"a","trial_type":"image-keyboard-response","trial_index":135,"plugin_version":"2.1.0","time_elapsed":269337,"subject_id":"92128","group":"Group2","condition":"1_Rep","full_date":"2026-03-04T16:39:12.223Z","date":"2026-03-04","time":"16:39:12","cor_ans":true},{"trial_type":"html-keyboard-response","rt":null,"stimulus":"<p style=\"color: green; font-size: 50px; font-weight: bold;\">Correct</p>","response":null,"trial_index":136,"plugin_version":"2.1.0","time_elapsed":269839,"subject_id":"92128","group":"Group2","condition":"1_Rep","full_date":"2026-03-04T16:39:12.223Z","date":"2026-03-04","time":"16:39:12"},{"correct_response":"a","task":"test_phase","broad_category":"M","image_png":"M_Quartzite_08.png","image_id":280,"category_name":"Quartzite","category":18,"distinct_rating":2.15,"distinct_type":"Bottom","item_type":"Foil","rt":1040,"stimulus":"Stimuli_Rocks480/M_Quartzite_08.png","response":"a","trial_type":"image-keyboard-response","trial_index":137,"plugin_version":"2.1.0","time_elapsed":270890,"subject_id":"92128","group":"Group2","condition":"1_Rep","full_date":"2026-03-04T16:39:12.223Z","date":"2026-03-04","time":"16:39:12","cor_ans":true},{"trial_type":"html-keyboard-response","rt":null,"stimulus":"<p style=\"color: green; font-size: 50px; font-weight: bold;\">Correct</p>","response":null,"trial_index":138,"plugin_version":"2.1.0","time_elapsed":271393,"subject_id":"92128","group":"Group2","condition":"1_Rep","full_date":"2026-03-04T16:39:12.223Z","date":"2026-03-04","time":"16:39:12"},{"correct_response":"l","task":"test_phase","broad_category":"I","image_png":"I_Rhyolite_05.png","image_id":149,"category_name":"Rhyolite","category":10,"distinct_rating":3.02,"distinct_type":"Bottom","item_type":"Target","rt":870,"stimulus":"Stimuli_Rocks480/I_Rhyolite_05.png","response":"l","trial_type":"image-keyboard-response","trial_index":139,"plugin_version":"2.1.0","time_elapsed":272265,"subject_id":"92128","group":"Group2","condition":"1_Rep","full_date":"2026-03-04T16:39:12.223Z","date":"2026-03-04","time":"16:39:12","cor_ans":true},{"trial_type":"html-keyboard-response","rt":null,"stimulus":"<p style=\"color: green; font-size: 50px; font-weight: bold;\">Correct</p>","response":null,"trial_index":140,"plugin_version":"2.1.0","time_elapsed":272767,"subject_id":"92128","group":"Group2","condition":"1_Rep","full_date":"2026-03-04T16:39:12.223Z","date":"2026-03-04","time":"16:39:12"},{"correct_response":"l","task":"test_phase","broad_category":"M","image_png":"M_Quartzite_07.png","image_id":279,"category_name":"Quartzite","category":18,"distinct_rating":1.97,"distinct_type":"Bottom","item_type":"Target","rt":749,"stimulus":"Stimuli_Rocks480/M_Quartzite_07.png","response":"l","trial_type":"image-keyboard-response","trial_index":141,"plugin_version":"2.1.0","time_elapsed":273518,"subject_id":"92128","group":"Group2","condition":"1_Rep","full_date":"2026-03-04T16:39:12.223Z","date":"2026-03-04","time":"16:39:12","cor_ans":true},{"trial_type":"html-keyboard-response","rt":null,"stimulus":"<p style=\"color: green; font-size: 50px; font-weight: bold;\">Correct</p>","response":null,"trial_index":142,"plugin_version":"2.1.0","time_elapsed":274019,"subject_id":"92128","group":"Group2","condition":"1_Rep","full_date":"2026-03-04T16:39:12.223Z","date":"2026-03-04","time":"16:39:12"},{"correct_response":"l","task":"test_phase","broad_category":"S","image_png":"S_Rock Salt_13.png","image_id":445,"category_name":"Rock Salt","category":28,"distinct_rating":7.58,"distinct_type":"Top","item_type":"Target","rt":670,"stimulus":"Stimuli_Rocks480/S_Rock Salt_13.png","response":"l","trial_type":"image-keyboard-response","trial_index":143,"plugin_version":"2.1.0","time_elapsed":274691,"subject_id":"92128","group":"Group2","condition":"1_Rep","full_date":"2026-03-04T16:39:12.223Z","date":"2026-03-04","time":"16:39:12","cor_ans":true},{"trial_type":"html-keyboard-response","rt":null,"stimulus":"<p style=\"color: green; font-size: 50px; font-weight: bold;\">Correct</p>","response":null,"trial_index":144,"plugin_version":"2.1.0","time_elapsed":275193,"subject_id":"92128","group":"Group2","condition":"1_Rep","full_date":"2026-03-04T16:39:12.223Z","date":"2026-03-04","time":"16:39:12"},{"correct_response":"l","task":"test_phase","broad_category":"I","image_png":"I_Pumice_13.png","image_id":141,"category_name":"Pumice","category":9,"distinct_rating":3.12,"distinct_type":"Bottom","item_type":"Target","rt":1961,"stimulus":"Stimuli_Rocks480/I_Pumice_13.png","response":"a","trial_type":"image-keyboard-response","trial_index":145,"plugin_version":"2.1.0","time_elapsed":277169,"subject_id":"92128","group":"Group2","condition":"1_Rep","full_date":"2026-03-04T16:39:12.223Z","date":"2026-03-04","time":"16:39:12","cor_ans":false},{"trial_type":"html-keyboard-response","rt":null,"stimulus":"<p style=\"color: red; font-size: 50px; font-weight: bold;\">Incorrect</p>","response":null,"trial_index":146,"plugin_version":"2.1.0","time_elapsed":277671,"subject_id":"92128","group":"Group2","condition":"1_Rep","full_date":"2026-03-04T16:39:12.223Z","date":"2026-03-04","time":"16:39:12"},{"correct_response":"a","task":"test_phase","broad_category":"S","image_png":"S_Sandstone_15.png","image_id":463,"category_name":"Sandstone","category":29,"distinct_rating":2,"distinct_type":"Bottom","item_type":"Foil","rt":783,"stimulus":"Stimuli_Rocks480/S_Sandstone_15.png","response":"l","trial_type":"image-keyboard-response","trial_index":147,"plugin_version":"2.1.0","time_elapsed":278468,"subject_id":"92128","group":"Group2","condition":"1_Rep","full_date":"2026-03-04T16:39:12.223Z","date":"2026-03-04","time":"16:39:12","cor_ans":false},{"trial_type":"html-keyboard-response","rt":null,"stimulus":"<p style=\"color: red; font-size: 50px; font-weight: bold;\">Incorrect</p>","response":null,"trial_index":148,"plugin_version":"2.1.0","time_elapsed":278970,"subject_id":"92128","group":"Group2","condition":"1_Rep","full_date":"2026-03-04T16:39:12.223Z","date":"2026-03-04","time":"16:39:12"},{"correct_response":"a","task":"test_phase","broad_category":"I","image_png":"I_Diorite_03.png","image_id":35,"category_name":"Diorite","category":3,"distinct_rating":3.14,"distinct_type":"Bottom","item_type":"Foil","rt":553,"stimulus":"Stimuli_Rocks480/I_Diorite_03.png","response":"l","trial_type":"image-keyboard-response","trial_index":149,"plugin_version":"2.1.0","time_elapsed":279538,"subject_id":"92128","group":"Group2","condition":"1_Rep","full_date":"2026-03-04T16:39:12.223Z","date":"2026-03-04","time":"16:39:12","cor_ans":false},{"trial_type":"html-keyboard-response","rt":null,"stimulus":"<p style=\"color: red; font-size: 50px; font-weight: bold;\">Incorrect</p>","response":null,"trial_index":150,"plugin_version":"2.1.0","time_elapsed":280040,"subject_id":"92128","group":"Group2","condition":"1_Rep","full_date":"2026-03-04T16:39:12.223Z","date":"2026-03-04","time":"16:39:12"},{"correct_response":"l","task":"test_phase","broad_category":"M","image_png":"M_Slate_14.png","image_id":318,"category_name":"Slate","category":20,"distinct_rating":2.58,"distinct_type":"Bottom","item_type":"Target","rt":696,"stimulus":"Stimuli_Rocks480/M_Slate_14.png","response":"l","trial_type":"image-keyboard-response","trial_index":151,"plugin_version":"2.1.0","time_elapsed":280747,"subject_id":"92128","group":"Group2","condition":"1_Rep","full_date":"2026-03-04T16:39:12.223Z","date":"2026-03-04","time":"16:39:12","cor_ans":true},{"trial_type":"html-keyboard-response","rt":null,"stimulus":"<p style=\"color: green; font-size: 50px; font-weight: bold;\">Correct</p>","response":null,"trial_index":152,"plugin_version":"2.1.0","time_elapsed":281249,"subject_id":"92128","group":"Group2","condition":"1_Rep","full_date":"2026-03-04T16:39:12.223Z","date":"2026-03-04","time":"16:39:12"},{"correct_response":"a","task":"test_phase","broad_category":"I","image_png":"I_Basalt_01.png","image_id":17,"category_name":"Basalt","category":2,"distinct_rating":1.92,"distinct_type":"Bottom","item_type":"Foil","rt":1121,"stimulus":"Stimuli_Rocks480/I_Basalt_01.png","response":"l","trial_type":"image-keyboard-response","trial_index":153,"plugin_version":"2.1.0","time_elapsed":282389,"subject_id":"92128","group":"Group2","condition":"1_Rep","full_date":"2026-03-04T16:39:12.223Z","date":"2026-03-04","time":"16:39:12","cor_ans":false},{"trial_type":"html-keyboard-response","rt":null,"stimulus":"<p style=\"color: red; font-size: 50px; font-weight: bold;\">Incorrect</p>","response":null,"trial_index":154,"plugin_version":"2.1.0","time_elapsed":282891,"subject_id":"92128","group":"Group2","condition":"1_Rep","full_date":"2026-03-04T16:39:12.223Z","date":"2026-03-04","time":"16:39:12"},{"correct_response":"l","task":"test_phase","broad_category":"M","image_png":"M_Quartzite_15.png","image_id":287,"category_name":"Quartzite","category":18,"distinct_rating":2.19,"distinct_type":"Bottom","item_type":"Target","rt":665,"stimulus":"Stimuli_Rocks480/M_Quartzite_15.png","response":"a","trial_type":"image-keyboard-response","trial_index":155,"plugin_version":"2.1.0","time_elapsed":283572,"subject_id":"92128","group":"Group2","condition":"1_Rep","full_date":"2026-03-04T16:39:12.223Z","date":"2026-03-04","time":"16:39:12","cor_ans":false},{"trial_type":"html-keyboard-response","rt":null,"stimulus":"<p style=\"color: red; font-size: 50px; font-weight: bold;\">Incorrect</p>","response":null,"trial_index":156,"plugin_version":"2.1.0","time_elapsed":284075,"subject_id":"92128","group":"Group2","condition":"1_Rep","full_date":"2026-03-04T16:39:12.223Z","date":"2026-03-04","time":"16:39:12"},{"correct_response":"a","task":"test_phase","broad_category":"M","image_png":"M_Phyllite_03.png","image_id":259,"category_name":"Phyllite","category":17,"distinct_rating":2.5,"distinct_type":"Bottom","item_type":"Foil","rt":645,"stimulus":"Stimuli_Rocks480/M_Phyllite_03.png","response":"l","trial_type":"image-keyboard-response","trial_index":157,"plugin_version":"2.1.0","time_elapsed":284734,"subject_id":"92128","group":"Group2","condition":"1_Rep","full_date":"2026-03-04T16:39:12.223Z","date":"2026-03-04","time":"16:39:12","cor_ans":false},{"trial_type":"html-keyboard-response","rt":null,"stimulus":"<p style=\"color: red; font-size: 50px; font-weight: bold;\">Incorrect</p>","response":null,"trial_index":158,"plugin_version":"2.1.0","time_elapsed":285237,"subject_id":"92128","group":"Group2","condition":"1_Rep","full_date":"2026-03-04T16:39:12.223Z","date":"2026-03-04","time":"16:39:12"},{"correct_response":"l","task":"test_phase","broad_category":"S","image_png":"S_Dolomite_07.png","image_id":391,"category_name":"Dolomite","category":25,"distinct_rating":1.73,"distinct_type":"Bottom","item_type":"Target","rt":1434,"stimulus":"Stimuli_Rocks480/S_Dolomite_07.png","response":"a","trial_type":"image-keyboard-response","trial_index":159,"plugin_version":"2.1.0","time_elapsed":286685,"subject_id":"92128","group":"Group2","condition":"1_Rep","full_date":"2026-03-04T16:39:12.223Z","date":"2026-03-04","time":"16:39:12","cor_ans":false},{"trial_type":"html-keyboard-response","rt":null,"stimulus":"<p style=\"color: red; font-size: 50px; font-weight: bold;\">Incorrect</p>","response":null,"trial_index":160,"plugin_version":"2.1.0","time_elapsed":287187,"subject_id":"92128","group":"Group2","condition":"1_Rep","full_date":"2026-03-04T16:39:12.223Z","date":"2026-03-04","time":"16:39:12"},{"correct_response":"l","task":"test_phase","broad_category":"I","image_png":"I_Rhyolite_10.png","image_id":154,"category_name":"Rhyolite","category":10,"distinct_rating":2.88,"distinct_type":"Bottom","item_type":"Target","rt":1125,"stimulus":"Stimuli_Rocks480/I_Rhyolite_10.png","response":"a","trial_type":"image-keyboard-response","trial_index":161,"plugin_version":"2.1.0","time_elapsed":288334,"subject_id":"92128","group":"Group2","condition":"1_Rep","full_date":"2026-03-04T16:39:12.223Z","date":"2026-03-04","time":"16:39:12","cor_ans":false},{"trial_type":"html-keyboard-response","rt":null,"stimulus":"<p style=\"color: red; font-size: 50px; font-weight: bold;\">Incorrect</p>","response":null,"trial_index":162,"plugin_version":"2.1.0","time_elapsed":288836,"subject_id":"92128","group":"Group2","condition":"1_Rep","full_date":"2026-03-04T16:39:12.223Z","date":"2026-03-04","time":"16:39:12"},{"correct_response":"l","task":"test_phase","broad_category":"M","image_png":"M_Phyllite_05.png","image_id":261,"category_name":"Phyllite","category":17,"distinct_rating":2.14,"distinct_type":"Bottom","item_type":"Target","rt":810,"stimulus":"Stimuli_Rocks480/M_Phyllite_05.png","response":"l","trial_type":"image-keyboard-response","trial_index":163,"plugin_version":"2.1.0","time_elapsed":289660,"subject_id":"92128","group":"Group2","condition":"1_Rep","full_date":"2026-03-04T16:39:12.223Z","date":"2026-03-04","time":"16:39:12","cor_ans":true},{"trial_type":"html-keyboard-response","rt":null,"stimulus":"<p style=\"color: green; font-size: 50px; font-weight: bold;\">Correct</p>","response":null,"trial_index":164,"plugin_version":"2.1.0","time_elapsed":290162,"subject_id":"92128","group":"Group2","condition":"1_Rep","full_date":"2026-03-04T16:39:12.223Z","date":"2026-03-04","time":"16:39:12"},{"correct_response":"l","task":"test_phase","broad_category":"I","image_png":"I_Basalt_10.png","image_id":26,"category_name":"Basalt","category":2,"distinct_rating":2.76,"distinct_type":"Bottom","item_type":"Target","rt":2672,"stimulus":"Stimuli_Rocks480/I_Basalt_10.png","response":"l","trial_type":"image-keyboard-response","trial_index":165,"plugin_version":"2.1.0","time_elapsed":292850,"subject_id":"92128","group":"Group2","condition":"1_Rep","full_date":"2026-03-04T16:39:12.223Z","date":"2026-03-04","time":"16:39:12","cor_ans":true},{"trial_type":"html-keyboard-response","rt":null,"stimulus":"<p style=\"color: green; font-size: 50px; font-weight: bold;\">Correct</p>","response":null,"trial_index":166,"plugin_version":"2.1.0","time_elapsed":293353,"subject_id":"92128","group":"Group2","condition":"1_Rep","full_date":"2026-03-04T16:39:12.223Z","date":"2026-03-04","time":"16:39:12"},{"correct_response":"l","task":"test_phase","broad_category":"I","image_png":"I_Basalt_08.png","image_id":24,"category_name":"Basalt","category":2,"distinct_rating":2.31,"distinct_type":"Bottom","item_type":"Target","rt":1357,"stimulus":"Stimuli_Rocks480/I_Basalt_08.png","response":"a","trial_type":"image-keyboard-response","trial_index":167,"plugin_version":"2.1.0","time_elapsed":294728,"subject_id":"92128","group":"Group2","condition":"1_Rep","full_date":"2026-03-04T16:39:12.223Z","date":"2026-03-04","time":"16:39:12","cor_ans":false},{"trial_type":"html-keyboard-response","rt":null,"stimulus":"<p style=\"color: red; font-size: 50px; font-weight: bold;\">Incorrect</p>","response":null,"trial_index":168,"plugin_version":"2.1.0","time_elapsed":295231,"subject_id":"92128","group":"Group2","condition":"1_Rep","full_date":"2026-03-04T16:39:12.223Z","date":"2026-03-04","time":"16:39:12"},{"correct_response":"a","task":"test_phase","broad_category":"M","image_png":"M_Marble_06.png","image_id":230,"category_name":"Marble","category":15,"distinct_rating":3.4,"distinct_type":"Bottom","item_type":"Foil","rt":1162,"stimulus":"Stimuli_Rocks480/M_Marble_06.png","response":"l","trial_type":"image-keyboard-response","trial_index":169,"plugin_version":"2.1.0","time_elapsed":296407,"subject_id":"92128","group":"Group2","condition":"1_Rep","full_date":"2026-03-04T16:39:12.223Z","date":"2026-03-04","time":"16:39:12","cor_ans":false},{"trial_type":"html-keyboard-response","rt":null,"stimulus":"<p style=\"color: red; font-size: 50px; font-weight: bold;\">Incorrect</p>","response":null,"trial_index":170,"plugin_version":"2.1.0","time_elapsed":296909,"subject_id":"92128","group":"Group2","condition":"1_Rep","full_date":"2026-03-04T16:39:12.223Z","date":"2026-03-04","time":"16:39:12"},{"correct_response":"a","task":"test_phase","broad_category":"I","image_png":"I_Pumice_11.png","image_id":139,"category_name":"Pumice","category":9,"distinct_rating":1.74,"distinct_type":"Bottom","item_type":"Foil","rt":1410,"stimulus":"Stimuli_Rocks480/I_Pumice_11.png","response":"a","trial_type":"image-keyboard-response","trial_index":171,"plugin_version":"2.1.0","time_elapsed":298328,"subject_id":"92128","group":"Group2","condition":"1_Rep","full_date":"2026-03-04T16:39:12.223Z","date":"2026-03-04","time":"16:39:12","cor_ans":true},{"trial_type":"html-keyboard-response","rt":null,"stimulus":"<p style=\"color: green; font-size: 50px; font-weight: bold;\">Correct</p>","response":null,"trial_index":172,"plugin_version":"2.1.0","time_elapsed":298830,"subject_id":"92128","group":"Group2","condition":"1_Rep","full_date":"2026-03-04T16:39:12.223Z","date":"2026-03-04","time":"16:39:12"},{"correct_response":"l","task":"test_phase","broad_category":"S","image_png":"S_Rock Salt_15.png","image_id":447,"category_name":"Rock Salt","category":28,"distinct_rating":7.79,"distinct_type":"Top","item_type":"Target","rt":788,"stimulus":"Stimuli_Rocks480/S_Rock Salt_15.png","response":"l","trial_type":"image-keyboard-response","trial_index":173,"plugin_version":"2.1.0","time_elapsed":299631,"subject_id":"92128","group":"Group2","condition":"1_Rep","full_date":"2026-03-04T16:39:12.223Z","date":"2026-03-04","time":"16:39:12","cor_ans":true},{"trial_type":"html-keyboard-response","rt":null,"stimulus":"<p style=\"color: green; font-size: 50px; font-weight: bold;\">Correct</p>","response":null,"trial_index":174,"plugin_version":"2.1.0","time_elapsed":300134,"subject_id":"92128","group":"Group2","condition":"1_Rep","full_date":"2026-03-04T16:39:12.223Z","date":"2026-03-04","time":"16:39:12"},{"correct_response":"a","task":"test_phase","broad_category":"I","image_png":"I_Pegmatite_16.png","image_id":112,"category_name":"Pegmatite","category":7,"distinct_rating":7.03,"distinct_type":"Top","item_type":"Foil","rt":1020,"stimulus":"Stimuli_Rocks480/I_Pegmatite_16.png","response":"a","trial_type":"image-keyboard-response","trial_index":175,"plugin_version":"2.1.0","time_elapsed":301168,"subject_id":"92128","group":"Group2","condition":"1_Rep","full_date":"2026-03-04T16:39:12.223Z","date":"2026-03-04","time":"16:39:12","cor_ans":true},{"trial_type":"html-keyboard-response","rt":null,"stimulus":"<p style=\"color: green; font-size: 50px; font-weight: bold;\">Correct</p>","response":null,"trial_index":176,"plugin_version":"2.1.0","time_elapsed":301670,"subject_id":"92128","group":"Group2","condition":"1_Rep","full_date":"2026-03-04T16:39:12.223Z","date":"2026-03-04","time":"16:39:12"},{"correct_response":"a","task":"test_phase","broad_category":"I","image_png":"I_Diorite_04.png","image_id":36,"category_name":"Diorite","category":3,"distinct_rating":2.98,"distinct_type":"Bottom","item_type":"Foil","rt":1658,"stimulus":"Stimuli_Rocks480/I_Diorite_04.png","response":"l","trial_type":"image-keyboard-response","trial_index":177,"plugin_version":"2.1.0","time_elapsed":303343,"subject_id":"92128","group":"Group2","condition":"1_Rep","full_date":"2026-03-04T16:39:12.223Z","date":"2026-03-04","time":"16:39:12","cor_ans":false},{"trial_type":"html-keyboard-response","rt":null,"stimulus":"<p style=\"color: red; font-size: 50px; font-weight: bold;\">Incorrect</p>","response":null,"trial_index":178,"plugin_version":"2.1.0","time_elapsed":303845,"subject_id":"92128","group":"Group2","condition":"1_Rep","full_date":"2026-03-04T16:39:12.223Z","date":"2026-03-04","time":"16:39:12"},{"correct_response":"l","task":"test_phase","broad_category":"I","image_png":"I_Basalt_13.png","image_id":29,"category_name":"Basalt","category":2,"distinct_rating":2.68,"distinct_type":"Bottom","item_type":"Target","rt":2525,"stimulus":"Stimuli_Rocks480/I_Basalt_13.png","response":"a","trial_type":"image-keyboard-response","trial_index":179,"plugin_version":"2.1.0","time_elapsed":306382,"subject_id":"92128","group":"Group2","condition":"1_Rep","full_date":"2026-03-04T16:39:12.223Z","date":"2026-03-04","time":"16:39:12","cor_ans":false},{"trial_type":"html-keyboard-response","rt":null,"stimulus":"<p style=\"color: red; font-size: 50px; font-weight: bold;\">Incorrect</p>","response":null,"trial_index":180,"plugin_version":"2.1.0","time_elapsed":306884,"subject_id":"92128","group":"Group2","condition":"1_Rep","full_date":"2026-03-04T16:39:12.223Z","date":"2026-03-04","time":"16:39:12"},{"correct_response":"l","task":"test_phase","broad_category":"M","image_png":"M_Gneiss_10.png","image_id":202,"category_name":"Gneiss","category":13,"distinct_rating":3.09,"distinct_type":"Bottom","item_type":"Target","rt":3790,"stimulus":"Stimuli_Rocks480/M_Gneiss_10.png","response":"l","trial_type":"image-keyboard-response","trial_index":181,"plugin_version":"2.1.0","time_elapsed":310689,"subject_id":"92128","group":"Group2","condition":"1_Rep","full_date":"2026-03-04T16:39:12.223Z","date":"2026-03-04","time":"16:39:12","cor_ans":true},{"trial_type":"html-keyboard-response","rt":null,"stimulus":"<p style=\"color: green; font-size: 50px; font-weight: bold;\">Correct</p>","response":null,"trial_index":182,"plugin_version":"2.1.0","time_elapsed":311190,"subject_id":"92128","group":"Group2","condition":"1_Rep","full_date":"2026-03-04T16:39:12.223Z","date":"2026-03-04","time":"16:39:12"},{"correct_response":"a","task":"test_phase","broad_category":"I","image_png":"I_Andesite_10.png","image_id":10,"category_name":"Andesite","category":1,"distinct_rating":3.15,"distinct_type":"Bottom","item_type":"Foil","rt":1039,"stimulus":"Stimuli_Rocks480/I_Andesite_10.png","response":"a","trial_type":"image-keyboard-response","trial_index":183,"plugin_version":"2.1.0","time_elapsed":312238,"subject_id":"92128","group":"Group2","condition":"1_Rep","full_date":"2026-03-04T16:39:12.223Z","date":"2026-03-04","time":"16:39:12","cor_ans":true},{"trial_type":"html-keyboard-response","rt":null,"stimulus":"<p style=\"color: green; font-size: 50px; font-weight: bold;\">Correct</p>","response":null,"trial_index":184,"plugin_version":"2.1.0","time_elapsed":312740,"subject_id":"92128","group":"Group2","condition":"1_Rep","full_date":"2026-03-04T16:39:12.223Z","date":"2026-03-04","time":"16:39:12"},{"correct_response":"a","task":"test_phase","broad_category":"I","image_png":"I_Rhyolite_16.png","image_id":160,"category_name":"Rhyolite","category":10,"distinct_rating":2.19,"distinct_type":"Bottom","item_type":"Foil","rt":828,"stimulus":"Stimuli_Rocks480/I_Rhyolite_16.png","response":"a","trial_type":"image-keyboard-response","trial_index":185,"plugin_version":"2.1.0","time_elapsed":313580,"subject_id":"92128","group":"Group2","condition":"1_Rep","full_date":"2026-03-04T16:39:12.223Z","date":"2026-03-04","time":"16:39:12","cor_ans":true},{"trial_type":"html-keyboard-response","rt":null,"stimulus":"<p style=\"color: green; font-size: 50px; font-weight: bold;\">Correct</p>","response":null,"trial_index":186,"plugin_version":"2.1.0","time_elapsed":314082,"subject_id":"92128","group":"Group2","condition":"1_Rep","full_date":"2026-03-04T16:39:12.223Z","date":"2026-03-04","time":"16:39:12"},{"correct_response":"a","task":"test_phase","broad_category":"M","image_png":"M_Gneiss_05.png","image_id":197,"category_name":"Gneiss","category":13,"distinct_rating":2.97,"distinct_type":"Bottom","item_type":"Foil","rt":722,"stimulus":"Stimuli_Rocks480/M_Gneiss_05.png","response":"a","trial_type":"image-keyboard-response","trial_index":187,"plugin_version":"2.1.0","time_elapsed":314823,"subject_id":"92128","group":"Group2","condition":"1_Rep","full_date":"2026-03-04T16:39:12.223Z","date":"2026-03-04","time":"16:39:12","cor_ans":true},{"trial_type":"html-keyboard-response","rt":null,"stimulus":"<p style=\"color: green; font-size: 50px; font-weight: bold;\">Correct</p>","response":null,"trial_index":188,"plugin_version":"2.1.0","time_elapsed":315325,"subject_id":"92128","group":"Group2","condition":"1_Rep","full_date":"2026-03-04T16:39:12.223Z","date":"2026-03-04","time":"16:39:12"},{"correct_response":"l","task":"test_phase","broad_category":"S","image_png":"S_Dolomite_01.png","image_id":385,"category_name":"Dolomite","category":25,"distinct_rating":1.43,"distinct_type":"Bottom","item_type":"Target","rt":1484,"stimulus":"Stimuli_Rocks480/S_Dolomite_01.png","response":"l","trial_type":"image-keyboard-response","trial_index":189,"plugin_version":"2.1.0","time_elapsed":316823,"subject_id":"92128","group":"Group2","condition":"1_Rep","full_date":"2026-03-04T16:39:12.223Z","date":"2026-03-04","time":"16:39:12","cor_ans":true},{"trial_type":"html-keyboard-response","rt":null,"stimulus":"<p style=\"color: green; font-size: 50px; font-weight: bold;\">Correct</p>","response":null,"trial_index":190,"plugin_version":"2.1.0","time_elapsed":317325,"subject_id":"92128","group":"Group2","condition":"1_Rep","full_date":"2026-03-04T16:39:12.223Z","date":"2026-03-04","time":"16:39:12"},{"correct_response":"l","task":"test_phase","broad_category":"S","image_png":"S_Sandstone_11.png","image_id":459,"category_name":"Sandstone","category":29,"distinct_rating":1.82,"distinct_type":"Bottom","item_type":"Target","rt":881,"stimulus":"Stimuli_Rocks480/S_Sandstone_11.png","response":"a","trial_type":"image-keyboard-response","trial_index":191,"plugin_version":"2.1.0","time_elapsed":318223,"subject_id":"92128","group":"Group2","condition":"1_Rep","full_date":"2026-03-04T16:39:12.223Z","date":"2026-03-04","time":"16:39:12","cor_ans":false},{"trial_type":"html-keyboard-response","rt":null,"stimulus":"<p style=\"color: red; font-size: 50px; font-weight: bold;\">Incorrect</p>","response":null,"trial_index":192,"plugin_version":"2.1.0","time_elapsed":318725,"subject_id":"92128","group":"Group2","condition":"1_Rep","full_date":"2026-03-04T16:39:12.223Z","date":"2026-03-04","time":"16:39:12"},{"correct_response":"a","task":"test_phase","broad_category":"I","image_png":"I_Andesite_08.png","image_id":8,"category_name":"Andesite","category":1,"distinct_rating":1.95,"distinct_type":"Bottom","item_type":"Foil","rt":889,"stimulus":"Stimuli_Rocks480/I_Andesite_08.png","response":"a","trial_type":"image-keyboard-response","trial_index":193,"plugin_version":"2.1.0","time_elapsed":319627,"subject_id":"92128","group":"Group2","condition":"1_Rep","full_date":"2026-03-04T16:39:12.223Z","date":"2026-03-04","time":"16:39:12","cor_ans":true},{"trial_type":"html-keyboard-response","rt":null,"stimulus":"<p style=\"color: green; font-size: 50px; font-weight: bold;\">Correct</p>","response":null,"trial_index":194,"plugin_version":"2.1.0","time_elapsed":320129,"subject_id":"92128","group":"Group2","condition":"1_Rep","full_date":"2026-03-04T16:39:12.223Z","date":"2026-03-04","time":"16:39:12"},{"correct_response":"l","task":"test_phase","broad_category":"M","image_png":"M_Marble_14.png","image_id":238,"category_name":"Marble","category":15,"distinct_rating":3.31,"distinct_type":"Bottom","item_type":"Target","rt":1005,"stimulus":"Stimuli_Rocks480/M_Marble_14.png","response":"a","trial_type":"image-keyboard-response","trial_index":195,"plugin_version":"2.1.0","time_elapsed":321148,"subject_id":"92128","group":"Group2","condition":"1_Rep","full_date":"2026-03-04T16:39:12.223Z","date":"2026-03-04","time":"16:39:12","cor_ans":false},{"trial_type":"html-keyboard-response","rt":null,"stimulus":"<p style=\"color: red; font-size: 50px; font-weight: bold;\">Incorrect</p>","response":null,"trial_index":196,"plugin_version":"2.1.0","time_elapsed":321649,"subject_id":"92128","group":"Group2","condition":"1_Rep","full_date":"2026-03-04T16:39:12.223Z","date":"2026-03-04","time":"16:39:12"},{"correct_response":"a","task":"test_phase","broad_category":"S","image_png":"S_Sandstone_03.png","image_id":451,"category_name":"Sandstone","category":29,"distinct_rating":1.86,"distinct_type":"Bottom","item_type":"Foil","rt":841,"stimulus":"Stimuli_Rocks480/S_Sandstone_03.png","response":"a","trial_type":"image-keyboard-response","trial_index":197,"plugin_version":"2.1.0","time_elapsed":322502,"subject_id":"92128","group":"Group2","condition":"1_Rep","full_date":"2026-03-04T16:39:12.223Z","date":"2026-03-04","time":"16:39:12","cor_ans":true},{"trial_type":"html-keyboard-response","rt":null,"stimulus":"<p style=\"color: green; font-size: 50px; font-weight: bold;\">Correct</p>","response":null,"trial_index":198,"plugin_version":"2.1.0","time_elapsed":323004,"subject_id":"92128","group":"Group2","condition":"1_Rep","full_date":"2026-03-04T16:39:12.223Z","date":"2026-03-04","time":"16:39:12"},{"correct_response":"l","task":"test_phase","broad_category":"M","image_png":"M_Slate_10.png","image_id":314,"category_name":"Slate","category":20,"distinct_rating":1.94,"distinct_type":"Bottom","item_type":"Target","rt":1339,"stimulus":"Stimuli_Rocks480/M_Slate_10.png","response":"a","trial_type":"image-keyboard-response","trial_index":199,"plugin_version":"2.1.0","time_elapsed":324353,"subject_id":"92128","group":"Group2","condition":"1_Rep","full_date":"2026-03-04T16:39:12.223Z","date":"2026-03-04","time":"16:39:12","cor_ans":false},{"trial_type":"html-keyboard-response","rt":null,"stimulus":"<p style=\"color: red; font-size: 50px; font-weight: bold;\">Incorrect</p>","response":null,"trial_index":200,"plugin_version":"2.1.0","time_elapsed":324855,"subject_id":"92128","group":"Group2","condition":"1_Rep","full_date":"2026-03-04T16:39:12.223Z","date":"2026-03-04","time":"16:39:12"},{"correct_response":"a","task":"test_phase","broad_category":"S","image_png":"S_Breccia_11.png","image_id":347,"category_name":"Breccia","category":22,"distinct_rating":6.7,"distinct_type":"Top","item_type":"Foil","rt":864,"stimulus":"Stimuli_Rocks480/S_Breccia_11.png","response":"a","trial_type":"image-keyboard-response","trial_index":201,"plugin_version":"2.1.0","time_elapsed":325738,"subject_id":"92128","group":"Group2","condition":"1_Rep","full_date":"2026-03-04T16:39:12.223Z","date":"2026-03-04","time":"16:39:12","cor_ans":true},{"trial_type":"html-keyboard-response","rt":null,"stimulus":"<p style=\"color: green; font-size: 50px; font-weight: bold;\">Correct</p>","response":null,"trial_index":202,"plugin_version":"2.1.0","time_elapsed":326240,"subject_id":"92128","group":"Group2","condition":"1_Rep","full_date":"2026-03-04T16:39:12.223Z","date":"2026-03-04","time":"16:39:12"},{"correct_response":"l","task":"test_phase","broad_category":"S","image_png":"S_Shale_02.png","image_id":466,"category_name":"Shale","category":30,"distinct_rating":2.9,"distinct_type":"Bottom","item_type":"Target","rt":1049,"stimulus":"Stimuli_Rocks480/S_Shale_02.png","response":"a","trial_type":"image-keyboard-response","trial_index":203,"plugin_version":"2.1.0","time_elapsed":327299,"subject_id":"92128","group":"Group2","condition":"1_Rep","full_date":"2026-03-04T16:39:12.223Z","date":"2026-03-04","time":"16:39:12","cor_ans":false},{"trial_type":"html-keyboard-response","rt":null,"stimulus":"<p style=\"color: red; font-size: 50px; font-weight: bold;\">Incorrect</p>","response":null,"trial_index":204,"plugin_version":"2.1.0","time_elapsed":327801,"subject_id":"92128","group":"Group2","condition":"1_Rep","full_date":"2026-03-04T16:39:12.223Z","date":"2026-03-04","time":"16:39:12"},{"correct_response":"l","task":"test_phase","broad_category":"S","image_png":"S_Sandstone_04.png","image_id":452,"category_name":"Sandstone","category":29,"distinct_rating":1.8,"distinct_type":"Bottom","item_type":"Target","rt":594,"stimulus":"Stimuli_Rocks480/S_Sandstone_04.png","response":"l","trial_type":"image-keyboard-response","trial_index":205,"plugin_version":"2.1.0","time_elapsed":328406,"subject_id":"92128","group":"Group2","condition":"1_Rep","full_date":"2026-03-04T16:39:12.223Z","date":"2026-03-04","time":"16:39:12","cor_ans":true},{"trial_type":"html-keyboard-response","rt":null,"stimulus":"<p style=\"color: green; font-size: 50px; font-weight: bold;\">Correct</p>","response":null,"trial_index":206,"plugin_version":"2.1.0","time_elapsed":328908,"subject_id":"92128","group":"Group2","condition":"1_Rep","full_date":"2026-03-04T16:39:12.223Z","date":"2026-03-04","time":"16:39:12"},{"correct_response":"l","task":"test_phase","broad_category":"M","image_png":"M_Quartzite_12.png","image_id":284,"category_name":"Quartzite","category":18,"distinct_rating":1.92,"distinct_type":"Bottom","item_type":"Target","rt":1572,"stimulus":"Stimuli_Rocks480/M_Quartzite_12.png","response":"a","trial_type":"image-keyboard-response","trial_index":207,"plugin_version":"2.1.0","time_elapsed":330490,"subject_id":"92128","group":"Group2","condition":"1_Rep","full_date":"2026-03-04T16:39:12.223Z","date":"2026-03-04","time":"16:39:12","cor_ans":false},{"trial_type":"html-keyboard-response","rt":null,"stimulus":"<p style=\"color: red; font-size: 50px; font-weight: bold;\">Incorrect</p>","response":null,"trial_index":208,"plugin_version":"2.1.0","time_elapsed":330992,"subject_id":"92128","group":"Group2","condition":"1_Rep","full_date":"2026-03-04T16:39:12.223Z","date":"2026-03-04","time":"16:39:12"},{"correct_response":"a","task":"test_phase","broad_category":"M","image_png":"M_Gneiss_06.png","image_id":198,"category_name":"Gneiss","category":13,"distinct_rating":2.65,"distinct_type":"Bottom","item_type":"Foil","rt":591,"stimulus":"Stimuli_Rocks480/M_Gneiss_06.png","response":"l","trial_type":"image-keyboard-response","trial_index":209,"plugin_version":"2.1.0","time_elapsed":331596,"subject_id":"92128","group":"Group2","condition":"1_Rep","full_date":"2026-03-04T16:39:12.223Z","date":"2026-03-04","time":"16:39:12","cor_ans":false},{"trial_type":"html-keyboard-response","rt":null,"stimulus":"<p style=\"color: red; font-size: 50px; font-weight: bold;\">Incorrect</p>","response":null,"trial_index":210,"plugin_version":"2.1.0","time_elapsed":332098,"subject_id":"92128","group":"Group2","condition":"1_Rep","full_date":"2026-03-04T16:39:12.223Z","date":"2026-03-04","time":"16:39:12"},{"correct_response":"a","task":"test_phase","broad_category":"S","image_png":"S_Rock Gypsum_04.png","image_id":420,"category_name":"Rock Gypsum","category":27,"distinct_rating":7.61,"distinct_type":"Top","item_type":"Foil","rt":928,"stimulus":"Stimuli_Rocks480/S_Rock Gypsum_04.png","response":"a","trial_type":"image-keyboard-response","trial_index":211,"plugin_version":"2.1.0","time_elapsed":333039,"subject_id":"92128","group":"Group2","condition":"1_Rep","full_date":"2026-03-04T16:39:12.223Z","date":"2026-03-04","time":"16:39:12","cor_ans":true},{"trial_type":"html-keyboard-response","rt":null,"stimulus":"<p style=\"color: green; font-size: 50px; font-weight: bold;\">Correct</p>","response":null,"trial_index":212,"plugin_version":"2.1.0","time_elapsed":333541,"subject_id":"92128","group":"Group2","condition":"1_Rep","full_date":"2026-03-04T16:39:12.223Z","date":"2026-03-04","time":"16:39:12"},{"correct_response":"l","task":"test_phase","broad_category":"I","image_png":"I_Gabbro_02.png","image_id":50,"category_name":"Gabbro","category":4,"distinct_rating":2.73,"distinct_type":"Bottom","item_type":"Target","rt":822,"stimulus":"Stimuli_Rocks480/I_Gabbro_02.png","response":"a","trial_type":"image-keyboard-response","trial_index":213,"plugin_version":"2.1.0","time_elapsed":334374,"subject_id":"92128","group":"Group2","condition":"1_Rep","full_date":"2026-03-04T16:39:12.223Z","date":"2026-03-04","time":"16:39:12","cor_ans":false},{"trial_type":"html-keyboard-response","rt":null,"stimulus":"<p style=\"color: red; font-size: 50px; font-weight: bold;\">Incorrect</p>","response":null,"trial_index":214,"plugin_version":"2.1.0","time_elapsed":334875,"subject_id":"92128","group":"Group2","condition":"1_Rep","full_date":"2026-03-04T16:39:12.223Z","date":"2026-03-04","time":"16:39:12"},{"correct_response":"l","task":"test_phase","broad_category":"M","image_png":"M_Phyllite_13.png","image_id":269,"category_name":"Phyllite","category":17,"distinct_rating":2.8,"distinct_type":"Bottom","item_type":"Target","rt":590,"stimulus":"Stimuli_Rocks480/M_Phyllite_13.png","response":"a","trial_type":"image-keyboard-response","trial_index":215,"plugin_version":"2.1.0","time_elapsed":335474,"subject_id":"92128","group":"Group2","condition":"1_Rep","full_date":"2026-03-04T16:39:12.223Z","date":"2026-03-04","time":"16:39:12","cor_ans":false},{"trial_type":"html-keyboard-response","rt":null,"stimulus":"<p style=\"color: red; font-size: 50px; font-weight: bold;\">Incorrect</p>","response":null,"trial_index":216,"plugin_version":"2.1.0","time_elapsed":335977,"subject_id":"92128","group":"Group2","condition":"1_Rep","full_date":"2026-03-04T16:39:12.223Z","date":"2026-03-04","time":"16:39:12"},{"correct_response":"a","task":"test_phase","broad_category":"I","image_png":"I_Rhyolite_14.png","image_id":158,"category_name":"Rhyolite","category":10,"distinct_rating":2.59,"distinct_type":"Bottom","item_type":"Foil","rt":1958,"stimulus":"Stimuli_Rocks480/I_Rhyolite_14.png","response":"a","trial_type":"image-keyboard-response","trial_index":217,"plugin_version":"2.1.0","time_elapsed":337945,"subject_id":"92128","group":"Group2","condition":"1_Rep","full_date":"2026-03-04T16:39:12.223Z","date":"2026-03-04","time":"16:39:12","cor_ans":true},{"trial_type":"html-keyboard-response","rt":null,"stimulus":"<p style=\"color: green; font-size: 50px; font-weight: bold;\">Correct</p>","response":null,"trial_index":218,"plugin_version":"2.1.0","time_elapsed":338447,"subject_id":"92128","group":"Group2","condition":"1_Rep","full_date":"2026-03-04T16:39:12.223Z","date":"2026-03-04","time":"16:39:12"},{"correct_response":"a","task":"test_phase","broad_category":"I","image_png":"I_Gabbro_16.png","image_id":64,"category_name":"Gabbro","category":4,"distinct_rating":2.52,"distinct_type":"Bottom","item_type":"Foil","rt":1310,"stimulus":"Stimuli_Rocks480/I_Gabbro_16.png","response":"l","trial_type":"image-keyboard-response","trial_index":219,"plugin_version":"2.1.0","time_elapsed":339768,"subject_id":"92128","group":"Group2","condition":"1_Rep","full_date":"2026-03-04T16:39:12.223Z","date":"2026-03-04","time":"16:39:12","cor_ans":false},{"trial_type":"html-keyboard-response","rt":null,"stimulus":"<p style=\"color: red; font-size: 50px; font-weight: bold;\">Incorrect</p>","response":null,"trial_index":220,"plugin_version":"2.1.0","time_elapsed":340271,"subject_id":"92128","group":"Group2","condition":"1_Rep","full_date":"2026-03-04T16:39:12.223Z","date":"2026-03-04","time":"16:39:12"},{"correct_response":"l","task":"test_phase","broad_category":"I","image_png":"I_Gabbro_12.png","image_id":60,"category_name":"Gabbro","category":4,"distinct_rating":2.6,"distinct_type":"Bottom","item_type":"Target","rt":1785,"stimulus":"Stimuli_Rocks480/I_Gabbro_12.png","response":"l","trial_type":"image-keyboard-response","trial_index":221,"plugin_version":"2.1.0","time_elapsed":342071,"subject_id":"92128","group":"Group2","condition":"1_Rep","full_date":"2026-03-04T16:39:12.223Z","date":"2026-03-04","time":"16:39:12","cor_ans":true},{"trial_type":"html-keyboard-response","rt":null,"stimulus":"<p style=\"color: green; font-size: 50px; font-weight: bold;\">Correct</p>","response":null,"trial_index":222,"plugin_version":"2.1.0","time_elapsed":342573,"subject_id":"92128","group":"Group2","condition":"1_Rep","full_date":"2026-03-04T16:39:12.223Z","date":"2026-03-04","time":"16:39:12"},{"correct_response":"a","task":"test_phase","broad_category":"S","image_png":"S_Sandstone_16.png","image_id":464,"category_name":"Sandstone","category":29,"distinct_rating":1.93,"distinct_type":"Bottom","item_type":"Foil","rt":1446,"stimulus":"Stimuli_Rocks480/S_Sandstone_16.png","response":"l","trial_type":"image-keyboard-response","trial_index":223,"plugin_version":"2.1.0","time_elapsed":344029,"subject_id":"92128","group":"Group2","condition":"1_Rep","full_date":"2026-03-04T16:39:12.223Z","date":"2026-03-04","time":"16:39:12","cor_ans":false},{"trial_type":"html-keyboard-response","rt":null,"stimulus":"<p style=\"color: red; font-size: 50px; font-weight: bold;\">Incorrect</p>","response":null,"trial_index":224,"plugin_version":"2.1.0","time_elapsed":344530,"subject_id":"92128","group":"Group2","condition":"1_Rep","full_date":"2026-03-04T16:39:12.223Z","date":"2026-03-04","time":"16:39:12"},{"correct_response":"l","task":"test_phase","broad_cat