[{"width":1096,"height":872,"webaudio":true,"browser":"chrome","browser_version":"139.0.0","mobile":false,"os":"Mac OS","fullscreen":true,"vsync_rate":123.03,"webcam":true,"microphone":true,"trial_type":"browser-check","trial_index":0,"plugin_version":"2.1.0","time_elapsed":496,"subject_id":"92576","group":"Group1","condition":"1_Rep","full_date":"2026-02-25T02:21:31.462Z","date":"2026-02-25","time":"02:21:31"},{"success":true,"timeout":false,"failed_images":[],"failed_audio":[],"failed_video":[],"trial_type":"preload","trial_index":1,"plugin_version":"2.1.0","time_elapsed":6472,"subject_id":"92576","group":"Group1","condition":"1_Rep","full_date":"2026-02-25T02:21:31.462Z","date":"2026-02-25","time":"02:21:31"},{"rt":9858,"url":"SONA_consent_memorability.html","trial_type":"external-html","trial_index":2,"plugin_version":"2.1.0","time_elapsed":16382,"subject_id":"92576","group":"Group1","condition":"1_Rep","full_date":"2026-02-25T02:21:31.462Z","date":"2026-02-25","time":"02:21:31"},{"success":true,"rt":986,"trial_type":"fullscreen","trial_index":3,"plugin_version":"2.1.0","time_elapsed":18370,"subject_id":"92576","group":"Group1","condition":"1_Rep","full_date":"2026-02-25T02:21:31.462Z","date":"2026-02-25","time":"02:21:31"},{"rt":22801,"stimulus":"<div style=\"max-width: 760px; margin: auto; font-size: 20px; line-height: 1.5;\">\n      <h1 style=\"text-align:center; font-size: 30px;\">Instructions</h1>\n      <p>\n        Welcome to the study on <b>visual memory</b>. This experiment consists of <b>two phases</b>: \n        a <b>study phase</b> and a <b>test phase</b>.\n      </p>\n      <p>\n        In the study phase, you will see a series of rock images along with their category labels.\n        The images will appear one at a time.\n        <b>Your task</b> is to learn the categories to which the rock images belong \n        and to remember each image as accurately as possible.\n      </p> \n      <p>\n        Note that you will see each image only <b>once</b> during the study phase. \n          So, please pay close attention and try to remember each image carefully.\n      </p>\n      <p>\n        After the study phase, <b>your memory will be tested</b>. \n        Additional instructions for the test phase will be provided at that time.\n      </p>\n      <p>\n        If your computer has multiple <b>language settings</b> (e.g., English and another language),\n        please make sure it is set to English before starting.\n      </p>\n      <p>\n        You can track your progress using the <b>completion bar</b> at the top of the screen. \n        Please note that the bar will refresh when the test phase begins \n        to give you an accurate sense of your progress in both phases.\n      </p> \n      <p>\n        Press the button below when you are ready to begin.\n      </p>\n    </div>","response":0,"trial_type":"html-button-response","trial_index":4,"plugin_version":"2.1.0","time_elapsed":41174,"subject_id":"92576","group":"Group1","condition":"1_Rep","full_date":"2026-02-25T02:21:31.462Z","date":"2026-02-25","time":"02:21:31"},{"rt":null,"stimulus":"<p style=\"font-size: 50px; margin: 0; text-align: center;\">+</p>","response":null,"trial_type":"html-keyboard-response","trial_index":5,"plugin_version":"2.1.0","time_elapsed":42178,"subject_id":"92576","group":"Group1","condition":"1_Rep","full_date":"2026-02-25T02:21:31.462Z","date":"2026-02-25","time":"02:21:31"},{"task":"memory_phase","broad_category":"M","image_png":"M_Slate_11.png","image_id":315,"category_name":"Slate","category":20,"distinct_rating":2.75,"distinct_type":"Bottom","rt":null,"stimulus":"Stimuli_Rocks480/M_Slate_11.png","response":null,"trial_type":"image-keyboard-response","trial_index":6,"plugin_version":"2.1.0","time_elapsed":44686,"subject_id":"92576","group":"Group1","condition":"1_Rep","full_date":"2026-02-25T02:21:31.462Z","date":"2026-02-25","time":"02:21:31"},{"rt":null,"stimulus":"<p style=\"font-size: 50px; margin: 0; text-align: center;\">+</p>","response":null,"trial_type":"html-keyboard-response","trial_index":7,"plugin_version":"2.1.0","time_elapsed":45689,"subject_id":"92576","group":"Group1","condition":"1_Rep","full_date":"2026-02-25T02:21:31.462Z","date":"2026-02-25","time":"02:21:31"},{"task":"memory_phase","broad_category":"I","image_png":"I_Andesite_08.png","image_id":8,"category_name":"Andesite","category":1,"distinct_rating":1.95,"distinct_type":"Bottom","rt":null,"stimulus":"Stimuli_Rocks480/I_Andesite_08.png","response":null,"trial_type":"image-keyboard-response","trial_index":8,"plugin_version":"2.1.0","time_elapsed":48192,"subject_id":"92576","group":"Group1","condition":"1_Rep","full_date":"2026-02-25T02:21:31.462Z","date":"2026-02-25","time":"02:21:31"},{"rt":null,"stimulus":"<p style=\"font-size: 50px; margin: 0; text-align: center;\">+</p>","response":null,"trial_type":"html-keyboard-response","trial_index":9,"plugin_version":"2.1.0","time_elapsed":49195,"subject_id":"92576","group":"Group1","condition":"1_Rep","full_date":"2026-02-25T02:21:31.462Z","date":"2026-02-25","time":"02:21:31"},{"task":"memory_phase","broad_category":"I","image_png":"I_Pumice_12.png","image_id":140,"category_name":"Pumice","category":9,"distinct_rating":2.97,"distinct_type":"Bottom","rt":null,"stimulus":"Stimuli_Rocks480/I_Pumice_12.png","response":null,"trial_type":"image-keyboard-response","trial_index":10,"plugin_version":"2.1.0","time_elapsed":51700,"subject_id":"92576","group":"Group1","condition":"1_Rep","full_date":"2026-02-25T02:21:31.462Z","date":"2026-02-25","time":"02:21:31"},{"rt":null,"stimulus":"<p style=\"font-size: 50px; margin: 0; text-align: center;\">+</p>","response":null,"trial_type":"html-keyboard-response","trial_index":11,"plugin_version":"2.1.0","time_elapsed":52702,"subject_id":"92576","group":"Group1","condition":"1_Rep","full_date":"2026-02-25T02:21:31.462Z","date":"2026-02-25","time":"02:21:31"},{"task":"memory_phase","broad_category":"M","image_png":"M_Marble_06.png","image_id":230,"category_name":"Marble","category":15,"distinct_rating":3.4,"distinct_type":"Bottom","rt":null,"stimulus":"Stimuli_Rocks480/M_Marble_06.png","response":null,"trial_type":"image-keyboard-response","trial_index":12,"plugin_version":"2.1.0","time_elapsed":55206,"subject_id":"92576","group":"Group1","condition":"1_Rep","full_date":"2026-02-25T02:21:31.462Z","date":"2026-02-25","time":"02:21:31"},{"rt":null,"stimulus":"<p style=\"font-size: 50px; margin: 0; text-align: center;\">+</p>","response":null,"trial_type":"html-keyboard-response","trial_index":13,"plugin_version":"2.1.0","time_elapsed":56209,"subject_id":"92576","group":"Group1","condition":"1_Rep","full_date":"2026-02-25T02:21:31.462Z","date":"2026-02-25","time":"02:21:31"},{"task":"memory_phase","broad_category":"M","image_png":"M_Slate_15.png","image_id":319,"category_name":"Slate","category":20,"distinct_rating":2.13,"distinct_type":"Bottom","rt":null,"stimulus":"Stimuli_Rocks480/M_Slate_15.png","response":null,"trial_type":"image-keyboard-response","trial_index":14,"plugin_version":"2.1.0","time_elapsed":58713,"subject_id":"92576","group":"Group1","condition":"1_Rep","full_date":"2026-02-25T02:21:31.462Z","date":"2026-02-25","time":"02:21:31"},{"rt":null,"stimulus":"<p style=\"font-size: 50px; margin: 0; text-align: center;\">+</p>","response":null,"trial_type":"html-keyboard-response","trial_index":15,"plugin_version":"2.1.0","time_elapsed":59716,"subject_id":"92576","group":"Group1","condition":"1_Rep","full_date":"2026-02-25T02:21:31.462Z","date":"2026-02-25","time":"02:21:31"},{"task":"memory_phase","broad_category":"M","image_png":"M_Phyllite_10.png","image_id":266,"category_name":"Phyllite","category":17,"distinct_rating":2.6,"distinct_type":"Bottom","rt":null,"stimulus":"Stimuli_Rocks480/M_Phyllite_10.png","response":null,"trial_type":"image-keyboard-response","trial_index":16,"plugin_version":"2.1.0","time_elapsed":62219,"subject_id":"92576","group":"Group1","condition":"1_Rep","full_date":"2026-02-25T02:21:31.462Z","date":"2026-02-25","time":"02:21:31"},{"rt":null,"stimulus":"<p style=\"font-size: 50px; margin: 0; text-align: center;\">+</p>","response":null,"trial_type":"html-keyboard-response","trial_index":17,"plugin_version":"2.1.0","time_elapsed":63222,"subject_id":"92576","group":"Group1","condition":"1_Rep","full_date":"2026-02-25T02:21:31.462Z","date":"2026-02-25","time":"02:21:31"},{"task":"memory_phase","broad_category":"I","image_png":"I_Diorite_04.png","image_id":36,"category_name":"Diorite","category":3,"distinct_rating":2.98,"distinct_type":"Bottom","rt":null,"stimulus":"Stimuli_Rocks480/I_Diorite_04.png","response":null,"trial_type":"image-keyboard-response","trial_index":18,"plugin_version":"2.1.0","time_elapsed":65726,"subject_id":"92576","group":"Group1","condition":"1_Rep","full_date":"2026-02-25T02:21:31.462Z","date":"2026-02-25","time":"02:21:31"},{"rt":null,"stimulus":"<p style=\"font-size: 50px; margin: 0; text-align: center;\">+</p>","response":null,"trial_type":"html-keyboard-response","trial_index":19,"plugin_version":"2.1.0","time_elapsed":66728,"subject_id":"92576","group":"Group1","condition":"1_Rep","full_date":"2026-02-25T02:21:31.462Z","date":"2026-02-25","time":"02:21:31"},{"task":"memory_phase","broad_category":"M","image_png":"M_Marble_16.png","image_id":240,"category_name":"Marble","category":15,"distinct_rating":2.57,"distinct_type":"Bottom","rt":null,"stimulus":"Stimuli_Rocks480/M_Marble_16.png","response":null,"trial_type":"image-keyboard-response","trial_index":20,"plugin_version":"2.1.0","time_elapsed":69233,"subject_id":"92576","group":"Group1","condition":"1_Rep","full_date":"2026-02-25T02:21:31.462Z","date":"2026-02-25","time":"02:21:31"},{"rt":null,"stimulus":"<p style=\"font-size: 50px; margin: 0; text-align: center;\">+</p>","response":null,"trial_type":"html-keyboard-response","trial_index":21,"plugin_version":"2.1.0","time_elapsed":70235,"subject_id":"92576","group":"Group1","condition":"1_Rep","full_date":"2026-02-25T02:21:31.462Z","date":"2026-02-25","time":"02:21:31"},{"task":"memory_phase","broad_category":"I","image_png":"I_Andesite_06.png","image_id":6,"category_name":"Andesite","category":1,"distinct_rating":3.17,"distinct_type":"Bottom","rt":null,"stimulus":"Stimuli_Rocks480/I_Andesite_06.png","response":null,"trial_type":"image-keyboard-response","trial_index":22,"plugin_version":"2.1.0","time_elapsed":72739,"subject_id":"92576","group":"Group1","condition":"1_Rep","full_date":"2026-02-25T02:21:31.462Z","date":"2026-02-25","time":"02:21:31"},{"rt":null,"stimulus":"<p style=\"font-size: 50px; margin: 0; text-align: center;\">+</p>","response":null,"trial_type":"html-keyboard-response","trial_index":23,"plugin_version":"2.1.0","time_elapsed":73742,"subject_id":"92576","group":"Group1","condition":"1_Rep","full_date":"2026-02-25T02:21:31.462Z","date":"2026-02-25","time":"02:21:31"},{"task":"memory_phase","broad_category":"M","image_png":"M_Gneiss_13.png","image_id":205,"category_name":"Gneiss","category":13,"distinct_rating":3.26,"distinct_type":"Bottom","rt":null,"stimulus":"Stimuli_Rocks480/M_Gneiss_13.png","response":null,"trial_type":"image-keyboard-response","trial_index":24,"plugin_version":"2.1.0","time_elapsed":76245,"subject_id":"92576","group":"Group1","condition":"1_Rep","full_date":"2026-02-25T02:21:31.462Z","date":"2026-02-25","time":"02:21:31"},{"rt":null,"stimulus":"<p style=\"font-size: 50px; margin: 0; text-align: center;\">+</p>","response":null,"trial_type":"html-keyboard-response","trial_index":25,"plugin_version":"2.1.0","time_elapsed":77248,"subject_id":"92576","group":"Group1","condition":"1_Rep","full_date":"2026-02-25T02:21:31.462Z","date":"2026-02-25","time":"02:21:31"},{"task":"memory_phase","broad_category":"I","image_png":"I_Diorite_05.png","image_id":37,"category_name":"Diorite","category":3,"distinct_rating":3.08,"distinct_type":"Bottom","rt":null,"stimulus":"Stimuli_Rocks480/I_Diorite_05.png","response":null,"trial_type":"image-keyboard-response","trial_index":26,"plugin_version":"2.1.0","time_elapsed":79752,"subject_id":"92576","group":"Group1","condition":"1_Rep","full_date":"2026-02-25T02:21:31.462Z","date":"2026-02-25","time":"02:21:31"},{"rt":null,"stimulus":"<p style=\"font-size: 50px; margin: 0; text-align: center;\">+</p>","response":null,"trial_type":"html-keyboard-response","trial_index":27,"plugin_version":"2.1.0","time_elapsed":80754,"subject_id":"92576","group":"Group1","condition":"1_Rep","full_date":"2026-02-25T02:21:31.462Z","date":"2026-02-25","time":"02:21:31"},{"task":"memory_phase","broad_category":"S","image_png":"S_Dolomite_13.png","image_id":397,"category_name":"Dolomite","category":25,"distinct_rating":1.77,"distinct_type":"Bottom","rt":null,"stimulus":"Stimuli_Rocks480/S_Dolomite_13.png","response":null,"trial_type":"image-keyboard-response","trial_index":28,"plugin_version":"2.1.0","time_elapsed":83258,"subject_id":"92576","group":"Group1","condition":"1_Rep","full_date":"2026-02-25T02:21:31.462Z","date":"2026-02-25","time":"02:21:31"},{"rt":null,"stimulus":"<p style=\"font-size: 50px; margin: 0; text-align: center;\">+</p>","response":null,"trial_type":"html-keyboard-response","trial_index":29,"plugin_version":"2.1.0","time_elapsed":84261,"subject_id":"92576","group":"Group1","condition":"1_Rep","full_date":"2026-02-25T02:21:31.462Z","date":"2026-02-25","time":"02:21:31"},{"task":"memory_phase","broad_category":"I","image_png":"I_Pumice_11.png","image_id":139,"category_name":"Pumice","category":9,"distinct_rating":1.74,"distinct_type":"Bottom","rt":null,"stimulus":"Stimuli_Rocks480/I_Pumice_11.png","response":null,"trial_type":"image-keyboard-response","trial_index":30,"plugin_version":"2.1.0","time_elapsed":86764,"subject_id":"92576","group":"Group1","condition":"1_Rep","full_date":"2026-02-25T02:21:31.462Z","date":"2026-02-25","time":"02:21:31"},{"rt":null,"stimulus":"<p style=\"font-size: 50px; margin: 0; text-align: center;\">+</p>","response":null,"trial_type":"html-keyboard-response","trial_index":31,"plugin_version":"2.1.0","time_elapsed":87774,"subject_id":"92576","group":"Group1","condition":"1_Rep","full_date":"2026-02-25T02:21:31.462Z","date":"2026-02-25","time":"02:21:31"},{"task":"memory_phase","broad_category":"I","image_png":"I_Basalt_09.png","image_id":25,"category_name":"Basalt","category":2,"distinct_rating":1.89,"distinct_type":"Bottom","rt":null,"stimulus":"Stimuli_Rocks480/I_Basalt_09.png","response":null,"trial_type":"image-keyboard-response","trial_index":32,"plugin_version":"2.1.0","time_elapsed":90276,"subject_id":"92576","group":"Group1","condition":"1_Rep","full_date":"2026-02-25T02:21:31.462Z","date":"2026-02-25","time":"02:21:31"},{"rt":null,"stimulus":"<p style=\"font-size: 50px; margin: 0; text-align: center;\">+</p>","response":null,"trial_type":"html-keyboard-response","trial_index":33,"plugin_version":"2.1.0","time_elapsed":91279,"subject_id":"92576","group":"Group1","condition":"1_Rep","full_date":"2026-02-25T02:21:31.462Z","date":"2026-02-25","time":"02:21:31"},{"task":"memory_phase","broad_category":"I","image_png":"I_Rhyolite_11.png","image_id":155,"category_name":"Rhyolite","category":10,"distinct_rating":1.73,"distinct_type":"Bottom","rt":null,"stimulus":"Stimuli_Rocks480/I_Rhyolite_11.png","response":null,"trial_type":"image-keyboard-response","trial_index":34,"plugin_version":"2.1.0","time_elapsed":93782,"subject_id":"92576","group":"Group1","condition":"1_Rep","full_date":"2026-02-25T02:21:31.462Z","date":"2026-02-25","time":"02:21:31"},{"rt":null,"stimulus":"<p style=\"font-size: 50px; margin: 0; text-align: center;\">+</p>","response":null,"trial_type":"html-keyboard-response","trial_index":35,"plugin_version":"2.1.0","time_elapsed":94784,"subject_id":"92576","group":"Group1","condition":"1_Rep","full_date":"2026-02-25T02:21:31.462Z","date":"2026-02-25","time":"02:21:31"},{"task":"memory_phase","broad_category":"S","image_png":"S_Dolomite_12.png","image_id":396,"category_name":"Dolomite","category":25,"distinct_rating":1.85,"distinct_type":"Bottom","rt":null,"stimulus":"Stimuli_Rocks480/S_Dolomite_12.png","response":null,"trial_type":"image-keyboard-response","trial_index":36,"plugin_version":"2.1.0","time_elapsed":97288,"subject_id":"92576","group":"Group1","condition":"1_Rep","full_date":"2026-02-25T02:21:31.462Z","date":"2026-02-25","time":"02:21:31"},{"rt":null,"stimulus":"<p style=\"font-size: 50px; margin: 0; text-align: center;\">+</p>","response":null,"trial_type":"html-keyboard-response","trial_index":37,"plugin_version":"2.1.0","time_elapsed":98290,"subject_id":"92576","group":"Group1","condition":"1_Rep","full_date":"2026-02-25T02:21:31.462Z","date":"2026-02-25","time":"02:21:31"},{"task":"memory_phase","broad_category":"S","image_png":"S_Sandstone_15.png","image_id":463,"category_name":"Sandstone","category":29,"distinct_rating":2,"distinct_type":"Bottom","rt":null,"stimulus":"Stimuli_Rocks480/S_Sandstone_15.png","response":null,"trial_type":"image-keyboard-response","trial_index":38,"plugin_version":"2.1.0","time_elapsed":100794,"subject_id":"92576","group":"Group1","condition":"1_Rep","full_date":"2026-02-25T02:21:31.462Z","date":"2026-02-25","time":"02:21:31"},{"rt":null,"stimulus":"<p style=\"font-size: 50px; margin: 0; text-align: center;\">+</p>","response":null,"trial_type":"html-keyboard-response","trial_index":39,"plugin_version":"2.1.0","time_elapsed":101795,"subject_id":"92576","group":"Group1","condition":"1_Rep","full_date":"2026-02-25T02:21:31.462Z","date":"2026-02-25","time":"02:21:31"},{"task":"memory_phase","broad_category":"S","image_png":"S_Shale_12.png","image_id":476,"category_name":"Shale","category":30,"distinct_rating":2.48,"distinct_type":"Bottom","rt":null,"stimulus":"Stimuli_Rocks480/S_Shale_12.png","response":null,"trial_type":"image-keyboard-response","trial_index":40,"plugin_version":"2.1.0","time_elapsed":104299,"subject_id":"92576","group":"Group1","condition":"1_Rep","full_date":"2026-02-25T02:21:31.462Z","date":"2026-02-25","time":"02:21:31"},{"rt":null,"stimulus":"<p style=\"font-size: 50px; margin: 0; text-align: center;\">+</p>","response":null,"trial_type":"html-keyboard-response","trial_index":41,"plugin_version":"2.1.0","time_elapsed":105301,"subject_id":"92576","group":"Group1","condition":"1_Rep","full_date":"2026-02-25T02:21:31.462Z","date":"2026-02-25","time":"02:21:31"},{"task":"memory_phase","broad_category":"I","image_png":"I_Rhyolite_16.png","image_id":160,"category_name":"Rhyolite","category":10,"distinct_rating":2.19,"distinct_type":"Bottom","rt":null,"stimulus":"Stimuli_Rocks480/I_Rhyolite_16.png","response":null,"trial_type":"image-keyboard-response","trial_index":42,"plugin_version":"2.1.0","time_elapsed":107804,"subject_id":"92576","group":"Group1","condition":"1_Rep","full_date":"2026-02-25T02:21:31.462Z","date":"2026-02-25","time":"02:21:31"},{"rt":null,"stimulus":"<p style=\"font-size: 50px; margin: 0; text-align: center;\">+</p>","response":null,"trial_type":"html-keyboard-response","trial_index":43,"plugin_version":"2.1.0","time_elapsed":108807,"subject_id":"92576","group":"Group1","condition":"1_Rep","full_date":"2026-02-25T02:21:31.462Z","date":"2026-02-25","time":"02:21:31"},{"task":"memory_phase","broad_category":"S","image_png":"S_Sandstone_16.png","image_id":464,"category_name":"Sandstone","category":29,"distinct_rating":1.93,"distinct_type":"Bottom","rt":null,"stimulus":"Stimuli_Rocks480/S_Sandstone_16.png","response":null,"trial_type":"image-keyboard-response","trial_index":44,"plugin_version":"2.1.0","time_elapsed":111310,"subject_id":"92576","group":"Group1","condition":"1_Rep","full_date":"2026-02-25T02:21:31.462Z","date":"2026-02-25","time":"02:21:31"},{"rt":null,"stimulus":"<p style=\"font-size: 50px; margin: 0; text-align: center;\">+</p>","response":null,"trial_type":"html-keyboard-response","trial_index":45,"plugin_version":"2.1.0","time_elapsed":112312,"subject_id":"92576","group":"Group1","condition":"1_Rep","full_date":"2026-02-25T02:21:31.462Z","date":"2026-02-25","time":"02:21:31"},{"task":"memory_phase","broad_category":"I","image_png":"I_Basalt_01.png","image_id":17,"category_name":"Basalt","category":2,"distinct_rating":1.92,"distinct_type":"Bottom","rt":null,"stimulus":"Stimuli_Rocks480/I_Basalt_01.png","response":null,"trial_type":"image-keyboard-response","trial_index":46,"plugin_version":"2.1.0","time_elapsed":114815,"subject_id":"92576","group":"Group1","condition":"1_Rep","full_date":"2026-02-25T02:21:31.462Z","date":"2026-02-25","time":"02:21:31"},{"rt":null,"stimulus":"<p style=\"font-size: 50px; margin: 0; text-align: center;\">+</p>","response":null,"trial_type":"html-keyboard-response","trial_index":47,"plugin_version":"2.1.0","time_elapsed":115818,"subject_id":"92576","group":"Group1","condition":"1_Rep","full_date":"2026-02-25T02:21:31.462Z","date":"2026-02-25","time":"02:21:31"},{"task":"memory_phase","broad_category":"S","image_png":"S_Rock Gypsum_04.png","image_id":420,"category_name":"Rock Gypsum","category":27,"distinct_rating":7.61,"distinct_type":"Top","rt":null,"stimulus":"Stimuli_Rocks480/S_Rock Gypsum_04.png","response":null,"trial_type":"image-keyboard-response","trial_index":48,"plugin_version":"2.1.0","time_elapsed":118322,"subject_id":"92576","group":"Group1","condition":"1_Rep","full_date":"2026-02-25T02:21:31.462Z","date":"2026-02-25","time":"02:21:31"},{"rt":null,"stimulus":"<p style=\"font-size: 50px; margin: 0; text-align: center;\">+</p>","response":null,"trial_type":"html-keyboard-response","trial_index":49,"plugin_version":"2.1.0","time_elapsed":119324,"subject_id":"92576","group":"Group1","condition":"1_Rep","full_date":"2026-02-25T02:21:31.462Z","date":"2026-02-25","time":"02:21:31"},{"task":"memory_phase","broad_category":"I","image_png":"I_Gabbro_11.png","image_id":59,"category_name":"Gabbro","category":4,"distinct_rating":1.99,"distinct_type":"Bottom","rt":null,"stimulus":"Stimuli_Rocks480/I_Gabbro_11.png","response":null,"trial_type":"image-keyboard-response","trial_index":50,"plugin_version":"2.1.0","time_elapsed":121827,"subject_id":"92576","group":"Group1","condition":"1_Rep","full_date":"2026-02-25T02:21:31.462Z","date":"2026-02-25","time":"02:21:31"},{"rt":null,"stimulus":"<p style=\"font-size: 50px; margin: 0; text-align: center;\">+</p>","response":null,"trial_type":"html-keyboard-response","trial_index":51,"plugin_version":"2.1.0","time_elapsed":122830,"subject_id":"92576","group":"Group1","condition":"1_Rep","full_date":"2026-02-25T02:21:31.462Z","date":"2026-02-25","time":"02:21:31"},{"task":"memory_phase","broad_category":"M","image_png":"M_Quartzite_13.png","image_id":285,"category_name":"Quartzite","category":18,"distinct_rating":2.27,"distinct_type":"Bottom","rt":null,"stimulus":"Stimuli_Rocks480/M_Quartzite_13.png","response":null,"trial_type":"image-keyboard-response","trial_index":52,"plugin_version":"2.1.0","time_elapsed":125333,"subject_id":"92576","group":"Group1","condition":"1_Rep","full_date":"2026-02-25T02:21:31.462Z","date":"2026-02-25","time":"02:21:31"},{"rt":null,"stimulus":"<p style=\"font-size: 50px; margin: 0; text-align: center;\">+</p>","response":null,"trial_type":"html-keyboard-response","trial_index":53,"plugin_version":"2.1.0","time_elapsed":126336,"subject_id":"92576","group":"Group1","condition":"1_Rep","full_date":"2026-02-25T02:21:31.462Z","date":"2026-02-25","time":"02:21:31"},{"task":"memory_phase","broad_category":"I","image_png":"I_Pegmatite_10.png","image_id":106,"category_name":"Pegmatite","category":7,"distinct_rating":7.66,"distinct_type":"Top","rt":null,"stimulus":"Stimuli_Rocks480/I_Pegmatite_10.png","response":null,"trial_type":"image-keyboard-response","trial_index":54,"plugin_version":"2.1.0","time_elapsed":128839,"subject_id":"92576","group":"Group1","condition":"1_Rep","full_date":"2026-02-25T02:21:31.462Z","date":"2026-02-25","time":"02:21:31"},{"rt":2198,"stimulus":"<p style=\"max-width: 760px; margin: auto; font-size: 35px; line-height: 1.5;\">\n                Press SPACE to continue study phase\n              </p>","response":" ","trial_type":"html-keyboard-response","trial_index":55,"plugin_version":"2.1.0","time_elapsed":131038,"subject_id":"92576","group":"Group1","condition":"1_Rep","full_date":"2026-02-25T02:21:31.462Z","date":"2026-02-25","time":"02:21:31"},{"rt":null,"stimulus":"<p style=\"font-size: 50px; margin: 0; text-align: center;\">+</p>","response":null,"trial_type":"html-keyboard-response","trial_index":56,"plugin_version":"2.1.0","time_elapsed":132041,"subject_id":"92576","group":"Group1","condition":"1_Rep","full_date":"2026-02-25T02:21:31.462Z","date":"2026-02-25","time":"02:21:31"},{"task":"memory_phase","broad_category":"S","image_png":"S_Rock Salt_01.png","image_id":433,"category_name":"Rock Salt","category":28,"distinct_rating":7.18,"distinct_type":"Top","rt":null,"stimulus":"Stimuli_Rocks480/S_Rock Salt_01.png","response":null,"trial_type":"image-keyboard-response","trial_index":57,"plugin_version":"2.1.0","time_elapsed":134545,"subject_id":"92576","group":"Group1","condition":"1_Rep","full_date":"2026-02-25T02:21:31.462Z","date":"2026-02-25","time":"02:21:31"},{"rt":null,"stimulus":"<p style=\"font-size: 50px; margin: 0; text-align: center;\">+</p>","response":null,"trial_type":"html-keyboard-response","trial_index":58,"plugin_version":"2.1.0","time_elapsed":135548,"subject_id":"92576","group":"Group1","condition":"1_Rep","full_date":"2026-02-25T02:21:31.462Z","date":"2026-02-25","time":"02:21:31"},{"task":"memory_phase","broad_category":"S","image_png":"S_Shale_01.png","image_id":465,"category_name":"Shale","category":30,"distinct_rating":2.7,"distinct_type":"Bottom","rt":null,"stimulus":"Stimuli_Rocks480/S_Shale_01.png","response":null,"trial_type":"image-keyboard-response","trial_index":59,"plugin_version":"2.1.0","time_elapsed":138051,"subject_id":"92576","group":"Group1","condition":"1_Rep","full_date":"2026-02-25T02:21:31.462Z","date":"2026-02-25","time":"02:21:31"},{"rt":null,"stimulus":"<p style=\"font-size: 50px; margin: 0; text-align: center;\">+</p>","response":null,"trial_type":"html-keyboard-response","trial_index":60,"plugin_version":"2.1.0","time_elapsed":139053,"subject_id":"92576","group":"Group1","condition":"1_Rep","full_date":"2026-02-25T02:21:31.462Z","date":"2026-02-25","time":"02:21:31"},{"task":"memory_phase","broad_category":"M","image_png":"M_Phyllite_07.png","image_id":263,"category_name":"Phyllite","category":17,"distinct_rating":2.59,"distinct_type":"Bottom","rt":null,"stimulus":"Stimuli_Rocks480/M_Phyllite_07.png","response":null,"trial_type":"image-keyboard-response","trial_index":61,"plugin_version":"2.1.0","time_elapsed":141557,"subject_id":"92576","group":"Group1","condition":"1_Rep","full_date":"2026-02-25T02:21:31.462Z","date":"2026-02-25","time":"02:21:31"},{"rt":null,"stimulus":"<p style=\"font-size: 50px; margin: 0; text-align: center;\">+</p>","response":null,"trial_type":"html-keyboard-response","trial_index":62,"plugin_version":"2.1.0","time_elapsed":142560,"subject_id":"92576","group":"Group1","condition":"1_Rep","full_date":"2026-02-25T02:21:31.462Z","date":"2026-02-25","time":"02:21:31"},{"task":"memory_phase","broad_category":"I","image_png":"I_Gabbro_16.png","image_id":64,"category_name":"Gabbro","category":4,"distinct_rating":2.52,"distinct_type":"Bottom","rt":null,"stimulus":"Stimuli_Rocks480/I_Gabbro_16.png","response":null,"trial_type":"image-keyboard-response","trial_index":63,"plugin_version":"2.1.0","time_elapsed":145063,"subject_id":"92576","group":"Group1","condition":"1_Rep","full_date":"2026-02-25T02:21:31.462Z","date":"2026-02-25","time":"02:21:31"},{"rt":null,"stimulus":"<p style=\"font-size: 50px; margin: 0; text-align: center;\">+</p>","response":null,"trial_type":"html-keyboard-response","trial_index":64,"plugin_version":"2.1.0","time_elapsed":146065,"subject_id":"92576","group":"Group1","condition":"1_Rep","full_date":"2026-02-25T02:21:31.462Z","date":"2026-02-25","time":"02:21:31"},{"task":"memory_phase","broad_category":"I","image_png":"I_Diorite_03.png","image_id":35,"category_name":"Diorite","category":3,"distinct_rating":3.14,"distinct_type":"Bottom","rt":null,"stimulus":"Stimuli_Rocks480/I_Diorite_03.png","response":null,"trial_type":"image-keyboard-response","trial_index":65,"plugin_version":"2.1.0","time_elapsed":148569,"subject_id":"92576","group":"Group1","condition":"1_Rep","full_date":"2026-02-25T02:21:31.462Z","date":"2026-02-25","time":"02:21:31"},{"rt":null,"stimulus":"<p style=\"font-size: 50px; margin: 0; text-align: center;\">+</p>","response":null,"trial_type":"html-keyboard-response","trial_index":66,"plugin_version":"2.1.0","time_elapsed":149572,"subject_id":"92576","group":"Group1","condition":"1_Rep","full_date":"2026-02-25T02:21:31.462Z","date":"2026-02-25","time":"02:21:31"},{"task":"memory_phase","broad_category":"M","image_png":"M_Quartzite_05.png","image_id":277,"category_name":"Quartzite","category":18,"distinct_rating":2.23,"distinct_type":"Bottom","rt":null,"stimulus":"Stimuli_Rocks480/M_Quartzite_05.png","response":null,"trial_type":"image-keyboard-response","trial_index":67,"plugin_version":"2.1.0","time_elapsed":152075,"subject_id":"92576","group":"Group1","condition":"1_Rep","full_date":"2026-02-25T02:21:31.462Z","date":"2026-02-25","time":"02:21:31"},{"rt":null,"stimulus":"<p style=\"font-size: 50px; margin: 0; text-align: center;\">+</p>","response":null,"trial_type":"html-keyboard-response","trial_index":68,"plugin_version":"2.1.0","time_elapsed":153077,"subject_id":"92576","group":"Group1","condition":"1_Rep","full_date":"2026-02-25T02:21:31.462Z","date":"2026-02-25","time":"02:21:31"},{"task":"memory_phase","broad_category":"I","image_png":"I_Pegmatite_16.png","image_id":112,"category_name":"Pegmatite","category":7,"distinct_rating":7.03,"distinct_type":"Top","rt":null,"stimulus":"Stimuli_Rocks480/I_Pegmatite_16.png","response":null,"trial_type":"image-keyboard-response","trial_index":69,"plugin_version":"2.1.0","time_elapsed":155581,"subject_id":"92576","group":"Group1","condition":"1_Rep","full_date":"2026-02-25T02:21:31.462Z","date":"2026-02-25","time":"02:21:31"},{"rt":null,"stimulus":"<p style=\"font-size: 50px; margin: 0; text-align: center;\">+</p>","response":null,"trial_type":"html-keyboard-response","trial_index":70,"plugin_version":"2.1.0","time_elapsed":156583,"subject_id":"92576","group":"Group1","condition":"1_Rep","full_date":"2026-02-25T02:21:31.462Z","date":"2026-02-25","time":"02:21:31"},{"task":"memory_phase","broad_category":"S","image_png":"S_Chert_10.png","image_id":362,"category_name":"Chert","category":23,"distinct_rating":7.17,"distinct_type":"Top","rt":null,"stimulus":"Stimuli_Rocks480/S_Chert_10.png","response":null,"trial_type":"image-keyboard-response","trial_index":71,"plugin_version":"2.1.0","time_elapsed":159086,"subject_id":"92576","group":"Group1","condition":"1_Rep","full_date":"2026-02-25T02:21:31.462Z","date":"2026-02-25","time":"02:21:31"},{"rt":null,"stimulus":"<p style=\"font-size: 50px; margin: 0; text-align: center;\">+</p>","response":null,"trial_type":"html-keyboard-response","trial_index":72,"plugin_version":"2.1.0","time_elapsed":160089,"subject_id":"92576","group":"Group1","condition":"1_Rep","full_date":"2026-02-25T02:21:31.462Z","date":"2026-02-25","time":"02:21:31"},{"task":"memory_phase","broad_category":"M","image_png":"M_Slate_03.png","image_id":307,"category_name":"Slate","category":20,"distinct_rating":1.87,"distinct_type":"Bottom","rt":null,"stimulus":"Stimuli_Rocks480/M_Slate_03.png","response":null,"trial_type":"image-keyboard-response","trial_index":73,"plugin_version":"2.1.0","time_elapsed":162592,"subject_id":"92576","group":"Group1","condition":"1_Rep","full_date":"2026-02-25T02:21:31.462Z","date":"2026-02-25","time":"02:21:31"},{"rt":null,"stimulus":"<p style=\"font-size: 50px; margin: 0; text-align: center;\">+</p>","response":null,"trial_type":"html-keyboard-response","trial_index":74,"plugin_version":"2.1.0","time_elapsed":163595,"subject_id":"92576","group":"Group1","condition":"1_Rep","full_date":"2026-02-25T02:21:31.462Z","date":"2026-02-25","time":"02:21:31"},{"task":"memory_phase","broad_category":"M","image_png":"M_Gneiss_05.png","image_id":197,"category_name":"Gneiss","category":13,"distinct_rating":2.97,"distinct_type":"Bottom","rt":null,"stimulus":"Stimuli_Rocks480/M_Gneiss_05.png","response":null,"trial_type":"image-keyboard-response","trial_index":75,"plugin_version":"2.1.0","time_elapsed":166098,"subject_id":"92576","group":"Group1","condition":"1_Rep","full_date":"2026-02-25T02:21:31.462Z","date":"2026-02-25","time":"02:21:31"},{"rt":null,"stimulus":"<p style=\"font-size: 50px; margin: 0; text-align: center;\">+</p>","response":null,"trial_type":"html-keyboard-response","trial_index":76,"plugin_version":"2.1.0","time_elapsed":167100,"subject_id":"92576","group":"Group1","condition":"1_Rep","full_date":"2026-02-25T02:21:31.462Z","date":"2026-02-25","time":"02:21:31"},{"task":"memory_phase","broad_category":"S","image_png":"S_Breccia_11.png","image_id":347,"category_name":"Breccia","category":22,"distinct_rating":6.7,"distinct_type":"Top","rt":null,"stimulus":"Stimuli_Rocks480/S_Breccia_11.png","response":null,"trial_type":"image-keyboard-response","trial_index":77,"plugin_version":"2.1.0","time_elapsed":169604,"subject_id":"92576","group":"Group1","condition":"1_Rep","full_date":"2026-02-25T02:21:31.462Z","date":"2026-02-25","time":"02:21:31"},{"rt":null,"stimulus":"<p style=\"font-size: 50px; margin: 0; text-align: center;\">+</p>","response":null,"trial_type":"html-keyboard-response","trial_index":78,"plugin_version":"2.1.0","time_elapsed":170606,"subject_id":"92576","group":"Group1","condition":"1_Rep","full_date":"2026-02-25T02:21:31.462Z","date":"2026-02-25","time":"02:21:31"},{"task":"memory_phase","broad_category":"S","image_png":"S_Sandstone_03.png","image_id":451,"category_name":"Sandstone","category":29,"distinct_rating":1.86,"distinct_type":"Bottom","rt":null,"stimulus":"Stimuli_Rocks480/S_Sandstone_03.png","response":null,"trial_type":"image-keyboard-response","trial_index":79,"plugin_version":"2.1.0","time_elapsed":173109,"subject_id":"92576","group":"Group1","condition":"1_Rep","full_date":"2026-02-25T02:21:31.462Z","date":"2026-02-25","time":"02:21:31"},{"rt":null,"stimulus":"<p style=\"font-size: 50px; margin: 0; text-align: center;\">+</p>","response":null,"trial_type":"html-keyboard-response","trial_index":80,"plugin_version":"2.1.0","time_elapsed":174112,"subject_id":"92576","group":"Group1","condition":"1_Rep","full_date":"2026-02-25T02:21:31.462Z","date":"2026-02-25","time":"02:21:31"},{"task":"memory_phase","broad_category":"S","image_png":"S_Dolomite_14.png","image_id":398,"category_name":"Dolomite","category":25,"distinct_rating":1.43,"distinct_type":"Bottom","rt":null,"stimulus":"Stimuli_Rocks480/S_Dolomite_14.png","response":null,"trial_type":"image-keyboard-response","trial_index":81,"plugin_version":"2.1.0","time_elapsed":176616,"subject_id":"92576","group":"Group1","condition":"1_Rep","full_date":"2026-02-25T02:21:31.462Z","date":"2026-02-25","time":"02:21:31"},{"rt":null,"stimulus":"<p style=\"font-size: 50px; margin: 0; text-align: center;\">+</p>","response":null,"trial_type":"html-keyboard-response","trial_index":82,"plugin_version":"2.1.0","time_elapsed":177618,"subject_id":"92576","group":"Group1","condition":"1_Rep","full_date":"2026-02-25T02:21:31.462Z","date":"2026-02-25","time":"02:21:31"},{"task":"memory_phase","broad_category":"I","image_png":"I_Obsidian_05.png","image_id":85,"category_name":"Obsidian","category":6,"distinct_rating":7.32,"distinct_type":"Top","rt":null,"stimulus":"Stimuli_Rocks480/I_Obsidian_05.png","response":null,"trial_type":"image-keyboard-response","trial_index":83,"plugin_version":"2.1.0","time_elapsed":180121,"subject_id":"92576","group":"Group1","condition":"1_Rep","full_date":"2026-02-25T02:21:31.462Z","date":"2026-02-25","time":"02:21:31"},{"rt":null,"stimulus":"<p style=\"font-size: 50px; margin: 0; text-align: center;\">+</p>","response":null,"trial_type":"html-keyboard-response","trial_index":84,"plugin_version":"2.1.0","time_elapsed":181124,"subject_id":"92576","group":"Group1","condition":"1_Rep","full_date":"2026-02-25T02:21:31.462Z","date":"2026-02-25","time":"02:21:31"},{"task":"memory_phase","broad_category":"I","image_png":"I_Basalt_02.png","image_id":18,"category_name":"Basalt","category":2,"distinct_rating":1.84,"distinct_type":"Bottom","rt":null,"stimulus":"Stimuli_Rocks480/I_Basalt_02.png","response":null,"trial_type":"image-keyboard-response","trial_index":85,"plugin_version":"2.1.0","time_elapsed":183627,"subject_id":"92576","group":"Group1","condition":"1_Rep","full_date":"2026-02-25T02:21:31.462Z","date":"2026-02-25","time":"02:21:31"},{"rt":null,"stimulus":"<p style=\"font-size: 50px; margin: 0; text-align: center;\">+</p>","response":null,"trial_type":"html-keyboard-response","trial_index":86,"plugin_version":"2.1.0","time_elapsed":184630,"subject_id":"92576","group":"Group1","condition":"1_Rep","full_date":"2026-02-25T02:21:31.462Z","date":"2026-02-25","time":"02:21:31"},{"task":"memory_phase","broad_category":"I","image_png":"I_Andesite_10.png","image_id":10,"category_name":"Andesite","category":1,"distinct_rating":3.15,"distinct_type":"Bottom","rt":null,"stimulus":"Stimuli_Rocks480/I_Andesite_10.png","response":null,"trial_type":"image-keyboard-response","trial_index":87,"plugin_version":"2.1.0","time_elapsed":187133,"subject_id":"92576","group":"Group1","condition":"1_Rep","full_date":"2026-02-25T02:21:31.462Z","date":"2026-02-25","time":"02:21:31"},{"rt":null,"stimulus":"<p style=\"font-size: 50px; margin: 0; text-align: center;\">+</p>","response":null,"trial_type":"html-keyboard-response","trial_index":88,"plugin_version":"2.1.0","time_elapsed":188136,"subject_id":"92576","group":"Group1","condition":"1_Rep","full_date":"2026-02-25T02:21:31.462Z","date":"2026-02-25","time":"02:21:31"},{"task":"memory_phase","broad_category":"M","image_png":"M_Quartzite_08.png","image_id":280,"category_name":"Quartzite","category":18,"distinct_rating":2.15,"distinct_type":"Bottom","rt":null,"stimulus":"Stimuli_Rocks480/M_Quartzite_08.png","response":null,"trial_type":"image-keyboard-response","trial_index":89,"plugin_version":"2.1.0","time_elapsed":190639,"subject_id":"92576","group":"Group1","condition":"1_Rep","full_date":"2026-02-25T02:21:31.462Z","date":"2026-02-25","time":"02:21:31"},{"rt":null,"stimulus":"<p style=\"font-size: 50px; margin: 0; text-align: center;\">+</p>","response":null,"trial_type":"html-keyboard-response","trial_index":90,"plugin_version":"2.1.0","time_elapsed":191641,"subject_id":"92576","group":"Group1","condition":"1_Rep","full_date":"2026-02-25T02:21:31.462Z","date":"2026-02-25","time":"02:21:31"},{"task":"memory_phase","broad_category":"I","image_png":"I_Pumice_08.png","image_id":136,"category_name":"Pumice","category":9,"distinct_rating":3.1,"distinct_type":"Bottom","rt":null,"stimulus":"Stimuli_Rocks480/I_Pumice_08.png","response":null,"trial_type":"image-keyboard-response","trial_index":91,"plugin_version":"2.1.0","time_elapsed":194144,"subject_id":"92576","group":"Group1","condition":"1_Rep","full_date":"2026-02-25T02:21:31.462Z","date":"2026-02-25","time":"02:21:31"},{"rt":null,"stimulus":"<p style=\"font-size: 50px; margin: 0; text-align: center;\">+</p>","response":null,"trial_type":"html-keyboard-response","trial_index":92,"plugin_version":"2.1.0","time_elapsed":195147,"subject_id":"92576","group":"Group1","condition":"1_Rep","full_date":"2026-02-25T02:21:31.462Z","date":"2026-02-25","time":"02:21:31"},{"task":"memory_phase","broad_category":"S","image_png":"S_Conglomerate_05.png","image_id":373,"category_name":"Conglomerate","category":24,"distinct_rating":7.32,"distinct_type":"Top","rt":null,"stimulus":"Stimuli_Rocks480/S_Conglomerate_05.png","response":null,"trial_type":"image-keyboard-response","trial_index":93,"plugin_version":"2.1.0","time_elapsed":197650,"subject_id":"92576","group":"Group1","condition":"1_Rep","full_date":"2026-02-25T02:21:31.462Z","date":"2026-02-25","time":"02:21:31"},{"rt":null,"stimulus":"<p style=\"font-size: 50px; margin: 0; text-align: center;\">+</p>","response":null,"trial_type":"html-keyboard-response","trial_index":94,"plugin_version":"2.1.0","time_elapsed":198653,"subject_id":"92576","group":"Group1","condition":"1_Rep","full_date":"2026-02-25T02:21:31.462Z","date":"2026-02-25","time":"02:21:31"},{"task":"memory_phase","broad_category":"S","image_png":"S_Shale_08.png","image_id":472,"category_name":"Shale","category":30,"distinct_rating":2.55,"distinct_type":"Bottom","rt":null,"stimulus":"Stimuli_Rocks480/S_Shale_08.png","response":null,"trial_type":"image-keyboard-response","trial_index":95,"plugin_version":"2.1.0","time_elapsed":201156,"subject_id":"92576","group":"Group1","condition":"1_Rep","full_date":"2026-02-25T02:21:31.462Z","date":"2026-02-25","time":"02:21:31"},{"rt":null,"stimulus":"<p style=\"font-size: 50px; margin: 0; text-align: center;\">+</p>","response":null,"trial_type":"html-keyboard-response","trial_index":96,"plugin_version":"2.1.0","time_elapsed":202159,"subject_id":"92576","group":"Group1","condition":"1_Rep","full_date":"2026-02-25T02:21:31.462Z","date":"2026-02-25","time":"02:21:31"},{"task":"memory_phase","broad_category":"I","image_png":"I_Rhyolite_14.png","image_id":158,"category_name":"Rhyolite","category":10,"distinct_rating":2.59,"distinct_type":"Bottom","rt":null,"stimulus":"Stimuli_Rocks480/I_Rhyolite_14.png","response":null,"trial_type":"image-keyboard-response","trial_index":97,"plugin_version":"2.1.0","time_elapsed":204662,"subject_id":"92576","group":"Group1","condition":"1_Rep","full_date":"2026-02-25T02:21:31.462Z","date":"2026-02-25","time":"02:21:31"},{"rt":null,"stimulus":"<p style=\"font-size: 50px; margin: 0; text-align: center;\">+</p>","response":null,"trial_type":"html-keyboard-response","trial_index":98,"plugin_version":"2.1.0","time_elapsed":205664,"subject_id":"92576","group":"Group1","condition":"1_Rep","full_date":"2026-02-25T02:21:31.462Z","date":"2026-02-25","time":"02:21:31"},{"task":"memory_phase","broad_category":"M","image_png":"M_Marble_04.png","image_id":228,"category_name":"Marble","category":15,"distinct_rating":3.15,"distinct_type":"Bottom","rt":null,"stimulus":"Stimuli_Rocks480/M_Marble_04.png","response":null,"trial_type":"image-keyboard-response","trial_index":99,"plugin_version":"2.1.0","time_elapsed":208168,"subject_id":"92576","group":"Group1","condition":"1_Rep","full_date":"2026-02-25T02:21:31.462Z","date":"2026-02-25","time":"02:21:31"},{"rt":null,"stimulus":"<p style=\"font-size: 50px; margin: 0; text-align: center;\">+</p>","response":null,"trial_type":"html-keyboard-response","trial_index":100,"plugin_version":"2.1.0","time_elapsed":209170,"subject_id":"92576","group":"Group1","condition":"1_Rep","full_date":"2026-02-25T02:21:31.462Z","date":"2026-02-25","time":"02:21:31"},{"task":"memory_phase","broad_category":"I","image_png":"I_Gabbro_08.png","image_id":56,"category_name":"Gabbro","category":4,"distinct_rating":3.02,"distinct_type":"Bottom","rt":null,"stimulus":"Stimuli_Rocks480/I_Gabbro_08.png","response":null,"trial_type":"image-keyboard-response","trial_index":101,"plugin_version":"2.1.0","time_elapsed":211674,"subject_id":"92576","group":"Group1","condition":"1_Rep","full_date":"2026-02-25T02:21:31.462Z","date":"2026-02-25","time":"02:21:31"},{"rt":null,"stimulus":"<p style=\"font-size: 50px; margin: 0; text-align: center;\">+</p>","response":null,"trial_type":"html-keyboard-response","trial_index":102,"plugin_version":"2.1.0","time_elapsed":212676,"subject_id":"92576","group":"Group1","condition":"1_Rep","full_date":"2026-02-25T02:21:31.462Z","date":"2026-02-25","time":"02:21:31"},{"task":"memory_phase","broad_category":"M","image_png":"M_Phyllite_03.png","image_id":259,"category_name":"Phyllite","category":17,"distinct_rating":2.5,"distinct_type":"Bottom","rt":null,"stimulus":"Stimuli_Rocks480/M_Phyllite_03.png","response":null,"trial_type":"image-keyboard-response","trial_index":103,"plugin_version":"2.1.0","time_elapsed":215179,"subject_id":"92576","group":"Group1","condition":"1_Rep","full_date":"2026-02-25T02:21:31.462Z","date":"2026-02-25","time":"02:21:31"},{"rt":null,"stimulus":"<p style=\"font-size: 50px; margin: 0; text-align: center;\">+</p>","response":null,"trial_type":"html-keyboard-response","trial_index":104,"plugin_version":"2.1.0","time_elapsed":216182,"subject_id":"92576","group":"Group1","condition":"1_Rep","full_date":"2026-02-25T02:21:31.462Z","date":"2026-02-25","time":"02:21:31"},{"task":"memory_phase","broad_category":"M","image_png":"M_Gneiss_06.png","image_id":198,"category_name":"Gneiss","category":13,"distinct_rating":2.65,"distinct_type":"Bottom","rt":null,"stimulus":"Stimuli_Rocks480/M_Gneiss_06.png","response":null,"trial_type":"image-keyboard-response","trial_index":105,"plugin_version":"2.1.0","time_elapsed":218685,"subject_id":"92576","group":"Group1","condition":"1_Rep","full_date":"2026-02-25T02:21:31.462Z","date":"2026-02-25","time":"02:21:31"},{"rt":15932,"stimulus":"<div style=\"max-width: 760px; margin: auto; font-size: 20px; line-height: 1.5;\">\n      <h1 style=\"text-align:center; font-size: 30px;\">Instructions for the Test Phase</h1>\n      <p>\n        The study phase is now complete.\n      </p>\n      <p>\n        In the test phase, you will again see a series of rock images. \n        Some will be ones you saw before - during the study phase, while others will be new.  \n        <b>Your task</b> is to decide whether you have seen each image before by pressing the corresponding key on your keyboard:<br><br>\n          <b>A</b> - NO (you did not see this image before)<br>\n          <b>L</b> - YES (you saw this image before)<br><br>\n        The test will proceed at your own pace. You will receive feedback after each response.  \n        Please try to respond <b>as accurately as possible</b>.\n      </p>\n      <p>\n        <b>Reminder:</b> If your computer has multiple language settings (e.g., English and another language),\n        please ensure it is set to English during the test phase.\n      </p>\n      <p>\n        You can track your progress using the <b>completion bar</b> at the top of the screen.  \n        Note that it has been refreshed to reflect your progress during this final phase.\n      </p>\n      <p>\n        Press the button below when you are ready to continue.\n      </p>\n    </div>","response":0,"trial_type":"html-button-response","trial_index":106,"plugin_version":"2.1.0","time_elapsed":234619,"subject_id":"92576","group":"Group1","condition":"1_Rep","full_date":"2026-02-25T02:21:31.462Z","date":"2026-02-25","time":"02:21:31"},{"correct_response":"l","task":"test_phase","broad_category":"S","image_png":"S_Dolomite_12.png","image_id":396,"category_name":"Dolomite","category":25,"distinct_rating":1.85,"distinct_type":"Bottom","item_type":"Target","rt":2033,"stimulus":"Stimuli_Rocks480/S_Dolomite_12.png","response":"l","trial_type":"image-keyboard-response","trial_index":107,"plugin_version":"2.1.0","time_elapsed":236654,"subject_id":"92576","group":"Group1","condition":"1_Rep","full_date":"2026-02-25T02:21:31.462Z","date":"2026-02-25","time":"02:21:31","cor_ans":true},{"trial_type":"html-keyboard-response","rt":null,"stimulus":"<p style=\"color: green; font-size: 50px; font-weight: bold;\">Correct</p>","response":null,"trial_index":108,"plugin_version":"2.1.0","time_elapsed":237156,"subject_id":"92576","group":"Group1","condition":"1_Rep","full_date":"2026-02-25T02:21:31.462Z","date":"2026-02-25","time":"02:21:31"},{"correct_response":"a","task":"test_phase","broad_category":"I","image_png":"I_Pumice_14.png","image_id":142,"category_name":"Pumice","category":9,"distinct_rating":3.22,"distinct_type":"Bottom","item_type":"Foil","rt":1846,"stimulus":"Stimuli_Rocks480/I_Pumice_14.png","response":"a","trial_type":"image-keyboard-response","trial_index":109,"plugin_version":"2.1.0","time_elapsed":239003,"subject_id":"92576","group":"Group1","condition":"1_Rep","full_date":"2026-02-25T02:21:31.462Z","date":"2026-02-25","time":"02:21:31","cor_ans":true},{"trial_type":"html-keyboard-response","rt":null,"stimulus":"<p style=\"color: green; font-size: 50px; font-weight: bold;\">Correct</p>","response":null,"trial_index":110,"plugin_version":"2.1.0","time_elapsed":239504,"subject_id":"92576","group":"Group1","condition":"1_Rep","full_date":"2026-02-25T02:21:31.462Z","date":"2026-02-25","time":"02:21:31"},{"correct_response":"l","task":"test_phase","broad_category":"I","image_png":"I_Andesite_06.png","image_id":6,"category_name":"Andesite","category":1,"distinct_rating":3.17,"distinct_type":"Bottom","item_type":"Target","rt":928,"stimulus":"Stimuli_Rocks480/I_Andesite_06.png","response":"l","trial_type":"image-keyboard-response","trial_index":111,"plugin_version":"2.1.0","time_elapsed":240433,"subject_id":"92576","group":"Group1","condition":"1_Rep","full_date":"2026-02-25T02:21:31.462Z","date":"2026-02-25","time":"02:21:31","cor_ans":true},{"trial_type":"html-keyboard-response","rt":null,"stimulus":"<p style=\"color: green; font-size: 50px; font-weight: bold;\">Correct</p>","response":null,"trial_index":112,"plugin_version":"2.1.0","time_elapsed":240935,"subject_id":"92576","group":"Group1","condition":"1_Rep","full_date":"2026-02-25T02:21:31.462Z","date":"2026-02-25","time":"02:21:31"},{"correct_response":"l","task":"test_phase","broad_category":"I","image_png":"I_Obsidian_05.png","image_id":85,"category_name":"Obsidian","category":6,"distinct_rating":7.32,"distinct_type":"Top","item_type":"Target","rt":988,"stimulus":"Stimuli_Rocks480/I_Obsidian_05.png","response":"l","trial_type":"image-keyboard-response","trial_index":113,"plugin_version":"2.1.0","time_elapsed":241925,"subject_id":"92576","group":"Group1","condition":"1_Rep","full_date":"2026-02-25T02:21:31.462Z","date":"2026-02-25","time":"02:21:31","cor_ans":true},{"trial_type":"html-keyboard-response","rt":null,"stimulus":"<p style=\"color: green; font-size: 50px; font-weight: bold;\">Correct</p>","response":null,"trial_index":114,"plugin_version":"2.1.0","time_elapsed":242427,"subject_id":"92576","group":"Group1","condition":"1_Rep","full_date":"2026-02-25T02:21:31.462Z","date":"2026-02-25","time":"02:21:31"},{"correct_response":"l","task":"test_phase","broad_category":"I","image_png":"I_Pumice_08.png","image_id":136,"category_name":"Pumice","category":9,"distinct_rating":3.1,"distinct_type":"Bottom","item_type":"Target","rt":893,"stimulus":"Stimuli_Rocks480/I_Pumice_08.png","response":"l","trial_type":"image-keyboard-response","trial_index":115,"plugin_version":"2.1.0","time_elapsed":243321,"subject_id":"92576","group":"Group1","condition":"1_Rep","full_date":"2026-02-25T02:21:31.462Z","date":"2026-02-25","time":"02:21:31","cor_ans":true},{"trial_type":"html-keyboard-response","rt":null,"stimulus":"<p style=\"color: green; font-size: 50px; font-weight: bold;\">Correct</p>","response":null,"trial_index":116,"plugin_version":"2.1.0","time_elapsed":243822,"subject_id":"92576","group":"Group1","condition":"1_Rep","full_date":"2026-02-25T02:21:31.462Z","date":"2026-02-25","time":"02:21:31"},{"correct_response":"l","task":"test_phase","broad_category":"M","image_png":"M_Gneiss_06.png","image_id":198,"category_name":"Gneiss","category":13,"distinct_rating":2.65,"distinct_type":"Bottom","item_type":"Target","rt":977,"stimulus":"Stimuli_Rocks480/M_Gneiss_06.png","response":"l","trial_type":"image-keyboard-response","trial_index":117,"plugin_version":"2.1.0","time_elapsed":244800,"subject_id":"92576","group":"Group1","condition":"1_Rep","full_date":"2026-02-25T02:21:31.462Z","date":"2026-02-25","time":"02:21:31","cor_ans":true},{"trial_type":"html-keyboard-response","rt":null,"stimulus":"<p style=\"color: green; font-size: 50px; font-weight: bold;\">Correct</p>","response":null,"trial_index":118,"plugin_version":"2.1.0","time_elapsed":245301,"subject_id":"92576","group":"Group1","condition":"1_Rep","full_date":"2026-02-25T02:21:31.462Z","date":"2026-02-25","time":"02:21:31"},{"correct_response":"l","task":"test_phase","broad_category":"I","image_png":"I_Gabbro_16.png","image_id":64,"category_name":"Gabbro","category":4,"distinct_rating":2.52,"distinct_type":"Bottom","item_type":"Target","rt":1038,"stimulus":"Stimuli_Rocks480/I_Gabbro_16.png","response":"l","trial_type":"image-keyboard-response","trial_index":119,"plugin_version":"2.1.0","time_elapsed":246340,"subject_id":"92576","group":"Group1","condition":"1_Rep","full_date":"2026-02-25T02:21:31.462Z","date":"2026-02-25","time":"02:21:31","cor_ans":true},{"trial_type":"html-keyboard-response","rt":null,"stimulus":"<p style=\"color: green; font-size: 50px; font-weight: bold;\">Correct</p>","response":null,"trial_index":120,"plugin_version":"2.1.0","time_elapsed":246841,"subject_id":"92576","group":"Group1","condition":"1_Rep","full_date":"2026-02-25T02:21:31.462Z","date":"2026-02-25","time":"02:21:31"},{"correct_response":"l","task":"test_phase","broad_category":"M","image_png":"M_Quartzite_08.png","image_id":280,"category_name":"Quartzite","category":18,"distinct_rating":2.15,"distinct_type":"Bottom","item_type":"Target","rt":910,"stimulus":"Stimuli_Rocks480/M_Quartzite_08.png","response":"l","trial_type":"image-keyboard-response","trial_index":121,"plugin_version":"2.1.0","time_elapsed":247752,"subject_id":"92576","group":"Group1","condition":"1_Rep","full_date":"2026-02-25T02:21:31.462Z","date":"2026-02-25","time":"02:21:31","cor_ans":true},{"trial_type":"html-keyboard-response","rt":null,"stimulus":"<p style=\"color: green; font-size: 50px; font-weight: bold;\">Correct</p>","response":null,"trial_index":122,"plugin_version":"2.1.0","time_elapsed":248253,"subject_id":"92576","group":"Group1","condition":"1_Rep","full_date":"2026-02-25T02:21:31.462Z","date":"2026-02-25","time":"02:21:31"},{"correct_response":"l","task":"test_phase","broad_category":"I","image_png":"I_Gabbro_11.png","image_id":59,"category_name":"Gabbro","category":4,"distinct_rating":1.99,"distinct_type":"Bottom","item_type":"Target","rt":939,"stimulus":"Stimuli_Rocks480/I_Gabbro_11.png","response":"l","trial_type":"image-keyboard-response","trial_index":123,"plugin_version":"2.1.0","time_elapsed":249194,"subject_id":"92576","group":"Group1","condition":"1_Rep","full_date":"2026-02-25T02:21:31.462Z","date":"2026-02-25","time":"02:21:31","cor_ans":true},{"trial_type":"html-keyboard-response","rt":null,"stimulus":"<p style=\"color: green; font-size: 50px; font-weight: bold;\">Correct</p>","response":null,"trial_index":124,"plugin_version":"2.1.0","time_elapsed":249695,"subject_id":"92576","group":"Group1","condition":"1_Rep","full_date":"2026-02-25T02:21:31.462Z","date":"2026-02-25","time":"02:21:31"},{"correct_response":"a","task":"test_phase","broad_category":"M","image_png":"M_Phyllite_13.png","image_id":269,"category_name":"Phyllite","category":17,"distinct_rating":2.8,"distinct_type":"Bottom","item_type":"Foil","rt":858,"stimulus":"Stimuli_Rocks480/M_Phyllite_13.png","response":"l","trial_type":"image-keyboard-response","trial_index":125,"plugin_version":"2.1.0","time_elapsed":250554,"subject_id":"92576","group":"Group1","condition":"1_Rep","full_date":"2026-02-25T02:21:31.462Z","date":"2026-02-25","time":"02:21:31","cor_ans":false},{"trial_type":"html-keyboard-response","rt":null,"stimulus":"<p style=\"color: red; font-size: 50px; font-weight: bold;\">Incorrect</p>","response":null,"trial_index":126,"plugin_version":"2.1.0","time_elapsed":251055,"subject_id":"92576","group":"Group1","condition":"1_Rep","full_date":"2026-02-25T02:21:31.462Z","date":"2026-02-25","time":"02:21:31"},{"correct_response":"a","task":"test_phase","broad_category":"M","image_png":"M_Quartzite_12.png","image_id":284,"category_name":"Quartzite","category":18,"distinct_rating":1.92,"distinct_type":"Bottom","item_type":"Foil","rt":1449,"stimulus":"Stimuli_Rocks480/M_Quartzite_12.png","response":"l","trial_type":"image-keyboard-response","trial_index":127,"plugin_version":"2.1.0","time_elapsed":252506,"subject_id":"92576","group":"Group1","condition":"1_Rep","full_date":"2026-02-25T02:21:31.462Z","date":"2026-02-25","time":"02:21:31","cor_ans":false},{"trial_type":"html-keyboard-response","rt":null,"stimulus":"<p style=\"color: red; font-size: 50px; font-weight: bold;\">Incorrect</p>","response":null,"trial_index":128,"plugin_version":"2.1.0","time_elapsed":253007,"subject_id":"92576","group":"Group1","condition":"1_Rep","full_date":"2026-02-25T02:21:31.462Z","date":"2026-02-25","time":"02:21:31"},{"correct_response":"a","task":"test_phase","broad_category":"I","image_png":"I_Pegmatite_03.png","image_id":99,"category_name":"Pegmatite","category":7,"distinct_rating":7.24,"distinct_type":"Top","item_type":"Foil","rt":1098,"stimulus":"Stimuli_Rocks480/I_Pegmatite_03.png","response":"a","trial_type":"image-keyboard-response","trial_index":129,"plugin_version":"2.1.0","time_elapsed":254106,"subject_id":"92576","group":"Group1","condition":"1_Rep","full_date":"2026-02-25T02:21:31.462Z","date":"2026-02-25","time":"02:21:31","cor_ans":true},{"trial_type":"html-keyboard-response","rt":null,"stimulus":"<p style=\"color: green; font-size: 50px; font-weight: bold;\">Correct</p>","response":null,"trial_index":130,"plugin_version":"2.1.0","time_elapsed":254607,"subject_id":"92576","group":"Group1","condition":"1_Rep","full_date":"2026-02-25T02:21:31.462Z","date":"2026-02-25","time":"02:21:31"},{"correct_response":"a","task":"test_phase","broad_category":"S","image_png":"S_Dolomite_16.png","image_id":400,"category_name":"Dolomite","category":25,"distinct_rating":1.71,"distinct_type":"Bottom","item_type":"Foil","rt":1775,"stimulus":"Stimuli_Rocks480/S_Dolomite_16.png","response":"l","trial_type":"image-keyboard-response","trial_index":131,"plugin_version":"2.1.0","time_elapsed":256383,"subject_id":"92576","group":"Group1","condition":"1_Rep","full_date":"2026-02-25T02:21:31.462Z","date":"2026-02-25","time":"02:21:31","cor_ans":false},{"trial_type":"html-keyboard-response","rt":null,"stimulus":"<p style=\"color: red; font-size: 50px; font-weight: bold;\">Incorrect</p>","response":null,"trial_index":132,"plugin_version":"2.1.0","time_elapsed":256885,"subject_id":"92576","group":"Group1","condition":"1_Rep","full_date":"2026-02-25T02:21:31.462Z","date":"2026-02-25","time":"02:21:31"},{"correct_response":"l","task":"test_phase","broad_category":"S","image_png":"S_Rock Gypsum_04.png","image_id":420,"category_name":"Rock Gypsum","category":27,"distinct_rating":7.61,"distinct_type":"Top","item_type":"Target","rt":975,"stimulus":"Stimuli_Rocks480/S_Rock Gypsum_04.png","response":"l","trial_type":"image-keyboard-response","trial_index":133,"plugin_version":"2.1.0","time_elapsed":257861,"subject_id":"92576","group":"Group1","condition":"1_Rep","full_date":"2026-02-25T02:21:31.462Z","date":"2026-02-25","time":"02:21:31","cor_ans":true},{"trial_type":"html-keyboard-response","rt":null,"stimulus":"<p style=\"color: green; font-size: 50px; font-weight: bold;\">Correct</p>","response":null,"trial_index":134,"plugin_version":"2.1.0","time_elapsed":258362,"subject_id":"92576","group":"Group1","condition":"1_Rep","full_date":"2026-02-25T02:21:31.462Z","date":"2026-02-25","time":"02:21:31"},{"correct_response":"a","task":"test_phase","broad_category":"I","image_png":"I_Pegmatite_11.png","image_id":107,"category_name":"Pegmatite","category":7,"distinct_rating":7.11,"distinct_type":"Top","item_type":"Foil","rt":935,"stimulus":"Stimuli_Rocks480/I_Pegmatite_11.png","response":"a","trial_type":"image-keyboard-response","trial_index":135,"plugin_version":"2.1.0","time_elapsed":259298,"subject_id":"92576","group":"Group1","condition":"1_Rep","full_date":"2026-02-25T02:21:31.462Z","date":"2026-02-25","time":"02:21:31","cor_ans":true},{"trial_type":"html-keyboard-response","rt":null,"stimulus":"<p style=\"color: green; font-size: 50px; font-weight: bold;\">Correct</p>","response":null,"trial_index":136,"plugin_version":"2.1.0","time_elapsed":259799,"subject_id":"92576","group":"Group1","condition":"1_Rep","full_date":"2026-02-25T02:21:31.462Z","date":"2026-02-25","time":"02:21:31"},{"correct_response":"a","task":"test_phase","broad_category":"I","image_png":"I_Gabbro_12.png","image_id":60,"category_name":"Gabbro","category":4,"distinct_rating":2.6,"distinct_type":"Bottom","item_type":"Foil","rt":836,"stimulus":"Stimuli_Rocks480/I_Gabbro_12.png","response":"l","trial_type":"image-keyboard-response","trial_index":137,"plugin_version":"2.1.0","time_elapsed":260637,"subject_id":"92576","group":"Group1","condition":"1_Rep","full_date":"2026-02-25T02:21:31.462Z","date":"2026-02-25","time":"02:21:31","cor_ans":false},{"trial_type":"html-keyboard-response","rt":null,"stimulus":"<p style=\"color: red; font-size: 50px; font-weight: bold;\">Incorrect</p>","response":null,"trial_index":138,"plugin_version":"2.1.0","time_elapsed":261138,"subject_id":"92576","group":"Group1","condition":"1_Rep","full_date":"2026-02-25T02:21:31.462Z","date":"2026-02-25","time":"02:21:31"},{"correct_response":"a","task":"test_phase","broad_category":"M","image_png":"M_Phyllite_02.png","image_id":258,"category_name":"Phyllite","category":17,"distinct_rating":2.89,"distinct_type":"Bottom","item_type":"Foil","rt":2949,"stimulus":"Stimuli_Rocks480/M_Phyllite_02.png","response":"a","trial_type":"image-keyboard-response","trial_index":139,"plugin_version":"2.1.0","time_elapsed":264089,"subject_id":"92576","group":"Group1","condition":"1_Rep","full_date":"2026-02-25T02:21:31.462Z","date":"2026-02-25","time":"02:21:31","cor_ans":true},{"trial_type":"html-keyboard-response","rt":null,"stimulus":"<p style=\"color: green; font-size: 50px; font-weight: bold;\">Correct</p>","response":null,"trial_index":140,"plugin_version":"2.1.0","time_elapsed":264591,"subject_id":"92576","group":"Group1","condition":"1_Rep","full_date":"2026-02-25T02:21:31.462Z","date":"2026-02-25","time":"02:21:31"},{"correct_response":"a","task":"test_phase","broad_category":"M","image_png":"M_Slate_10.png","image_id":314,"category_name":"Slate","category":20,"distinct_rating":1.94,"distinct_type":"Bottom","item_type":"Foil","rt":1076,"stimulus":"Stimuli_Rocks480/M_Slate_10.png","response":"l","trial_type":"image-keyboard-response","trial_index":141,"plugin_version":"2.1.0","time_elapsed":265668,"subject_id":"92576","group":"Group1","condition":"1_Rep","full_date":"2026-02-25T02:21:31.462Z","date":"2026-02-25","time":"02:21:31","cor_ans":false},{"trial_type":"html-keyboard-response","rt":null,"stimulus":"<p style=\"color: red; font-size: 50px; font-weight: bold;\">Incorrect</p>","response":null,"trial_index":142,"plugin_version":"2.1.0","time_elapsed":266169,"subject_id":"92576","group":"Group1","condition":"1_Rep","full_date":"2026-02-25T02:21:31.462Z","date":"2026-02-25","time":"02:21:31"},{"correct_response":"l","task":"test_phase","broad_category":"S","image_png":"S_Sandstone_15.png","image_id":463,"category_name":"Sandstone","category":29,"distinct_rating":2,"distinct_type":"Bottom","item_type":"Target","rt":1151,"stimulus":"Stimuli_Rocks480/S_Sandstone_15.png","response":"l","trial_type":"image-keyboard-response","trial_index":143,"plugin_version":"2.1.0","time_elapsed":267321,"subject_id":"92576","group":"Group1","condition":"1_Rep","full_date":"2026-02-25T02:21:31.462Z","date":"2026-02-25","time":"02:21:31","cor_ans":true},{"trial_type":"html-keyboard-response","rt":null,"stimulus":"<p style=\"color: green; font-size: 50px; font-weight: bold;\">Correct</p>","response":null,"trial_index":144,"plugin_version":"2.1.0","time_elapsed":267823,"subject_id":"92576","group":"Group1","condition":"1_Rep","full_date":"2026-02-25T02:21:31.462Z","date":"2026-02-25","time":"02:21:31"},{"correct_response":"a","task":"test_phase","broad_category":"M","image_png":"M_Phyllite_05.png","image_id":261,"category_name":"Phyllite","category":17,"distinct_rating":2.14,"distinct_type":"Bottom","item_type":"Foil","rt":1417,"stimulus":"Stimuli_Rocks480/M_Phyllite_05.png","response":"a","trial_type":"image-keyboard-response","trial_index":145,"plugin_version":"2.1.0","time_elapsed":269241,"subject_id":"92576","group":"Group1","condition":"1_Rep","full_date":"2026-02-25T02:21:31.462Z","date":"2026-02-25","time":"02:21:31","cor_ans":true},{"trial_type":"html-keyboard-response","rt":null,"stimulus":"<p style=\"color: green; font-size: 50px; font-weight: bold;\">Correct</p>","response":null,"trial_index":146,"plugin_version":"2.1.0","time_elapsed":269742,"subject_id":"92576","group":"Group1","condition":"1_Rep","full_date":"2026-02-25T02:21:31.462Z","date":"2026-02-25","time":"02:21:31"},{"correct_response":"a","task":"test_phase","broad_category":"I","image_png":"I_Rhyolite_08.png","image_id":152,"category_name":"Rhyolite","category":10,"distinct_rating":1.38,"distinct_type":"Bottom","item_type":"Foil","rt":1422,"stimulus":"Stimuli_Rocks480/I_Rhyolite_08.png","response":"l","trial_type":"image-keyboard-response","trial_index":147,"plugin_version":"2.1.0","time_elapsed":271166,"subject_id":"92576","group":"Group1","condition":"1_Rep","full_date":"2026-02-25T02:21:31.462Z","date":"2026-02-25","time":"02:21:31","cor_ans":false},{"trial_type":"html-keyboard-response","rt":null,"stimulus":"<p style=\"color: red; font-size: 50px; font-weight: bold;\">Incorrect</p>","response":null,"trial_index":148,"plugin_version":"2.1.0","time_elapsed":271667,"subject_id":"92576","group":"Group1","condition":"1_Rep","full_date":"2026-02-25T02:21:31.462Z","date":"2026-02-25","time":"02:21:31"},{"correct_response":"l","task":"test_phase","broad_category":"I","image_png":"I_Diorite_05.png","image_id":37,"category_name":"Diorite","category":3,"distinct_rating":3.08,"distinct_type":"Bottom","item_type":"Target","rt":1043,"stimulus":"Stimuli_Rocks480/I_Diorite_05.png","response":"l","trial_type":"image-keyboard-response","trial_index":149,"plugin_version":"2.1.0","time_elapsed":272711,"subject_id":"92576","group":"Group1","condition":"1_Rep","full_date":"2026-02-25T02:21:31.462Z","date":"2026-02-25","time":"02:21:31","cor_ans":true},{"trial_type":"html-keyboard-response","rt":null,"stimulus":"<p style=\"color: green; font-size: 50px; font-weight: bold;\">Correct</p>","response":null,"trial_index":150,"plugin_version":"2.1.0","time_elapsed":273213,"subject_id":"92576","group":"Group1","condition":"1_Rep","full_date":"2026-02-25T02:21:31.462Z","date":"2026-02-25","time":"02:21:31"},{"correct_response":"l","task":"test_phase","broad_category":"M","image_png":"M_Slate_11.png","image_id":315,"category_name":"Slate","category":20,"distinct_rating":2.75,"distinct_type":"Bottom","item_type":"Target","rt":905,"stimulus":"Stimuli_Rocks480/M_Slate_11.png","response":"l","trial_type":"image-keyboard-response","trial_index":151,"plugin_version":"2.1.0","time_elapsed":274119,"subject_id":"92576","group":"Group1","condition":"1_Rep","full_date":"2026-02-25T02:21:31.462Z","date":"2026-02-25","time":"02:21:31","cor_ans":true},{"trial_type":"html-keyboard-response","rt":null,"stimulus":"<p style=\"color: green; font-size: 50px; font-weight: bold;\">Correct</p>","response":null,"trial_index":152,"plugin_version":"2.1.0","time_elapsed":274620,"subject_id":"92576","group":"Group1","condition":"1_Rep","full_date":"2026-02-25T02:21:31.462Z","date":"2026-02-25","time":"02:21:31"},{"correct_response":"a","task":"test_phase","broad_category":"S","image_png":"S_Dolomite_01.png","image_id":385,"category_name":"Dolomite","category":25,"distinct_rating":1.43,"distinct_type":"Bottom","item_type":"Foil","rt":1274,"stimulus":"Stimuli_Rocks480/S_Dolomite_01.png","response":"a","trial_type":"image-keyboard-response","trial_index":153,"plugin_version":"2.1.0","time_elapsed":275895,"subject_id":"92576","group":"Group1","condition":"1_Rep","full_date":"2026-02-25T02:21:31.462Z","date":"2026-02-25","time":"02:21:31","cor_ans":true},{"trial_type":"html-keyboard-response","rt":null,"stimulus":"<p style=\"color: green; font-size: 50px; font-weight: bold;\">Correct</p>","response":null,"trial_index":154,"plugin_version":"2.1.0","time_elapsed":276397,"subject_id":"92576","group":"Group1","condition":"1_Rep","full_date":"2026-02-25T02:21:31.462Z","date":"2026-02-25","time":"02:21:31"},{"correct_response":"l","task":"test_phase","broad_category":"I","image_png":"I_Basalt_02.png","image_id":18,"category_name":"Basalt","category":2,"distinct_rating":1.84,"distinct_type":"Bottom","item_type":"Target","rt":1214,"stimulus":"Stimuli_Rocks480/I_Basalt_02.png","response":"l","trial_type":"image-keyboard-response","trial_index":155,"plugin_version":"2.1.0","time_elapsed":277612,"subject_id":"92576","group":"Group1","condition":"1_Rep","full_date":"2026-02-25T02:21:31.462Z","date":"2026-02-25","time":"02:21:31","cor_ans":true},{"trial_type":"html-keyboard-response","rt":null,"stimulus":"<p style=\"color: green; font-size: 50px; font-weight: bold;\">Correct</p>","response":null,"trial_index":156,"plugin_version":"2.1.0","time_elapsed":278113,"subject_id":"92576","group":"Group1","condition":"1_Rep","full_date":"2026-02-25T02:21:31.462Z","date":"2026-02-25","time":"02:21:31"},{"correct_response":"l","task":"test_phase","broad_category":"M","image_png":"M_Phyllite_03.png","image_id":259,"category_name":"Phyllite","category":17,"distinct_rating":2.5,"distinct_type":"Bottom","item_type":"Target","rt":1541,"stimulus":"Stimuli_Rocks480/M_Phyllite_03.png","response":"a","trial_type":"image-keyboard-response","trial_index":157,"plugin_version":"2.1.0","time_elapsed":279655,"subject_id":"92576","group":"Group1","condition":"1_Rep","full_date":"2026-02-25T02:21:31.462Z","date":"2026-02-25","time":"02:21:31","cor_ans":false},{"trial_type":"html-keyboard-response","rt":null,"stimulus":"<p style=\"color: red; font-size: 50px; font-weight: bold;\">Incorrect</p>","response":null,"trial_index":158,"plugin_version":"2.1.0","time_elapsed":280157,"subject_id":"92576","group":"Group1","condition":"1_Rep","full_date":"2026-02-25T02:21:31.462Z","date":"2026-02-25","time":"02:21:31"},{"correct_response":"a","task":"test_phase","broad_category":"S","image_png":"S_Shale_03.png","image_id":467,"category_name":"Shale","category":30,"distinct_rating":1.95,"distinct_type":"Bottom","item_type":"Foil","rt":1122,"stimulus":"Stimuli_Rocks480/S_Shale_03.png","response":"a","trial_type":"image-keyboard-response","trial_index":159,"plugin_version":"2.1.0","time_elapsed":281280,"subject_id":"92576","group":"Group1","condition":"1_Rep","full_date":"2026-02-25T02:21:31.462Z","date":"2026-02-25","time":"02:21:31","cor_ans":true},{"trial_type":"html-keyboard-response","rt":null,"stimulus":"<p style=\"color: green; font-size: 50px; font-weight: bold;\">Correct</p>","response":null,"trial_index":160,"plugin_version":"2.1.0","time_elapsed":281782,"subject_id":"92576","group":"Group1","condition":"1_Rep","full_date":"2026-02-25T02:21:31.462Z","date":"2026-02-25","time":"02:21:31"},{"correct_response":"a","task":"test_phase","broad_category":"I","image_png":"I_Gabbro_02.png","image_id":50,"category_name":"Gabbro","category":4,"distinct_rating":2.73,"distinct_type":"Bottom","item_type":"Foil","rt":948,"stimulus":"Stimuli_Rocks480/I_Gabbro_02.png","response":"a","trial_type":"image-keyboard-response","trial_index":161,"plugin_version":"2.1.0","time_elapsed":282731,"subject_id":"92576","group":"Group1","condition":"1_Rep","full_date":"2026-02-25T02:21:31.462Z","date":"2026-02-25","time":"02:21:31","cor_ans":true},{"trial_type":"html-keyboard-response","rt":null,"stimulus":"<p style=\"color: green; font-size: 50px; font-weight: bold;\">Correct</p>","response":null,"trial_index":162,"plugin_version":"2.1.0","time_elapsed":283233,"subject_id":"92576","group":"Group1","condition":"1_Rep","full_date":"2026-02-25T02:21:31.462Z","date":"2026-02-25","time":"02:21:31"},{"correct_response":"a","task":"test_phase","broad_category":"M","image_png":"M_Marble_14.png","image_id":238,"category_name":"Marble","category":15,"distinct_rating":3.31,"distinct_type":"Bottom","item_type":"Foil","rt":1012,"stimulus":"Stimuli_Rocks480/M_Marble_14.png","response":"a","trial_type":"image-keyboard-response","trial_index":163,"plugin_version":"2.1.0","time_elapsed":284246,"subject_id":"92576","group":"Group1","condition":"1_Rep","full_date":"2026-02-25T02:21:31.462Z","date":"2026-02-25","time":"02:21:31","cor_ans":true},{"trial_type":"html-keyboard-response","rt":null,"stimulus":"<p style=\"color: green; font-size: 50px; font-weight: bold;\">Correct</p>","response":null,"trial_index":164,"plugin_version":"2.1.0","time_elapsed":284747,"subject_id":"92576","group":"Group1","condition":"1_Rep","full_date":"2026-02-25T02:21:31.462Z","date":"2026-02-25","time":"02:21:31"},{"correct_response":"l","task":"test_phase","broad_category":"M","image_png":"M_Gneiss_05.png","image_id":197,"category_name":"Gneiss","category":13,"distinct_rating":2.97,"distinct_type":"Bottom","item_type":"Target","rt":851,"stimulus":"Stimuli_Rocks480/M_Gneiss_05.png","response":"l","trial_type":"image-keyboard-response","trial_index":165,"plugin_version":"2.1.0","time_elapsed":285600,"subject_id":"92576","group":"Group1","condition":"1_Rep","full_date":"2026-02-25T02:21:31.462Z","date":"2026-02-25","time":"02:21:31","cor_ans":true},{"trial_type":"html-keyboard-response","rt":null,"stimulus":"<p style=\"color: green; font-size: 50px; font-weight: bold;\">Correct</p>","response":null,"trial_index":166,"plugin_version":"2.1.0","time_elapsed":286101,"subject_id":"92576","group":"Group1","condition":"1_Rep","full_date":"2026-02-25T02:21:31.462Z","date":"2026-02-25","time":"02:21:31"},{"correct_response":"a","task":"test_phase","broad_category":"I","image_png":"I_Pumice_01.png","image_id":129,"category_name":"Pumice","category":9,"distinct_rating":3.25,"distinct_type":"Bottom","item_type":"Foil","rt":903,"stimulus":"Stimuli_Rocks480/I_Pumice_01.png","response":"l","trial_type":"image-keyboard-response","trial_index":167,"plugin_version":"2.1.0","time_elapsed":287006,"subject_id":"92576","group":"Group1","condition":"1_Rep","full_date":"2026-02-25T02:21:31.462Z","date":"2026-02-25","time":"02:21:31","cor_ans":false},{"trial_type":"html-keyboard-response","rt":null,"stimulus":"<p style=\"color: red; font-size: 50px; font-weight: bold;\">Incorrect</p>","response":null,"trial_index":168,"plugin_version":"2.1.0","time_elapsed":287507,"subject_id":"92576","group":"Group1","condition":"1_Rep","full_date":"2026-02-25T02:21:31.462Z","date":"2026-02-25","time":"02:21:31"},{"correct_response":"l","task":"test_phase","broad_category":"S","image_png":"S_Conglomerate_05.png","image_id":373,"category_name":"Conglomerate","category":24,"distinct_rating":7.32,"distinct_type":"Top","item_type":"Target","rt":880,"stimulus":"Stimuli_Rocks480/S_Conglomerate_05.png","response":"l","trial_type":"image-keyboard-response","trial_index":169,"plugin_version":"2.1.0","time_elapsed":288388,"subject_id":"92576","group":"Group1","condition":"1_Rep","full_date":"2026-02-25T02:21:31.462Z","date":"2026-02-25","time":"02:21:31","cor_ans":true},{"trial_type":"html-keyboard-response","rt":null,"stimulus":"<p style=\"color: green; font-size: 50px; font-weight: bold;\">Correct</p>","response":null,"trial_index":170,"plugin_version":"2.1.0","time_elapsed":288890,"subject_id":"92576","group":"Group1","condition":"1_Rep","full_date":"2026-02-25T02:21:31.462Z","date":"2026-02-25","time":"02:21:31"},{"correct_response":"l","task":"test_phase","broad_category":"M","image_png":"M_Quartzite_05.png","image_id":277,"category_name":"Quartzite","category":18,"distinct_rating":2.23,"distinct_type":"Bottom","item_type":"Target","rt":1076,"stimulus":"Stimuli_Rocks480/M_Quartzite_05.png","response":"l","trial_type":"image-keyboard-response","trial_index":171,"plugin_version":"2.1.0","time_elapsed":289967,"subject_id":"92576","group":"Group1","condition":"1_Rep","full_date":"2026-02-25T02:21:31.462Z","date":"2026-02-25","time":"02:21:31","cor_ans":true},{"trial_type":"html-keyboard-response","rt":null,"stimulus":"<p style=\"color: green; font-size: 50px; font-weight: bold;\">Correct</p>","response":null,"trial_index":172,"plugin_version":"2.1.0","time_elapsed":290469,"subject_id":"92576","group":"Group1","condition":"1_Rep","full_date":"2026-02-25T02:21:31.462Z","date":"2026-02-25","time":"02:21:31"},{"correct_response":"l","task":"test_phase","broad_category":"M","image_png":"M_Gneiss_13.png","image_id":205,"category_name":"Gneiss","category":13,"distinct_rating":3.26,"distinct_type":"Bottom","item_type":"Target","rt":1310,"stimulus":"Stimuli_Rocks480/M_Gneiss_13.png","response":"l","trial_type":"image-keyboard-response","trial_index":173,"plugin_version":"2.1.0","time_elapsed":291780,"subject_id":"92576","group":"Group1","condition":"1_Rep","full_date":"2026-02-25T02:21:31.462Z","date":"2026-02-25","time":"02:21:31","cor_ans":true},{"trial_type":"html-keyboard-response","rt":null,"stimulus":"<p style=\"color: green; font-size: 50px; font-weight: bold;\">Correct</p>","response":null,"trial_index":174,"plugin_version":"2.1.0","time_elapsed":292282,"subject_id":"92576","group":"Group1","condition":"1_Rep","full_date":"2026-02-25T02:21:31.462Z","date":"2026-02-25","time":"02:21:31"},{"correct_response":"a","task":"test_phase","broad_category":"S","image_png":"S_Shale_02.png","image_id":466,"category_name":"Shale","category":30,"distinct_rating":2.9,"distinct_type":"Bottom","item_type":"Foil","rt":1325,"stimulus":"Stimuli_Rocks480/S_Shale_02.png","response":"a","trial_type":"image-keyboard-response","trial_index":175,"plugin_version":"2.1.0","time_elapsed":293607,"subject_id":"92576","group":"Group1","condition":"1_Rep","full_date":"2026-02-25T02:21:31.462Z","date":"2026-02-25","time":"02:21:31","cor_ans":true},{"trial_type":"html-keyboard-response","rt":null,"stimulus":"<p style=\"color: green; font-size: 50px; font-weight: bold;\">Correct</p>","response":null,"trial_index":176,"plugin_version":"2.1.0","time_elapsed":294108,"subject_id":"92576","group":"Group1","condition":"1_Rep","full_date":"2026-02-25T02:21:31.462Z","date":"2026-02-25","time":"02:21:31"},{"correct_response":"a","task":"test_phase","broad_category":"M","image_png":"M_Gneiss_14.png","image_id":206,"category_name":"Gneiss","category":13,"distinct_rating":3.41,"distinct_type":"Bottom","item_type":"Foil","rt":888,"stimulus":"Stimuli_Rocks480/M_Gneiss_14.png","response":"l","trial_type":"image-keyboard-response","trial_index":177,"plugin_version":"2.1.0","time_elapsed":294998,"subject_id":"92576","group":"Group1","condition":"1_Rep","full_date":"2026-02-25T02:21:31.462Z","date":"2026-02-25","time":"02:21:31","cor_ans":false},{"trial_type":"html-keyboard-response","rt":null,"stimulus":"<p style=\"color: red; font-size: 50px; font-weight: bold;\">Incorrect</p>","response":null,"trial_index":178,"plugin_version":"2.1.0","time_elapsed":295500,"subject_id":"92576","group":"Group1","condition":"1_Rep","full_date":"2026-02-25T02:21:31.462Z","date":"2026-02-25","time":"02:21:31"},{"correct_response":"l","task":"test_phase","broad_category":"I","image_png":"I_Pegmatite_16.png","image_id":112,"category_name":"Pegmatite","category":7,"distinct_rating":7.03,"distinct_type":"Top","item_type":"Target","rt":1226,"stimulus":"Stimuli_Rocks480/I_Pegmatite_16.png","response":"l","trial_type":"image-keyboard-response","trial_index":179,"plugin_version":"2.1.0","time_elapsed":296727,"subject_id":"92576","group":"Group1","condition":"1_Rep","full_date":"2026-02-25T02:21:31.462Z","date":"2026-02-25","time":"02:21:31","cor_ans":true},{"trial_type":"html-keyboard-response","rt":null,"stimulus":"<p style=\"color: green; font-size: 50px; font-weight: bold;\">Correct</p>","response":null,"trial_index":180,"plugin_version":"2.1.0","time_elapsed":297228,"subject_id":"92576","group":"Group1","condition":"1_Rep","full_date":"2026-02-25T02:21:31.462Z","date":"2026-02-25","time":"02:21:31"},{"correct_response":"a","task":"test_phase","broad_category":"M","image_png":"M_Gneiss_10.png","image_id":202,"category_name":"Gneiss","category":13,"distinct_rating":3.09,"distinct_type":"Bottom","item_type":"Foil","rt":1314,"stimulus":"Stimuli_Rocks480/M_Gneiss_10.png","response":"a","trial_type":"image-keyboard-response","trial_index":181,"plugin_version":"2.1.0","time_elapsed":298544,"subject_id":"92576","group":"Group1","condition":"1_Rep","full_date":"2026-02-25T02:21:31.462Z","date":"2026-02-25","time":"02:21:31","cor_ans":true},{"trial_type":"html-keyboard-response","rt":null,"stimulus":"<p style=\"color: green; font-size: 50px; font-weight: bold;\">Correct</p>","response":null,"trial_index":182,"plugin_version":"2.1.0","time_elapsed":299045,"subject_id":"92576","group":"Group1","condition":"1_Rep","full_date":"2026-02-25T02:21:31.462Z","date":"2026-02-25","time":"02:21:31"},{"correct_response":"a","task":"test_phase","broad_category":"M","image_png":"M_Slate_14.png","image_id":318,"category_name":"Slate","category":20,"distinct_rating":2.58,"distinct_type":"Bottom","item_type":"Foil","rt":1005,"stimulus":"Stimuli_Rocks480/M_Slate_14.png","response":"l","trial_type":"image-keyboard-response","trial_index":183,"plugin_version":"2.1.0","time_elapsed":300051,"subject_id":"92576","group":"Group1","condition":"1_Rep","full_date":"2026-02-25T02:21:31.462Z","date":"2026-02-25","time":"02:21:31","cor_ans":false},{"trial_type":"html-keyboard-response","rt":null,"stimulus":"<p style=\"color: red; font-size: 50px; font-weight: bold;\">Incorrect</p>","response":null,"trial_index":184,"plugin_version":"2.1.0","time_elapsed":300552,"subject_id":"92576","group":"Group1","condition":"1_Rep","full_date":"2026-02-25T02:21:31.462Z","date":"2026-02-25","time":"02:21:31"},{"correct_response":"l","task":"test_phase","broad_category":"S","image_png":"S_Dolomite_14.png","image_id":398,"category_name":"Dolomite","category":25,"distinct_rating":1.43,"distinct_type":"Bottom","item_type":"Target","rt":1394,"stimulus":"Stimuli_Rocks480/S_Dolomite_14.png","response":"l","trial_type":"image-keyboard-response","trial_index":185,"plugin_version":"2.1.0","time_elapsed":301948,"subject_id":"92576","group":"Group1","condition":"1_Rep","full_date":"2026-02-25T02:21:31.462Z","date":"2026-02-25","time":"02:21:31","cor_ans":true},{"trial_type":"html-keyboard-response","rt":null,"stimulus":"<p style=\"color: green; font-size: 50px; font-weight: bold;\">Correct</p>","response":null,"trial_index":186,"plugin_version":"2.1.0","time_elapsed":302448,"subject_id":"92576","group":"Group1","condition":"1_Rep","full_date":"2026-02-25T02:21:31.462Z","date":"2026-02-25","time":"02:21:31"},{"correct_response":"l","task":"test_phase","broad_category":"I","image_png":"I_Basalt_01.png","image_id":17,"category_name":"Basalt","category":2,"distinct_rating":1.92,"distinct_type":"Bottom","item_type":"Target","rt":988,"stimulus":"Stimuli_Rocks480/I_Basalt_01.png","response":"l","trial_type":"image-keyboard-response","trial_index":187,"plugin_version":"2.1.0","time_elapsed":303437,"subject_id":"92576","group":"Group1","condition":"1_Rep","full_date":"2026-02-25T02:21:31.462Z","date":"2026-02-25","time":"02:21:31","cor_ans":true},{"trial_type":"html-keyboard-response","rt":null,"stimulus":"<p style=\"color: green; font-size: 50px; font-weight: bold;\">Correct</p>","response":null,"trial_index":188,"plugin_version":"2.1.0","time_elapsed":303939,"subject_id":"92576","group":"Group1","condition":"1_Rep","full_date":"2026-02-25T02:21:31.462Z","date":"2026-02-25","time":"02:21:31"},{"correct_response":"a","task":"test_phase","broad_category":"I","image_png":"I_Diorite_01.png","image_id":33,"category_name":"Diorite","category":3,"distinct_rating":2.97,"distinct_type":"Bottom","item_type":"Foil","rt":1058,"stimulus":"Stimuli_Rocks480/I_Diorite_01.png","response":"l","trial_type":"image-keyboard-response","trial_index":189,"plugin_version":"2.1.0","time_elapsed":304998,"subject_id":"92576","group":"Group1","condition":"1_Rep","full_date":"2026-02-25T02:21:31.462Z","date":"2026-02-25","time":"02:21:31","cor_ans":false},{"trial_type":"html-keyboard-response","rt":null,"stimulus":"<p style=\"color: red; font-size: 50px; font-weight: bold;\">Incorrect</p>","response":null,"trial_index":190,"plugin_version":"2.1.0","time_elapsed":305499,"subject_id":"92576","group":"Group1","condition":"1_Rep","full_date":"2026-02-25T02:21:31.462Z","date":"2026-02-25","time":"02:21:31"},{"correct_response":"a","task":"test_phase","broad_category":"I","image_png":"I_Obsidian_06.png","image_id":86,"category_name":"Obsidian","category":6,"distinct_rating":8.01,"distinct_type":"Top","item_type":"Foil","rt":2673,"stimulus":"Stimuli_Rocks480/I_Obsidian_06.png","response":"a","trial_type":"image-keyboard-response","trial_index":191,"plugin_version":"2.1.0","time_elapsed":308173,"subject_id":"92576","group":"Group1","condition":"1_Rep","full_date":"2026-02-25T02:21:31.462Z","date":"2026-02-25","time":"02:21:31","cor_ans":true},{"trial_type":"html-keyboard-response","rt":null,"stimulus":"<p style=\"color: green; font-size: 50px; font-weight: bold;\">Correct</p>","response":null,"trial_index":192,"plugin_version":"2.1.0","time_elapsed":308675,"subject_id":"92576","group":"Group1","condition":"1_Rep","full_date":"2026-02-25T02:21:31.462Z","date":"2026-02-25","time":"02:21:31"},{"correct_response":"a","task":"test_phase","broad_category":"S","image_png":"S_Shale_07.png","image_id":471,"category_name":"Shale","category":30,"distinct_rating":2.73,"distinct_type":"Bottom","item_type":"Foil","rt":983,"stimulus":"Stimuli_Rocks480/S_Shale_07.png","response":"a","trial_type":"image-keyboard-response","trial_index":193,"plugin_version":"2.1.0","time_elapsed":309659,"subject_id":"92576","group":"Group1","condition":"1_Rep","full_date":"2026-02-25T02:21:31.462Z","date":"2026-02-25","time":"02:21:31","cor_ans":true},{"trial_type":"html-keyboard-response","rt":null,"stimulus":"<p style=\"color: green; font-size: 50px; font-weight: bold;\">Correct</p>","response":null,"trial_index":194,"plugin_version":"2.1.0","time_elapsed":310161,"subject_id":"92576","group":"Group1","condition":"1_Rep","full_date":"2026-02-25T02:21:31.462Z","date":"2026-02-25","time":"02:21:31"},{"correct_response":"l","task":"test_phase","broad_category":"I","image_png":"I_Pegmatite_10.png","image_id":106,"category_name":"Pegmatite","category":7,"distinct_rating":7.66,"distinct_type":"Top","item_type":"Target","rt":1012,"stimulus":"Stimuli_Rocks480/I_Pegmatite_10.png","response":"l","trial_type":"image-keyboard-response","trial_index":195,"plugin_version":"2.1.0","time_elapsed":311174,"subject_id":"92576","group":"Group1","condition":"1_Rep","full_date":"2026-02-25T02:21:31.462Z","date":"2026-02-25","time":"02:21:31","cor_ans":true},{"trial_type":"html-keyboard-response","rt":null,"stimulus":"<p style=\"color: green; font-size: 50px; font-weight: bold;\">Correct</p>","response":null,"trial_index":196,"plugin_version":"2.1.0","time_elapsed":311675,"subject_id":"92576","group":"Group1","condition":"1_Rep","full_date":"2026-02-25T02:21:31.462Z","date":"2026-02-25","time":"02:21:31"},{"correct_response":"a","task":"test_phase","broad_category":"I","image_png":"I_Basalt_13.png","image_id":29,"category_name":"Basalt","category":2,"distinct_rating":2.68,"distinct_type":"Bottom","item_type":"Foil","rt":1071,"stimulus":"Stimuli_Rocks480/I_Basalt_13.png","response":"a","trial_type":"image-keyboard-response","trial_index":197,"plugin_version":"2.1.0","time_elapsed":312747,"subject_id":"92576","group":"Group1","condition":"1_Rep","full_date":"2026-02-25T02:21:31.462Z","date":"2026-02-25","time":"02:21:31","cor_ans":true},{"trial_type":"html-keyboard-response","rt":null,"stimulus":"<p style=\"color: green; font-size: 50px; font-weight: bold;\">Correct</p>","response":null,"trial_index":198,"plugin_version":"2.1.0","time_elapsed":313249,"subject_id":"92576","group":"Group1","condition":"1_Rep","full_date":"2026-02-25T02:21:31.462Z","date":"2026-02-25","time":"02:21:31"},{"correct_response":"a","task":"test_phase","broad_category":"I","image_png":"I_Rhyolite_10.png","image_id":154,"category_name":"Rhyolite","category":10,"distinct_rating":2.88,"distinct_type":"Bottom","item_type":"Foil","rt":970,"stimulus":"Stimuli_Rocks480/I_Rhyolite_10.png","response":"l","trial_type":"image-keyboard-response","trial_index":199,"plugin_version":"2.1.0","time_elapsed":314220,"subject_id":"92576","group":"Group1","condition":"1_Rep","full_date":"2026-02-25T02:21:31.462Z","date":"2026-02-25","time":"02:21:31","cor_ans":false},{"trial_type":"html-keyboard-response","rt":null,"stimulus":"<p style=\"color: red; font-size: 50px; font-weight: bold;\">Incorrect</p>","response":null,"trial_index":200,"plugin_version":"2.1.0","time_elapsed":314721,"subject_id":"92576","group":"Group1","condition":"1_Rep","full_date":"2026-02-25T02:21:31.462Z","date":"2026-02-25","time":"02:21:31"},{"correct_response":"a","task":"test_phase","broad_category":"S","image_png":"S_Rock Salt_15.png","image_id":447,"category_name":"Rock Salt","category":28,"distinct_rating":7.79,"distinct_type":"Top","item_type":"Foil","rt":1693,"stimulus":"Stimuli_Rocks480/S_Rock Salt_15.png","response":"a","trial_type":"image-keyboard-response","trial_index":201,"plugin_version":"2.1.0","time_elapsed":316415,"subject_id":"92576","group":"Group1","condition":"1_Rep","full_date":"2026-02-25T02:21:31.462Z","date":"2026-02-25","time":"02:21:31","cor_ans":true},{"trial_type":"html-keyboard-response","rt":null,"stimulus":"<p style=\"color: green; font-size: 50px; font-weight: bold;\">Correct</p>","response":null,"trial_index":202,"plugin_version":"2.1.0","time_elapsed":316916,"subject_id":"92576","group":"Group1","condition":"1_Rep","full_date":"2026-02-25T02:21:31.462Z","date":"2026-02-25","time":"02:21:31"},{"correct_response":"a","task":"test_phase","broad_category":"I","image_png":"I_Peridotite_13.png","image_id":125,"category_name":"Peridotite","category":8,"distinct_rating":7.28,"distinct_type":"Top","item_type":"Foil","rt":1430,"stimulus":"Stimuli_Rocks480/I_Peridotite_13.png","response":"a","trial_type":"image-keyboard-response","trial_index":203,"plugin_version":"2.1.0","time_elapsed":318347,"subject_id":"92576","group":"Group1","condition":"1_Rep","full_date":"2026-02-25T02:21:31.462Z","date":"2026-02-25","time":"02:21:31","cor_ans":true},{"trial_type":"html-keyboard-response","rt":null,"stimulus":"<p style=\"color: green; font-size: 50px; font-weight: bold;\">Correct</p>","response":null,"trial_index":204,"plugin_version":"2.1.0","time_elapsed":318849,"subject_id":"92576","group":"Group1","condition":"1_Rep","full_date":"2026-02-25T02:21:31.462Z","date":"2026-02-25","time":"02:21:31"},{"correct_response":"a","task":"test_phase","broad_category":"I","image_png":"I_Diorite_15.png","image_id":47,"category_name":"Diorite","category":3,"distinct_rating":3.05,"distinct_type":"Bottom","item_type":"Foil","rt":1370,"stimulus":"Stimuli_Rocks480/I_Diorite_15.png","response":"a","trial_type":"image-keyboard-response","trial_index":205,"plugin_version":"2.1.0","time_elapsed":320220,"subject_id":"92576","group":"Group1","condition":"1_Rep","full_date":"2026-02-25T02:21:31.462Z","date":"2026-02-25","time":"02:21:31","cor_ans":true},{"trial_type":"html-keyboard-response","rt":null,"stimulus":"<p style=\"color: green; font-size: 50px; font-weight: bold;\">Correct</p>","response":null,"trial_index":206,"plugin_version":"2.1.0","time_elapsed":320722,"subject_id":"92576","group":"Group1","condition":"1_Rep","full_date":"2026-02-25T02:21:31.462Z","date":"2026-02-25","time":"02:21:31"},{"correct_response":"a","task":"test_phase","broad_category":"S","image_png":"S_Sandstone_11.png","image_id":459,"category_name":"Sandstone","category":29,"distinct_rating":1.82,"distinct_type":"Bottom","item_type":"Foil","rt":1011,"stimulus":"Stimuli_Rocks480/S_Sandstone_11.png","response":"a","trial_type":"image-keyboard-response","trial_index":207,"plugin_version":"2.1.0","time_elapsed":321734,"subject_id":"92576","group":"Group1","condition":"1_Rep","full_date":"2026-02-25T02:21:31.462Z","date":"2026-02-25","time":"02:21:31","cor_ans":true},{"trial_type":"html-keyboard-response","rt":null,"stimulus":"<p style=\"color: green; font-size: 50px; font-weight: bold;\">Correct</p>","response":null,"trial_index":208,"plugin_version":"2.1.0","time_elapsed":322236,"subject_id":"92576","group":"Group1","condition":"1_Rep","full_date":"2026-02-25T02:21:31.462Z","date":"2026-02-25","time":"02:21:31"},{"correct_response":"l","task":"test_phase","broad_category":"I","image_png":"I_Rhyolite_11.png","image_id":155,"category_name":"Rhyolite","category":10,"distinct_rating":1.73,"distinct_type":"Bottom","item_type":"Target","rt":968,"stimulus":"Stimuli_Rocks480/I_Rhyolite_11.png","response":"l","trial_type":"image-keyboard-response","trial_index":209,"plugin_version":"2.1.0","time_elapsed":323205,"subject_id":"92576","group":"Group1","condition":"1_Rep","full_date":"2026-02-25T02:21:31.462Z","date":"2026-02-25","time":"02:21:31","cor_ans":true},{"trial_type":"html-keyboard-response","rt":null,"stimulus":"<p style=\"color: green; font-size: 50px; font-weight: bold;\">Correct</p>","response":null,"trial_index":210,"plugin_version":"2.1.0","time_elapsed":323706,"subject_id":"92576","group":"Group1","condition":"1_Rep","full_date":"2026-02-25T02:21:31.462Z","date":"2026-02-25","time":"02:21:31"},{"correct_response":"a","task":"test_phase","broad_category":"I","image_png":"I_Andesite_03.png","image_id":3,"category_name":"Andesite","category":1,"distinct_rating":3.17,"distinct_type":"Bottom","item_type":"Foil","rt":1127,"stimulus":"Stimuli_Rocks480/I_Andesite_03.png","response":"a","trial_type":"image-keyboard-response","trial_index":211,"plugin_version":"2.1.0","time_elapsed":324834,"subject_id":"92576","group":"Group1","condition":"1_Rep","full_date":"2026-02-25T02:21:31.462Z","date":"2026-02-25","time":"02:21:31","cor_ans":true},{"trial_type":"html-keyboard-response","rt":null,"stimulus":"<p style=\"color: green; font-size: 50px; font-weight: bold;\">Correct</p>","response":null,"trial_index":212,"plugin_version":"2.1.0","time_elapsed":325336,"subject_id":"92576","group":"Group1","condition":"1_Rep","full_date":"2026-02-25T02:21:31.462Z","date":"2026-02-25","time":"02:21:31"},{"correct_response":"a","task":"test_phase","broad_category":"S","image_png":"S_Rock Salt_13.png","image_id":445,"category_name":"Rock Salt","category":28,"distinct_rating":7.58,"distinct_type":"Top","item_type":"Foil","rt":879,"stimulus":"Stimuli_Rocks480/S_Rock Salt_13.png","response":"a","trial_type":"image-keyboard-response","trial_index":213,"plugin_version":"2.1.0","time_elapsed":326216,"subject_id":"92576","group":"Group1","condition":"1_Rep","full_date":"2026-02-25T02:21:31.462Z","date":"2026-02-25","time":"02:21:31","cor_ans":true},{"trial_type":"html-keyboard-response","rt":null,"stimulus":"<p style=\"color: green; font-size: 50px; font-weight: bold;\">Correct</p>","response":null,"trial_index":214,"plugin_version":"2.1.0","time_elapsed":326718,"subject_id":"92576","group":"Group1","condition":"1_Rep","full_date":"2026-02-25T02:21:31.462Z","date":"2026-02-25","time":"02:21:31"},{"correct_response":"l","task":"test_phase","broad_category":"S","image_png":"S_Sandstone_16.png","image_id":464,"category_name":"Sandstone","category":29,"distinct_rating":1.93,"distinct_type":"Bottom","item_type":"Target","rt":989,"stimulus":"Stimuli_Rocks480/S_Sandstone_16.png","response":"l","trial_type":"image-keyboard-response","trial_index":215,"plugin_version":"2.1.0","time_elapsed":327708,"subject_id":"92576","group":"Group1","condition":"1_Rep","full_date":"2026-02-25T02:21:31.462Z","date":"2026-02-25","time":"02:21:31","cor_ans":true},{"trial_type":"html-keyboard-response","rt":null,"stimulus":"<p style=\"color: green; font-size: 50px; font-weight: bold;\">Correct</p>","response":null,"trial_index":216,"plugin_version":"2.1.0","time_elapsed":328210,"subject_id":"92576","group":"Group1","condition":"1_Rep","full_date":"2026-02-25T02:21:31.462Z","date":"2026-02-25","time":"02:21:31"},{"correct_response":"l","task":"test_phase","broad_category":"M","image_png":"M_Slate_03.png","image_id":307,"category_name":"Slate","category":20,"distinct_rating":1.87,"distinct_type":"Bottom","item_type":"Target","rt":1041,"stimulus":"Stimuli_Rocks480/M_Slate_03.png","response":"l","trial_type":"image-keyboard-response","trial_index":217,"plugin_version":"2.1.0","time_elapsed":329252,"subject_id":"92576","group":"Group1","condition":"1_Rep","full_date":"2026-02-25T02:21:31.462Z","date":"2026-02-25","time":"02:21:31","cor_ans":true},{"trial_type":"html-keyboard-response","rt":null,"stimulus":"<p style=\"color: green; font-size: 50px; font-weight: bold;\">Correct</p>","response":null,"trial_index":218,"plugin_version":"2.1.0","time_elapsed":329753,"subject_id":"92576","group":"Group1","condition":"1_Rep","full_date":"2026-02-25T02:21:31.462Z","date":"2026-02-25","time":"02:21:31"},{"correct_response":"l","task":"test_phase","broad_category":"S","image_png":"S_Breccia_11.png","image_id":347,"category_name":"Breccia","category":22,"distinct_rating":6.7,"distinct_type":"Top","item_type":"Target","rt":940,"stimulus":"Stimuli_Rocks480/S_Breccia_11.png","response":"l","trial_type":"image-keyboard-response","trial_index":219,"plugin_version":"2.1.0","time_elapsed":330694,"subject_id":"92576","group":"Group1","condition":"1_Rep","full_date":"2026-02-25T02:21:31.462Z","date":"2026-02-25","time":"02:21:31","cor_ans":true},{"trial_type":"html-keyboard-response","rt":null,"stimulus":"<p style=\"color: green; font-size: 50px; font-weight: bold;\">Correct</p>","response":null,"trial_index":220,"plugin_version":"2.1.0","time_elapsed":331196,"subject_id":"92576","group":"Group1","condition":"1_Rep","full_date":"2026-02-25T02:21:31.462Z","date":"2026-02-25","time":"02:21:31"},{"correct_response":"l","task":"test_phase","broad_category":"I","image_png":"I_Andesite_08.png","image_id":8,"category_name":"Andesite","category":1,"distinct_rating":1.95,"distinct_type":"Bottom","item_type":"Target","rt":1074,"stimulus":"Stimuli_Rocks480/I_Andesite_08.png","response":"l","trial_type":"image-keyboard-response","trial_index":221,"plugin_version":"2.1.0","time_elapsed":332272,"subject_id":"92576","group":"Group1","condition":"1_Rep","full_date":"2026-02-25T02:21:31.462Z","date":"2026-02-25","time":"02:21:31","cor_ans":true},{"trial_type":"html-keyboard-response","rt":null,"stimulus":"<p style=\"color: green; font-size: 50px; font-weight: bold;\">Correct</p>","response":null,"trial_index":222,"plugin_version":"2.1.0","time_elapsed":332773,"subject_id":"92576","group":"Group1","condition":"1_Rep","full_date":"2026-02-25T02:21:31.462Z","date":"2026-02-25","time":"02:21:31"},{"correct_response":"a","task":"test_phase","broad_category":"M","image_png":"M_Marble_03.png","image_id":227,"category_name":"Marble","category":15,"distinct_rating":2.67,"distinct_type":"Bottom","item_type":"Foil","rt":908,"stimulus":"Stimuli_Rocks480/M_Marble_03.png","response":"a","trial_type":"image-keyboard-response","trial_index":223,"plugin_version":"2.1.0","time_elapsed":333683,"subject_id":"92576","group":"Group1","condition":"1_Rep","full_date":"2026-02-25T02:21:31.462Z","date":"2026-02-25","time":"02:21:31","cor_ans":true},{"trial_type":"html-keyboard-response","rt":null,"stimulus":"<p style=\"color: green; font-size: 50px; font-weight: bold;\">Correct</p>","response":null,"trial_index":224,"plugin_version":"2.1.0","time_elapsed":334184,"subject_id":"92576","group":"Group1","condition":"1_Rep","full_date":"2026-02-25T02:21:31.462Z","date":"2026-02-25","time":"02:21:31"},{"correct_response":"l","task":"test_phase","broad_category":"I","image_png":"