[{"width":1280,"height":719,"webaudio":true,"browser":"safari","browser_version":"18.6.0","mobile":false,"os":"Mac OS","fullscreen":true,"vsync_rate":59.82,"webcam":true,"microphone":true,"trial_type":"browser-check","trial_index":0,"plugin_version":"2.1.0","time_elapsed":1012,"subject_id":"92078","group":"Group1","condition":"3_Rep","full_date":"2026-01-24T22:35:27.157Z","date":"2026-01-24","time":"22:35:27"},{"success":true,"timeout":false,"failed_images":[],"failed_audio":[],"failed_video":[],"trial_type":"preload","trial_index":1,"plugin_version":"2.1.0","time_elapsed":2338,"subject_id":"92078","group":"Group1","condition":"3_Rep","full_date":"2026-01-24T22:35:27.157Z","date":"2026-01-24","time":"22:35:27"},{"rt":7392,"url":"SONA_consent_memorability.html","trial_type":"external-html","trial_index":2,"plugin_version":"2.1.0","time_elapsed":9747,"subject_id":"92078","group":"Group1","condition":"3_Rep","full_date":"2026-01-24T22:35:27.157Z","date":"2026-01-24","time":"22:35:27"},{"success":true,"rt":1763,"trial_type":"fullscreen","trial_index":3,"plugin_version":"2.1.0","time_elapsed":12516,"subject_id":"92078","group":"Group1","condition":"3_Rep","full_date":"2026-01-24T22:35:27.157Z","date":"2026-01-24","time":"22:35:27"},{"rt":1644,"stimulus":"<div style=\"max-width: 760px; margin: auto; font-size: 20px; line-height: 1.5;\">\n      <h1 style=\"text-align:center; font-size: 30px;\">Instructions</h1>\n      <p>\n        Welcome to the study on <b>visual memory</b>. This experiment consists of <b>two phases</b>: \n        a <b>study phase</b> and a <b>test phase</b>.\n      </p>\n      <p>\n        In the study phase, you will see a series of rock images along with their category labels.\n        The images will appear one at a time.\n        <b>Your task</b> is to learn the categories to which the rock images belong \n        and to remember each image as accurately as possible.\n      </p> \n      <p>\n        Note that we will repeat the study phase <b>3 times</b>, \n             so you will have multiple opportunities to see and remember each image.\n      </p>\n      <p>\n        After the study phase, <b>your memory will be tested</b>. \n        Additional instructions for the test phase will be provided at that time.\n      </p>\n      <p>\n        If your computer has multiple <b>language settings</b> (e.g., English and another language),\n        please make sure it is set to English before starting.\n      </p>\n      <p>\n        You can track your progress using the <b>completion bar</b> at the top of the screen. \n        Please note that the bar will refresh when the test phase begins \n        to give you an accurate sense of your progress in both phases.\n      </p> \n      <p>\n        Press the button below when you are ready to begin.\n      </p>\n    </div>","response":0,"trial_type":"html-button-response","trial_index":4,"plugin_version":"2.1.0","time_elapsed":14162,"subject_id":"92078","group":"Group1","condition":"3_Rep","full_date":"2026-01-24T22:35:27.157Z","date":"2026-01-24","time":"22:35:27"},{"rt":null,"stimulus":"<p style=\"font-size: 50px; margin: 0; text-align: center;\">+</p>","response":null,"trial_type":"html-keyboard-response","trial_index":5,"plugin_version":"2.1.0","time_elapsed":15165,"subject_id":"92078","group":"Group1","condition":"3_Rep","full_date":"2026-01-24T22:35:27.157Z","date":"2026-01-24","time":"22:35:27"},{"task":"memory_phase","broad_category":"M","image_png":"M_Gneiss_05.png","image_id":197,"category_name":"Gneiss","category":13,"distinct_rating":2.97,"distinct_type":"Bottom","rt":null,"stimulus":"Stimuli_Rocks480/M_Gneiss_05.png","response":null,"trial_type":"image-keyboard-response","trial_index":6,"plugin_version":"2.1.0","time_elapsed":17686,"subject_id":"92078","group":"Group1","condition":"3_Rep","full_date":"2026-01-24T22:35:27.157Z","date":"2026-01-24","time":"22:35:27"},{"rt":null,"stimulus":"<p style=\"font-size: 50px; margin: 0; text-align: center;\">+</p>","response":null,"trial_type":"html-keyboard-response","trial_index":7,"plugin_version":"2.1.0","time_elapsed":18689,"subject_id":"92078","group":"Group1","condition":"3_Rep","full_date":"2026-01-24T22:35:27.157Z","date":"2026-01-24","time":"22:35:27"},{"task":"memory_phase","broad_category":"I","image_png":"I_Basalt_09.png","image_id":25,"category_name":"Basalt","category":2,"distinct_rating":1.89,"distinct_type":"Bottom","rt":null,"stimulus":"Stimuli_Rocks480/I_Basalt_09.png","response":null,"trial_type":"image-keyboard-response","trial_index":8,"plugin_version":"2.1.0","time_elapsed":21203,"subject_id":"92078","group":"Group1","condition":"3_Rep","full_date":"2026-01-24T22:35:27.157Z","date":"2026-01-24","time":"22:35:27"},{"rt":null,"stimulus":"<p style=\"font-size: 50px; margin: 0; text-align: center;\">+</p>","response":null,"trial_type":"html-keyboard-response","trial_index":9,"plugin_version":"2.1.0","time_elapsed":22205,"subject_id":"92078","group":"Group1","condition":"3_Rep","full_date":"2026-01-24T22:35:27.157Z","date":"2026-01-24","time":"22:35:27"},{"task":"memory_phase","broad_category":"S","image_png":"S_Dolomite_13.png","image_id":397,"category_name":"Dolomite","category":25,"distinct_rating":1.77,"distinct_type":"Bottom","rt":null,"stimulus":"Stimuli_Rocks480/S_Dolomite_13.png","response":null,"trial_type":"image-keyboard-response","trial_index":10,"plugin_version":"2.1.0","time_elapsed":24721,"subject_id":"92078","group":"Group1","condition":"3_Rep","full_date":"2026-01-24T22:35:27.157Z","date":"2026-01-24","time":"22:35:27"},{"rt":null,"stimulus":"<p style=\"font-size: 50px; margin: 0; text-align: center;\">+</p>","response":null,"trial_type":"html-keyboard-response","trial_index":11,"plugin_version":"2.1.0","time_elapsed":25723,"subject_id":"92078","group":"Group1","condition":"3_Rep","full_date":"2026-01-24T22:35:27.157Z","date":"2026-01-24","time":"22:35:27"},{"task":"memory_phase","broad_category":"I","image_png":"I_Basalt_01.png","image_id":17,"category_name":"Basalt","category":2,"distinct_rating":1.92,"distinct_type":"Bottom","rt":null,"stimulus":"Stimuli_Rocks480/I_Basalt_01.png","response":null,"trial_type":"image-keyboard-response","trial_index":12,"plugin_version":"2.1.0","time_elapsed":28240,"subject_id":"92078","group":"Group1","condition":"3_Rep","full_date":"2026-01-24T22:35:27.157Z","date":"2026-01-24","time":"22:35:27"},{"rt":null,"stimulus":"<p style=\"font-size: 50px; margin: 0; text-align: center;\">+</p>","response":null,"trial_type":"html-keyboard-response","trial_index":13,"plugin_version":"2.1.0","time_elapsed":29243,"subject_id":"92078","group":"Group1","condition":"3_Rep","full_date":"2026-01-24T22:35:27.157Z","date":"2026-01-24","time":"22:35:27"},{"task":"memory_phase","broad_category":"M","image_png":"M_Gneiss_13.png","image_id":205,"category_name":"Gneiss","category":13,"distinct_rating":3.26,"distinct_type":"Bottom","rt":null,"stimulus":"Stimuli_Rocks480/M_Gneiss_13.png","response":null,"trial_type":"image-keyboard-response","trial_index":14,"plugin_version":"2.1.0","time_elapsed":31757,"subject_id":"92078","group":"Group1","condition":"3_Rep","full_date":"2026-01-24T22:35:27.157Z","date":"2026-01-24","time":"22:35:27"},{"rt":null,"stimulus":"<p style=\"font-size: 50px; margin: 0; text-align: center;\">+</p>","response":null,"trial_type":"html-keyboard-response","trial_index":15,"plugin_version":"2.1.0","time_elapsed":32759,"subject_id":"92078","group":"Group1","condition":"3_Rep","full_date":"2026-01-24T22:35:27.157Z","date":"2026-01-24","time":"22:35:27"},{"task":"memory_phase","broad_category":"I","image_png":"I_Diorite_03.png","image_id":35,"category_name":"Diorite","category":3,"distinct_rating":3.14,"distinct_type":"Bottom","rt":null,"stimulus":"Stimuli_Rocks480/I_Diorite_03.png","response":null,"trial_type":"image-keyboard-response","trial_index":16,"plugin_version":"2.1.0","time_elapsed":35277,"subject_id":"92078","group":"Group1","condition":"3_Rep","full_date":"2026-01-24T22:35:27.157Z","date":"2026-01-24","time":"22:35:27"},{"rt":null,"stimulus":"<p style=\"font-size: 50px; margin: 0; text-align: center;\">+</p>","response":null,"trial_type":"html-keyboard-response","trial_index":17,"plugin_version":"2.1.0","time_elapsed":36280,"subject_id":"92078","group":"Group1","condition":"3_Rep","full_date":"2026-01-24T22:35:27.157Z","date":"2026-01-24","time":"22:35:27"},{"task":"memory_phase","broad_category":"I","image_png":"I_Diorite_05.png","image_id":37,"category_name":"Diorite","category":3,"distinct_rating":3.08,"distinct_type":"Bottom","rt":null,"stimulus":"Stimuli_Rocks480/I_Diorite_05.png","response":null,"trial_type":"image-keyboard-response","trial_index":18,"plugin_version":"2.1.0","time_elapsed":38795,"subject_id":"92078","group":"Group1","condition":"3_Rep","full_date":"2026-01-24T22:35:27.157Z","date":"2026-01-24","time":"22:35:27"},{"rt":null,"stimulus":"<p style=\"font-size: 50px; margin: 0; text-align: center;\">+</p>","response":null,"trial_type":"html-keyboard-response","trial_index":19,"plugin_version":"2.1.0","time_elapsed":39797,"subject_id":"92078","group":"Group1","condition":"3_Rep","full_date":"2026-01-24T22:35:27.157Z","date":"2026-01-24","time":"22:35:27"},{"task":"memory_phase","broad_category":"M","image_png":"M_Phyllite_03.png","image_id":259,"category_name":"Phyllite","category":17,"distinct_rating":2.5,"distinct_type":"Bottom","rt":null,"stimulus":"Stimuli_Rocks480/M_Phyllite_03.png","response":null,"trial_type":"image-keyboard-response","trial_index":20,"plugin_version":"2.1.0","time_elapsed":42320,"subject_id":"92078","group":"Group1","condition":"3_Rep","full_date":"2026-01-24T22:35:27.157Z","date":"2026-01-24","time":"22:35:27"},{"rt":null,"stimulus":"<p style=\"font-size: 50px; margin: 0; text-align: center;\">+</p>","response":null,"trial_type":"html-keyboard-response","trial_index":21,"plugin_version":"2.1.0","time_elapsed":43322,"subject_id":"92078","group":"Group1","condition":"3_Rep","full_date":"2026-01-24T22:35:27.157Z","date":"2026-01-24","time":"22:35:27"},{"task":"memory_phase","broad_category":"I","image_png":"I_Rhyolite_11.png","image_id":155,"category_name":"Rhyolite","category":10,"distinct_rating":1.73,"distinct_type":"Bottom","rt":null,"stimulus":"Stimuli_Rocks480/I_Rhyolite_11.png","response":null,"trial_type":"image-keyboard-response","trial_index":22,"plugin_version":"2.1.0","time_elapsed":45837,"subject_id":"92078","group":"Group1","condition":"3_Rep","full_date":"2026-01-24T22:35:27.157Z","date":"2026-01-24","time":"22:35:27"},{"rt":null,"stimulus":"<p style=\"font-size: 50px; margin: 0; text-align: center;\">+</p>","response":null,"trial_type":"html-keyboard-response","trial_index":23,"plugin_version":"2.1.0","time_elapsed":46839,"subject_id":"92078","group":"Group1","condition":"3_Rep","full_date":"2026-01-24T22:35:27.157Z","date":"2026-01-24","time":"22:35:27"},{"task":"memory_phase","broad_category":"I","image_png":"I_Rhyolite_14.png","image_id":158,"category_name":"Rhyolite","category":10,"distinct_rating":2.59,"distinct_type":"Bottom","rt":null,"stimulus":"Stimuli_Rocks480/I_Rhyolite_14.png","response":null,"trial_type":"image-keyboard-response","trial_index":24,"plugin_version":"2.1.0","time_elapsed":49354,"subject_id":"92078","group":"Group1","condition":"3_Rep","full_date":"2026-01-24T22:35:27.157Z","date":"2026-01-24","time":"22:35:27"},{"rt":null,"stimulus":"<p style=\"font-size: 50px; margin: 0; text-align: center;\">+</p>","response":null,"trial_type":"html-keyboard-response","trial_index":25,"plugin_version":"2.1.0","time_elapsed":50356,"subject_id":"92078","group":"Group1","condition":"3_Rep","full_date":"2026-01-24T22:35:27.157Z","date":"2026-01-24","time":"22:35:27"},{"task":"memory_phase","broad_category":"I","image_png":"I_Gabbro_08.png","image_id":56,"category_name":"Gabbro","category":4,"distinct_rating":3.02,"distinct_type":"Bottom","rt":null,"stimulus":"Stimuli_Rocks480/I_Gabbro_08.png","response":null,"trial_type":"image-keyboard-response","trial_index":26,"plugin_version":"2.1.0","time_elapsed":52868,"subject_id":"92078","group":"Group1","condition":"3_Rep","full_date":"2026-01-24T22:35:27.157Z","date":"2026-01-24","time":"22:35:27"},{"rt":null,"stimulus":"<p style=\"font-size: 50px; margin: 0; text-align: center;\">+</p>","response":null,"trial_type":"html-keyboard-response","trial_index":27,"plugin_version":"2.1.0","time_elapsed":53870,"subject_id":"92078","group":"Group1","condition":"3_Rep","full_date":"2026-01-24T22:35:27.157Z","date":"2026-01-24","time":"22:35:27"},{"task":"memory_phase","broad_category":"I","image_png":"I_Pegmatite_16.png","image_id":112,"category_name":"Pegmatite","category":7,"distinct_rating":7.03,"distinct_type":"Top","rt":null,"stimulus":"Stimuli_Rocks480/I_Pegmatite_16.png","response":null,"trial_type":"image-keyboard-response","trial_index":28,"plugin_version":"2.1.0","time_elapsed":56386,"subject_id":"92078","group":"Group1","condition":"3_Rep","full_date":"2026-01-24T22:35:27.157Z","date":"2026-01-24","time":"22:35:27"},{"rt":null,"stimulus":"<p style=\"font-size: 50px; margin: 0; text-align: center;\">+</p>","response":null,"trial_type":"html-keyboard-response","trial_index":29,"plugin_version":"2.1.0","time_elapsed":57389,"subject_id":"92078","group":"Group1","condition":"3_Rep","full_date":"2026-01-24T22:35:27.157Z","date":"2026-01-24","time":"22:35:27"},{"task":"memory_phase","broad_category":"I","image_png":"I_Diorite_04.png","image_id":36,"category_name":"Diorite","category":3,"distinct_rating":2.98,"distinct_type":"Bottom","rt":null,"stimulus":"Stimuli_Rocks480/I_Diorite_04.png","response":null,"trial_type":"image-keyboard-response","trial_index":30,"plugin_version":"2.1.0","time_elapsed":59904,"subject_id":"92078","group":"Group1","condition":"3_Rep","full_date":"2026-01-24T22:35:27.157Z","date":"2026-01-24","time":"22:35:27"},{"rt":null,"stimulus":"<p style=\"font-size: 50px; margin: 0; text-align: center;\">+</p>","response":null,"trial_type":"html-keyboard-response","trial_index":31,"plugin_version":"2.1.0","time_elapsed":60907,"subject_id":"92078","group":"Group1","condition":"3_Rep","full_date":"2026-01-24T22:35:27.157Z","date":"2026-01-24","time":"22:35:27"},{"task":"memory_phase","broad_category":"S","image_png":"S_Sandstone_16.png","image_id":464,"category_name":"Sandstone","category":29,"distinct_rating":1.93,"distinct_type":"Bottom","rt":null,"stimulus":"Stimuli_Rocks480/S_Sandstone_16.png","response":null,"trial_type":"image-keyboard-response","trial_index":32,"plugin_version":"2.1.0","time_elapsed":63422,"subject_id":"92078","group":"Group1","condition":"3_Rep","full_date":"2026-01-24T22:35:27.157Z","date":"2026-01-24","time":"22:35:27"},{"rt":null,"stimulus":"<p style=\"font-size: 50px; margin: 0; text-align: center;\">+</p>","response":null,"trial_type":"html-keyboard-response","trial_index":33,"plugin_version":"2.1.0","time_elapsed":64424,"subject_id":"92078","group":"Group1","condition":"3_Rep","full_date":"2026-01-24T22:35:27.157Z","date":"2026-01-24","time":"22:35:27"},{"task":"memory_phase","broad_category":"S","image_png":"S_Conglomerate_05.png","image_id":373,"category_name":"Conglomerate","category":24,"distinct_rating":7.32,"distinct_type":"Top","rt":null,"stimulus":"Stimuli_Rocks480/S_Conglomerate_05.png","response":null,"trial_type":"image-keyboard-response","trial_index":34,"plugin_version":"2.1.0","time_elapsed":66941,"subject_id":"92078","group":"Group1","condition":"3_Rep","full_date":"2026-01-24T22:35:27.157Z","date":"2026-01-24","time":"22:35:27"},{"rt":null,"stimulus":"<p style=\"font-size: 50px; margin: 0; text-align: center;\">+</p>","response":null,"trial_type":"html-keyboard-response","trial_index":35,"plugin_version":"2.1.0","time_elapsed":67943,"subject_id":"92078","group":"Group1","condition":"3_Rep","full_date":"2026-01-24T22:35:27.157Z","date":"2026-01-24","time":"22:35:27"},{"task":"memory_phase","broad_category":"S","image_png":"S_Rock Gypsum_04.png","image_id":420,"category_name":"Rock Gypsum","category":27,"distinct_rating":7.61,"distinct_type":"Top","rt":null,"stimulus":"Stimuli_Rocks480/S_Rock Gypsum_04.png","response":null,"trial_type":"image-keyboard-response","trial_index":36,"plugin_version":"2.1.0","time_elapsed":70458,"subject_id":"92078","group":"Group1","condition":"3_Rep","full_date":"2026-01-24T22:35:27.157Z","date":"2026-01-24","time":"22:35:27"},{"rt":null,"stimulus":"<p style=\"font-size: 50px; margin: 0; text-align: center;\">+</p>","response":null,"trial_type":"html-keyboard-response","trial_index":37,"plugin_version":"2.1.0","time_elapsed":71460,"subject_id":"92078","group":"Group1","condition":"3_Rep","full_date":"2026-01-24T22:35:27.157Z","date":"2026-01-24","time":"22:35:27"},{"task":"memory_phase","broad_category":"I","image_png":"I_Gabbro_11.png","image_id":59,"category_name":"Gabbro","category":4,"distinct_rating":1.99,"distinct_type":"Bottom","rt":null,"stimulus":"Stimuli_Rocks480/I_Gabbro_11.png","response":null,"trial_type":"image-keyboard-response","trial_index":38,"plugin_version":"2.1.0","time_elapsed":73972,"subject_id":"92078","group":"Group1","condition":"3_Rep","full_date":"2026-01-24T22:35:27.157Z","date":"2026-01-24","time":"22:35:27"},{"rt":null,"stimulus":"<p style=\"font-size: 50px; margin: 0; text-align: center;\">+</p>","response":null,"trial_type":"html-keyboard-response","trial_index":39,"plugin_version":"2.1.0","time_elapsed":74975,"subject_id":"92078","group":"Group1","condition":"3_Rep","full_date":"2026-01-24T22:35:27.157Z","date":"2026-01-24","time":"22:35:27"},{"task":"memory_phase","broad_category":"S","image_png":"S_Sandstone_03.png","image_id":451,"category_name":"Sandstone","category":29,"distinct_rating":1.86,"distinct_type":"Bottom","rt":null,"stimulus":"Stimuli_Rocks480/S_Sandstone_03.png","response":null,"trial_type":"image-keyboard-response","trial_index":40,"plugin_version":"2.1.0","time_elapsed":77490,"subject_id":"92078","group":"Group1","condition":"3_Rep","full_date":"2026-01-24T22:35:27.157Z","date":"2026-01-24","time":"22:35:27"},{"rt":null,"stimulus":"<p style=\"font-size: 50px; margin: 0; text-align: center;\">+</p>","response":null,"trial_type":"html-keyboard-response","trial_index":41,"plugin_version":"2.1.0","time_elapsed":78493,"subject_id":"92078","group":"Group1","condition":"3_Rep","full_date":"2026-01-24T22:35:27.157Z","date":"2026-01-24","time":"22:35:27"},{"task":"memory_phase","broad_category":"I","image_png":"I_Andesite_06.png","image_id":6,"category_name":"Andesite","category":1,"distinct_rating":3.17,"distinct_type":"Bottom","rt":null,"stimulus":"Stimuli_Rocks480/I_Andesite_06.png","response":null,"trial_type":"image-keyboard-response","trial_index":42,"plugin_version":"2.1.0","time_elapsed":81011,"subject_id":"92078","group":"Group1","condition":"3_Rep","full_date":"2026-01-24T22:35:27.157Z","date":"2026-01-24","time":"22:35:27"},{"rt":null,"stimulus":"<p style=\"font-size: 50px; margin: 0; text-align: center;\">+</p>","response":null,"trial_type":"html-keyboard-response","trial_index":43,"plugin_version":"2.1.0","time_elapsed":82013,"subject_id":"92078","group":"Group1","condition":"3_Rep","full_date":"2026-01-24T22:35:27.157Z","date":"2026-01-24","time":"22:35:27"},{"task":"memory_phase","broad_category":"I","image_png":"I_Rhyolite_16.png","image_id":160,"category_name":"Rhyolite","category":10,"distinct_rating":2.19,"distinct_type":"Bottom","rt":null,"stimulus":"Stimuli_Rocks480/I_Rhyolite_16.png","response":null,"trial_type":"image-keyboard-response","trial_index":44,"plugin_version":"2.1.0","time_elapsed":84527,"subject_id":"92078","group":"Group1","condition":"3_Rep","full_date":"2026-01-24T22:35:27.157Z","date":"2026-01-24","time":"22:35:27"},{"rt":null,"stimulus":"<p style=\"font-size: 50px; margin: 0; text-align: center;\">+</p>","response":null,"trial_type":"html-keyboard-response","trial_index":45,"plugin_version":"2.1.0","time_elapsed":85529,"subject_id":"92078","group":"Group1","condition":"3_Rep","full_date":"2026-01-24T22:35:27.157Z","date":"2026-01-24","time":"22:35:27"},{"task":"memory_phase","broad_category":"S","image_png":"S_Shale_08.png","image_id":472,"category_name":"Shale","category":30,"distinct_rating":2.55,"distinct_type":"Bottom","rt":null,"stimulus":"Stimuli_Rocks480/S_Shale_08.png","response":null,"trial_type":"image-keyboard-response","trial_index":46,"plugin_version":"2.1.0","time_elapsed":88046,"subject_id":"92078","group":"Group1","condition":"3_Rep","full_date":"2026-01-24T22:35:27.157Z","date":"2026-01-24","time":"22:35:27"},{"rt":null,"stimulus":"<p style=\"font-size: 50px; margin: 0; text-align: center;\">+</p>","response":null,"trial_type":"html-keyboard-response","trial_index":47,"plugin_version":"2.1.0","time_elapsed":89048,"subject_id":"92078","group":"Group1","condition":"3_Rep","full_date":"2026-01-24T22:35:27.157Z","date":"2026-01-24","time":"22:35:27"},{"task":"memory_phase","broad_category":"S","image_png":"S_Rock Salt_01.png","image_id":433,"category_name":"Rock Salt","category":28,"distinct_rating":7.18,"distinct_type":"Top","rt":null,"stimulus":"Stimuli_Rocks480/S_Rock Salt_01.png","response":null,"trial_type":"image-keyboard-response","trial_index":48,"plugin_version":"2.1.0","time_elapsed":91566,"subject_id":"92078","group":"Group1","condition":"3_Rep","full_date":"2026-01-24T22:35:27.157Z","date":"2026-01-24","time":"22:35:27"},{"rt":null,"stimulus":"<p style=\"font-size: 50px; margin: 0; text-align: center;\">+</p>","response":null,"trial_type":"html-keyboard-response","trial_index":49,"plugin_version":"2.1.0","time_elapsed":92569,"subject_id":"92078","group":"Group1","condition":"3_Rep","full_date":"2026-01-24T22:35:27.157Z","date":"2026-01-24","time":"22:35:27"},{"task":"memory_phase","broad_category":"I","image_png":"I_Basalt_02.png","image_id":18,"category_name":"Basalt","category":2,"distinct_rating":1.84,"distinct_type":"Bottom","rt":null,"stimulus":"Stimuli_Rocks480/I_Basalt_02.png","response":null,"trial_type":"image-keyboard-response","trial_index":50,"plugin_version":"2.1.0","time_elapsed":95084,"subject_id":"92078","group":"Group1","condition":"3_Rep","full_date":"2026-01-24T22:35:27.157Z","date":"2026-01-24","time":"22:35:27"},{"rt":null,"stimulus":"<p style=\"font-size: 50px; margin: 0; text-align: center;\">+</p>","response":null,"trial_type":"html-keyboard-response","trial_index":51,"plugin_version":"2.1.0","time_elapsed":96087,"subject_id":"92078","group":"Group1","condition":"3_Rep","full_date":"2026-01-24T22:35:27.157Z","date":"2026-01-24","time":"22:35:27"},{"task":"memory_phase","broad_category":"I","image_png":"I_Pumice_08.png","image_id":136,"category_name":"Pumice","category":9,"distinct_rating":3.1,"distinct_type":"Bottom","rt":null,"stimulus":"Stimuli_Rocks480/I_Pumice_08.png","response":null,"trial_type":"image-keyboard-response","trial_index":52,"plugin_version":"2.1.0","time_elapsed":98601,"subject_id":"92078","group":"Group1","condition":"3_Rep","full_date":"2026-01-24T22:35:27.157Z","date":"2026-01-24","time":"22:35:27"},{"rt":null,"stimulus":"<p style=\"font-size: 50px; margin: 0; text-align: center;\">+</p>","response":null,"trial_type":"html-keyboard-response","trial_index":53,"plugin_version":"2.1.0","time_elapsed":99603,"subject_id":"92078","group":"Group1","condition":"3_Rep","full_date":"2026-01-24T22:35:27.157Z","date":"2026-01-24","time":"22:35:27"},{"task":"memory_phase","broad_category":"S","image_png":"S_Dolomite_14.png","image_id":398,"category_name":"Dolomite","category":25,"distinct_rating":1.43,"distinct_type":"Bottom","rt":null,"stimulus":"Stimuli_Rocks480/S_Dolomite_14.png","response":null,"trial_type":"image-keyboard-response","trial_index":54,"plugin_version":"2.1.0","time_elapsed":102118,"subject_id":"92078","group":"Group1","condition":"3_Rep","full_date":"2026-01-24T22:35:27.157Z","date":"2026-01-24","time":"22:35:27"},{"rt":2998,"stimulus":"<p style=\"max-width: 760px; margin: auto; font-size: 35px; line-height: 1.5;\">\n                Press SPACE to continue study phase\n              </p>","response":" ","trial_type":"html-keyboard-response","trial_index":55,"plugin_version":"2.1.0","time_elapsed":105118,"subject_id":"92078","group":"Group1","condition":"3_Rep","full_date":"2026-01-24T22:35:27.157Z","date":"2026-01-24","time":"22:35:27"},{"rt":null,"stimulus":"<p style=\"font-size: 50px; margin: 0; text-align: center;\">+</p>","response":null,"trial_type":"html-keyboard-response","trial_index":56,"plugin_version":"2.1.0","time_elapsed":106121,"subject_id":"92078","group":"Group1","condition":"3_Rep","full_date":"2026-01-24T22:35:27.157Z","date":"2026-01-24","time":"22:35:27"},{"task":"memory_phase","broad_category":"M","image_png":"M_Marble_16.png","image_id":240,"category_name":"Marble","category":15,"distinct_rating":2.57,"distinct_type":"Bottom","rt":null,"stimulus":"Stimuli_Rocks480/M_Marble_16.png","response":null,"trial_type":"image-keyboard-response","trial_index":57,"plugin_version":"2.1.0","time_elapsed":108637,"subject_id":"92078","group":"Group1","condition":"3_Rep","full_date":"2026-01-24T22:35:27.157Z","date":"2026-01-24","time":"22:35:27"},{"rt":null,"stimulus":"<p style=\"font-size: 50px; margin: 0; text-align: center;\">+</p>","response":null,"trial_type":"html-keyboard-response","trial_index":58,"plugin_version":"2.1.0","time_elapsed":109639,"subject_id":"92078","group":"Group1","condition":"3_Rep","full_date":"2026-01-24T22:35:27.157Z","date":"2026-01-24","time":"22:35:27"},{"task":"memory_phase","broad_category":"S","image_png":"S_Chert_10.png","image_id":362,"category_name":"Chert","category":23,"distinct_rating":7.17,"distinct_type":"Top","rt":null,"stimulus":"Stimuli_Rocks480/S_Chert_10.png","response":null,"trial_type":"image-keyboard-response","trial_index":59,"plugin_version":"2.1.0","time_elapsed":112154,"subject_id":"92078","group":"Group1","condition":"3_Rep","full_date":"2026-01-24T22:35:27.157Z","date":"2026-01-24","time":"22:35:27"},{"rt":null,"stimulus":"<p style=\"font-size: 50px; margin: 0; text-align: center;\">+</p>","response":null,"trial_type":"html-keyboard-response","trial_index":60,"plugin_version":"2.1.0","time_elapsed":113157,"subject_id":"92078","group":"Group1","condition":"3_Rep","full_date":"2026-01-24T22:35:27.157Z","date":"2026-01-24","time":"22:35:27"},{"task":"memory_phase","broad_category":"S","image_png":"S_Dolomite_12.png","image_id":396,"category_name":"Dolomite","category":25,"distinct_rating":1.85,"distinct_type":"Bottom","rt":null,"stimulus":"Stimuli_Rocks480/S_Dolomite_12.png","response":null,"trial_type":"image-keyboard-response","trial_index":61,"plugin_version":"2.1.0","time_elapsed":115672,"subject_id":"92078","group":"Group1","condition":"3_Rep","full_date":"2026-01-24T22:35:27.157Z","date":"2026-01-24","time":"22:35:27"},{"rt":null,"stimulus":"<p style=\"font-size: 50px; margin: 0; text-align: center;\">+</p>","response":null,"trial_type":"html-keyboard-response","trial_index":62,"plugin_version":"2.1.0","time_elapsed":116675,"subject_id":"92078","group":"Group1","condition":"3_Rep","full_date":"2026-01-24T22:35:27.157Z","date":"2026-01-24","time":"22:35:27"},{"task":"memory_phase","broad_category":"M","image_png":"M_Quartzite_05.png","image_id":277,"category_name":"Quartzite","category":18,"distinct_rating":2.23,"distinct_type":"Bottom","rt":null,"stimulus":"Stimuli_Rocks480/M_Quartzite_05.png","response":null,"trial_type":"image-keyboard-response","trial_index":63,"plugin_version":"2.1.0","time_elapsed":119192,"subject_id":"92078","group":"Group1","condition":"3_Rep","full_date":"2026-01-24T22:35:27.157Z","date":"2026-01-24","time":"22:35:27"},{"rt":null,"stimulus":"<p style=\"font-size: 50px; margin: 0; text-align: center;\">+</p>","response":null,"trial_type":"html-keyboard-response","trial_index":64,"plugin_version":"2.1.0","time_elapsed":120194,"subject_id":"92078","group":"Group1","condition":"3_Rep","full_date":"2026-01-24T22:35:27.157Z","date":"2026-01-24","time":"22:35:27"},{"task":"memory_phase","broad_category":"S","image_png":"S_Breccia_11.png","image_id":347,"category_name":"Breccia","category":22,"distinct_rating":6.7,"distinct_type":"Top","rt":null,"stimulus":"Stimuli_Rocks480/S_Breccia_11.png","response":null,"trial_type":"image-keyboard-response","trial_index":65,"plugin_version":"2.1.0","time_elapsed":122716,"subject_id":"92078","group":"Group1","condition":"3_Rep","full_date":"2026-01-24T22:35:27.157Z","date":"2026-01-24","time":"22:35:27"},{"rt":null,"stimulus":"<p style=\"font-size: 50px; margin: 0; text-align: center;\">+</p>","response":null,"trial_type":"html-keyboard-response","trial_index":66,"plugin_version":"2.1.0","time_elapsed":123718,"subject_id":"92078","group":"Group1","condition":"3_Rep","full_date":"2026-01-24T22:35:27.157Z","date":"2026-01-24","time":"22:35:27"},{"task":"memory_phase","broad_category":"S","image_png":"S_Shale_01.png","image_id":465,"category_name":"Shale","category":30,"distinct_rating":2.7,"distinct_type":"Bottom","rt":null,"stimulus":"Stimuli_Rocks480/S_Shale_01.png","response":null,"trial_type":"image-keyboard-response","trial_index":67,"plugin_version":"2.1.0","time_elapsed":126233,"subject_id":"92078","group":"Group1","condition":"3_Rep","full_date":"2026-01-24T22:35:27.157Z","date":"2026-01-24","time":"22:35:27"},{"rt":null,"stimulus":"<p style=\"font-size: 50px; margin: 0; text-align: center;\">+</p>","response":null,"trial_type":"html-keyboard-response","trial_index":68,"plugin_version":"2.1.0","time_elapsed":127235,"subject_id":"92078","group":"Group1","condition":"3_Rep","full_date":"2026-01-24T22:35:27.157Z","date":"2026-01-24","time":"22:35:27"},{"task":"memory_phase","broad_category":"I","image_png":"I_Pumice_12.png","image_id":140,"category_name":"Pumice","category":9,"distinct_rating":2.97,"distinct_type":"Bottom","rt":null,"stimulus":"Stimuli_Rocks480/I_Pumice_12.png","response":null,"trial_type":"image-keyboard-response","trial_index":69,"plugin_version":"2.1.0","time_elapsed":129750,"subject_id":"92078","group":"Group1","condition":"3_Rep","full_date":"2026-01-24T22:35:27.157Z","date":"2026-01-24","time":"22:35:27"},{"rt":null,"stimulus":"<p style=\"font-size: 50px; margin: 0; text-align: center;\">+</p>","response":null,"trial_type":"html-keyboard-response","trial_index":70,"plugin_version":"2.1.0","time_elapsed":130752,"subject_id":"92078","group":"Group1","condition":"3_Rep","full_date":"2026-01-24T22:35:27.157Z","date":"2026-01-24","time":"22:35:27"},{"task":"memory_phase","broad_category":"S","image_png":"S_Sandstone_15.png","image_id":463,"category_name":"Sandstone","category":29,"distinct_rating":2,"distinct_type":"Bottom","rt":null,"stimulus":"Stimuli_Rocks480/S_Sandstone_15.png","response":null,"trial_type":"image-keyboard-response","trial_index":71,"plugin_version":"2.1.0","time_elapsed":133270,"subject_id":"92078","group":"Group1","condition":"3_Rep","full_date":"2026-01-24T22:35:27.157Z","date":"2026-01-24","time":"22:35:27"},{"rt":null,"stimulus":"<p style=\"font-size: 50px; margin: 0; text-align: center;\">+</p>","response":null,"trial_type":"html-keyboard-response","trial_index":72,"plugin_version":"2.1.0","time_elapsed":134272,"subject_id":"92078","group":"Group1","condition":"3_Rep","full_date":"2026-01-24T22:35:27.157Z","date":"2026-01-24","time":"22:35:27"},{"task":"memory_phase","broad_category":"I","image_png":"I_Pumice_11.png","image_id":139,"category_name":"Pumice","category":9,"distinct_rating":1.74,"distinct_type":"Bottom","rt":null,"stimulus":"Stimuli_Rocks480/I_Pumice_11.png","response":null,"trial_type":"image-keyboard-response","trial_index":73,"plugin_version":"2.1.0","time_elapsed":136784,"subject_id":"92078","group":"Group1","condition":"3_Rep","full_date":"2026-01-24T22:35:27.157Z","date":"2026-01-24","time":"22:35:27"},{"rt":null,"stimulus":"<p style=\"font-size: 50px; margin: 0; text-align: center;\">+</p>","response":null,"trial_type":"html-keyboard-response","trial_index":74,"plugin_version":"2.1.0","time_elapsed":137786,"subject_id":"92078","group":"Group1","condition":"3_Rep","full_date":"2026-01-24T22:35:27.157Z","date":"2026-01-24","time":"22:35:27"},{"task":"memory_phase","broad_category":"M","image_png":"M_Marble_04.png","image_id":228,"category_name":"Marble","category":15,"distinct_rating":3.15,"distinct_type":"Bottom","rt":null,"stimulus":"Stimuli_Rocks480/M_Marble_04.png","response":null,"trial_type":"image-keyboard-response","trial_index":75,"plugin_version":"2.1.0","time_elapsed":140302,"subject_id":"92078","group":"Group1","condition":"3_Rep","full_date":"2026-01-24T22:35:27.157Z","date":"2026-01-24","time":"22:35:27"},{"rt":null,"stimulus":"<p style=\"font-size: 50px; margin: 0; text-align: center;\">+</p>","response":null,"trial_type":"html-keyboard-response","trial_index":76,"plugin_version":"2.1.0","time_elapsed":141304,"subject_id":"92078","group":"Group1","condition":"3_Rep","full_date":"2026-01-24T22:35:27.157Z","date":"2026-01-24","time":"22:35:27"},{"task":"memory_phase","broad_category":"M","image_png":"M_Slate_15.png","image_id":319,"category_name":"Slate","category":20,"distinct_rating":2.13,"distinct_type":"Bottom","rt":null,"stimulus":"Stimuli_Rocks480/M_Slate_15.png","response":null,"trial_type":"image-keyboard-response","trial_index":77,"plugin_version":"2.1.0","time_elapsed":143817,"subject_id":"92078","group":"Group1","condition":"3_Rep","full_date":"2026-01-24T22:35:27.157Z","date":"2026-01-24","time":"22:35:27"},{"rt":null,"stimulus":"<p style=\"font-size: 50px; margin: 0; text-align: center;\">+</p>","response":null,"trial_type":"html-keyboard-response","trial_index":78,"plugin_version":"2.1.0","time_elapsed":144819,"subject_id":"92078","group":"Group1","condition":"3_Rep","full_date":"2026-01-24T22:35:27.157Z","date":"2026-01-24","time":"22:35:27"},{"task":"memory_phase","broad_category":"M","image_png":"M_Quartzite_08.png","image_id":280,"category_name":"Quartzite","category":18,"distinct_rating":2.15,"distinct_type":"Bottom","rt":null,"stimulus":"Stimuli_Rocks480/M_Quartzite_08.png","response":null,"trial_type":"image-keyboard-response","trial_index":79,"plugin_version":"2.1.0","time_elapsed":147334,"subject_id":"92078","group":"Group1","condition":"3_Rep","full_date":"2026-01-24T22:35:27.157Z","date":"2026-01-24","time":"22:35:27"},{"rt":null,"stimulus":"<p style=\"font-size: 50px; margin: 0; text-align: center;\">+</p>","response":null,"trial_type":"html-keyboard-response","trial_index":80,"plugin_version":"2.1.0","time_elapsed":148336,"subject_id":"92078","group":"Group1","condition":"3_Rep","full_date":"2026-01-24T22:35:27.157Z","date":"2026-01-24","time":"22:35:27"},{"task":"memory_phase","broad_category":"M","image_png":"M_Quartzite_13.png","image_id":285,"category_name":"Quartzite","category":18,"distinct_rating":2.27,"distinct_type":"Bottom","rt":null,"stimulus":"Stimuli_Rocks480/M_Quartzite_13.png","response":null,"trial_type":"image-keyboard-response","trial_index":81,"plugin_version":"2.1.0","time_elapsed":150851,"subject_id":"92078","group":"Group1","condition":"3_Rep","full_date":"2026-01-24T22:35:27.157Z","date":"2026-01-24","time":"22:35:27"},{"rt":null,"stimulus":"<p style=\"font-size: 50px; margin: 0; text-align: center;\">+</p>","response":null,"trial_type":"html-keyboard-response","trial_index":82,"plugin_version":"2.1.0","time_elapsed":151853,"subject_id":"92078","group":"Group1","condition":"3_Rep","full_date":"2026-01-24T22:35:27.157Z","date":"2026-01-24","time":"22:35:27"},{"task":"memory_phase","broad_category":"I","image_png":"I_Andesite_08.png","image_id":8,"category_name":"Andesite","category":1,"distinct_rating":1.95,"distinct_type":"Bottom","rt":null,"stimulus":"Stimuli_Rocks480/I_Andesite_08.png","response":null,"trial_type":"image-keyboard-response","trial_index":83,"plugin_version":"2.1.0","time_elapsed":154368,"subject_id":"92078","group":"Group1","condition":"3_Rep","full_date":"2026-01-24T22:35:27.157Z","date":"2026-01-24","time":"22:35:27"},{"rt":null,"stimulus":"<p style=\"font-size: 50px; margin: 0; text-align: center;\">+</p>","response":null,"trial_type":"html-keyboard-response","trial_index":84,"plugin_version":"2.1.0","time_elapsed":155370,"subject_id":"92078","group":"Group1","condition":"3_Rep","full_date":"2026-01-24T22:35:27.157Z","date":"2026-01-24","time":"22:35:27"},{"task":"memory_phase","broad_category":"I","image_png":"I_Obsidian_05.png","image_id":85,"category_name":"Obsidian","category":6,"distinct_rating":7.32,"distinct_type":"Top","rt":null,"stimulus":"Stimuli_Rocks480/I_Obsidian_05.png","response":null,"trial_type":"image-keyboard-response","trial_index":85,"plugin_version":"2.1.0","time_elapsed":157887,"subject_id":"92078","group":"Group1","condition":"3_Rep","full_date":"2026-01-24T22:35:27.157Z","date":"2026-01-24","time":"22:35:27"},{"rt":null,"stimulus":"<p style=\"font-size: 50px; margin: 0; text-align: center;\">+</p>","response":null,"trial_type":"html-keyboard-response","trial_index":86,"plugin_version":"2.1.0","time_elapsed":158889,"subject_id":"92078","group":"Group1","condition":"3_Rep","full_date":"2026-01-24T22:35:27.157Z","date":"2026-01-24","time":"22:35:27"},{"task":"memory_phase","broad_category":"I","image_png":"I_Gabbro_16.png","image_id":64,"category_name":"Gabbro","category":4,"distinct_rating":2.52,"distinct_type":"Bottom","rt":null,"stimulus":"Stimuli_Rocks480/I_Gabbro_16.png","response":null,"trial_type":"image-keyboard-response","trial_index":87,"plugin_version":"2.1.0","time_elapsed":161403,"subject_id":"92078","group":"Group1","condition":"3_Rep","full_date":"2026-01-24T22:35:27.157Z","date":"2026-01-24","time":"22:35:27"},{"rt":null,"stimulus":"<p style=\"font-size: 50px; margin: 0; text-align: center;\">+</p>","response":null,"trial_type":"html-keyboard-response","trial_index":88,"plugin_version":"2.1.0","time_elapsed":162405,"subject_id":"92078","group":"Group1","condition":"3_Rep","full_date":"2026-01-24T22:35:27.157Z","date":"2026-01-24","time":"22:35:27"},{"task":"memory_phase","broad_category":"M","image_png":"M_Gneiss_06.png","image_id":198,"category_name":"Gneiss","category":13,"distinct_rating":2.65,"distinct_type":"Bottom","rt":null,"stimulus":"Stimuli_Rocks480/M_Gneiss_06.png","response":null,"trial_type":"image-keyboard-response","trial_index":89,"plugin_version":"2.1.0","time_elapsed":164923,"subject_id":"92078","group":"Group1","condition":"3_Rep","full_date":"2026-01-24T22:35:27.157Z","date":"2026-01-24","time":"22:35:27"},{"rt":null,"stimulus":"<p style=\"font-size: 50px; margin: 0; text-align: center;\">+</p>","response":null,"trial_type":"html-keyboard-response","trial_index":90,"plugin_version":"2.1.0","time_elapsed":165925,"subject_id":"92078","group":"Group1","condition":"3_Rep","full_date":"2026-01-24T22:35:27.157Z","date":"2026-01-24","time":"22:35:27"},{"task":"memory_phase","broad_category":"M","image_png":"M_Slate_11.png","image_id":315,"category_name":"Slate","category":20,"distinct_rating":2.75,"distinct_type":"Bottom","rt":null,"stimulus":"Stimuli_Rocks480/M_Slate_11.png","response":null,"trial_type":"image-keyboard-response","trial_index":91,"plugin_version":"2.1.0","time_elapsed":168437,"subject_id":"92078","group":"Group1","condition":"3_Rep","full_date":"2026-01-24T22:35:27.157Z","date":"2026-01-24","time":"22:35:27"},{"rt":null,"stimulus":"<p style=\"font-size: 50px; margin: 0; text-align: center;\">+</p>","response":null,"trial_type":"html-keyboard-response","trial_index":92,"plugin_version":"2.1.0","time_elapsed":169439,"subject_id":"92078","group":"Group1","condition":"3_Rep","full_date":"2026-01-24T22:35:27.157Z","date":"2026-01-24","time":"22:35:27"},{"task":"memory_phase","broad_category":"M","image_png":"M_Phyllite_07.png","image_id":263,"category_name":"Phyllite","category":17,"distinct_rating":2.59,"distinct_type":"Bottom","rt":null,"stimulus":"Stimuli_Rocks480/M_Phyllite_07.png","response":null,"trial_type":"image-keyboard-response","trial_index":93,"plugin_version":"2.1.0","time_elapsed":171950,"subject_id":"92078","group":"Group1","condition":"3_Rep","full_date":"2026-01-24T22:35:27.157Z","date":"2026-01-24","time":"22:35:27"},{"rt":null,"stimulus":"<p style=\"font-size: 50px; margin: 0; text-align: center;\">+</p>","response":null,"trial_type":"html-keyboard-response","trial_index":94,"plugin_version":"2.1.0","time_elapsed":172952,"subject_id":"92078","group":"Group1","condition":"3_Rep","full_date":"2026-01-24T22:35:27.157Z","date":"2026-01-24","time":"22:35:27"},{"task":"memory_phase","broad_category":"M","image_png":"M_Phyllite_10.png","image_id":266,"category_name":"Phyllite","category":17,"distinct_rating":2.6,"distinct_type":"Bottom","rt":null,"stimulus":"Stimuli_Rocks480/M_Phyllite_10.png","response":null,"trial_type":"image-keyboard-response","trial_index":95,"plugin_version":"2.1.0","time_elapsed":175465,"subject_id":"92078","group":"Group1","condition":"3_Rep","full_date":"2026-01-24T22:35:27.157Z","date":"2026-01-24","time":"22:35:27"},{"rt":null,"stimulus":"<p style=\"font-size: 50px; margin: 0; text-align: center;\">+</p>","response":null,"trial_type":"html-keyboard-response","trial_index":96,"plugin_version":"2.1.0","time_elapsed":176467,"subject_id":"92078","group":"Group1","condition":"3_Rep","full_date":"2026-01-24T22:35:27.157Z","date":"2026-01-24","time":"22:35:27"},{"task":"memory_phase","broad_category":"M","image_png":"M_Marble_06.png","image_id":230,"category_name":"Marble","category":15,"distinct_rating":3.4,"distinct_type":"Bottom","rt":null,"stimulus":"Stimuli_Rocks480/M_Marble_06.png","response":null,"trial_type":"image-keyboard-response","trial_index":97,"plugin_version":"2.1.0","time_elapsed":178980,"subject_id":"92078","group":"Group1","condition":"3_Rep","full_date":"2026-01-24T22:35:27.157Z","date":"2026-01-24","time":"22:35:27"},{"rt":null,"stimulus":"<p style=\"font-size: 50px; margin: 0; text-align: center;\">+</p>","response":null,"trial_type":"html-keyboard-response","trial_index":98,"plugin_version":"2.1.0","time_elapsed":179982,"subject_id":"92078","group":"Group1","condition":"3_Rep","full_date":"2026-01-24T22:35:27.157Z","date":"2026-01-24","time":"22:35:27"},{"task":"memory_phase","broad_category":"I","image_png":"I_Pegmatite_10.png","image_id":106,"category_name":"Pegmatite","category":7,"distinct_rating":7.66,"distinct_type":"Top","rt":null,"stimulus":"Stimuli_Rocks480/I_Pegmatite_10.png","response":null,"trial_type":"image-keyboard-response","trial_index":99,"plugin_version":"2.1.0","time_elapsed":182498,"subject_id":"92078","group":"Group1","condition":"3_Rep","full_date":"2026-01-24T22:35:27.157Z","date":"2026-01-24","time":"22:35:27"},{"rt":null,"stimulus":"<p style=\"font-size: 50px; margin: 0; text-align: center;\">+</p>","response":null,"trial_type":"html-keyboard-response","trial_index":100,"plugin_version":"2.1.0","time_elapsed":183500,"subject_id":"92078","group":"Group1","condition":"3_Rep","full_date":"2026-01-24T22:35:27.157Z","date":"2026-01-24","time":"22:35:27"},{"task":"memory_phase","broad_category":"S","image_png":"S_Shale_12.png","image_id":476,"category_name":"Shale","category":30,"distinct_rating":2.48,"distinct_type":"Bottom","rt":null,"stimulus":"Stimuli_Rocks480/S_Shale_12.png","response":null,"trial_type":"image-keyboard-response","trial_index":101,"plugin_version":"2.1.0","time_elapsed":186018,"subject_id":"92078","group":"Group1","condition":"3_Rep","full_date":"2026-01-24T22:35:27.157Z","date":"2026-01-24","time":"22:35:27"},{"rt":null,"stimulus":"<p style=\"font-size: 50px; margin: 0; text-align: center;\">+</p>","response":null,"trial_type":"html-keyboard-response","trial_index":102,"plugin_version":"2.1.0","time_elapsed":187021,"subject_id":"92078","group":"Group1","condition":"3_Rep","full_date":"2026-01-24T22:35:27.157Z","date":"2026-01-24","time":"22:35:27"},{"task":"memory_phase","broad_category":"M","image_png":"M_Slate_03.png","image_id":307,"category_name":"Slate","category":20,"distinct_rating":1.87,"distinct_type":"Bottom","rt":null,"stimulus":"Stimuli_Rocks480/M_Slate_03.png","response":null,"trial_type":"image-keyboard-response","trial_index":103,"plugin_version":"2.1.0","time_elapsed":189543,"subject_id":"92078","group":"Group1","condition":"3_Rep","full_date":"2026-01-24T22:35:27.157Z","date":"2026-01-24","time":"22:35:27"},{"rt":null,"stimulus":"<p style=\"font-size: 50px; margin: 0; text-align: center;\">+</p>","response":null,"trial_type":"html-keyboard-response","trial_index":104,"plugin_version":"2.1.0","time_elapsed":190545,"subject_id":"92078","group":"Group1","condition":"3_Rep","full_date":"2026-01-24T22:35:27.157Z","date":"2026-01-24","time":"22:35:27"},{"task":"memory_phase","broad_category":"I","image_png":"I_Andesite_10.png","image_id":10,"category_name":"Andesite","category":1,"distinct_rating":3.15,"distinct_type":"Bottom","rt":null,"stimulus":"Stimuli_Rocks480/I_Andesite_10.png","response":null,"trial_type":"image-keyboard-response","trial_index":105,"plugin_version":"2.1.0","time_elapsed":193058,"subject_id":"92078","group":"Group1","condition":"3_Rep","full_date":"2026-01-24T22:35:27.157Z","date":"2026-01-24","time":"22:35:27"},{"rt":4431,"stimulus":"<p style=\"max-width: 760px; margin: auto; font-size: 35px; line-height: 1.5;\">\n                You have completed 1 study phase. \n                Now, we'll show you all the images again 2 more times.\n                <br><br>Press SPACE to continue\n              </p>","response":" ","trial_type":"html-keyboard-response","trial_index":106,"plugin_version":"2.1.0","time_elapsed":197491,"subject_id":"92078","group":"Group1","condition":"3_Rep","full_date":"2026-01-24T22:35:27.157Z","date":"2026-01-24","time":"22:35:27"},{"rt":null,"stimulus":"<p style=\"font-size: 50px; margin: 0; text-align: center;\">+</p>","response":null,"trial_type":"html-keyboard-response","trial_index":107,"plugin_version":"2.1.0","time_elapsed":198493,"subject_id":"92078","group":"Group1","condition":"3_Rep","full_date":"2026-01-24T22:35:27.157Z","date":"2026-01-24","time":"22:35:27"},{"task":"memory_phase","broad_category":"I","image_png":"I_Pegmatite_16.png","image_id":112,"category_name":"Pegmatite","category":7,"distinct_rating":7.03,"distinct_type":"Top","rt":null,"stimulus":"Stimuli_Rocks480/I_Pegmatite_16.png","response":null,"trial_type":"image-keyboard-response","trial_index":108,"plugin_version":"2.1.0","time_elapsed":201008,"subject_id":"92078","group":"Group1","condition":"3_Rep","full_date":"2026-01-24T22:35:27.157Z","date":"2026-01-24","time":"22:35:27"},{"rt":null,"stimulus":"<p style=\"font-size: 50px; margin: 0; text-align: center;\">+</p>","response":null,"trial_type":"html-keyboard-response","trial_index":109,"plugin_version":"2.1.0","time_elapsed":202010,"subject_id":"92078","group":"Group1","condition":"3_Rep","full_date":"2026-01-24T22:35:27.157Z","date":"2026-01-24","time":"22:35:27"},{"task":"memory_phase","broad_category":"I","image_png":"I_Andesite_10.png","image_id":10,"category_name":"Andesite","category":1,"distinct_rating":3.15,"distinct_type":"Bottom","rt":null,"stimulus":"Stimuli_Rocks480/I_Andesite_10.png","response":null,"trial_type":"image-keyboard-response","trial_index":110,"plugin_version":"2.1.0","time_elapsed":204513,"subject_id":"92078","group":"Group1","condition":"3_Rep","full_date":"2026-01-24T22:35:27.157Z","date":"2026-01-24","time":"22:35:27"},{"rt":null,"stimulus":"<p style=\"font-size: 50px; margin: 0; text-align: center;\">+</p>","response":null,"trial_type":"html-keyboard-response","trial_index":111,"plugin_version":"2.1.0","time_elapsed":205515,"subject_id":"92078","group":"Group1","condition":"3_Rep","full_date":"2026-01-24T22:35:27.157Z","date":"2026-01-24","time":"22:35:27"},{"task":"memory_phase","broad_category":"I","image_png":"I_Basalt_02.png","image_id":18,"category_name":"Basalt","category":2,"distinct_rating":1.84,"distinct_type":"Bottom","rt":null,"stimulus":"Stimuli_Rocks480/I_Basalt_02.png","response":null,"trial_type":"image-keyboard-response","trial_index":112,"plugin_version":"2.1.0","time_elapsed":208018,"subject_id":"92078","group":"Group1","condition":"3_Rep","full_date":"2026-01-24T22:35:27.157Z","date":"2026-01-24","time":"22:35:27"},{"rt":null,"stimulus":"<p style=\"font-size: 50px; margin: 0; text-align: center;\">+</p>","response":null,"trial_type":"html-keyboard-response","trial_index":113,"plugin_version":"2.1.0","time_elapsed":209020,"subject_id":"92078","group":"Group1","condition":"3_Rep","full_date":"2026-01-24T22:35:27.157Z","date":"2026-01-24","time":"22:35:27"},{"task":"memory_phase","broad_category":"S","image_png":"S_Dolomite_12.png","image_id":396,"category_name":"Dolomite","category":25,"distinct_rating":1.85,"distinct_type":"Bottom","rt":null,"stimulus":"Stimuli_Rocks480/S_Dolomite_12.png","response":null,"trial_type":"image-keyboard-response","trial_index":114,"plugin_version":"2.1.0","time_elapsed":211523,"subject_id":"92078","group":"Group1","condition":"3_Rep","full_date":"2026-01-24T22:35:27.157Z","date":"2026-01-24","time":"22:35:27"},{"rt":null,"stimulus":"<p style=\"font-size: 50px; margin: 0; text-align: center;\">+</p>","response":null,"trial_type":"html-keyboard-response","trial_index":115,"plugin_version":"2.1.0","time_elapsed":212526,"subject_id":"92078","group":"Group1","condition":"3_Rep","full_date":"2026-01-24T22:35:27.157Z","date":"2026-01-24","time":"22:35:27"},{"task":"memory_phase","broad_category":"I","image_png":"I_Diorite_05.png","image_id":37,"category_name":"Diorite","category":3,"distinct_rating":3.08,"distinct_type":"Bottom","rt":null,"stimulus":"Stimuli_Rocks480/I_Diorite_05.png","response":null,"trial_type":"image-keyboard-response","trial_index":116,"plugin_version":"2.1.0","time_elapsed":215041,"subject_id":"92078","group":"Group1","condition":"3_Rep","full_date":"2026-01-24T22:35:27.157Z","date":"2026-01-24","time":"22:35:27"},{"rt":null,"stimulus":"<p style=\"font-size: 50px; margin: 0; text-align: center;\">+</p>","response":null,"trial_type":"html-keyboard-response","trial_index":117,"plugin_version":"2.1.0","time_elapsed":216043,"subject_id":"92078","group":"Group1","condition":"3_Rep","full_date":"2026-01-24T22:35:27.157Z","date":"2026-01-24","time":"22:35:27"},{"task":"memory_phase","broad_category":"I","image_png":"I_Gabbro_16.png","image_id":64,"category_name":"Gabbro","category":4,"distinct_rating":2.52,"distinct_type":"Bottom","rt":null,"stimulus":"Stimuli_Rocks480/I_Gabbro_16.png","response":null,"trial_type":"image-keyboard-response","trial_index":118,"plugin_version":"2.1.0","time_elapsed":218558,"subject_id":"92078","group":"Group1","condition":"3_Rep","full_date":"2026-01-24T22:35:27.157Z","date":"2026-01-24","time":"22:35:27"},{"rt":null,"stimulus":"<p style=\"font-size: 50px; margin: 0; text-align: center;\">+</p>","response":null,"trial_type":"html-keyboard-response","trial_index":119,"plugin_version":"2.1.0","time_elapsed":219560,"subject_id":"92078","group":"Group1","condition":"3_Rep","full_date":"2026-01-24T22:35:27.157Z","date":"2026-01-24","time":"22:35:27"},{"task":"memory_phase","broad_category":"M","image_png":"M_Gneiss_13.png","image_id":205,"category_name":"Gneiss","category":13,"distinct_rating":3.26,"distinct_type":"Bottom","rt":null,"stimulus":"Stimuli_Rocks480/M_Gneiss_13.png","response":null,"trial_type":"image-keyboard-response","trial_index":120,"plugin_version":"2.1.0","time_elapsed":222074,"subject_id":"92078","group":"Group1","condition":"3_Rep","full_date":"2026-01-24T22:35:27.157Z","date":"2026-01-24","time":"22:35:27"},{"rt":null,"stimulus":"<p style=\"font-size: 50px; margin: 0; text-align: center;\">+</p>","response":null,"trial_type":"html-keyboard-response","trial_index":121,"plugin_version":"2.1.0","time_elapsed":223076,"subject_id":"92078","group":"Group1","condition":"3_Rep","full_date":"2026-01-24T22:35:27.157Z","date":"2026-01-24","time":"22:35:27"},{"task":"memory_phase","broad_category":"M","image_png":"M_Gneiss_06.png","image_id":198,"category_name":"Gneiss","category":13,"distinct_rating":2.65,"distinct_type":"Bottom","rt":null,"stimulus":"Stimuli_Rocks480/M_Gneiss_06.png","response":null,"trial_type":"image-keyboard-response","trial_index":122,"plugin_version":"2.1.0","time_elapsed":225594,"subject_id":"92078","group":"Group1","condition":"3_Rep","full_date":"2026-01-24T22:35:27.157Z","date":"2026-01-24","time":"22:35:27"},{"rt":null,"stimulus":"<p style=\"font-size: 50px; margin: 0; text-align: center;\">+</p>","response":null,"trial_type":"html-keyboard-response","trial_index":123,"plugin_version":"2.1.0","time_elapsed":226596,"subject_id":"92078","group":"Group1","condition":"3_Rep","full_date":"2026-01-24T22:35:27.157Z","date":"2026-01-24","time":"22:35:27"},{"task":"memory_phase","broad_category":"S","image_png":"S_Breccia_11.png","image_id":347,"category_name":"Breccia","category":22,"distinct_rating":6.7,"distinct_type":"Top","rt":null,"stimulus":"Stimuli_Rocks480/S_Breccia_11.png","response":null,"trial_type":"image-keyboard-response","trial_index":124,"plugin_version":"2.1.0","time_elapsed":229118,"subject_id":"92078","group":"Group1","condition":"3_Rep","full_date":"2026-01-24T22:35:27.157Z","date":"2026-01-24","time":"22:35:27"},{"rt":null,"stimulus":"<p style=\"font-size: 50px; margin: 0; text-align: center;\">+</p>","response":null,"trial_type":"html-keyboard-response","trial_index":125,"plugin_version":"2.1.0","time_elapsed":230120,"subject_id":"92078","group":"Group1","condition":"3_Rep","full_date":"2026-01-24T22:35:27.157Z","date":"2026-01-24","time":"22:35:27"},{"task":"memory_phase","broad_category":"S","image_png":"S_Rock Gypsum_04.png","image_id":420,"category_name":"Rock Gypsum","category":27,"distinct_rating":7.61,"distinct_type":"Top","rt":null,"stimulus":"Stimuli_Rocks480/S_Rock Gypsum_04.png","response":null,"trial_type":"image-keyboard-response","trial_index":126,"plugin_version":"2.1.0","time_elapsed":232636,"subject_id":"92078","group":"Group1","condition":"3_Rep","full_date":"2026-01-24T22:35:27.157Z","date":"2026-01-24","time":"22:35:27"},{"rt":null,"stimulus":"<p style=\"font-size: 50px; margin: 0; text-align: center;\">+</p>","response":null,"trial_type":"html-keyboard-response","trial_index":127,"plugin_version":"2.1.0","time_elapsed":233638,"subject_id":"92078","group":"Group1","condition":"3_Rep","full_date":"2026-01-24T22:35:27.157Z","date":"2026-01-24","time":"22:35:27"},{"task":"memory_phase","broad_category":"S","image_png":"S_Sandstone_16.png","image_id":464,"category_name":"Sandstone","category":29,"distinct_rating":1.93,"distinct_type":"Bottom","rt":null,"stimulus":"Stimuli_Rocks480/S_Sandstone_16.png","response":null,"trial_type":"image-keyboard-response","trial_index":128,"plugin_version":"2.1.0","time_elapsed":236150,"subject_id":"92078","group":"Group1","condition":"3_Rep","full_date":"2026-01-24T22:35:27.157Z","date":"2026-01-24","time":"22:35:27"},{"rt":null,"stimulus":"<p style=\"font-size: 50px; margin: 0; text-align: center;\">+</p>","response":null,"trial_type":"html-keyboard-response","trial_index":129,"plugin_version":"2.1.0","time_elapsed":237152,"subject_id":"92078","group":"Group1","condition":"3_Rep","full_date":"2026-01-24T22:35:27.157Z","date":"2026-01-24","time":"22:35:27"},{"task":"memory_phase","broad_category":"S","image_png":"S_Rock Salt_01.png","image_id":433,"category_name":"Rock Salt","category":28,"distinct_rating":7.18,"distinct_type":"Top","rt":null,"stimulus":"Stimuli_Rocks480/S_Rock Salt_01.png","response":null,"trial_type":"image-keyboard-response","trial_index":130,"plugin_version":"2.1.0","time_elapsed":239669,"subject_id":"92078","group":"Group1","condition":"3_Rep","full_date":"2026-01-24T22:35:27.157Z","date":"2026-01-24","time":"22:35:27"},{"rt":null,"stimulus":"<p style=\"font-size: 50px; margin: 0; text-align: center;\">+</p>","response":null,"trial_type":"html-keyboard-response","trial_index":131,"plugin_version":"2.1.0","time_elapsed":240671,"subject_id":"92078","group":"Group1","condition":"3_Rep","full_date":"2026-01-24T22:35:27.157Z","date":"2026-01-24","time":"22:35:27"},{"task":"memory_phase","broad_category":"M","image_png":"M_Quartzite_05.png","image_id":277,"category_name":"Quartzite","category":18,"distinct_rating":2.23,"distinct_type":"Bottom","rt":null,"stimulus":"Stimuli_Rocks480/M_Quartzite_05.png","response":null,"trial_type":"image-keyboard-response","trial_index":132,"plugin_version":"2.1.0","time_elapsed":243184,"subject_id":"92078","group":"Group1","condition":"3_Rep","full_date":"2026-01-24T22:35:27.157Z","date":"2026-01-24","time":"22:35:27"},{"rt":null,"stimulus":"<p style=\"font-size: 50px; margin: 0; text-align: center;\">+</p>","response":null,"trial_type":"html-keyboard-response","trial_index":133,"plugin_version":"2.1.0","time_elapsed":244186,"subject_id":"92078","group":"Group1","condition":"3_Rep","full_date":"2026-01-24T22:35:27.157Z","date":"2026-01-24","time":"22:35:27"},{"task":"memory_phase","broad_category":"M","image_png":"M_Phyllite_07.png","image_id":263,"category_name":"Phyllite","category":17,"distinct_rating":2.59,"distinct_type":"Bottom","rt":null,"stimulus":"Stimuli_Rocks480/M_Phyllite_07.png","response":null,"trial_type":"image-keyboard-response","trial_index":134,"plugin_version":"2.1.0","time_elapsed":246689,"subject_id":"92078","group":"Group1","condition":"3_Rep","full_date":"2026-01-24T22:35:27.157Z","date":"2026-01-24","time":"22:35:27"},{"rt":null,"stimulus":"<p style=\"font-size: 50px; margin: 0; text-align: center;\">+</p>","response":null,"trial_type":"html-keyboard-response","trial_index":135,"plugin_version":"2.1.0","time_elapsed":247691,"subject_id":"92078","group":"Group1","condition":"3_Rep","full_date":"2026-01-24T22:35:27.157Z","date":"2026-01-24","time":"22:35:27"},{"task":"memory_phase","broad_category":"I","image_png":"I_Basalt_09.png","image_id":25,"category_name":"Basalt","category":2,"distinct_rating":1.89,"distinct_type":"Bottom","rt":null,"stimulus":"Stimuli_Rocks480/I_Basalt_09.png","response":null,"trial_type":"image-keyboard-response","trial_index":136,"plugin_version":"2.1.0","time_elapsed":250201,"subject_id":"92078","group":"Group1","condition":"3_Rep","full_date":"2026-01-24T22:35:27.157Z","date":"2026-01-24","time":"22:35:27"},{"rt":null,"stimulus":"<p style=\"font-size: 50px; margin: 0; text-align: center;\">+</p>","response":null,"trial_type":"html-keyboard-response","trial_index":137,"plugin_version":"2.1.0","time_elapsed":251203,"subject_id":"92078","group":"Group1","condition":"3_Rep","full_date":"2026-01-24T22:35:27.157Z","date":"2026-01-24","time":"22:35:27"},{"task":"memory_phase","broad_category":"M","image_png":"M_Marble_16.png","image_id":240,"category_name":"Marble","category":15,"distinct_rating":2.57,"distinct_type":"Bottom","rt":null,"stimulus":"Stimuli_Rocks480/M_Marble_16.png","response":null,"trial_type":"image-keyboard-response","trial_index":138,"plugin_version":"2.1.0","time_elapsed":253715,"subject_id":"92078","group":"Group1","condition":"3_Rep","full_date":"2026-01-24T22:35:27.157Z","date":"2026-01-24","time":"22:35:27"},{"rt":null,"stimulus":"<p style=\"font-size: 50px; margin: 0; text-align: center;\">+</p>","response":null,"trial_type":"html-keyboard-response","trial_index":139,"plugin_version":"2.1.0","time_elapsed":254717,"subject_id":"92078","group":"Group1","condition":"3_Rep","full_date":"2026-01-24T22:35:27.157Z","date":"2026-01-24","time":"22:35:27"},{"task":"memory_phase","broad_category":"I","image_png":"I_Gabbro_11.png","image_id":59,"category_name":"Gabbro","category":4,"distinct_rating":1.99,"distinct_type":"Bottom","rt":null,"stimulus":"Stimuli_Rocks480/I_Gabbro_11.png","response":null,"trial_type":"image-keyboard-response","trial_index":140,"plugin_version":"2.1.0","time_elapsed":257226,"subject_id":"92078","group":"Group1","condition":"3_Rep","full_date":"2026-01-24T22:35:27.157Z","date":"2026-01-24","time":"22:35:27"},{"rt":null,"stimulus":"<p style=\"font-size: 50px; margin: 0; text-align: center;\">+</p>","response":null,"trial_type":"html-keyboard-response","trial_index":141,"plugin_version":"2.1.0","time_elapsed":258228,"subject_id":"92078","group":"Group1","condition":"3_Rep","full_date":"2026-01-24T22:35:27.157Z","date":"2026-01-24","time":"22:35:27"},{"task":"memory_phase","broad_category":"S","image_png":"S_Dolomite_13.png","image_id":397,"category_name":"Dolomite","category":25,"distinct_rating":1.77,"distinct_type":"Bottom","rt":null,"stimulus":"Stimuli_Rocks480/S_Dolomite_13.png","response":null,"trial_type":"image-keyboard-response","trial_index":142,"plugin_version":"2.1.0","time_elapsed":260743,"subject_id":"92078","group":"Group1","condition":"3_Rep","full_date":"2026-01-24T22:35:27.157Z","date":"2026-01-24","time":"22:35:27"},{"rt":null,"stimulus":"<p style=\"font-size: 50px; margin: 0; text-align: center;\">+</p>","response":null,"trial_type":"html-keyboard-response","trial_index":143,"plugin_version":"2.1.0","time_elapsed":261744,"subject_id":"92078","group":"Group1","condition":"3_Rep","full_date":"2026-01-24T22:35:27.157Z","date":"2026-01-24","time":"22:35:27"},{"task":"memory_phase","broad_category":"I","image_png":"I_Basalt_01.png","image_id":17,"category_name":"Basalt","category":2,"distinct_rating":1.92,"distinct_type":"Bottom","rt":null,"stimulus":"Stimuli_Rocks480/I_Basalt_01.png","response":null,"trial_type":"image-keyboard-response","trial_index":144,"plugin_version":"2.1.0","time_elapsed":264261,"subject_id":"92078","group":"Group1","condition":"3_Rep","full_date":"2026-01-24T22:35:27.157Z","date":"2026-01-24","time":"22:35:27"},{"rt":null,"stimulus":"<p style=\"font-size: 50px; margin: 0; text-align: center;\">+</p>","response":null,"trial_type":"html-keyboard-response","trial_index":145,"plugin_version":"2.1.0","time_elapsed":265263,"subject_id":"92078","group":"Group1","condition":"3_Rep","full_date":"2026-01-24T22:35:27.157Z","date":"2026-01-24","time":"22:35:27"},{"task":"memory_phase","broad_category":"I","image_png":"I_Rhyolite_16.png","image_id":160,"category_name":"Rhyolite","category":10,"distinct_rating":2.19,"distinct_type":"Bottom","rt":null,"stimulus":"Stimuli_Rocks480/I_Rhyolite_16.png","response":null,"trial_type":"image-keyboard-response","trial_index":146,"plugin_version":"2.1.0","time_elapsed":267776,"subject_id":"92078","group":"Group1","condition":"3_Rep","full_date":"2026-01-24T22:35:27.157Z","date":"2026-01-24","time":"22:35:27"},{"rt":null,"stimulus":"<p style=\"font-size: 50px; margin: 0; text-align: center;\">+</p>","response":null,"trial_type":"html-keyboard-response","trial_index":147,"plugin_version":"2.1.0","time_elapsed":268779,"subject_id":"92078","group":"Group1","condition":"3_Rep","full_date":"2026-01-24T22:35:27.157Z","date":"2026-01-24","time":"22:35:27"},{"task":"memory_phase","broad_category":"M","image_png":"M_Slate_15.png","image_id":319,"category_name":"Slate","category":20,"distinct_rating":2.13,"distinct_type":"Bottom","rt":null,"stimulus":"Stimuli_Rocks480/M_Slate_15.png","response":null,"trial_type":"image-keyboard-response","trial_index":148,"plugin_version":"2.1.0","time_elapsed":271290,"subject_id":"92078","group":"Group1","condition":"3_Rep","full_date":"2026-01-24T22:35:27.157Z","date":"2026-01-24","time":"22:35:27"},{"rt":null,"stimulus":"<p style=\"font-size: 50px; margin: 0; text-align: center;\">+</p>","response":null,"trial_type":"html-keyboard-response","trial_index":149,"plugin_version":"2.1.0","time_elapsed":272292,"subject_id":"92078","group":"Group1","condition":"3_Rep","full_date":"2026-01-24T22:35:27.157Z","date":"2026-01-24","time":"22:35:27"},{"task":"memory_phase","broad_category":"M","image_png":"M_Marble_06.png","image_id":230,"category_name":"Marble","category":15,"distinct_rating":3.4,"distinct_type":"Bottom","rt":null,"stimulus":"Stimuli_Rocks480/M_Marble_06.png","response":null,"trial_type":"image-keyboard-response","trial_index":150,"plugin_version":"2.1.0","time_elapsed":274800,"subject_id":"92078","group":"Group1","condition":"3_Rep","full_date":"2026-01-24T22:35:27.157Z","date":"2026-01-24","time":"22:35:27"},{"rt":null,"stimulus":"<p style=\"font-size: 50px; margin: 0; text-align: center;\">+</p>","response":null,"trial_type":"html-keyboard-response","trial_index":151,"plugin_version":"2.1.0","time_elapsed":275804,"subject_id":"92078","group":"Group1","condition":"3_Rep","full_date":"2026-01-24T22:35:27.157Z","date":"2026-01-24","time":"22:35:27"},{"task":"memory_phase","broad_category":"I","image_png":"I_Andesite_06.png","image_id":6,"category_name":"Andesite","category":1,"distinct_rating":3.17,"distinct_type":"Bottom","rt":null,"stimulus":"Stimuli_Rocks480/I_Andesite_06.png","response":null,"trial_type":"image-keyboard-response","trial_index":152,"plugin_version":"2.1.0","time_elapsed":278320,"subject_id":"92078","group":"Group1","condition":"3_Rep","full_date":"2026-01-24T22:35:27.157Z","date":"2026-01-24","time":"22:35:27"},{"rt":null,"stimulus":"<p style=\"font-size: 50px; margin: 0; text-align: center;\">+</p>","response":null,"trial_type":"html-keyboard-response","trial_index":153,"plugin_version":"2.1.0","time_elapsed":279322,"subject_id":"92078","group":"Group1","condition":"3_Rep","full_date":"2026-01-24T22:35:27.157Z","date":"2026-01-24","time":"22:35:27"},{"task":"memory_phase","broad_category":"M","image_png":"M_Quartzite_13.png","image_id":285,"category_name":"Quartzite","category":18,"distinct_rating":2.27,"distinct_type":"Bottom","rt":null,"stimulus":"Stimuli_Rocks480/M_Quartzite_13.png","response":null,"trial_type":"image-keyboard-response","trial_index":154,"plugin_version":"2.1.0","time_elapsed":281837,"subject_id":"92078","group":"Group1","condition":"3_Rep","full_date":"2026-01-24T22:35:27.157Z","date":"2026-01-24","time":"22:35:27"},{"rt":null,"stimulus":"<p style=\"font-size: 50px; margin: 0; text-align: center;\">+</p>","response":null,"trial_type":"html-keyboard-response","trial_index":155,"plugin_version":"2.1.0","time_elapsed":282839,"subject_id":"92078","group":"Group1","condition":"3_Rep","full_date":"2026-01-24T22:35:27.157Z","date":"2026-01-24","time":"22:35:27"},{"task":"memory_phase","broad_category":"I","image_png":"I_Pumice_11.png","image_id":139,"category_name":"Pumice","category":9,"distinct_rating":1.74,"distinct_type":"Bottom","rt":null,"stimulus":"Stimuli_Rocks480/I_Pumice_11.png","response":null,"trial_type":"image-keyboard-response","trial_index":156,"plugin_version":"2.1.0","time_elapsed":285349,"subject_id":"92078","group":"Group1","condition":"3_Rep","full_date":"2026-01-24T22:35:27.157Z","date":"2026-01-24","time":"22:35:27"},{"rt":9140,"stimulus":"<p style=\"max-width: 760px; margin: auto; font-size: 35px; line-height: 1.5;\">\n                Press SPACE to continue study phase\n              </p>","response":" ","trial_type":"html-keyboard-response","trial_index":157,"plugin_version":"2.1.0","time_elapsed":294490,"subject_id":"92078","group":"Group1","condition":"3_Rep","full_date":"2026-01-24T22:35:27.157Z","date":"2026-01-24","time":"22:35:27"},{"rt":null,"stimulus":"<p style=\"font-size: 50px; margin: 0; text-align: center;\">+</p>","response":null,"trial_type":"html-keyboard-response","trial_index":158,"plugin_version":"2.1.0","time_elapsed":295493,"subject_id":"92078","group":"Group1","condition":"3_Rep","full_date":"2026-01-24T22:35:27.157Z","date":"2026-01-24","time":"22:35:27"},{"task":"memory_phase","broad_category":"S","image_png":"S_Shale_01.png","image_id":465,"category_name":"Shale","category":30,"distinct_rating":2.7,"distinct_type":"Bottom","rt":null,"stimulus":"Stimuli_Rocks480/S_Shale_01.png","response":null,"trial_type":"image-keyboard-response","trial_index":159,"plugin_version":"2.1.0","time_elapsed":298009,"subject_id":"92078","group":"Group1","condition":"3_Rep","full_date":"2026-01-24T22:35:27.157Z","date":"2026-01-24","time":"22:35:27"},{"rt":null,"stimulus":"<p style=\"font-size: 50px; margin: 0; text-align: center;\">+</p>","response":null,"trial_type":"html-keyboard-response","trial_index":160,"plugin_version":"2.1.0","time_elapsed":299011,"subject_id":"92078","group":"Group1","condition":"3_Rep","full_date":"2026-01-24T22:35:27.157Z","date":"2026-01-24","time":"22:35:27"},{"task":"memory_phase","broad_category":"S","image_png":"S_Conglomerate_05.png","image_id":373,"category_name":"Conglomerate","category":24,"distinct_rating":7.32,"distinct_type":"Top","rt":null,"stimulus":"Stimuli_Rocks480/S_Conglomerate_05.png","response":null,"trial_type":"image-keyboard-response","trial_index":161,"plugin_version":"2.1.0","time_elapsed":301527,"subject_id":"92078","group":"Group1","condition":"3_Rep","full_date":"2026-01-24T22:35:27.157Z","date":"2026-01-24","time":"22:35:27"},{"rt":null,"stimulus":"<p style=\"font-size: 50px; margin: 0; text-align: center;\">+</p>","response":null,"trial_type":"html-keyboard-response","trial_index":162,"plugin_version":"2.1.0","time_elapsed":302529,"subject_id":"92078","group":"Group1","condition":"3_Rep","full_date":"2026-01-24T22:35:27.157Z","date":"2026-01-24","time":"22:35:27"},{"task":"memory_phase","broad_category":"S","image_png":"S_Shale_12.png","image_id":476,"category_name":"Shale","category":30,"distinct_rating":2.48,"distinct_type":"Bottom","rt":null,"stimulus":"Stimuli_Rocks480/S_Shale_12.png","response":null,"trial_type":"image-keyboard-response","trial_index":163,"plugin_version":"2.1.0","time_elapsed":305046,"subject_id":"92078","group":"Group1","condition":"3_Rep","full_date":"2026-01-24T22:35:27.157Z","date":"2026-01-24","time":"22:35:27"},{"rt":null,"stimulus":"<p style=\"font-size: 50px; margin: 0; text-align: center;\">+</p>","response":null,"trial_type":"html-keyboard-response","trial_index":164,"plugin_version":"2.1.0","time_elapsed":306048,"subject_id":"92078","group":"Group1","condition":"3_Rep","full_date":"2026-01-24T22:35:27.157Z","date":"2026-01-24","time":"22:35:27"},{"task":"memory_phase","broad_category":"S","image_png":"S_Shale_08.png","image_id":472,"category_name":"Shale","category":30,"distinct_rating":2.55,"distinct_type":"Bottom","rt":null,"stimulus":"Stimuli_Rocks480/S_Shale_08.png","response":null,"trial_type":"image-keyboard-response","trial_index":165,"plugin_version":"2.1.0","time_elapsed":308563,"subject_id":"92078","group":"Group1","condition":"3_Rep","full_date":"2026-01-24T22:35:27.157Z","date":"2026-01-24","time":"22:35:27"},{"rt":null,"stimulus":"<p style=\"font-size: 50px; margin: 0; text-align: center;\">+</p>","response":null,"trial_type":"html-keyboard-response","trial_index":166,"plugin_version":"2.1.0","time_elapsed":309566,"subject_id":"92078","group":"Group1","condition":"3_Rep","full_date":"2026-01-24T22:35:27.157Z","date":"2026-01-24","time":"22:35:27"},{"task":"memory_phase","broad_category":"M","image_png":"M_Phyllite_10.png","image_id":266,"category_name":"Phyllite","category":17,"distinct_rating":2.6,"distinct_type":"Bottom","rt":null,"stimulus":"Stimuli_Rocks480/M_Phyllite_10.png","response":null,"trial_type":"image-keyboard-response","trial_index":167,"plugin_version":"2.1.0","time_elapsed":312082,"subject_id":"92078","group":"Group1","condition":"3_Rep","full_date":"2026-01-24T22:35:27.157Z","date":"2026-01-24","time":"22:35:27"},{"rt":null,"stimulus":"<p style=\"font-size: 50px; margin: 0; text-align: center;\">+</p>","response":null,"trial_type":"html-keyboard-response","trial_index":168,"plugin_version":"2.1.0","time_elapsed":313084,"subject_id":"92078","group":"Group1","condition":"3_Rep","full_date":"2026-01-24T22:35:27.157Z","date":"2026-01-24","time":"22:35:27"},{"task":"memory_phase","broad_category":"I","image_png":"I_Andesite_08.png","image_id":8,"category_name":"Andesite","category":1,"distinct_rating":1.95,"distinct_type":"Bottom","rt":null,"stimulus":"Stimuli_Rocks480/I_Andesite_08.png","response":null,"trial_type":"image-keyboard-response","trial_index":169,"plugin_version":"2.1.0","time_elapsed":315600,"subject_id":"92078","group":"Group1","condition":"3_Rep","full_date":"2026-01-24T22:35:27.157Z","date":"2026-01-24","time":"22:35:27"},{"rt":null,"stimulus":"<p style=\"font-size: 50px; margin: 0; text-align: center;\">+</p>","response":null,"trial_type":"html-keyboard-response","trial_index":170,"plugin_version":"2.1.0","time_elapsed":316602,"subject_id":"92078","group":"Group1","condition":"3_Rep","full_date":"2026-01-24T22:35:27.157Z","date":"2026-01-24","time":"22:35:27"},{"task":"memory_phase","broad_category":"I","image_png":"I_Obsidian_05.png","image_id":85,"category_name":"Obsidian","category":6,"distinct_rating":7.32,"distinct_type":"Top","rt":null,"stimulus":"Stimuli_Rocks480/I_Obsidian_05.png","response":null,"trial_type":"image-keyboard-response","trial_index":171,"plugin_version":"2.1.0","time_elapsed":319118,"subject_id":"92078","group":"Group1","condition":"3_Rep","full_date":"2026-01-24T22:35:27.157Z","date":"2026-01-24","time":"22:35:27"},{"rt":null,"stimulus":"<p style=\"font-size: 50px; margin: 0; text-align: center;\">+</p>","response":null,"trial_type":"html-keyboard-response","trial_index":172,"plugin_version":"2.1.0","time_elapsed":320120,"subject_id":"92078","group":"Group1","condition":"3_Rep","full_date":"2026-01-24T22:35:27.157Z","date":"2026-01-24","time":"22:35:27"},{"task":"memory_phase","broad_category":"S","image_png":"S_Dolomite_14.png","image_id":398,"category_name":"Dolomite","category":25,"distinct_rating":1.43,"distinct_type":"Bottom","rt":null,"stimulus":"Stimuli_Rocks480/S_Dolomite_14.png","response":null,"trial_type":"image-keyboard-response","trial_index":173,"plugin_version":"2.1.0","time_elapsed":322636,"subject_id":"92078","group":"Group1","condition":"3_Rep","full_date":"2026-01-24T22:35:27.157Z","date":"2026-01-24","time":"22:35:27"},{"rt":null,"stimulus":"<p style=\"font-size: 50px; margin: 0; text-align: center;\">+</p>","response":null,"trial_type":"html-keyboard-response","trial_index":174,"plugin_version":"2.1.0","time_elapsed":323638,"subject_id":"92078","group":"Group1","condition":"3_Rep","full_date":"2026-01-24T22:35:27.157Z","date":"2026-01-24","time":"22:35:27"},{"task":"memory_phase","broad_category":"M","image_png":"M_Quartzite_08.png","image_id":280,"category_name":"Quartzite","category":18,"distinct_rating":2.15,"distinct_type":"Bottom","rt":null,"stimulus":"Stimuli_Rocks480/M_Quartzite_08.png","response":null,"trial_type":"image-keyboard-response","trial_index":175,"plugin_version":"2.1.0","time_elapsed":326153,"subject_id":"92078","group":"Group1","condition":"3_Rep","full_date":"2026-01-24T22:35:27.157Z","date":"2026-01-24","time":"22:35:27"},{"rt":null,"stimulus":"<p style=\"font-size: 50px; margin: 0; text-align: center;\">+</p>","response":null,"trial_type":"html-keyboard-response","trial_index":176,"plugin_version":"2.1.0","time_elapsed":327155,"subject_id":"92078","group":"Group1","condition":"3_Rep","full_date":"2026-01-24T22:35:27.157Z","date":"2026-01-24","time":"22:35:27"},{"task":"memory_phase","broad_category":"I","image_png":"I_Diorite_03.png","image_id":35,"category_name":"Diorite","category":3,"distinct_rating":3.14,"distinct_type":"Bottom","rt":null,"stimulus":"Stimuli_Rocks480/I_Diorite_03.png","response":null,"trial_type":"image-keyboard-response","trial_index":177,"plugin_version":"2.1.0","time_elapsed":329672,"subject_id":"92078","group":"Group1","condition":"3_Rep","full_date":"2026-01-24T22:35:27.157Z","date":"2026-01-24","time":"22:35:27"},{"rt":null,"stimulus":"<p style=\"font-size: 50px; margin: 0; text-align: center;\">+</p>","response":null,"trial_type":"html-keyboard-response","trial_index":178,"plugin_version":"2.1.0","time_elapsed":330675,"subject_id":"92078","group":"Group1","condition":"3_Rep","full_date":"2026-01-24T22:35:27.157Z","date":"2026-01-24","time":"22:35:27"},{"task":"memory_phase","broad_category":"M","image_png":"M_Slate_03.png","image_id":307,"category_name":"Slate","category":20,"distinct_rating":1.87,"distinct_type":"Bottom","rt":null,"stimulus":"Stimuli_Rocks480/M_Slate_03.png","response":null,"trial_type":"image-keyboard-response","trial_index":179,"plugin_version":"2.1.0","time_elapsed":333192,"subject_id":"92078","group":"Group1","condition":"3_Rep","full_date":"2026-01-24T22:35:27.157Z","date":"2026-01-24","time":"22:35:27"},{"rt":null,"stimulus":"<p style=\"font-size: 50px; margin: 0; text-align: center;\">+</p>","response":null,"trial_type":"html-keyboard-response","trial_index":180,"plugin_version":"2.1.0","time_elapsed":334194,"subject_id":"92078","group":"Group1","condition":"3_Rep","full_date":"2026-01-24T22:35:27.157Z","date":"2026-01-24","time":"22:35:27"},{"task":"memory_phase","broad_category":"I","image_png":"I_Pegmatite_10.png","image_id":106,"category_name":"Pegmatite","category":7,"distinct_rating":7.66,"distinct_type":"Top","rt":null,"stimulus":"Stimuli_Rocks480/I_Pegmatite_10.png","response":null,"trial_type":"image-keyboard-response","trial_index":181,"plugin_version":"2.1.0","time_elapsed":336708,"subject_id":"92078","group":"Group1","condition":"3_Rep","full_date":"2026-01-24T22:35:27.157Z","date":"2026-01-24","time":"22:35:27"},{"rt":null,"stimulus":"<p style=\"font-size: 50px; margin: 0; text-align: center;\">+</p>","response":null,"trial_type":"html-keyboard-response","trial_index":182,"plugin_version":"2.1.0","time_elapsed":337710,"subject_id":"92078","group":"Group1","condition":"3_Rep","full_date":"2026-01-24T22:35:27.157Z","date":"2026-01-24","time":"22:35:27"},{"task":"memory_phase","broad_category":"I","image_png":"I_Diorite_04.png","image_id":36,"category_name":"Diorite","category":3,"distinct_rating":2.98,"distinct_type":"Bottom","rt":null,"stimulus":"Stimuli_Rocks480/I_Diorite_04.png","response":null,"trial_type":"image-keyboard-response","trial_index":183,"plugin_version":"2.1.0","time_elapsed":340226,"subject_id":"92078","group":"Group1","condition":"3_Rep","full_date":"2026-01-24T22:35:27.157Z","date":"2026-01-24","time":"22:35:27"},{"rt":null,"stimulus":"<p style=\"font-size: 50px; margin: 0; text-align: center;\">+</p>","response":null,"trial_type":"html-keyboard-response","trial_index":184,"plugin_version":"2.1.0","time_elapsed":341228,"subject_id":"92078","group":"Group1","condition":"3_Rep","full_date":"2026-01-24T22:35:27.157Z","date":"2026-01-24","time":"22:35:27"},{"task":"memory_phase","broad_category":"I","image_png":"I_Pumice_12.png","image_id":140,"category_name":"Pumice","category":9,"distinct_rating":2.97,"distinct_type":"Bottom","rt":null,"stimulus":"Stimuli_Rocks480/I_Pumice_12.png","response":null,"trial_type":"image-keyboard-response","trial_index":185,"plugin_version":"2.1.0","time_elapsed":343739,"subject_id":"92078","group":"Group1","condition":"3_Rep","full_date":"2026-01-24T22:35:27.157Z","date":"2026-01-24","time":"22:35:27"},{"rt":null,"stimulus":"<p style=\"font-size: 50px; margin: 0; text-align: center;\">+</p>","response":null,"trial_type":"html-keyboard-response","trial_index":186,"plugin_version":"2.1.0","time_elapsed":344741,"subject_id":"92078","group":"Group1","condition":"3_Rep","full_date":"2026-01-24T22:35:27.157Z","date":"2026-01-24","time":"22:35:27"},{"task":"memory_phase","broad_category":"I","image_png":"I_Gabbro_08.png","image_id":56,"category_name":"Gabbro","category":4,"distinct_rating":3.02,"distinct_type":"Bottom","rt":null,"stimulus":"Stimuli_Rocks480/I_Gabbro_08.png","response":null,"trial_type":"image-keyboard-response","trial_index":187,"plugin_version":"2.1.0","time_elapsed":347255,"subject_id":"92078","group":"Group1","condition":"3_Rep","full_date":"2026-01-24T22:35:27.157Z","date":"2026-01-24","time":"22:35:27"},{"rt":null,"stimulus":"<p style=\"font-size: 50px; margin: 0; text-align: center;\">+</p>","response":null,"trial_type":"html-keyboard-response","trial_index":188,"plugin_version":"2.1.0","time_elapsed":348257,"subject_id":"92078","group":"Group1","condition":"3_Rep","full_date":"2026-01-24T22:35:27.157Z","date":"2026-01-24","time":"22:35:27"},{"task":"memory_phase","broad_category":"M","image_png":"M_Phyllite_03.png","image_id":259,"category_name":"Phyllite","category":17,"distinct_rating":2.5,"distinct_type":"Bottom","rt":null,"stimulus":"Stimuli_Rocks480/M_Phyllite_03.png","response":null,"trial_type":"image-keyboard-response","trial_index":189,"plugin_version":"2.1.0","time_elapsed":350772,"subject_id":"92078","group":"Group1","condition":"3_Rep","full_date":"2026-01-24T22:35:27.157Z","date":"2026-01-24","time":"22:35:27"},{"rt":null,"stimulus":"<p style=\"font-size: 50px; margin: 0; text-align: center;\">+</p>","response":null,"trial_type":"html-keyboard-response","trial_index":190,"plugin_version":"2.1.0","time_elapsed":351774,"subject_id":"92078","group":"Group1","condition":"3_Rep","full_date":"2026-01-24T22:35:27.157Z","date":"2026-01-24","time":"22:35:27"},{"task":"memory_phase","broad_category":"S","image_png":"S_Sandstone_15.png","image_id":463,"category_name":"Sandstone","category":29,"distinct_rating":2,"distinct_type":"Bottom","rt":null,"stimulus":"Stimuli_Rocks480/S_Sandstone_15.png","response":null,"trial_type":"image-keyboard-response","trial_index":191,"plugin_version":"2.1.0","time_elapsed":354292,"subject_id":"92078","group":"Group1","condition":"3_Rep","full_date":"2026-01-24T22:35:27.157Z","date":"2026-01-24","time":"22:35:27"},{"rt":null,"stimulus":"<p style=\"font-size: 50px; margin: 0; text-align: center;\">+</p>","response":null,"trial_type":"html-keyboard-response","trial_index":192,"plugin_version":"2.1.0","time_elapsed":355294,"subject_id":"92078","group":"Group1","condition":"3_Rep","full_date":"2026-01-24T22:35:27.157Z","date":"2026-01-24","time":"22:35:27"},{"task":"memory_phase","broad_category":"S","image_png":"S_Sandstone_03.png","image_id":451,"category_name":"Sandstone","category":29,"distinct_rating":1.86,"distinct_type":"Bottom","rt":null,"stimulus":"Stimuli_Rocks480/S_Sandstone_03.png","response":null,"trial_type":"image-keyboard-response","trial_index":193,"plugin_version":"2.1.0","time_elapsed":357811,"subject_id":"92078","group":"Group1","condition":"3_Rep","full_date":"2026-01-24T22:35:27.157Z","date":"2026-01-24","time":"22:35:27"},{"rt":null,"stimulus":"<p style=\"font-size: 50px; margin: 0; text-align: center;\">+</p>","response":null,"trial_type":"html-keyboard-response","trial_index":194,"plugin_version":"2.1.0","time_elapsed":358813,"subject_id":"92078","group":"Group1","condition":"3_Rep","full_date":"2026-01-24T22:35:27.157Z","date":"2026-01-24","time":"22:35:27"},{"task":"memory_phase","broad_category":"I","image_png":"I_Rhyolite_14.png","image_id":158,"category_name":"Rhyolite","category":10,"distinct_rating":2.59,"distinct_type":"Bottom","rt":null,"stimulus":"Stimuli_Rocks480/I_Rhyolite_14.png","response":null,"trial_type":"image-keyboard-response","trial_index":195,"plugin_version":"2.1.0","time_elapsed":361327,"subject_id":"92078","group":"Group1","condition":"3_Rep","full_date":"2026-01-24T22:35:27.157Z","date":"2026-01-24","time":"22:35:27"},{"rt":null,"stimulus":"<p style=\"font-size: 50px; margin: 0; text-align: center;\">+</p>","response":null,"trial_type":"html-keyboard-response","trial_index":196,"plugin_version":"2.1.0","time_elapsed":362329,"subject_id":"92078","group":"Group1","condition":"3_Rep","full_date":"2026-01-24T22:35:27.157Z","date":"2026-01-24","time":"22:35:27"},{"task":"memory_phase","broad_category":"I","image_png":"I_Rhyolite_11.png","image_id":155,"category_name":"Rhyolite","category":10,"distinct_rating":1.73,"distinct_type":"Bottom","rt":null,"stimulus":"Stimuli_Rocks480/I_Rhyolite_11.png","response":null,"trial_type":"image-keyboard-response","trial_index":197,"plugin_version":"2.1.0","time_elapsed":364843,"subject_id":"92078","group":"Group1","condition":"3_Rep","full_date":"2026-01-24T22:35:27.157Z","date":"2026-01-24","time":"22:35:27"},{"rt":null,"stimulus":"<p style=\"font-size: 50px; margin: 0; text-align: center;\">+</p>","response":null,"trial_type":"html-keyboard-response","trial_index":198,"plugin_version":"2.1.0","time_elapsed":365846,"subject_id":"92078","group":"Group1","condition":"3_Rep","full_date":"2026-01-24T22:35:27.157Z","date":"2026-01-24","time":"22:35:27"},{"task":"memory_phase","broad_category":"M","image_png":"M_Slate_11.png","image_id":315,"category_name":"Slate","category":20,"distinct_rating":2.75,"distinct_type":"Bottom","rt":null,"stimulus":"Stimuli_Rocks480/M_Slate_11.png","response":null,"trial_type":"image-keyboard-response","trial_index":199,"plugin_version":"2.1.0","time_elapsed":368359,"subject_id":"92078","group":"Group1","condition":"3_Rep","full_date":"2026-01-24T22:35:27.157Z","date":"2026-01-24","time":"22:35:27"},{"rt":null,"stimulus":"<p style=\"font-size: 50px; margin: 0; text-align: center;\">+</p>","response":null,"trial_type":"html-keyboard-response","trial_index":200,"plugin_version":"2.1.0","time_elapsed":369361,"subject_id":"92078","group":"Group1","condition":"3_Rep","full_date":"2026-01-24T22:35:27.157Z","date":"2026-01-24","time":"22:35:27"},{"task":"memory_phase","broad_category":"S","image_png":"S_Chert_10.png","image_id":362,"category_name":"Chert","category":23,"distinct_rating":7.17,"distinct_type":"Top","rt":null,"stimulus":"Stimuli_Rocks480/S_Chert_10.png","response":null,"trial_type":"image-keyboard-response","trial_index":201,"plugin_version":"2.1.0","time_elapsed":371878,"subject_id":"92078","group":"Group1","condition":"3_Rep","full_date":"2026-01-24T22:35:27.157Z","date":"2026-01-24","time":"22:35:27"},{"rt":null,"stimulus":"<p style=\"font-size: 50px; margin: 0; text-align: center;\">+</p>","response":null,"trial_type":"html-keyboard-response","trial_index":202,"plugin_version":"2.1.0","time_elapsed":372881,"subject_id":"92078","group":"Group1","condition":"3_Rep","full_date":"2026-01-24T22:35:27.157Z","date":"2026-01-24","time":"22:35:27"},{"task":"memory_phase","broad_category":"I","image_png":"I_Pumice_08.png","image_id":136,"category_name":"Pumice","category":9,"distinct_rating":3.1,"distinct_type":"Bottom","rt":null,"stimulus":"Stimuli_Rocks480/I_Pumice_08.png","response":null,"trial_type":"image-keyboard-response","trial_index":203,"plugin_version":"2.1.0","time_elapsed":375396,"subject_id":"92078","group":"Group1","condition":"3_Rep","full_date":"2026-01-24T22:35:27.157Z","date":"2026-01-24","time":"22:35:27"},{"rt":null,"stimulus":"<p style=\"font-size: 50px; margin: 0; text-align: center;\">+</p>","response":null,"trial_type":"html-keyboard-response","trial_index":204,"plugin_version":"2.1.0","time_elapsed":376398,"subject_id":"92078","group":"Group1","condition":"3_Rep","full_date":"2026-01-24T22:35:27.157Z","date":"2026-01-24","time":"22:35:27"},{"task":"memory_phase","broad_category":"M","image_png":"M_Gneiss_05.png","image_id":197,"category_name":"Gneiss","category":13,"distinct_rating":2.97,"distinct_type":"Bottom","rt":null,"stimulus":"Stimuli_Rocks480/M_Gneiss_05.png","response":null,"trial_type":"image-keyboard-response","trial_index":205,"plugin_version":"2.1.0","time_elapsed":378918,"subject_id":"92078","group":"Group1","condition":"3_Rep","full_date":"2026-01-24T22:35:27.157Z","date":"2026-01-24","time":"22:35:27"},{"rt":null,"stimulus":"<p style=\"font-size: 50px; margin: 0; text-align: center;\">+</p>","response":null,"trial_type":"html-keyboard-response","trial_index":206,"plugin_version":"2.1.0","time_elapsed":379920,"subject_id":"92078","group":"Group1","condition":"3_Rep","full_date":"2026-01-24T22:35:27.157Z","date":"2026-01-24","time":"22:35:27"},{"task":"memory_phase","broad_category":"M","image_png":"M_Marble_04.png","image_id":228,"category_name":"Marble","category":15,"distinct_rating":3.15,"distinct_type":"Bottom","rt":null,"stimulus":"Stimuli_Rocks480/M_Marble_04.png","response":null,"trial_type":"image-keyboard-response","trial_index":207,"plugin_version":"2.1.0","time_elapsed":382435,"subject_id":"92078","group":"Group1","condition":"3_Rep","full_date":"2026-01-24T22:35:27.157Z","date":"2026-01-24","time":"22:35:27"},{"rt":9910,"stimulus":"<p style=\"max-width: 760px; margin: auto; font-size: 35px; line-height: 1.5;\">\n                You have completed 2 study phases. \n                Now, we'll show you all the images again 1 more time.\n                <br><br>Press SPACE to continue\n              </p>","response":" ","trial_type":"html-keyboard-response","trial_index":208,"plugin_version":"2.1.0","time_elapsed":392347,"subject_id":"92078","group":"Group1","condition":"3_Rep","full_date":"2026-01-24T22:35:27.157Z","date":"2026-01-24","time":"22:35:27"},{"rt":null,"stimulus":"<p style=\"font-size: 50px; margin: 0; text-align: center;\">+</p>","response":null,"trial_type":"html-keyboard-response","trial_index":209,"plugin_version":"2.1.0","time_elapsed":393350,"subject_id":"92078","group":"Group1","condition":"3_Rep","full_date":"2026-01-24T22:35:27.157Z","date":"2026-01-24","time":"22:35:27"},{"task":"memory_phase","broad_category":"M","image_png":"M_Marble_16.png","image_id":240,"category_name":"Marble","category":15,"distinct_rating":2.57,"distinct_type":"Bottom","rt":null,"stimulus":"Stimuli_Rocks480/M_Marble_16.png","response":null,"trial_type":"image-keyboard-response","trial_index":210,"plugin_version":"2.1.0","time_elapsed":395865,"subject_id":"92078","group":"Group1","condition":"3_Rep","full_date":"2026-01-24T22:35:27.157Z","date":"2026-01-24","time":"22:35:27"},{"rt":null,"stimulus":"<p style=\"font-size: 50px; margin: 0; text-align: center;\">+</p>","response":null,"trial_type":"html-keyboard-response","trial_index":211,"plugin_version":"2.1.0","time_elapsed":396867,"subject_id":"92078","group":"Group1","condition":"3_Rep","full_date":"2026-01-24T22:35:27.157Z","date":"2026-01-24","time":"22:35:27"},{"task":"memory_phase","broad_category":"I","image_png":"I_Pumice_11.png","image_id":139,"category_name":"Pumice","category":9,"distinct_rating":1.74,"distinct_type":"Bottom","rt":null,"stimulus":"Stimuli_Rocks480/I_Pumice_11.png","response":null,"trial_type":"image-keyboard-response","trial_index":212,"plugin_version":"2.1.0","time_elapsed":399380,"subject_id":"92078","group":"Group1","condition":"3_Rep","full_date":"2026-01-24T22:35:27.157Z","date":"2026-01-24","time":"22:35:27"},{"rt":null,"stimulus":"<p style=\"font-size: 50px; margin: 0; text-align: center;\">+</p>","response":null,"trial_type":"html-keyboard-response","trial_index":213,"plugin_version":"2.1.0","time_elapsed":400382,"subject_id":"92078","group":"Group1","condition":"3_Rep","full_date":"2026-01-24T22:35:27.157Z","date":"2026-01-24","time":"22:35:27"},{"task":"memory_phase","broad_category":"S","image_png":"S_Sandstone_16.png","image_id":464,"category_name":"Sandstone","category":29,"distinct_rating":1.93,"distinct_type":"Bottom","rt":null,"stimulus":"Stimuli_Rocks480/S_Sandstone_16.png","response":null,"trial_type":"image-keyboard-response","trial_index":214,"plugin_version":"2.1.0","time_elapsed":402896,"subject_id":"92078","group":"Group1","condition":"3_Rep","full_date":"2026-01-24T22:35:27.157Z","date":"2026-01-24","time":"22:35:27"},{"rt":null,"stimulus":"<p style=\"font-size: 50px; margin: 0; text-align: center;\">+</p>","response":null,"trial_type":"html-keyboard-response","trial_index":215,"plugin_version":"2.1.0","time_elapsed":403898,"subject_id":"92078","group":"Group1","condition":"3_Rep","full_date":"2026-01-24T22:35:27.157Z","date":"2026-01-24","time":"22:35:27"},{"task":"memory_phase","broad_category":"M","image_png":"M_Phyllite_07.png","image_id":263,"category_name":"Phyllite","category":17,"distinct_rating":2.59,"distinct_type":"Bottom","rt":null,"stimulus":"Stimuli_Rocks480/M_Phyllite_07.png","response":null,"trial_type":"image-keyboard-response","trial_index":216,"plugin_version":"2.1.0","time_elapsed":406410,"subject_id":"92078","group":"Group1","condition":"3_Rep","full_date":"2026-01-24T22:35:27.157Z","date":"2026-01-24","time":"22:35:27"},{"rt":null,"stimulus":"<p style=\"font-size: 50px; margin: 0; text-align: center;\">+</p>","response":null,"trial_type":"html-keyboard-response","trial_index":217,"plugin_version":"2.1.0","time_elapsed":407412,"subject_id":"92078","group":"Group1","condition":"3_Rep","full_date":"2026-01-24T22:35:27.157Z","date":"2026-01-24","time":"22:35:27"},{"task":"memory_phase","broad_category":"S","image_png":"S_Sandstone_03.png","image_id":451,"category_name":"Sandstone","category":29,"distinct_rating":1.86,"distinct_type":"Bottom","rt":null,"stimulus":"Stimuli_Rocks480/S_Sandstone_03.png","response":null,"trial_type":"image-keyboard-response","trial_index":218,"plugin_version":"2.1.0","time_elapsed":409915,"subject_id":"92078","group":"Group1","condition":"3_Rep","full_date":"2026-01-24T22:35:27.157Z","date":"2026-01-24","time":"22:35:27"},{"rt":null,"stimulus":"<p style=\"font-size: 50px; margin: 0; text-align: center;\">+</p>","response":null,"trial_type":"html-keyboard-response","trial_index":219,"plugin_version":"2.1.0","time_elapsed":410917,"subject_id":"92078","group":"Group1","condition":"3_Rep","full_date":"2026-01-24T22:35:27.157Z","date":"2026-01-24","time":"22:35:27"},{"task":"memory_phase","broad_category":"I","image_png":"I_Pegmatite_10.png","image_id":106,"category_name":"Pegmatite","category":7,"distinct_rating":7.66,"distinct_type":"Top","rt":null,"stimulus":"Stimuli_Rocks480/I_Pegmatite_10.png","response":null,"trial_type":"image-keyboard-response","trial_index":220,"plugin_version":"2.1.0","time_elapsed":413431,"subject_id":"92078","group":"Group1","condition":"3_Rep","full_date":"2026-01-24T22:35:27.157Z","date":"2026-01-24","time":"22:35:27"},{"rt":null,"stimulus":"<p style=\"font-size: 50px; margin: 0; text-align: center;\">+</p>","response":null,"trial_type":"html-keyboard-response","trial_index":221,"plugin_version":"2.1.0","time_elapsed":414433,"subject_id":"92078","group":"Group1","condition":"3_Rep","full_date":"2026-01-24T22:35:27.157Z","date":"2026-01-24","time":"22:35:27"},{"task":"memory_phase","broad_category":"M","image_png":"M_Quartzite_13.png","image_id":285,"category_name":"Quartzite","category":18,"distinct_rating":2.27,"distinct_type":"Bottom","rt":null,"stimulus":"Stimuli_Rocks480/M_Quartzite_13.png","response":null,"trial_type":"image-keyboard-response","trial_index":222,"plugin_version":"2.1.0","time_elapsed":416948,"subject_id":"92078","group":"Group1","condition":"3_Rep","full_date":"2026-01-24T22:35:27.157Z","date":"2026-01-24","time":"22:35:27"},{"rt":null,"stimulus":"<p style=\"font-size: 50px; margin: 0; text-align: center;\">+</p>","response":null,"trial_type":"html-keyboard-response","trial_index":223,"plugin_version":"2.1.0","time_elapsed":417950,"subject_id":"92078","group":"Group1","condition":"3_Rep","full_date":"2026-01-24T22:35:27.157Z","date":"2026-01-24","time":"22:35:27"},{"task":"memory_phase","broad_category":"I","image_png":"I_Rhyolite_14.png","image_id":158,"category_name":"Rhyolite","category":10,"distinct_rating":2.59,"distinct_type":"Bottom","rt":null,"stimulus":"Stimuli_Rocks480/I_Rhyolite_14.png","response":null,"trial_type":"image-keyboard-response","trial_index":224,"plugin_version":"2.1.0","time_elapsed":420453,"subject_id":"92078","group":"Group1","condition":"3_Rep","full_date":"2026-01-24T22:35:27.157Z","date":"2026-01-24","time":"22:35:27"},{"rt":null,"stimulus":"<p style=\"font-size: 50px; margin: 0; text-align: center;\">+</p>","response":null,"trial_type":"html-keyboard-response","trial_index":225,"plugin_version":"2.1.0","time_elapsed":421455,"subject_id":"92078","group":"Group1","condition":"3_Rep","full_date":"2026-01-24T22:35:27.157Z","date":"2026-01-24","time":"22:35:27"},{"task":"memory_phase","broad_category":"I","image_png":"I_Andesite_08.png","image_id":8,"category_name":"Andesite","category":1,"distinct_rating":1.95,"distinct_type":"Bottom","rt":null,"stimulus":"Stimuli_Rocks480/I_Andesite_08.png","response":null,"trial_type":"image-keyboard-response","trial_index":226,"plugin_version":"2.1.0","time_elapsed":423970,"subject_id":"92078","group":"Group1","condition":"3_Rep","full_date":"2026-01-24T22:35:27.157Z","date":"2026-01-24","time":"22:35:27"},{"rt":null,"stimulus":"<p style=\"font-size: 50px; margin: 0; text-align: center;\">+</p>","response":null,"trial_type":"html-keyboard-response","trial_index":227,"plugin_version":"2.1.0","time_elapsed":424972,"subject_id":"92078","group":"Group1","condition":"3_Rep","full_date":"2026-01-24T22:35:27.157Z","date":"2026-01-24","time":"22:35:27"},{"task":"memory_phase","broad_category":"M","image_png":"M_Marble_04.png","image_id":228,"category_name":"Marble","category":15,"distinct_rating":3.15,"distinct_type":"Bottom","rt":null,"stimulus":"Stimuli_Rocks480/M_Marble_04.png","response":null,"trial_type":"image-keyboard-response","trial_index":228,"plugin_version":"2.1.0","time_elapsed":427475,"subject_id":"92078","group":"Group1","condition":"3_Rep","full_date":"2026-01-24T22:35:27.157Z","date":"2026-01-24","time":"22:35:27"},{"rt":null,"stimulus":"<p style=\"font-size: 50px; margin: 0; text-align: center;\">+</p>","response":null,"trial_type":"html-keyboard-response","trial_index":229,"plugin_version":"2.1.0","time_elapsed":428477,"subject_id":"92078","group":"Group1","condition":"3_Rep","full_date":"2026-01-24T22:35:27.157Z","date":"2026-01-24","time":"22:35:27"},{"task":"memory_phase","broad_category":"I","image_png":"I_Pumice_12.png","image_id":140,"category_name":"Pumice","category":9,"distinct_rating":2.97,"distinct_type":"Bottom","rt":null,"stimulus":"Stimuli_Rocks480/I_Pumice_12.png","response":null,"trial_type":"image-keyboard-response","trial_index":230,"plugin_version":"2.1.0","time_elapsed":430980,"subject_id":"92078","group":"Group1","condition":"3_Rep","full_date":"2026-01-24T22:35:27.157Z","date":"2026-01-24","time":"22:35:27"},{"rt":null,"stimulus":"<p style=\"font-size: 50px; margin: 0; text-align: center;\">+</p>","response":null,"trial_type":"html-keyboard-response","trial_index":231,"plugin_version":"2.1.0","time_elapsed":431982,"subject_id":"92078","group":"Group1","condition":"3_Rep","full_date":"2026-01-24T22:35:27.157Z","date":"2026-01-24","time":"22:35:27"},{"task":"memory_phase","broad_category":"I","image_png":"I_Pegmatite_16.png","image_id":112,"category_name":"Pegmatite","category":7,"distinct_rating":7.03,"distinct_type":"Top","rt":null,"stimulus":"Stimuli_Rocks480/I_Pegmatite_16.png","response":null,"trial_type":"image-keyboard-response","trial_index":232,"plugin_version":"2.1.0","time_elapsed":434498,"subject_id":"92078","group":"Group1","condition":"3_Rep","full_date":"2026-01-24T22:35:27.157Z","date":"2026-01-24","time":"22:35:27"},{"rt":null,"stimulus":"<p style=\"font-size: 50px; margin: 0; text-align: center;\">+</p>","response":null,"trial_type":"html-keyboard-response","trial_index":233,"plugin_version":"2.1.0","time_elapsed":435500,"subject_id":"92078","group":"Group1","condition":"3_Rep","full_date":"2026-01-24T22:35:27.157Z","date":"2026-01-24","time":"22:35:27"},{"task":"memory_phase","broad_category":"M","image_png":"M_Gneiss_06.png","image_id":198,"category_name":"Gneiss","category":13,"distinct_rating":2.65,"distinct_type":"Bottom","rt":null,"stimulus":"Stimuli_Rocks480/M_Gneiss_06.png","response":null,"trial_type":"image-keyboard-response","trial_index":234,"plugin_version":"2.1.0","time_elapsed":438018,"subject_id":"92078","group":"Group1","condition":"3_Rep","full_date":"2026-01-24T22:35:27.157Z","date":"2026-01-24","time":"22:35:27"},{"rt":null,"stimulus":"<p style=\"font-size: 50px; margin: 0; text-align: center;\">+</p>","response":null,"trial_type":"html-keyboard-response","trial_index":235,"plugin_version":"2.1.0","time_elapsed":439020,"subject_id":"92078","group":"Group1","condition":"3_Rep","full_date":"2026-01-24T22:35:27.157Z","date":"2026-01-24","time":"22:35:27"},{"task":"memory_phase","broad_category":"M","image_png":"M_Slate_03.png","image_id":307,"category_name":"Slate","category":20,"distinct_rating":1.87,"distinct_type":"Bottom","rt":null,"stimulus":"Stimuli_Rocks480/M_Slate_03.png","