[{"width":1272,"height":588,"webaudio":true,"browser":"edge-chromium","browser_version":"144.0.0","mobile":false,"os":"Windows 10","fullscreen":true,"vsync_rate":59.57,"webcam":true,"microphone":true,"trial_type":"browser-check","trial_index":0,"plugin_version":"2.1.0","time_elapsed":1019,"subject_id":"91391","group":"Group1","condition":"1_Rep","full_date":"2026-02-02T19:52:23.967Z","date":"2026-02-02","time":"19:52:23"},{"success":true,"timeout":false,"failed_images":[],"failed_audio":[],"failed_video":[],"trial_type":"preload","trial_index":1,"plugin_version":"2.1.0","time_elapsed":5449,"subject_id":"91391","group":"Group1","condition":"1_Rep","full_date":"2026-02-02T19:52:23.967Z","date":"2026-02-02","time":"19:52:23"},{"rt":10614,"url":"SONA_consent_memorability.html","trial_type":"external-html","trial_index":2,"plugin_version":"2.1.0","time_elapsed":16143,"subject_id":"91391","group":"Group1","condition":"1_Rep","full_date":"2026-02-02T19:52:23.967Z","date":"2026-02-02","time":"19:52:23"},{"success":true,"rt":2851,"trial_type":"fullscreen","trial_index":3,"plugin_version":"2.1.0","time_elapsed":20009,"subject_id":"91391","group":"Group1","condition":"1_Rep","full_date":"2026-02-02T19:52:23.967Z","date":"2026-02-02","time":"19:52:23"},{"rt":21938,"stimulus":"<div style=\"max-width: 760px; margin: auto; font-size: 20px; line-height: 1.5;\">\n      <h1 style=\"text-align:center; font-size: 30px;\">Instructions</h1>\n      <p>\n        Welcome to the study on <b>visual memory</b>. This experiment consists of <b>two phases</b>: \n        a <b>study phase</b> and a <b>test phase</b>.\n      </p>\n      <p>\n        In the study phase, you will see a series of rock images along with their category labels.\n        The images will appear one at a time.\n        <b>Your task</b> is to learn the categories to which the rock images belong \n        and to remember each image as accurately as possible.\n      </p> \n      <p>\n        Note that you will see each image only <b>once</b> during the study phase. \n          So, please pay close attention and try to remember each image carefully.\n      </p>\n      <p>\n        After the study phase, <b>your memory will be tested</b>. \n        Additional instructions for the test phase will be provided at that time.\n      </p>\n      <p>\n        If your computer has multiple <b>language settings</b> (e.g., English and another language),\n        please make sure it is set to English before starting.\n      </p>\n      <p>\n        You can track your progress using the <b>completion bar</b> at the top of the screen. \n        Please note that the bar will refresh when the test phase begins \n        to give you an accurate sense of your progress in both phases.\n      </p> \n      <p>\n        Press the button below when you are ready to begin.\n      </p>\n    </div>","response":0,"trial_type":"html-button-response","trial_index":4,"plugin_version":"2.1.0","time_elapsed":41951,"subject_id":"91391","group":"Group1","condition":"1_Rep","full_date":"2026-02-02T19:52:23.967Z","date":"2026-02-02","time":"19:52:23"},{"rt":null,"stimulus":"<p style=\"font-size: 50px; margin: 0; text-align: center;\">+</p>","response":null,"trial_type":"html-keyboard-response","trial_index":5,"plugin_version":"2.1.0","time_elapsed":42961,"subject_id":"91391","group":"Group1","condition":"1_Rep","full_date":"2026-02-02T19:52:23.967Z","date":"2026-02-02","time":"19:52:23"},{"task":"memory_phase","broad_category":"I","image_png":"I_Basalt_09.png","image_id":25,"category_name":"Basalt","category":2,"distinct_rating":1.89,"distinct_type":"Bottom","rt":null,"stimulus":"Stimuli_Rocks480/I_Basalt_09.png","response":null,"trial_type":"image-keyboard-response","trial_index":6,"plugin_version":"2.1.0","time_elapsed":45481,"subject_id":"91391","group":"Group1","condition":"1_Rep","full_date":"2026-02-02T19:52:23.967Z","date":"2026-02-02","time":"19:52:23"},{"rt":null,"stimulus":"<p style=\"font-size: 50px; margin: 0; text-align: center;\">+</p>","response":null,"trial_type":"html-keyboard-response","trial_index":7,"plugin_version":"2.1.0","time_elapsed":46485,"subject_id":"91391","group":"Group1","condition":"1_Rep","full_date":"2026-02-02T19:52:23.967Z","date":"2026-02-02","time":"19:52:23"},{"task":"memory_phase","broad_category":"I","image_png":"I_Pegmatite_16.png","image_id":112,"category_name":"Pegmatite","category":7,"distinct_rating":7.03,"distinct_type":"Top","rt":null,"stimulus":"Stimuli_Rocks480/I_Pegmatite_16.png","response":null,"trial_type":"image-keyboard-response","trial_index":8,"plugin_version":"2.1.0","time_elapsed":49004,"subject_id":"91391","group":"Group1","condition":"1_Rep","full_date":"2026-02-02T19:52:23.967Z","date":"2026-02-02","time":"19:52:23"},{"rt":null,"stimulus":"<p style=\"font-size: 50px; margin: 0; text-align: center;\">+</p>","response":null,"trial_type":"html-keyboard-response","trial_index":9,"plugin_version":"2.1.0","time_elapsed":50012,"subject_id":"91391","group":"Group1","condition":"1_Rep","full_date":"2026-02-02T19:52:23.967Z","date":"2026-02-02","time":"19:52:23"},{"task":"memory_phase","broad_category":"M","image_png":"M_Phyllite_03.png","image_id":259,"category_name":"Phyllite","category":17,"distinct_rating":2.5,"distinct_type":"Bottom","rt":null,"stimulus":"Stimuli_Rocks480/M_Phyllite_03.png","response":null,"trial_type":"image-keyboard-response","trial_index":10,"plugin_version":"2.1.0","time_elapsed":52530,"subject_id":"91391","group":"Group1","condition":"1_Rep","full_date":"2026-02-02T19:52:23.967Z","date":"2026-02-02","time":"19:52:23"},{"rt":null,"stimulus":"<p style=\"font-size: 50px; margin: 0; text-align: center;\">+</p>","response":null,"trial_type":"html-keyboard-response","trial_index":11,"plugin_version":"2.1.0","time_elapsed":53538,"subject_id":"91391","group":"Group1","condition":"1_Rep","full_date":"2026-02-02T19:52:23.967Z","date":"2026-02-02","time":"19:52:23"},{"task":"memory_phase","broad_category":"I","image_png":"I_Gabbro_16.png","image_id":64,"category_name":"Gabbro","category":4,"distinct_rating":2.52,"distinct_type":"Bottom","rt":null,"stimulus":"Stimuli_Rocks480/I_Gabbro_16.png","response":null,"trial_type":"image-keyboard-response","trial_index":12,"plugin_version":"2.1.0","time_elapsed":56045,"subject_id":"91391","group":"Group1","condition":"1_Rep","full_date":"2026-02-02T19:52:23.967Z","date":"2026-02-02","time":"19:52:23"},{"rt":null,"stimulus":"<p style=\"font-size: 50px; margin: 0; text-align: center;\">+</p>","response":null,"trial_type":"html-keyboard-response","trial_index":13,"plugin_version":"2.1.0","time_elapsed":57061,"subject_id":"91391","group":"Group1","condition":"1_Rep","full_date":"2026-02-02T19:52:23.967Z","date":"2026-02-02","time":"19:52:23"},{"task":"memory_phase","broad_category":"S","image_png":"S_Breccia_11.png","image_id":347,"category_name":"Breccia","category":22,"distinct_rating":6.7,"distinct_type":"Top","rt":null,"stimulus":"Stimuli_Rocks480/S_Breccia_11.png","response":null,"trial_type":"image-keyboard-response","trial_index":14,"plugin_version":"2.1.0","time_elapsed":59567,"subject_id":"91391","group":"Group1","condition":"1_Rep","full_date":"2026-02-02T19:52:23.967Z","date":"2026-02-02","time":"19:52:23"},{"rt":null,"stimulus":"<p style=\"font-size: 50px; margin: 0; text-align: center;\">+</p>","response":null,"trial_type":"html-keyboard-response","trial_index":15,"plugin_version":"2.1.0","time_elapsed":60577,"subject_id":"91391","group":"Group1","condition":"1_Rep","full_date":"2026-02-02T19:52:23.967Z","date":"2026-02-02","time":"19:52:23"},{"task":"memory_phase","broad_category":"M","image_png":"M_Gneiss_05.png","image_id":197,"category_name":"Gneiss","category":13,"distinct_rating":2.97,"distinct_type":"Bottom","rt":null,"stimulus":"Stimuli_Rocks480/M_Gneiss_05.png","response":null,"trial_type":"image-keyboard-response","trial_index":16,"plugin_version":"2.1.0","time_elapsed":63088,"subject_id":"91391","group":"Group1","condition":"1_Rep","full_date":"2026-02-02T19:52:23.967Z","date":"2026-02-02","time":"19:52:23"},{"rt":null,"stimulus":"<p style=\"font-size: 50px; margin: 0; text-align: center;\">+</p>","response":null,"trial_type":"html-keyboard-response","trial_index":17,"plugin_version":"2.1.0","time_elapsed":64101,"subject_id":"91391","group":"Group1","condition":"1_Rep","full_date":"2026-02-02T19:52:23.967Z","date":"2026-02-02","time":"19:52:23"},{"task":"memory_phase","broad_category":"S","image_png":"S_Shale_08.png","image_id":472,"category_name":"Shale","category":30,"distinct_rating":2.55,"distinct_type":"Bottom","rt":null,"stimulus":"Stimuli_Rocks480/S_Shale_08.png","response":null,"trial_type":"image-keyboard-response","trial_index":18,"plugin_version":"2.1.0","time_elapsed":66609,"subject_id":"91391","group":"Group1","condition":"1_Rep","full_date":"2026-02-02T19:52:23.967Z","date":"2026-02-02","time":"19:52:23"},{"rt":null,"stimulus":"<p style=\"font-size: 50px; margin: 0; text-align: center;\">+</p>","response":null,"trial_type":"html-keyboard-response","trial_index":19,"plugin_version":"2.1.0","time_elapsed":67611,"subject_id":"91391","group":"Group1","condition":"1_Rep","full_date":"2026-02-02T19:52:23.967Z","date":"2026-02-02","time":"19:52:23"},{"task":"memory_phase","broad_category":"I","image_png":"I_Basalt_02.png","image_id":18,"category_name":"Basalt","category":2,"distinct_rating":1.84,"distinct_type":"Bottom","rt":null,"stimulus":"Stimuli_Rocks480/I_Basalt_02.png","response":null,"trial_type":"image-keyboard-response","trial_index":20,"plugin_version":"2.1.0","time_elapsed":70116,"subject_id":"91391","group":"Group1","condition":"1_Rep","full_date":"2026-02-02T19:52:23.967Z","date":"2026-02-02","time":"19:52:23"},{"rt":null,"stimulus":"<p style=\"font-size: 50px; margin: 0; text-align: center;\">+</p>","response":null,"trial_type":"html-keyboard-response","trial_index":21,"plugin_version":"2.1.0","time_elapsed":71125,"subject_id":"91391","group":"Group1","condition":"1_Rep","full_date":"2026-02-02T19:52:23.967Z","date":"2026-02-02","time":"19:52:23"},{"task":"memory_phase","broad_category":"I","image_png":"I_Pumice_12.png","image_id":140,"category_name":"Pumice","category":9,"distinct_rating":2.97,"distinct_type":"Bottom","rt":null,"stimulus":"Stimuli_Rocks480/I_Pumice_12.png","response":null,"trial_type":"image-keyboard-response","trial_index":22,"plugin_version":"2.1.0","time_elapsed":73636,"subject_id":"91391","group":"Group1","condition":"1_Rep","full_date":"2026-02-02T19:52:23.967Z","date":"2026-02-02","time":"19:52:23"},{"rt":null,"stimulus":"<p style=\"font-size: 50px; margin: 0; text-align: center;\">+</p>","response":null,"trial_type":"html-keyboard-response","trial_index":23,"plugin_version":"2.1.0","time_elapsed":74642,"subject_id":"91391","group":"Group1","condition":"1_Rep","full_date":"2026-02-02T19:52:23.967Z","date":"2026-02-02","time":"19:52:23"},{"task":"memory_phase","broad_category":"M","image_png":"M_Marble_16.png","image_id":240,"category_name":"Marble","category":15,"distinct_rating":2.57,"distinct_type":"Bottom","rt":null,"stimulus":"Stimuli_Rocks480/M_Marble_16.png","response":null,"trial_type":"image-keyboard-response","trial_index":24,"plugin_version":"2.1.0","time_elapsed":77147,"subject_id":"91391","group":"Group1","condition":"1_Rep","full_date":"2026-02-02T19:52:23.967Z","date":"2026-02-02","time":"19:52:23"},{"rt":null,"stimulus":"<p style=\"font-size: 50px; margin: 0; text-align: center;\">+</p>","response":null,"trial_type":"html-keyboard-response","trial_index":25,"plugin_version":"2.1.0","time_elapsed":78163,"subject_id":"91391","group":"Group1","condition":"1_Rep","full_date":"2026-02-02T19:52:23.967Z","date":"2026-02-02","time":"19:52:23"},{"task":"memory_phase","broad_category":"I","image_png":"I_Rhyolite_11.png","image_id":155,"category_name":"Rhyolite","category":10,"distinct_rating":1.73,"distinct_type":"Bottom","rt":null,"stimulus":"Stimuli_Rocks480/I_Rhyolite_11.png","response":null,"trial_type":"image-keyboard-response","trial_index":26,"plugin_version":"2.1.0","time_elapsed":80667,"subject_id":"91391","group":"Group1","condition":"1_Rep","full_date":"2026-02-02T19:52:23.967Z","date":"2026-02-02","time":"19:52:23"},{"rt":null,"stimulus":"<p style=\"font-size: 50px; margin: 0; text-align: center;\">+</p>","response":null,"trial_type":"html-keyboard-response","trial_index":27,"plugin_version":"2.1.0","time_elapsed":81673,"subject_id":"91391","group":"Group1","condition":"1_Rep","full_date":"2026-02-02T19:52:23.967Z","date":"2026-02-02","time":"19:52:23"},{"task":"memory_phase","broad_category":"M","image_png":"M_Slate_11.png","image_id":315,"category_name":"Slate","category":20,"distinct_rating":2.75,"distinct_type":"Bottom","rt":null,"stimulus":"Stimuli_Rocks480/M_Slate_11.png","response":null,"trial_type":"image-keyboard-response","trial_index":28,"plugin_version":"2.1.0","time_elapsed":84176,"subject_id":"91391","group":"Group1","condition":"1_Rep","full_date":"2026-02-02T19:52:23.967Z","date":"2026-02-02","time":"19:52:23"},{"rt":null,"stimulus":"<p style=\"font-size: 50px; margin: 0; text-align: center;\">+</p>","response":null,"trial_type":"html-keyboard-response","trial_index":29,"plugin_version":"2.1.0","time_elapsed":85192,"subject_id":"91391","group":"Group1","condition":"1_Rep","full_date":"2026-02-02T19:52:23.967Z","date":"2026-02-02","time":"19:52:23"},{"task":"memory_phase","broad_category":"I","image_png":"I_Andesite_08.png","image_id":8,"category_name":"Andesite","category":1,"distinct_rating":1.95,"distinct_type":"Bottom","rt":null,"stimulus":"Stimuli_Rocks480/I_Andesite_08.png","response":null,"trial_type":"image-keyboard-response","trial_index":30,"plugin_version":"2.1.0","time_elapsed":87704,"subject_id":"91391","group":"Group1","condition":"1_Rep","full_date":"2026-02-02T19:52:23.967Z","date":"2026-02-02","time":"19:52:23"},{"rt":null,"stimulus":"<p style=\"font-size: 50px; margin: 0; text-align: center;\">+</p>","response":null,"trial_type":"html-keyboard-response","trial_index":31,"plugin_version":"2.1.0","time_elapsed":88720,"subject_id":"91391","group":"Group1","condition":"1_Rep","full_date":"2026-02-02T19:52:23.967Z","date":"2026-02-02","time":"19:52:23"},{"task":"memory_phase","broad_category":"M","image_png":"M_Phyllite_10.png","image_id":266,"category_name":"Phyllite","category":17,"distinct_rating":2.6,"distinct_type":"Bottom","rt":null,"stimulus":"Stimuli_Rocks480/M_Phyllite_10.png","response":null,"trial_type":"image-keyboard-response","trial_index":32,"plugin_version":"2.1.0","time_elapsed":91230,"subject_id":"91391","group":"Group1","condition":"1_Rep","full_date":"2026-02-02T19:52:23.967Z","date":"2026-02-02","time":"19:52:23"},{"rt":null,"stimulus":"<p style=\"font-size: 50px; margin: 0; text-align: center;\">+</p>","response":null,"trial_type":"html-keyboard-response","trial_index":33,"plugin_version":"2.1.0","time_elapsed":92242,"subject_id":"91391","group":"Group1","condition":"1_Rep","full_date":"2026-02-02T19:52:23.967Z","date":"2026-02-02","time":"19:52:23"},{"task":"memory_phase","broad_category":"I","image_png":"I_Obsidian_05.png","image_id":85,"category_name":"Obsidian","category":6,"distinct_rating":7.32,"distinct_type":"Top","rt":null,"stimulus":"Stimuli_Rocks480/I_Obsidian_05.png","response":null,"trial_type":"image-keyboard-response","trial_index":34,"plugin_version":"2.1.0","time_elapsed":94749,"subject_id":"91391","group":"Group1","condition":"1_Rep","full_date":"2026-02-02T19:52:23.967Z","date":"2026-02-02","time":"19:52:23"},{"rt":null,"stimulus":"<p style=\"font-size: 50px; margin: 0; text-align: center;\">+</p>","response":null,"trial_type":"html-keyboard-response","trial_index":35,"plugin_version":"2.1.0","time_elapsed":95754,"subject_id":"91391","group":"Group1","condition":"1_Rep","full_date":"2026-02-02T19:52:23.967Z","date":"2026-02-02","time":"19:52:23"},{"task":"memory_phase","broad_category":"S","image_png":"S_Conglomerate_05.png","image_id":373,"category_name":"Conglomerate","category":24,"distinct_rating":7.32,"distinct_type":"Top","rt":null,"stimulus":"Stimuli_Rocks480/S_Conglomerate_05.png","response":null,"trial_type":"image-keyboard-response","trial_index":36,"plugin_version":"2.1.0","time_elapsed":98258,"subject_id":"91391","group":"Group1","condition":"1_Rep","full_date":"2026-02-02T19:52:23.967Z","date":"2026-02-02","time":"19:52:23"},{"rt":null,"stimulus":"<p style=\"font-size: 50px; margin: 0; text-align: center;\">+</p>","response":null,"trial_type":"html-keyboard-response","trial_index":37,"plugin_version":"2.1.0","time_elapsed":99277,"subject_id":"91391","group":"Group1","condition":"1_Rep","full_date":"2026-02-02T19:52:23.967Z","date":"2026-02-02","time":"19:52:23"},{"task":"memory_phase","broad_category":"I","image_png":"I_Pumice_08.png","image_id":136,"category_name":"Pumice","category":9,"distinct_rating":3.1,"distinct_type":"Bottom","rt":null,"stimulus":"Stimuli_Rocks480/I_Pumice_08.png","response":null,"trial_type":"image-keyboard-response","trial_index":38,"plugin_version":"2.1.0","time_elapsed":101795,"subject_id":"91391","group":"Group1","condition":"1_Rep","full_date":"2026-02-02T19:52:23.967Z","date":"2026-02-02","time":"19:52:23"},{"rt":null,"stimulus":"<p style=\"font-size: 50px; margin: 0; text-align: center;\">+</p>","response":null,"trial_type":"html-keyboard-response","trial_index":39,"plugin_version":"2.1.0","time_elapsed":102809,"subject_id":"91391","group":"Group1","condition":"1_Rep","full_date":"2026-02-02T19:52:23.967Z","date":"2026-02-02","time":"19:52:23"},{"task":"memory_phase","broad_category":"M","image_png":"M_Gneiss_13.png","image_id":205,"category_name":"Gneiss","category":13,"distinct_rating":3.26,"distinct_type":"Bottom","rt":null,"stimulus":"Stimuli_Rocks480/M_Gneiss_13.png","response":null,"trial_type":"image-keyboard-response","trial_index":40,"plugin_version":"2.1.0","time_elapsed":105314,"subject_id":"91391","group":"Group1","condition":"1_Rep","full_date":"2026-02-02T19:52:23.967Z","date":"2026-02-02","time":"19:52:23"},{"rt":null,"stimulus":"<p style=\"font-size: 50px; margin: 0; text-align: center;\">+</p>","response":null,"trial_type":"html-keyboard-response","trial_index":41,"plugin_version":"2.1.0","time_elapsed":106328,"subject_id":"91391","group":"Group1","condition":"1_Rep","full_date":"2026-02-02T19:52:23.967Z","date":"2026-02-02","time":"19:52:23"},{"task":"memory_phase","broad_category":"S","image_png":"S_Rock Salt_01.png","image_id":433,"category_name":"Rock Salt","category":28,"distinct_rating":7.18,"distinct_type":"Top","rt":null,"stimulus":"Stimuli_Rocks480/S_Rock Salt_01.png","response":null,"trial_type":"image-keyboard-response","trial_index":42,"plugin_version":"2.1.0","time_elapsed":108845,"subject_id":"91391","group":"Group1","condition":"1_Rep","full_date":"2026-02-02T19:52:23.967Z","date":"2026-02-02","time":"19:52:23"},{"rt":null,"stimulus":"<p style=\"font-size: 50px; margin: 0; text-align: center;\">+</p>","response":null,"trial_type":"html-keyboard-response","trial_index":43,"plugin_version":"2.1.0","time_elapsed":109855,"subject_id":"91391","group":"Group1","condition":"1_Rep","full_date":"2026-02-02T19:52:23.967Z","date":"2026-02-02","time":"19:52:23"},{"task":"memory_phase","broad_category":"I","image_png":"I_Pegmatite_10.png","image_id":106,"category_name":"Pegmatite","category":7,"distinct_rating":7.66,"distinct_type":"Top","rt":null,"stimulus":"Stimuli_Rocks480/I_Pegmatite_10.png","response":null,"trial_type":"image-keyboard-response","trial_index":44,"plugin_version":"2.1.0","time_elapsed":112360,"subject_id":"91391","group":"Group1","condition":"1_Rep","full_date":"2026-02-02T19:52:23.967Z","date":"2026-02-02","time":"19:52:23"},{"rt":null,"stimulus":"<p style=\"font-size: 50px; margin: 0; text-align: center;\">+</p>","response":null,"trial_type":"html-keyboard-response","trial_index":45,"plugin_version":"2.1.0","time_elapsed":113366,"subject_id":"91391","group":"Group1","condition":"1_Rep","full_date":"2026-02-02T19:52:23.967Z","date":"2026-02-02","time":"19:52:23"},{"task":"memory_phase","broad_category":"I","image_png":"I_Rhyolite_14.png","image_id":158,"category_name":"Rhyolite","category":10,"distinct_rating":2.59,"distinct_type":"Bottom","rt":null,"stimulus":"Stimuli_Rocks480/I_Rhyolite_14.png","response":null,"trial_type":"image-keyboard-response","trial_index":46,"plugin_version":"2.1.0","time_elapsed":115869,"subject_id":"91391","group":"Group1","condition":"1_Rep","full_date":"2026-02-02T19:52:23.967Z","date":"2026-02-02","time":"19:52:23"},{"rt":null,"stimulus":"<p style=\"font-size: 50px; margin: 0; text-align: center;\">+</p>","response":null,"trial_type":"html-keyboard-response","trial_index":47,"plugin_version":"2.1.0","time_elapsed":116882,"subject_id":"91391","group":"Group1","condition":"1_Rep","full_date":"2026-02-02T19:52:23.967Z","date":"2026-02-02","time":"19:52:23"},{"task":"memory_phase","broad_category":"S","image_png":"S_Shale_01.png","image_id":465,"category_name":"Shale","category":30,"distinct_rating":2.7,"distinct_type":"Bottom","rt":null,"stimulus":"Stimuli_Rocks480/S_Shale_01.png","response":null,"trial_type":"image-keyboard-response","trial_index":48,"plugin_version":"2.1.0","time_elapsed":119391,"subject_id":"91391","group":"Group1","condition":"1_Rep","full_date":"2026-02-02T19:52:23.967Z","date":"2026-02-02","time":"19:52:23"},{"rt":null,"stimulus":"<p style=\"font-size: 50px; margin: 0; text-align: center;\">+</p>","response":null,"trial_type":"html-keyboard-response","trial_index":49,"plugin_version":"2.1.0","time_elapsed":120397,"subject_id":"91391","group":"Group1","condition":"1_Rep","full_date":"2026-02-02T19:52:23.967Z","date":"2026-02-02","time":"19:52:23"},{"task":"memory_phase","broad_category":"M","image_png":"M_Quartzite_05.png","image_id":277,"category_name":"Quartzite","category":18,"distinct_rating":2.23,"distinct_type":"Bottom","rt":null,"stimulus":"Stimuli_Rocks480/M_Quartzite_05.png","response":null,"trial_type":"image-keyboard-response","trial_index":50,"plugin_version":"2.1.0","time_elapsed":122914,"subject_id":"91391","group":"Group1","condition":"1_Rep","full_date":"2026-02-02T19:52:23.967Z","date":"2026-02-02","time":"19:52:23"},{"rt":null,"stimulus":"<p style=\"font-size: 50px; margin: 0; text-align: center;\">+</p>","response":null,"trial_type":"html-keyboard-response","trial_index":51,"plugin_version":"2.1.0","time_elapsed":123930,"subject_id":"91391","group":"Group1","condition":"1_Rep","full_date":"2026-02-02T19:52:23.967Z","date":"2026-02-02","time":"19:52:23"},{"task":"memory_phase","broad_category":"S","image_png":"S_Sandstone_16.png","image_id":464,"category_name":"Sandstone","category":29,"distinct_rating":1.93,"distinct_type":"Bottom","rt":null,"stimulus":"Stimuli_Rocks480/S_Sandstone_16.png","response":null,"trial_type":"image-keyboard-response","trial_index":52,"plugin_version":"2.1.0","time_elapsed":126446,"subject_id":"91391","group":"Group1","condition":"1_Rep","full_date":"2026-02-02T19:52:23.967Z","date":"2026-02-02","time":"19:52:23"},{"rt":null,"stimulus":"<p style=\"font-size: 50px; margin: 0; text-align: center;\">+</p>","response":null,"trial_type":"html-keyboard-response","trial_index":53,"plugin_version":"2.1.0","time_elapsed":127460,"subject_id":"91391","group":"Group1","condition":"1_Rep","full_date":"2026-02-02T19:52:23.967Z","date":"2026-02-02","time":"19:52:23"},{"task":"memory_phase","broad_category":"S","image_png":"S_Dolomite_14.png","image_id":398,"category_name":"Dolomite","category":25,"distinct_rating":1.43,"distinct_type":"Bottom","rt":null,"stimulus":"Stimuli_Rocks480/S_Dolomite_14.png","response":null,"trial_type":"image-keyboard-response","trial_index":54,"plugin_version":"2.1.0","time_elapsed":129967,"subject_id":"91391","group":"Group1","condition":"1_Rep","full_date":"2026-02-02T19:52:23.967Z","date":"2026-02-02","time":"19:52:23"},{"rt":1401,"stimulus":"<p style=\"max-width: 760px; margin: auto; font-size: 35px; line-height: 1.5;\">\n                Press SPACE to continue study phase\n              </p>","response":" ","trial_type":"html-keyboard-response","trial_index":55,"plugin_version":"2.1.0","time_elapsed":131371,"subject_id":"91391","group":"Group1","condition":"1_Rep","full_date":"2026-02-02T19:52:23.967Z","date":"2026-02-02","time":"19:52:23"},{"rt":null,"stimulus":"<p style=\"font-size: 50px; margin: 0; text-align: center;\">+</p>","response":null,"trial_type":"html-keyboard-response","trial_index":56,"plugin_version":"2.1.0","time_elapsed":132376,"subject_id":"91391","group":"Group1","condition":"1_Rep","full_date":"2026-02-02T19:52:23.967Z","date":"2026-02-02","time":"19:52:23"},{"task":"memory_phase","broad_category":"S","image_png":"S_Sandstone_03.png","image_id":451,"category_name":"Sandstone","category":29,"distinct_rating":1.86,"distinct_type":"Bottom","rt":null,"stimulus":"Stimuli_Rocks480/S_Sandstone_03.png","response":null,"trial_type":"image-keyboard-response","trial_index":57,"plugin_version":"2.1.0","time_elapsed":134884,"subject_id":"91391","group":"Group1","condition":"1_Rep","full_date":"2026-02-02T19:52:23.967Z","date":"2026-02-02","time":"19:52:23"},{"rt":null,"stimulus":"<p style=\"font-size: 50px; margin: 0; text-align: center;\">+</p>","response":null,"trial_type":"html-keyboard-response","trial_index":58,"plugin_version":"2.1.0","time_elapsed":135894,"subject_id":"91391","group":"Group1","condition":"1_Rep","full_date":"2026-02-02T19:52:23.967Z","date":"2026-02-02","time":"19:52:23"},{"task":"memory_phase","broad_category":"S","image_png":"S_Rock Gypsum_04.png","image_id":420,"category_name":"Rock Gypsum","category":27,"distinct_rating":7.61,"distinct_type":"Top","rt":null,"stimulus":"Stimuli_Rocks480/S_Rock Gypsum_04.png","response":null,"trial_type":"image-keyboard-response","trial_index":59,"plugin_version":"2.1.0","time_elapsed":138403,"subject_id":"91391","group":"Group1","condition":"1_Rep","full_date":"2026-02-02T19:52:23.967Z","date":"2026-02-02","time":"19:52:23"},{"rt":null,"stimulus":"<p style=\"font-size: 50px; margin: 0; text-align: center;\">+</p>","response":null,"trial_type":"html-keyboard-response","trial_index":60,"plugin_version":"2.1.0","time_elapsed":139421,"subject_id":"91391","group":"Group1","condition":"1_Rep","full_date":"2026-02-02T19:52:23.967Z","date":"2026-02-02","time":"19:52:23"},{"task":"memory_phase","broad_category":"I","image_png":"I_Gabbro_11.png","image_id":59,"category_name":"Gabbro","category":4,"distinct_rating":1.99,"distinct_type":"Bottom","rt":null,"stimulus":"Stimuli_Rocks480/I_Gabbro_11.png","response":null,"trial_type":"image-keyboard-response","trial_index":61,"plugin_version":"2.1.0","time_elapsed":141931,"subject_id":"91391","group":"Group1","condition":"1_Rep","full_date":"2026-02-02T19:52:23.967Z","date":"2026-02-02","time":"19:52:23"},{"rt":null,"stimulus":"<p style=\"font-size: 50px; margin: 0; text-align: center;\">+</p>","response":null,"trial_type":"html-keyboard-response","trial_index":62,"plugin_version":"2.1.0","time_elapsed":142936,"subject_id":"91391","group":"Group1","condition":"1_Rep","full_date":"2026-02-02T19:52:23.967Z","date":"2026-02-02","time":"19:52:23"},{"task":"memory_phase","broad_category":"S","image_png":"S_Dolomite_13.png","image_id":397,"category_name":"Dolomite","category":25,"distinct_rating":1.77,"distinct_type":"Bottom","rt":null,"stimulus":"Stimuli_Rocks480/S_Dolomite_13.png","response":null,"trial_type":"image-keyboard-response","trial_index":63,"plugin_version":"2.1.0","time_elapsed":145440,"subject_id":"91391","group":"Group1","condition":"1_Rep","full_date":"2026-02-02T19:52:23.967Z","date":"2026-02-02","time":"19:52:23"},{"rt":null,"stimulus":"<p style=\"font-size: 50px; margin: 0; text-align: center;\">+</p>","response":null,"trial_type":"html-keyboard-response","trial_index":64,"plugin_version":"2.1.0","time_elapsed":146445,"subject_id":"91391","group":"Group1","condition":"1_Rep","full_date":"2026-02-02T19:52:23.967Z","date":"2026-02-02","time":"19:52:23"},{"task":"memory_phase","broad_category":"I","image_png":"I_Diorite_03.png","image_id":35,"category_name":"Diorite","category":3,"distinct_rating":3.14,"distinct_type":"Bottom","rt":null,"stimulus":"Stimuli_Rocks480/I_Diorite_03.png","response":null,"trial_type":"image-keyboard-response","trial_index":65,"plugin_version":"2.1.0","time_elapsed":148956,"subject_id":"91391","group":"Group1","condition":"1_Rep","full_date":"2026-02-02T19:52:23.967Z","date":"2026-02-02","time":"19:52:23"},{"rt":null,"stimulus":"<p style=\"font-size: 50px; margin: 0; text-align: center;\">+</p>","response":null,"trial_type":"html-keyboard-response","trial_index":66,"plugin_version":"2.1.0","time_elapsed":149964,"subject_id":"91391","group":"Group1","condition":"1_Rep","full_date":"2026-02-02T19:52:23.967Z","date":"2026-02-02","time":"19:52:23"},{"task":"memory_phase","broad_category":"M","image_png":"M_Gneiss_06.png","image_id":198,"category_name":"Gneiss","category":13,"distinct_rating":2.65,"distinct_type":"Bottom","rt":null,"stimulus":"Stimuli_Rocks480/M_Gneiss_06.png","response":null,"trial_type":"image-keyboard-response","trial_index":67,"plugin_version":"2.1.0","time_elapsed":152476,"subject_id":"91391","group":"Group1","condition":"1_Rep","full_date":"2026-02-02T19:52:23.967Z","date":"2026-02-02","time":"19:52:23"},{"rt":null,"stimulus":"<p style=\"font-size: 50px; margin: 0; text-align: center;\">+</p>","response":null,"trial_type":"html-keyboard-response","trial_index":68,"plugin_version":"2.1.0","time_elapsed":153488,"subject_id":"91391","group":"Group1","condition":"1_Rep","full_date":"2026-02-02T19:52:23.967Z","date":"2026-02-02","time":"19:52:23"},{"task":"memory_phase","broad_category":"S","image_png":"S_Sandstone_15.png","image_id":463,"category_name":"Sandstone","category":29,"distinct_rating":2,"distinct_type":"Bottom","rt":null,"stimulus":"Stimuli_Rocks480/S_Sandstone_15.png","response":null,"trial_type":"image-keyboard-response","trial_index":69,"plugin_version":"2.1.0","time_elapsed":155995,"subject_id":"91391","group":"Group1","condition":"1_Rep","full_date":"2026-02-02T19:52:23.967Z","date":"2026-02-02","time":"19:52:23"},{"rt":null,"stimulus":"<p style=\"font-size: 50px; margin: 0; text-align: center;\">+</p>","response":null,"trial_type":"html-keyboard-response","trial_index":70,"plugin_version":"2.1.0","time_elapsed":157005,"subject_id":"91391","group":"Group1","condition":"1_Rep","full_date":"2026-02-02T19:52:23.967Z","date":"2026-02-02","time":"19:52:23"},{"task":"memory_phase","broad_category":"I","image_png":"I_Diorite_05.png","image_id":37,"category_name":"Diorite","category":3,"distinct_rating":3.08,"distinct_type":"Bottom","rt":null,"stimulus":"Stimuli_Rocks480/I_Diorite_05.png","response":null,"trial_type":"image-keyboard-response","trial_index":71,"plugin_version":"2.1.0","time_elapsed":159518,"subject_id":"91391","group":"Group1","condition":"1_Rep","full_date":"2026-02-02T19:52:23.967Z","date":"2026-02-02","time":"19:52:23"},{"rt":null,"stimulus":"<p style=\"font-size: 50px; margin: 0; text-align: center;\">+</p>","response":null,"trial_type":"html-keyboard-response","trial_index":72,"plugin_version":"2.1.0","time_elapsed":160522,"subject_id":"91391","group":"Group1","condition":"1_Rep","full_date":"2026-02-02T19:52:23.967Z","date":"2026-02-02","time":"19:52:23"},{"task":"memory_phase","broad_category":"M","image_png":"M_Phyllite_07.png","image_id":263,"category_name":"Phyllite","category":17,"distinct_rating":2.59,"distinct_type":"Bottom","rt":null,"stimulus":"Stimuli_Rocks480/M_Phyllite_07.png","response":null,"trial_type":"image-keyboard-response","trial_index":73,"plugin_version":"2.1.0","time_elapsed":163027,"subject_id":"91391","group":"Group1","condition":"1_Rep","full_date":"2026-02-02T19:52:23.967Z","date":"2026-02-02","time":"19:52:23"},{"rt":null,"stimulus":"<p style=\"font-size: 50px; margin: 0; text-align: center;\">+</p>","response":null,"trial_type":"html-keyboard-response","trial_index":74,"plugin_version":"2.1.0","time_elapsed":164034,"subject_id":"91391","group":"Group1","condition":"1_Rep","full_date":"2026-02-02T19:52:23.967Z","date":"2026-02-02","time":"19:52:23"},{"task":"memory_phase","broad_category":"M","image_png":"M_Quartzite_08.png","image_id":280,"category_name":"Quartzite","category":18,"distinct_rating":2.15,"distinct_type":"Bottom","rt":null,"stimulus":"Stimuli_Rocks480/M_Quartzite_08.png","response":null,"trial_type":"image-keyboard-response","trial_index":75,"plugin_version":"2.1.0","time_elapsed":166553,"subject_id":"91391","group":"Group1","condition":"1_Rep","full_date":"2026-02-02T19:52:23.967Z","date":"2026-02-02","time":"19:52:23"},{"rt":null,"stimulus":"<p style=\"font-size: 50px; margin: 0; text-align: center;\">+</p>","response":null,"trial_type":"html-keyboard-response","trial_index":76,"plugin_version":"2.1.0","time_elapsed":167566,"subject_id":"91391","group":"Group1","condition":"1_Rep","full_date":"2026-02-02T19:52:23.967Z","date":"2026-02-02","time":"19:52:23"},{"task":"memory_phase","broad_category":"I","image_png":"I_Andesite_06.png","image_id":6,"category_name":"Andesite","category":1,"distinct_rating":3.17,"distinct_type":"Bottom","rt":null,"stimulus":"Stimuli_Rocks480/I_Andesite_06.png","response":null,"trial_type":"image-keyboard-response","trial_index":77,"plugin_version":"2.1.0","time_elapsed":170084,"subject_id":"91391","group":"Group1","condition":"1_Rep","full_date":"2026-02-02T19:52:23.967Z","date":"2026-02-02","time":"19:52:23"},{"rt":null,"stimulus":"<p style=\"font-size: 50px; margin: 0; text-align: center;\">+</p>","response":null,"trial_type":"html-keyboard-response","trial_index":78,"plugin_version":"2.1.0","time_elapsed":171087,"subject_id":"91391","group":"Group1","condition":"1_Rep","full_date":"2026-02-02T19:52:23.967Z","date":"2026-02-02","time":"19:52:23"},{"task":"memory_phase","broad_category":"I","image_png":"I_Diorite_04.png","image_id":36,"category_name":"Diorite","category":3,"distinct_rating":2.98,"distinct_type":"Bottom","rt":null,"stimulus":"Stimuli_Rocks480/I_Diorite_04.png","response":null,"trial_type":"image-keyboard-response","trial_index":79,"plugin_version":"2.1.0","time_elapsed":173605,"subject_id":"91391","group":"Group1","condition":"1_Rep","full_date":"2026-02-02T19:52:23.967Z","date":"2026-02-02","time":"19:52:23"},{"rt":null,"stimulus":"<p style=\"font-size: 50px; margin: 0; text-align: center;\">+</p>","response":null,"trial_type":"html-keyboard-response","trial_index":80,"plugin_version":"2.1.0","time_elapsed":174612,"subject_id":"91391","group":"Group1","condition":"1_Rep","full_date":"2026-02-02T19:52:23.967Z","date":"2026-02-02","time":"19:52:23"},{"task":"memory_phase","broad_category":"M","image_png":"M_Slate_15.png","image_id":319,"category_name":"Slate","category":20,"distinct_rating":2.13,"distinct_type":"Bottom","rt":null,"stimulus":"Stimuli_Rocks480/M_Slate_15.png","response":null,"trial_type":"image-keyboard-response","trial_index":81,"plugin_version":"2.1.0","time_elapsed":177130,"subject_id":"91391","group":"Group1","condition":"1_Rep","full_date":"2026-02-02T19:52:23.967Z","date":"2026-02-02","time":"19:52:23"},{"rt":null,"stimulus":"<p style=\"font-size: 50px; margin: 0; text-align: center;\">+</p>","response":null,"trial_type":"html-keyboard-response","trial_index":82,"plugin_version":"2.1.0","time_elapsed":178146,"subject_id":"91391","group":"Group1","condition":"1_Rep","full_date":"2026-02-02T19:52:23.967Z","date":"2026-02-02","time":"19:52:23"},{"task":"memory_phase","broad_category":"I","image_png":"I_Basalt_01.png","image_id":17,"category_name":"Basalt","category":2,"distinct_rating":1.92,"distinct_type":"Bottom","rt":null,"stimulus":"Stimuli_Rocks480/I_Basalt_01.png","response":null,"trial_type":"image-keyboard-response","trial_index":83,"plugin_version":"2.1.0","time_elapsed":180657,"subject_id":"91391","group":"Group1","condition":"1_Rep","full_date":"2026-02-02T19:52:23.967Z","date":"2026-02-02","time":"19:52:23"},{"rt":null,"stimulus":"<p style=\"font-size: 50px; margin: 0; text-align: center;\">+</p>","response":null,"trial_type":"html-keyboard-response","trial_index":84,"plugin_version":"2.1.0","time_elapsed":181661,"subject_id":"91391","group":"Group1","condition":"1_Rep","full_date":"2026-02-02T19:52:23.967Z","date":"2026-02-02","time":"19:52:23"},{"task":"memory_phase","broad_category":"I","image_png":"I_Rhyolite_16.png","image_id":160,"category_name":"Rhyolite","category":10,"distinct_rating":2.19,"distinct_type":"Bottom","rt":null,"stimulus":"Stimuli_Rocks480/I_Rhyolite_16.png","response":null,"trial_type":"image-keyboard-response","trial_index":85,"plugin_version":"2.1.0","time_elapsed":184179,"subject_id":"91391","group":"Group1","condition":"1_Rep","full_date":"2026-02-02T19:52:23.967Z","date":"2026-02-02","time":"19:52:23"},{"rt":null,"stimulus":"<p style=\"font-size: 50px; margin: 0; text-align: center;\">+</p>","response":null,"trial_type":"html-keyboard-response","trial_index":86,"plugin_version":"2.1.0","time_elapsed":185191,"subject_id":"91391","group":"Group1","condition":"1_Rep","full_date":"2026-02-02T19:52:23.967Z","date":"2026-02-02","time":"19:52:23"},{"task":"memory_phase","broad_category":"S","image_png":"S_Dolomite_12.png","image_id":396,"category_name":"Dolomite","category":25,"distinct_rating":1.85,"distinct_type":"Bottom","rt":null,"stimulus":"Stimuli_Rocks480/S_Dolomite_12.png","response":null,"trial_type":"image-keyboard-response","trial_index":87,"plugin_version":"2.1.0","time_elapsed":187694,"subject_id":"91391","group":"Group1","condition":"1_Rep","full_date":"2026-02-02T19:52:23.967Z","date":"2026-02-02","time":"19:52:23"},{"rt":null,"stimulus":"<p style=\"font-size: 50px; margin: 0; text-align: center;\">+</p>","response":null,"trial_type":"html-keyboard-response","trial_index":88,"plugin_version":"2.1.0","time_elapsed":188710,"subject_id":"91391","group":"Group1","condition":"1_Rep","full_date":"2026-02-02T19:52:23.967Z","date":"2026-02-02","time":"19:52:23"},{"task":"memory_phase","broad_category":"I","image_png":"I_Andesite_10.png","image_id":10,"category_name":"Andesite","category":1,"distinct_rating":3.15,"distinct_type":"Bottom","rt":null,"stimulus":"Stimuli_Rocks480/I_Andesite_10.png","response":null,"trial_type":"image-keyboard-response","trial_index":89,"plugin_version":"2.1.0","time_elapsed":191228,"subject_id":"91391","group":"Group1","condition":"1_Rep","full_date":"2026-02-02T19:52:23.967Z","date":"2026-02-02","time":"19:52:23"},{"rt":null,"stimulus":"<p style=\"font-size: 50px; margin: 0; text-align: center;\">+</p>","response":null,"trial_type":"html-keyboard-response","trial_index":90,"plugin_version":"2.1.0","time_elapsed":192245,"subject_id":"91391","group":"Group1","condition":"1_Rep","full_date":"2026-02-02T19:52:23.967Z","date":"2026-02-02","time":"19:52:23"},{"task":"memory_phase","broad_category":"S","image_png":"S_Shale_12.png","image_id":476,"category_name":"Shale","category":30,"distinct_rating":2.48,"distinct_type":"Bottom","rt":null,"stimulus":"Stimuli_Rocks480/S_Shale_12.png","response":null,"trial_type":"image-keyboard-response","trial_index":91,"plugin_version":"2.1.0","time_elapsed":194760,"subject_id":"91391","group":"Group1","condition":"1_Rep","full_date":"2026-02-02T19:52:23.967Z","date":"2026-02-02","time":"19:52:23"},{"rt":null,"stimulus":"<p style=\"font-size: 50px; margin: 0; text-align: center;\">+</p>","response":null,"trial_type":"html-keyboard-response","trial_index":92,"plugin_version":"2.1.0","time_elapsed":195770,"subject_id":"91391","group":"Group1","condition":"1_Rep","full_date":"2026-02-02T19:52:23.967Z","date":"2026-02-02","time":"19:52:23"},{"task":"memory_phase","broad_category":"M","image_png":"M_Quartzite_13.png","image_id":285,"category_name":"Quartzite","category":18,"distinct_rating":2.27,"distinct_type":"Bottom","rt":null,"stimulus":"Stimuli_Rocks480/M_Quartzite_13.png","response":null,"trial_type":"image-keyboard-response","trial_index":93,"plugin_version":"2.1.0","time_elapsed":198283,"subject_id":"91391","group":"Group1","condition":"1_Rep","full_date":"2026-02-02T19:52:23.967Z","date":"2026-02-02","time":"19:52:23"},{"rt":null,"stimulus":"<p style=\"font-size: 50px; margin: 0; text-align: center;\">+</p>","response":null,"trial_type":"html-keyboard-response","trial_index":94,"plugin_version":"2.1.0","time_elapsed":199289,"subject_id":"91391","group":"Group1","condition":"1_Rep","full_date":"2026-02-02T19:52:23.967Z","date":"2026-02-02","time":"19:52:23"},{"task":"memory_phase","broad_category":"M","image_png":"M_Slate_03.png","image_id":307,"category_name":"Slate","category":20,"distinct_rating":1.87,"distinct_type":"Bottom","rt":null,"stimulus":"Stimuli_Rocks480/M_Slate_03.png","response":null,"trial_type":"image-keyboard-response","trial_index":95,"plugin_version":"2.1.0","time_elapsed":201803,"subject_id":"91391","group":"Group1","condition":"1_Rep","full_date":"2026-02-02T19:52:23.967Z","date":"2026-02-02","time":"19:52:23"},{"rt":null,"stimulus":"<p style=\"font-size: 50px; margin: 0; text-align: center;\">+</p>","response":null,"trial_type":"html-keyboard-response","trial_index":96,"plugin_version":"2.1.0","time_elapsed":202806,"subject_id":"91391","group":"Group1","condition":"1_Rep","full_date":"2026-02-02T19:52:23.967Z","date":"2026-02-02","time":"19:52:23"},{"task":"memory_phase","broad_category":"S","image_png":"S_Chert_10.png","image_id":362,"category_name":"Chert","category":23,"distinct_rating":7.17,"distinct_type":"Top","rt":null,"stimulus":"Stimuli_Rocks480/S_Chert_10.png","response":null,"trial_type":"image-keyboard-response","trial_index":97,"plugin_version":"2.1.0","time_elapsed":205316,"subject_id":"91391","group":"Group1","condition":"1_Rep","full_date":"2026-02-02T19:52:23.967Z","date":"2026-02-02","time":"19:52:23"},{"rt":null,"stimulus":"<p style=\"font-size: 50px; margin: 0; text-align: center;\">+</p>","response":null,"trial_type":"html-keyboard-response","trial_index":98,"plugin_version":"2.1.0","time_elapsed":206320,"subject_id":"91391","group":"Group1","condition":"1_Rep","full_date":"2026-02-02T19:52:23.967Z","date":"2026-02-02","time":"19:52:23"},{"task":"memory_phase","broad_category":"M","image_png":"M_Marble_04.png","image_id":228,"category_name":"Marble","category":15,"distinct_rating":3.15,"distinct_type":"Bottom","rt":null,"stimulus":"Stimuli_Rocks480/M_Marble_04.png","response":null,"trial_type":"image-keyboard-response","trial_index":99,"plugin_version":"2.1.0","time_elapsed":208824,"subject_id":"91391","group":"Group1","condition":"1_Rep","full_date":"2026-02-02T19:52:23.967Z","date":"2026-02-02","time":"19:52:23"},{"rt":null,"stimulus":"<p style=\"font-size: 50px; margin: 0; text-align: center;\">+</p>","response":null,"trial_type":"html-keyboard-response","trial_index":100,"plugin_version":"2.1.0","time_elapsed":209835,"subject_id":"91391","group":"Group1","condition":"1_Rep","full_date":"2026-02-02T19:52:23.967Z","date":"2026-02-02","time":"19:52:23"},{"task":"memory_phase","broad_category":"I","image_png":"I_Gabbro_08.png","image_id":56,"category_name":"Gabbro","category":4,"distinct_rating":3.02,"distinct_type":"Bottom","rt":null,"stimulus":"Stimuli_Rocks480/I_Gabbro_08.png","response":null,"trial_type":"image-keyboard-response","trial_index":101,"plugin_version":"2.1.0","time_elapsed":212339,"subject_id":"91391","group":"Group1","condition":"1_Rep","full_date":"2026-02-02T19:52:23.967Z","date":"2026-02-02","time":"19:52:23"},{"rt":null,"stimulus":"<p style=\"font-size: 50px; margin: 0; text-align: center;\">+</p>","response":null,"trial_type":"html-keyboard-response","trial_index":102,"plugin_version":"2.1.0","time_elapsed":213355,"subject_id":"91391","group":"Group1","condition":"1_Rep","full_date":"2026-02-02T19:52:23.967Z","date":"2026-02-02","time":"19:52:23"},{"task":"memory_phase","broad_category":"M","image_png":"M_Marble_06.png","image_id":230,"category_name":"Marble","category":15,"distinct_rating":3.4,"distinct_type":"Bottom","rt":null,"stimulus":"Stimuli_Rocks480/M_Marble_06.png","response":null,"trial_type":"image-keyboard-response","trial_index":103,"plugin_version":"2.1.0","time_elapsed":215868,"subject_id":"91391","group":"Group1","condition":"1_Rep","full_date":"2026-02-02T19:52:23.967Z","date":"2026-02-02","time":"19:52:23"},{"rt":null,"stimulus":"<p style=\"font-size: 50px; margin: 0; text-align: center;\">+</p>","response":null,"trial_type":"html-keyboard-response","trial_index":104,"plugin_version":"2.1.0","time_elapsed":216875,"subject_id":"91391","group":"Group1","condition":"1_Rep","full_date":"2026-02-02T19:52:23.967Z","date":"2026-02-02","time":"19:52:23"},{"task":"memory_phase","broad_category":"I","image_png":"I_Pumice_11.png","image_id":139,"category_name":"Pumice","category":9,"distinct_rating":1.74,"distinct_type":"Bottom","rt":null,"stimulus":"Stimuli_Rocks480/I_Pumice_11.png","response":null,"trial_type":"image-keyboard-response","trial_index":105,"plugin_version":"2.1.0","time_elapsed":219388,"subject_id":"91391","group":"Group1","condition":"1_Rep","full_date":"2026-02-02T19:52:23.967Z","date":"2026-02-02","time":"19:52:23"},{"rt":15008,"stimulus":"<div style=\"max-width: 760px; margin: auto; font-size: 20px; line-height: 1.5;\">\n      <h1 style=\"text-align:center; font-size: 30px;\">Instructions for the Test Phase</h1>\n      <p>\n        The study phase is now complete.\n      </p>\n      <p>\n        In the test phase, you will again see a series of rock images. \n        Some will be ones you saw before - during the study phase, while others will be new.  \n        <b>Your task</b> is to decide whether you have seen each image before by pressing the corresponding key on your keyboard:<br><br>\n          <b>A</b> - NO (you did not see this image before)<br>\n          <b>L</b> - YES (you saw this image before)<br><br>\n        The test will proceed at your own pace. You will receive feedback after each response.  \n        Please try to respond <b>as accurately as possible</b>.\n      </p>\n      <p>\n        <b>Reminder:</b> If your computer has multiple language settings (e.g., English and another language),\n        please ensure it is set to English during the test phase.\n      </p>\n      <p>\n        You can track your progress using the <b>completion bar</b> at the top of the screen.  \n        Note that it has been refreshed to reflect your progress during this final phase.\n      </p>\n      <p>\n        Press the button below when you are ready to continue.\n      </p>\n    </div>","response":0,"trial_type":"html-button-response","trial_index":106,"plugin_version":"2.1.0","time_elapsed":234400,"subject_id":"91391","group":"Group1","condition":"1_Rep","full_date":"2026-02-02T19:52:23.967Z","date":"2026-02-02","time":"19:52:23"},{"correct_response":"l","task":"test_phase","broad_category":"S","image_png":"S_Sandstone_16.png","image_id":464,"category_name":"Sandstone","category":29,"distinct_rating":1.93,"distinct_type":"Bottom","item_type":"Target","rt":2154,"stimulus":"Stimuli_Rocks480/S_Sandstone_16.png","response":"a","trial_type":"image-keyboard-response","trial_index":107,"plugin_version":"2.1.0","time_elapsed":236559,"subject_id":"91391","group":"Group1","condition":"1_Rep","full_date":"2026-02-02T19:52:23.967Z","date":"2026-02-02","time":"19:52:23","cor_ans":false},{"trial_type":"html-keyboard-response","rt":null,"stimulus":"<p style=\"color: red; font-size: 50px; font-weight: bold;\">Incorrect</p>","response":null,"trial_index":108,"plugin_version":"2.1.0","time_elapsed":237068,"subject_id":"91391","group":"Group1","condition":"1_Rep","full_date":"2026-02-02T19:52:23.967Z","date":"2026-02-02","time":"19:52:23"},{"correct_response":"l","task":"test_phase","broad_category":"I","image_png":"I_Basalt_09.png","image_id":25,"category_name":"Basalt","category":2,"distinct_rating":1.89,"distinct_type":"Bottom","item_type":"Target","rt":2563,"stimulus":"Stimuli_Rocks480/I_Basalt_09.png","response":"a","trial_type":"image-keyboard-response","trial_index":109,"plugin_version":"2.1.0","time_elapsed":239633,"subject_id":"91391","group":"Group1","condition":"1_Rep","full_date":"2026-02-02T19:52:23.967Z","date":"2026-02-02","time":"19:52:23","cor_ans":false},{"trial_type":"html-keyboard-response","rt":null,"stimulus":"<p style=\"color: red; font-size: 50px; font-weight: bold;\">Incorrect</p>","response":null,"trial_index":110,"plugin_version":"2.1.0","time_elapsed":240150,"subject_id":"91391","group":"Group1","condition":"1_Rep","full_date":"2026-02-02T19:52:23.967Z","date":"2026-02-02","time":"19:52:23"},{"correct_response":"l","task":"test_phase","broad_category":"I","image_png":"I_Pegmatite_10.png","image_id":106,"category_name":"Pegmatite","category":7,"distinct_rating":7.66,"distinct_type":"Top","item_type":"Target","rt":1579,"stimulus":"Stimuli_Rocks480/I_Pegmatite_10.png","response":"a","trial_type":"image-keyboard-response","trial_index":111,"plugin_version":"2.1.0","time_elapsed":241732,"subject_id":"91391","group":"Group1","condition":"1_Rep","full_date":"2026-02-02T19:52:23.967Z","date":"2026-02-02","time":"19:52:23","cor_ans":false},{"trial_type":"html-keyboard-response","rt":null,"stimulus":"<p style=\"color: red; font-size: 50px; font-weight: bold;\">Incorrect</p>","response":null,"trial_index":112,"plugin_version":"2.1.0","time_elapsed":242236,"subject_id":"91391","group":"Group1","condition":"1_Rep","full_date":"2026-02-02T19:52:23.967Z","date":"2026-02-02","time":"19:52:23"},{"correct_response":"l","task":"test_phase","broad_category":"I","image_png":"I_Andesite_10.png","image_id":10,"category_name":"Andesite","category":1,"distinct_rating":3.15,"distinct_type":"Bottom","item_type":"Target","rt":3538,"stimulus":"Stimuli_Rocks480/I_Andesite_10.png","response":"l","trial_type":"image-keyboard-response","trial_index":113,"plugin_version":"2.1.0","time_elapsed":245777,"subject_id":"91391","group":"Group1","condition":"1_Rep","full_date":"2026-02-02T19:52:23.967Z","date":"2026-02-02","time":"19:52:23","cor_ans":true},{"trial_type":"html-keyboard-response","rt":null,"stimulus":"<p style=\"color: green; font-size: 50px; font-weight: bold;\">Correct</p>","response":null,"trial_index":114,"plugin_version":"2.1.0","time_elapsed":246294,"subject_id":"91391","group":"Group1","condition":"1_Rep","full_date":"2026-02-02T19:52:23.967Z","date":"2026-02-02","time":"19:52:23"},{"correct_response":"l","task":"test_phase","broad_category":"M","image_png":"M_Slate_15.png","image_id":319,"category_name":"Slate","category":20,"distinct_rating":2.13,"distinct_type":"Bottom","item_type":"Target","rt":1486,"stimulus":"Stimuli_Rocks480/M_Slate_15.png","response":"l","trial_type":"image-keyboard-response","trial_index":115,"plugin_version":"2.1.0","time_elapsed":247783,"subject_id":"91391","group":"Group1","condition":"1_Rep","full_date":"2026-02-02T19:52:23.967Z","date":"2026-02-02","time":"19:52:23","cor_ans":true},{"trial_type":"html-keyboard-response","rt":null,"stimulus":"<p style=\"color: green; font-size: 50px; font-weight: bold;\">Correct</p>","response":null,"trial_index":116,"plugin_version":"2.1.0","time_elapsed":248294,"subject_id":"91391","group":"Group1","condition":"1_Rep","full_date":"2026-02-02T19:52:23.967Z","date":"2026-02-02","time":"19:52:23"},{"correct_response":"a","task":"test_phase","broad_category":"I","image_png":"I_Pegmatite_11.png","image_id":107,"category_name":"Pegmatite","category":7,"distinct_rating":7.11,"distinct_type":"Top","item_type":"Foil","rt":1967,"stimulus":"Stimuli_Rocks480/I_Pegmatite_11.png","response":"a","trial_type":"image-keyboard-response","trial_index":117,"plugin_version":"2.1.0","time_elapsed":250263,"subject_id":"91391","group":"Group1","condition":"1_Rep","full_date":"2026-02-02T19:52:23.967Z","date":"2026-02-02","time":"19:52:23","cor_ans":true},{"trial_type":"html-keyboard-response","rt":null,"stimulus":"<p style=\"color: green; font-size: 50px; font-weight: bold;\">Correct</p>","response":null,"trial_index":118,"plugin_version":"2.1.0","time_elapsed":250776,"subject_id":"91391","group":"Group1","condition":"1_Rep","full_date":"2026-02-02T19:52:23.967Z","date":"2026-02-02","time":"19:52:23"},{"correct_response":"a","task":"test_phase","broad_category":"S","image_png":"S_Rock Salt_13.png","image_id":445,"category_name":"Rock Salt","category":28,"distinct_rating":7.58,"distinct_type":"Top","item_type":"Foil","rt":1111,"stimulus":"Stimuli_Rocks480/S_Rock Salt_13.png","response":"a","trial_type":"image-keyboard-response","trial_index":119,"plugin_version":"2.1.0","time_elapsed":251890,"subject_id":"91391","group":"Group1","condition":"1_Rep","full_date":"2026-02-02T19:52:23.967Z","date":"2026-02-02","time":"19:52:23","cor_ans":true},{"trial_type":"html-keyboard-response","rt":null,"stimulus":"<p style=\"color: green; font-size: 50px; font-weight: bold;\">Correct</p>","response":null,"trial_index":120,"plugin_version":"2.1.0","time_elapsed":252407,"subject_id":"91391","group":"Group1","condition":"1_Rep","full_date":"2026-02-02T19:52:23.967Z","date":"2026-02-02","time":"19:52:23"},{"correct_response":"a","task":"test_phase","broad_category":"S","image_png":"S_Sandstone_08.png","image_id":456,"category_name":"Sandstone","category":29,"distinct_rating":1.5,"distinct_type":"Bottom","item_type":"Foil","rt":3121,"stimulus":"Stimuli_Rocks480/S_Sandstone_08.png","response":"l","trial_type":"image-keyboard-response","trial_index":121,"plugin_version":"2.1.0","time_elapsed":255532,"subject_id":"91391","group":"Group1","condition":"1_Rep","full_date":"2026-02-02T19:52:23.967Z","date":"2026-02-02","time":"19:52:23","cor_ans":false},{"trial_type":"html-keyboard-response","rt":null,"stimulus":"<p style=\"color: red; font-size: 50px; font-weight: bold;\">Incorrect</p>","response":null,"trial_index":122,"plugin_version":"2.1.0","time_elapsed":256041,"subject_id":"91391","group":"Group1","condition":"1_Rep","full_date":"2026-02-02T19:52:23.967Z","date":"2026-02-02","time":"19:52:23"},{"correct_response":"a","task":"test_phase","broad_category":"S","image_png":"S_Dolomite_07.png","image_id":391,"category_name":"Dolomite","category":25,"distinct_rating":1.73,"distinct_type":"Bottom","item_type":"Foil","rt":1770,"stimulus":"Stimuli_Rocks480/S_Dolomite_07.png","response":"l","trial_type":"image-keyboard-response","trial_index":123,"plugin_version":"2.1.0","time_elapsed":257813,"subject_id":"91391","group":"Group1","condition":"1_Rep","full_date":"2026-02-02T19:52:23.967Z","date":"2026-02-02","time":"19:52:23","cor_ans":false},{"trial_type":"html-keyboard-response","rt":null,"stimulus":"<p style=\"color: red; font-size: 50px; font-weight: bold;\">Incorrect</p>","response":null,"trial_index":124,"plugin_version":"2.1.0","time_elapsed":258322,"subject_id":"91391","group":"Group1","condition":"1_Rep","full_date":"2026-02-02T19:52:23.967Z","date":"2026-02-02","time":"19:52:23"},{"correct_response":"a","task":"test_phase","broad_category":"I","image_png":"I_Diorite_15.png","image_id":47,"category_name":"Diorite","category":3,"distinct_rating":3.05,"distinct_type":"Bottom","item_type":"Foil","rt":1246,"stimulus":"Stimuli_Rocks480/I_Diorite_15.png","response":"a","trial_type":"image-keyboard-response","trial_index":125,"plugin_version":"2.1.0","time_elapsed":259571,"subject_id":"91391","group":"Group1","condition":"1_Rep","full_date":"2026-02-02T19:52:23.967Z","date":"2026-02-02","time":"19:52:23","cor_ans":true},{"trial_type":"html-keyboard-response","rt":null,"stimulus":"<p style=\"color: green; font-size: 50px; font-weight: bold;\">Correct</p>","response":null,"trial_index":126,"plugin_version":"2.1.0","time_elapsed":260086,"subject_id":"91391","group":"Group1","condition":"1_Rep","full_date":"2026-02-02T19:52:23.967Z","date":"2026-02-02","time":"19:52:23"},{"correct_response":"a","task":"test_phase","broad_category":"M","image_png":"M_Slate_04.png","image_id":308,"category_name":"Slate","category":20,"distinct_rating":2.2,"distinct_type":"Bottom","item_type":"Foil","rt":1968,"stimulus":"Stimuli_Rocks480/M_Slate_04.png","response":"a","trial_type":"image-keyboard-response","trial_index":127,"plugin_version":"2.1.0","time_elapsed":262057,"subject_id":"91391","group":"Group1","condition":"1_Rep","full_date":"2026-02-02T19:52:23.967Z","date":"2026-02-02","time":"19:52:23","cor_ans":true},{"trial_type":"html-keyboard-response","rt":null,"stimulus":"<p style=\"color: green; font-size: 50px; font-weight: bold;\">Correct</p>","response":null,"trial_index":128,"plugin_version":"2.1.0","time_elapsed":262573,"subject_id":"91391","group":"Group1","condition":"1_Rep","full_date":"2026-02-02T19:52:23.967Z","date":"2026-02-02","time":"19:52:23"},{"correct_response":"a","task":"test_phase","broad_category":"I","image_png":"I_Rhyolite_10.png","image_id":154,"category_name":"Rhyolite","category":10,"distinct_rating":2.88,"distinct_type":"Bottom","item_type":"Foil","rt":1435,"stimulus":"Stimuli_Rocks480/I_Rhyolite_10.png","response":"a","trial_type":"image-keyboard-response","trial_index":129,"plugin_version":"2.1.0","time_elapsed":264011,"subject_id":"91391","group":"Group1","condition":"1_Rep","full_date":"2026-02-02T19:52:23.967Z","date":"2026-02-02","time":"19:52:23","cor_ans":true},{"trial_type":"html-keyboard-response","rt":null,"stimulus":"<p style=\"color: green; font-size: 50px; font-weight: bold;\">Correct</p>","response":null,"trial_index":130,"plugin_version":"2.1.0","time_elapsed":264528,"subject_id":"91391","group":"Group1","condition":"1_Rep","full_date":"2026-02-02T19:52:23.967Z","date":"2026-02-02","time":"19:52:23"},{"correct_response":"a","task":"test_phase","broad_category":"I","image_png":"I_Peridotite_13.png","image_id":125,"category_name":"Peridotite","category":8,"distinct_rating":7.28,"distinct_type":"Top","item_type":"Foil","rt":923,"stimulus":"Stimuli_Rocks480/I_Peridotite_13.png","response":"a","trial_type":"image-keyboard-response","trial_index":131,"plugin_version":"2.1.0","time_elapsed":265454,"subject_id":"91391","group":"Group1","condition":"1_Rep","full_date":"2026-02-02T19:52:23.967Z","date":"2026-02-02","time":"19:52:23","cor_ans":true},{"trial_type":"html-keyboard-response","rt":null,"stimulus":"<p style=\"color: green; font-size: 50px; font-weight: bold;\">Correct</p>","response":null,"trial_index":132,"plugin_version":"2.1.0","time_elapsed":265957,"subject_id":"91391","group":"Group1","condition":"1_Rep","full_date":"2026-02-02T19:52:23.967Z","date":"2026-02-02","time":"19:52:23"},{"correct_response":"a","task":"test_phase","broad_category":"S","image_png":"S_Dolomite_16.png","image_id":400,"category_name":"Dolomite","category":25,"distinct_rating":1.71,"distinct_type":"Bottom","item_type":"Foil","rt":2269,"stimulus":"Stimuli_Rocks480/S_Dolomite_16.png","response":"l","trial_type":"image-keyboard-response","trial_index":133,"plugin_version":"2.1.0","time_elapsed":268230,"subject_id":"91391","group":"Group1","condition":"1_Rep","full_date":"2026-02-02T19:52:23.967Z","date":"2026-02-02","time":"19:52:23","cor_ans":false},{"trial_type":"html-keyboard-response","rt":null,"stimulus":"<p style=\"color: red; font-size: 50px; font-weight: bold;\">Incorrect</p>","response":null,"trial_index":134,"plugin_version":"2.1.0","time_elapsed":268731,"subject_id":"91391","group":"Group1","condition":"1_Rep","full_date":"2026-02-02T19:52:23.967Z","date":"2026-02-02","time":"19:52:23"},{"correct_response":"a","task":"test_phase","broad_category":"M","image_png":"M_Slate_10.png","image_id":314,"category_name":"Slate","category":20,"distinct_rating":1.94,"distinct_type":"Bottom","item_type":"Foil","rt":2008,"stimulus":"Stimuli_Rocks480/M_Slate_10.png","response":"a","trial_type":"image-keyboard-response","trial_index":135,"plugin_version":"2.1.0","time_elapsed":270743,"subject_id":"91391","group":"Group1","condition":"1_Rep","full_date":"2026-02-02T19:52:23.967Z","date":"2026-02-02","time":"19:52:23","cor_ans":true},{"trial_type":"html-keyboard-response","rt":null,"stimulus":"<p style=\"color: green; font-size: 50px; font-weight: bold;\">Correct</p>","response":null,"trial_index":136,"plugin_version":"2.1.0","time_elapsed":271252,"subject_id":"91391","group":"Group1","condition":"1_Rep","full_date":"2026-02-02T19:52:23.967Z","date":"2026-02-02","time":"19:52:23"},{"correct_response":"a","task":"test_phase","broad_category":"I","image_png":"I_Diorite_10.png","image_id":42,"category_name":"Diorite","category":3,"distinct_rating":2.84,"distinct_type":"Bottom","item_type":"Foil","rt":1019,"stimulus":"Stimuli_Rocks480/I_Diorite_10.png","response":"a","trial_type":"image-keyboard-response","trial_index":137,"plugin_version":"2.1.0","time_elapsed":272274,"subject_id":"91391","group":"Group1","condition":"1_Rep","full_date":"2026-02-02T19:52:23.967Z","date":"2026-02-02","time":"19:52:23","cor_ans":true},{"trial_type":"html-keyboard-response","rt":null,"stimulus":"<p style=\"color: green; font-size: 50px; font-weight: bold;\">Correct</p>","response":null,"trial_index":138,"plugin_version":"2.1.0","time_elapsed":272777,"subject_id":"91391","group":"Group1","condition":"1_Rep","full_date":"2026-02-02T19:52:23.967Z","date":"2026-02-02","time":"19:52:23"},{"correct_response":"a","task":"test_phase","broad_category":"I","image_png":"I_Basalt_10.png","image_id":26,"category_name":"Basalt","category":2,"distinct_rating":2.76,"distinct_type":"Bottom","item_type":"Foil","rt":902,"stimulus":"Stimuli_Rocks480/I_Basalt_10.png","response":"a","trial_type":"image-keyboard-response","trial_index":139,"plugin_version":"2.1.0","time_elapsed":273682,"subject_id":"91391","group":"Group1","condition":"1_Rep","full_date":"2026-02-02T19:52:23.967Z","date":"2026-02-02","time":"19:52:23","cor_ans":true},{"trial_type":"html-keyboard-response","rt":null,"stimulus":"<p style=\"color: green; font-size: 50px; font-weight: bold;\">Correct</p>","response":null,"trial_index":140,"plugin_version":"2.1.0","time_elapsed":274192,"subject_id":"91391","group":"Group1","condition":"1_Rep","full_date":"2026-02-02T19:52:23.967Z","date":"2026-02-02","time":"19:52:23"},{"correct_response":"a","task":"test_phase","broad_category":"M","image_png":"M_Phyllite_05.png","image_id":261,"category_name":"Phyllite","category":17,"distinct_rating":2.14,"distinct_type":"Bottom","item_type":"Foil","rt":1537,"stimulus":"Stimuli_Rocks480/M_Phyllite_05.png","response":"a","trial_type":"image-keyboard-response","trial_index":141,"plugin_version":"2.1.0","time_elapsed":275730,"subject_id":"91391","group":"Group1","condition":"1_Rep","full_date":"2026-02-02T19:52:23.967Z","date":"2026-02-02","time":"19:52:23","cor_ans":true},{"trial_type":"html-keyboard-response","rt":null,"stimulus":"<p style=\"color: green; font-size: 50px; font-weight: bold;\">Correct</p>","response":null,"trial_index":142,"plugin_version":"2.1.0","time_elapsed":276239,"subject_id":"91391","group":"Group1","condition":"1_Rep","full_date":"2026-02-02T19:52:23.967Z","date":"2026-02-02","time":"19:52:23"},{"correct_response":"l","task":"test_phase","broad_category":"I","image_png":"I_Pumice_08.png","image_id":136,"category_name":"Pumice","category":9,"distinct_rating":3.1,"distinct_type":"Bottom","item_type":"Target","rt":1350,"stimulus":"Stimuli_Rocks480/I_Pumice_08.png","response":"l","trial_type":"image-keyboard-response","trial_index":143,"plugin_version":"2.1.0","time_elapsed":277592,"subject_id":"91391","group":"Group1","condition":"1_Rep","full_date":"2026-02-02T19:52:23.967Z","date":"2026-02-02","time":"19:52:23","cor_ans":true},{"trial_type":"html-keyboard-response","rt":null,"stimulus":"<p style=\"color: green; font-size: 50px; font-weight: bold;\">Correct</p>","response":null,"trial_index":144,"plugin_version":"2.1.0","time_elapsed":278099,"subject_id":"91391","group":"Group1","condition":"1_Rep","full_date":"2026-02-02T19:52:23.967Z","date":"2026-02-02","time":"19:52:23"},{"correct_response":"l","task":"test_phase","broad_category":"S","image_png":"S_Shale_01.png","image_id":465,"category_name":"Shale","category":30,"distinct_rating":2.7,"distinct_type":"Bottom","item_type":"Target","rt":982,"stimulus":"Stimuli_Rocks480/S_Shale_01.png","response":"a","trial_type":"image-keyboard-response","trial_index":145,"plugin_version":"2.1.0","time_elapsed":279082,"subject_id":"91391","group":"Group1","condition":"1_Rep","full_date":"2026-02-02T19:52:23.967Z","date":"2026-02-02","time":"19:52:23","cor_ans":false},{"trial_type":"html-keyboard-response","rt":null,"stimulus":"<p style=\"color: red; font-size: 50px; font-weight: bold;\">Incorrect</p>","response":null,"trial_index":146,"plugin_version":"2.1.0","time_elapsed":279597,"subject_id":"91391","group":"Group1","condition":"1_Rep","full_date":"2026-02-02T19:52:23.967Z","date":"2026-02-02","time":"19:52:23"},{"correct_response":"l","task":"test_phase","broad_category":"I","image_png":"I_Pegmatite_16.png","image_id":112,"category_name":"Pegmatite","category":7,"distinct_rating":7.03,"distinct_type":"Top","item_type":"Target","rt":968,"stimulus":"Stimuli_Rocks480/I_Pegmatite_16.png","response":"l","trial_type":"image-keyboard-response","trial_index":147,"plugin_version":"2.1.0","time_elapsed":280568,"subject_id":"91391","group":"Group1","condition":"1_Rep","full_date":"2026-02-02T19:52:23.967Z","date":"2026-02-02","time":"19:52:23","cor_ans":true},{"trial_type":"html-keyboard-response","rt":null,"stimulus":"<p style=\"color: green; font-size: 50px; font-weight: bold;\">Correct</p>","response":null,"trial_index":148,"plugin_version":"2.1.0","time_elapsed":281075,"subject_id":"91391","group":"Group1","condition":"1_Rep","full_date":"2026-02-02T19:52:23.967Z","date":"2026-02-02","time":"19:52:23"},{"correct_response":"l","task":"test_phase","broad_category":"S","image_png":"S_Breccia_11.png","image_id":347,"category_name":"Breccia","category":22,"distinct_rating":6.7,"distinct_type":"Top","item_type":"Target","rt":881,"stimulus":"Stimuli_Rocks480/S_Breccia_11.png","response":"l","trial_type":"image-keyboard-response","trial_index":149,"plugin_version":"2.1.0","time_elapsed":281959,"subject_id":"91391","group":"Group1","condition":"1_Rep","full_date":"2026-02-02T19:52:23.967Z","date":"2026-02-02","time":"19:52:23","cor_ans":true},{"trial_type":"html-keyboard-response","rt":null,"stimulus":"<p style=\"color: green; font-size: 50px; font-weight: bold;\">Correct</p>","response":null,"trial_index":150,"plugin_version":"2.1.0","time_elapsed":282467,"subject_id":"91391","group":"Group1","condition":"1_Rep","full_date":"2026-02-02T19:52:23.967Z","date":"2026-02-02","time":"19:52:23"},{"correct_response":"a","task":"test_phase","broad_category":"I","image_png":"I_Gabbro_14.png","image_id":62,"category_name":"Gabbro","category":4,"distinct_rating":2.95,"distinct_type":"Bottom","item_type":"Foil","rt":1210,"stimulus":"Stimuli_Rocks480/I_Gabbro_14.png","response":"a","trial_type":"image-keyboard-response","trial_index":151,"plugin_version":"2.1.0","time_elapsed":283680,"subject_id":"91391","group":"Group1","condition":"1_Rep","full_date":"2026-02-02T19:52:23.967Z","date":"2026-02-02","time":"19:52:23","cor_ans":true},{"trial_type":"html-keyboard-response","rt":null,"stimulus":"<p style=\"color: green; font-size: 50px; font-weight: bold;\">Correct</p>","response":null,"trial_index":152,"plugin_version":"2.1.0","time_elapsed":284183,"subject_id":"91391","group":"Group1","condition":"1_Rep","full_date":"2026-02-02T19:52:23.967Z","date":"2026-02-02","time":"19:52:23"},{"correct_response":"a","task":"test_phase","broad_category":"I","image_png":"I_Pumice_13.png","image_id":141,"category_name":"Pumice","category":9,"distinct_rating":3.12,"distinct_type":"Bottom","item_type":"Foil","rt":2656,"stimulus":"Stimuli_Rocks480/I_Pumice_13.png","response":"l","trial_type":"image-keyboard-response","trial_index":153,"plugin_version":"2.1.0","time_elapsed":286842,"subject_id":"91391","group":"Group1","condition":"1_Rep","full_date":"2026-02-02T19:52:23.967Z","date":"2026-02-02","time":"19:52:23","cor_ans":false},{"trial_type":"html-keyboard-response","rt":null,"stimulus":"<p style=\"color: red; font-size: 50px; font-weight: bold;\">Incorrect</p>","response":null,"trial_index":154,"plugin_version":"2.1.0","time_elapsed":287359,"subject_id":"91391","group":"Group1","condition":"1_Rep","full_date":"2026-02-02T19:52:23.967Z","date":"2026-02-02","time":"19:52:23"},{"correct_response":"a","task":"test_phase","broad_category":"I","image_png":"I_Andesite_09.png","image_id":9,"category_name":"Andesite","category":1,"distinct_rating":2.49,"distinct_type":"Bottom","item_type":"Foil","rt":2020,"stimulus":"Stimuli_Rocks480/I_Andesite_09.png","response":"l","trial_type":"image-keyboard-response","trial_index":155,"plugin_version":"2.1.0","time_elapsed":289383,"subject_id":"91391","group":"Group1","condition":"1_Rep","full_date":"2026-02-02T19:52:23.967Z","date":"2026-02-02","time":"19:52:23","cor_ans":false},{"trial_type":"html-keyboard-response","rt":null,"stimulus":"<p style=\"color: red; font-size: 50px; font-weight: bold;\">Incorrect</p>","response":null,"trial_index":156,"plugin_version":"2.1.0","time_elapsed":289900,"subject_id":"91391","group":"Group1","condition":"1_Rep","full_date":"2026-02-02T19:52:23.967Z","date":"2026-02-02","time":"19:52:23"},{"correct_response":"a","task":"test_phase","broad_category":"M","image_png":"M_Gneiss_10.png","image_id":202,"category_name":"Gneiss","category":13,"distinct_rating":3.09,"distinct_type":"Bottom","item_type":"Foil","rt":1014,"stimulus":"Stimuli_Rocks480/M_Gneiss_10.png","response":"a","trial_type":"image-keyboard-response","trial_index":157,"plugin_version":"2.1.0","time_elapsed":290918,"subject_id":"91391","group":"Group1","condition":"1_Rep","full_date":"2026-02-02T19:52:23.967Z","date":"2026-02-02","time":"19:52:23","cor_ans":true},{"trial_type":"html-keyboard-response","rt":null,"stimulus":"<p style=\"color: green; font-size: 50px; font-weight: bold;\">Correct</p>","response":null,"trial_index":158,"plugin_version":"2.1.0","time_elapsed":291427,"subject_id":"91391","group":"Group1","condition":"1_Rep","full_date":"2026-02-02T19:52:23.967Z","date":"2026-02-02","time":"19:52:23"},{"correct_response":"l","task":"test_phase","broad_category":"M","image_png":"M_Quartzite_08.png","image_id":280,"category_name":"Quartzite","category":18,"distinct_rating":2.15,"distinct_type":"Bottom","item_type":"Target","rt":2306,"stimulus":"Stimuli_Rocks480/M_Quartzite_08.png","response":"l","trial_type":"image-keyboard-response","trial_index":159,"plugin_version":"2.1.0","time_elapsed":293735,"subject_id":"91391","group":"Group1","condition":"1_Rep","full_date":"2026-02-02T19:52:23.967Z","date":"2026-02-02","time":"19:52:23","cor_ans":true},{"trial_type":"html-keyboard-response","rt":null,"stimulus":"<p style=\"color: green; font-size: 50px; font-weight: bold;\">Correct</p>","response":null,"trial_index":160,"plugin_version":"2.1.0","time_elapsed":294244,"subject_id":"91391","group":"Group1","condition":"1_Rep","full_date":"2026-02-02T19:52:23.967Z","date":"2026-02-02","time":"19:52:23"},{"correct_response":"a","task":"test_phase","broad_category":"S","image_png":"S_Rock Salt_15.png","image_id":447,"category_name":"Rock Salt","category":28,"distinct_rating":7.79,"distinct_type":"Top","item_type":"Foil","rt":1146,"stimulus":"Stimuli_Rocks480/S_Rock Salt_15.png","response":"a","trial_type":"image-keyboard-response","trial_index":161,"plugin_version":"2.1.0","time_elapsed":295393,"subject_id":"91391","group":"Group1","condition":"1_Rep","full_date":"2026-02-02T19:52:23.967Z","date":"2026-02-02","time":"19:52:23","cor_ans":true},{"trial_type":"html-keyboard-response","rt":null,"stimulus":"<p style=\"color: green; font-size: 50px; font-weight: bold;\">Correct</p>","response":null,"trial_index":162,"plugin_version":"2.1.0","time_elapsed":295906,"subject_id":"91391","group":"Group1","condition":"1_Rep","full_date":"2026-02-02T19:52:23.967Z","date":"2026-02-02","time":"19:52:23"},{"correct_response":"l","task":"test_phase","broad_category":"I","image_png":"I_Basalt_02.png","image_id":18,"category_name":"Basalt","category":2,"distinct_rating":1.84,"distinct_type":"Bottom","item_type":"Target","rt":3711,"stimulus":"Stimuli_Rocks480/I_Basalt_02.png","response":"l","trial_type":"image-keyboard-response","trial_index":163,"plugin_version":"2.1.0","time_elapsed":299620,"subject_id":"91391","group":"Group1","condition":"1_Rep","full_date":"2026-02-02T19:52:23.967Z","date":"2026-02-02","time":"19:52:23","cor_ans":true},{"trial_type":"html-keyboard-response","rt":null,"stimulus":"<p style=\"color: green; font-size: 50px; font-weight: bold;\">Correct</p>","response":null,"trial_index":164,"plugin_version":"2.1.0","time_elapsed":300123,"subject_id":"91391","group":"Group1","condition":"1_Rep","full_date":"2026-02-02T19:52:23.967Z","date":"2026-02-02","time":"19:52:23"},{"correct_response":"a","task":"test_phase","broad_category":"I","image_png":"I_Basalt_08.png","image_id":24,"category_name":"Basalt","category":2,"distinct_rating":2.31,"distinct_type":"Bottom","item_type":"Foil","rt":832,"stimulus":"Stimuli_Rocks480/I_Basalt_08.png","response":"a","trial_type":"image-keyboard-response","trial_index":165,"plugin_version":"2.1.0","time_elapsed":300956,"subject_id":"91391","group":"Group1","condition":"1_Rep","full_date":"2026-02-02T19:52:23.967Z","date":"2026-02-02","time":"19:52:23","cor_ans":true},{"trial_type":"html-keyboard-response","rt":null,"stimulus":"<p style=\"color: green; font-size: 50px; font-weight: bold;\">Correct</p>","response":null,"trial_index":166,"plugin_version":"2.1.0","time_elapsed":301473,"subject_id":"91391","group":"Group1","condition":"1_Rep","full_date":"2026-02-02T19:52:23.967Z","date":"2026-02-02","time":"19:52:23"},{"correct_response":"a","task":"test_phase","broad_category":"I","image_png":"I_Pegmatite_03.png","image_id":99,"category_name":"Pegmatite","category":7,"distinct_rating":7.24,"distinct_type":"Top","item_type":"Foil","rt":1431,"stimulus":"Stimuli_Rocks480/I_Pegmatite_03.png","response":"a","trial_type":"image-keyboard-response","trial_index":167,"plugin_version":"2.1.0","time_elapsed":302907,"subject_id":"91391","group":"Group1","condition":"1_Rep","full_date":"2026-02-02T19:52:23.967Z","date":"2026-02-02","time":"19:52:23","cor_ans":true},{"trial_type":"html-keyboard-response","rt":null,"stimulus":"<p style=\"color: green; font-size: 50px; font-weight: bold;\">Correct</p>","response":null,"trial_index":168,"plugin_version":"2.1.0","time_elapsed":303413,"subject_id":"91391","group":"Group1","condition":"1_Rep","full_date":"2026-02-02T19:52:23.967Z","date":"2026-02-02","time":"19:52:23"},{"correct_response":"l","task":"test_phase","broad_category":"S","image_png":"S_Conglomerate_05.png","image_id":373,"category_name":"Conglomerate","category":24,"distinct_rating":7.32,"distinct_type":"Top","item_type":"Target","rt":751,"stimulus":"Stimuli_Rocks480/S_Conglomerate_05.png","response":"l","trial_type":"image-keyboard-response","trial_index":169,"plugin_version":"2.1.0","time_elapsed":304167,"subject_id":"91391","group":"Group1","condition":"1_Rep","full_date":"2026-02-02T19:52:23.967Z","date":"2026-02-02","time":"19:52:23","cor_ans":true},{"trial_type":"html-keyboard-response","rt":null,"stimulus":"<p style=\"color: green; font-size: 50px; font-weight: bold;\">Correct</p>","response":null,"trial_index":170,"plugin_version":"2.1.0","time_elapsed":304684,"subject_id":"91391","group":"Group1","condition":"1_Rep","full_date":"2026-02-02T19:52:23.967Z","date":"2026-02-02","time":"19:52:23"},{"correct_response":"l","task":"test_phase","broad_category":"I","image_png":"I_Gabbro_08.png","image_id":56,"category_name":"Gabbro","category":4,"distinct_rating":3.02,"distinct_type":"Bottom","item_type":"Target","rt":877,"stimulus":"Stimuli_Rocks480/I_Gabbro_08.png","response":"l","trial_type":"image-keyboard-response","trial_index":171,"plugin_version":"2.1.0","time_elapsed":305562,"subject_id":"91391","group":"Group1","condition":"1_Rep","full_date":"2026-02-02T19:52:23.967Z","date":"2026-02-02","time":"19:52:23","cor_ans":true},{"trial_type":"html-keyboard-response","rt":null,"stimulus":"<p style=\"color: green; font-size: 50px; font-weight: bold;\">Correct</p>","response":null,"trial_index":172,"plugin_version":"2.1.0","time_elapsed":306071,"subject_id":"91391","group":"Group1","condition":"1_Rep","full_date":"2026-02-02T19:52:23.967Z","date":"2026-02-02","time":"19:52:23"},{"correct_response":"a","task":"test_phase","broad_category":"M","image_png":"M_Phyllite_02.png","image_id":258,"category_name":"Phyllite","category":17,"distinct_rating":2.89,"distinct_type":"Bottom","item_type":"Foil","rt":1294,"stimulus":"Stimuli_Rocks480/M_Phyllite_02.png","response":"a","trial_type":"image-keyboard-response","trial_index":173,"plugin_version":"2.1.0","time_elapsed":307368,"subject_id":"91391","group":"Group1","condition":"1_Rep","full_date":"2026-02-02T19:52:23.967Z","date":"2026-02-02","time":"19:52:23","cor_ans":true},{"trial_type":"html-keyboard-response","rt":null,"stimulus":"<p style=\"color: green; font-size: 50px; font-weight: bold;\">Correct</p>","response":null,"trial_index":174,"plugin_version":"2.1.0","time_elapsed":307883,"subject_id":"91391","group":"Group1","condition":"1_Rep","full_date":"2026-02-02T19:52:23.967Z","date":"2026-02-02","time":"19:52:23"},{"correct_response":"a","task":"test_phase","broad_category":"I","image_png":"I_Diorite_01.png","image_id":33,"category_name":"Diorite","category":3,"distinct_rating":2.97,"distinct_type":"Bottom","item_type":"Foil","rt":825,"stimulus":"Stimuli_Rocks480/I_Diorite_01.png","response":"a","trial_type":"image-keyboard-response","trial_index":175,"plugin_version":"2.1.0","time_elapsed":308711,"subject_id":"91391","group":"Group1","condition":"1_Rep","full_date":"2026-02-02T19:52:23.967Z","date":"2026-02-02","time":"19:52:23","cor_ans":true},{"trial_type":"html-keyboard-response","rt":null,"stimulus":"<p style=\"color: green; font-size: 50px; font-weight: bold;\">Correct</p>","response":null,"trial_index":176,"plugin_version":"2.1.0","time_elapsed":309220,"subject_id":"91391","group":"Group1","condition":"1_Rep","full_date":"2026-02-02T19:52:23.967Z","date":"2026-02-02","time":"19:52:23"},{"correct_response":"a","task":"test_phase","broad_category":"S","image_png":"S_Chert_13.png","image_id":365,"category_name":"Chert","category":23,"distinct_rating":6.57,"distinct_type":"Top","item_type":"Foil","rt":600,"stimulus":"Stimuli_Rocks480/S_Chert_13.png","response":"a","trial_type":"image-keyboard-response","trial_index":177,"plugin_version":"2.1.0","time_elapsed":309822,"subject_id":"91391","group":"Group1","condition":"1_Rep","full_date":"2026-02-02T19:52:23.967Z","date":"2026-02-02","time":"19:52:23","cor_ans":true},{"trial_type":"html-keyboard-response","rt":null,"stimulus":"<p style=\"color: green; font-size: 50px; font-weight: bold;\">Correct</p>","response":null,"trial_index":178,"plugin_version":"2.1.0","time_elapsed":310327,"subject_id":"91391","group":"Group1","condition":"1_Rep","full_date":"2026-02-02T19:52:23.967Z","date":"2026-02-02","time":"19:52:23"},{"correct_response":"a","task":"test_phase","broad_category":"M","image_png":"M_Marble_02.png","image_id":226,"category_name":"Marble","category":15,"distinct_rating":3.2,"distinct_type":"Bottom","item_type":"Foil","rt":1899,"stimulus":"Stimuli_Rocks480/M_Marble_02.png","response":"a","trial_type":"image-keyboard-response","trial_index":179,"plugin_version":"2.1.0","time_elapsed":312227,"subject_id":"91391","group":"Group1","condition":"1_Rep","full_date":"2026-02-02T19:52:23.967Z","date":"2026-02-02","time":"19:52:23","cor_ans":true},{"trial_type":"html-keyboard-response","rt":null,"stimulus":"<p style=\"color: green; font-size: 50px; font-weight: bold;\">Correct</p>","response":null,"trial_index":180,"plugin_version":"2.1.0","time_elapsed":312732,"subject_id":"91391","group":"Group1","condition":"1_Rep","full_date":"2026-02-02T19:52:23.967Z","date":"2026-02-02","time":"19:52:23"},{"correct_response":"l","task":"test_phase","broad_category":"M","image_png":"M_Phyllite_03.png","image_id":259,"category_name":"Phyllite","category":17,"distinct_rating":2.5,"distinct_type":"Bottom","item_type":"Target","rt":1082,"stimulus":"Stimuli_Rocks480/M_Phyllite_03.png","response":"a","trial_type":"image-keyboard-response","trial_index":181,"plugin_version":"2.1.0","time_elapsed":313816,"subject_id":"91391","group":"Group1","condition":"1_Rep","full_date":"2026-02-02T19:52:23.967Z","date":"2026-02-02","time":"19:52:23","cor_ans":false},{"trial_type":"html-keyboard-response","rt":null,"stimulus":"<p style=\"color: red; font-size: 50px; font-weight: bold;\">Incorrect</p>","response":null,"trial_index":182,"plugin_version":"2.1.0","time_elapsed":314322,"subject_id":"91391","group":"Group1","condition":"1_Rep","full_date":"2026-02-02T19:52:23.967Z","date":"2026-02-02","time":"19:52:23"},{"correct_response":"a","task":"test_phase","broad_category":"I","image_png":"I_Pumice_14.png","image_id":142,"category_name":"Pumice","category":9,"distinct_rating":3.22,"distinct_type":"Bottom","item_type":"Foil","rt":859,"stimulus":"Stimuli_Rocks480/I_Pumice_14.png","response":"l","trial_type":"image-keyboard-response","trial_index":183,"plugin_version":"2.1.0","time_elapsed":315183,"subject_id":"91391","group":"Group1","condition":"1_Rep","full_date":"2026-02-02T19:52:23.967Z","date":"2026-02-02","time":"19:52:23","cor_ans":false},{"trial_type":"html-keyboard-response","rt":null,"stimulus":"<p style=\"color: red; font-size: 50px; font-weight: bold;\">Incorrect</p>","response":null,"trial_index":184,"plugin_version":"2.1.0","time_elapsed":315697,"subject_id":"91391","group":"Group1","condition":"1_Rep","full_date":"2026-02-02T19:52:23.967Z","date":"2026-02-02","time":"19:52:23"},{"correct_response":"a","task":"test_phase","broad_category":"M","image_png":"M_Gneiss_15.png","image_id":207,"category_name":"Gneiss","category":13,"distinct_rating":3.11,"distinct_type":"Bottom","item_type":"Foil","rt":1737,"stimulus":"Stimuli_Rocks480/M_Gneiss_15.png","response":"a","trial_type":"image-keyboard-response","trial_index":185,"plugin_version":"2.1.0","time_elapsed":317436,"subject_id":"91391","group":"Group1","condition":"1_Rep","full_date":"2026-02-02T19:52:23.967Z","date":"2026-02-02","time":"19:52:23","cor_ans":true},{"trial_type":"html-keyboard-response","rt":null,"stimulus":"<p style=\"color: green; font-size: 50px; font-weight: bold;\">Correct</p>","response":null,"trial_index":186,"plugin_version":"2.1.0","time_elapsed":317951,"subject_id":"91391","group":"Group1","condition":"1_Rep","full_date":"2026-02-02T19:52:23.967Z","date":"2026-02-02","time":"19:52:23"},{"correct_response":"l","task":"test_phase","broad_category":"S","image_png":"S_Sandstone_03.png","image_id":451,"category_name":"Sandstone","category":29,"distinct_rating":1.86,"distinct_type":"Bottom","item_type":"Target","rt":847,"stimulus":"Stimuli_Rocks480/S_Sandstone_03.png","response":"a","trial_type":"image-keyboard-response","trial_index":187,"plugin_version":"2.1.0","time_elapsed":318801,"subject_id":"91391","group":"Group1","condition":"1_Rep","full_date":"2026-02-02T19:52:23.967Z","date":"2026-02-02","time":"19:52:23","cor_ans":false},{"trial_type":"html-keyboard-response","rt":null,"stimulus":"<p style=\"color: red; font-size: 50px; font-weight: bold;\">Incorrect</p>","response":null,"trial_index":188,"plugin_version":"2.1.0","time_elapsed":319317,"subject_id":"91391","group":"Group1","condition":"1_Rep","full_date":"2026-02-02T19:52:23.967Z","date":"2026-02-02","time":"19:52:23"},{"correct_response":"a","task":"test_phase","broad_category":"I","image_png":"I_Pumice_01.png","image_id":129,"category_name":"Pumice","category":9,"distinct_rating":3.25,"distinct_type":"Bottom","item_type":"Foil","rt":933,"stimulus":"Stimuli_Rocks480/I_Pumice_01.png","response":"l","trial_type":"image-keyboard-response","trial_index":189,"plugin_version":"2.1.0","time_elapsed":320253,"subject_id":"91391","group":"Group1","condition":"1_Rep","full_date":"2026-02-02T19:52:23.967Z","date":"2026-02-02","time":"19:52:23","cor_ans":false},{"trial_type":"html-keyboard-response","rt":null,"stimulus":"<p style=\"color: red; font-size: 50px; font-weight: bold;\">Incorrect</p>","response":null,"trial_index":190,"plugin_version":"2.1.0","time_elapsed":320764,"subject_id":"91391","group":"Group1","condition":"1_Rep","full_date":"2026-02-02T19:52:23.967Z","date":"2026-02-02","time":"19:52:23"},{"correct_response":"l","task":"test_phase","broad_category":"I","image_png":"I_Diorite_04.png","image_id":36,"category_name":"Diorite","category":3,"distinct_rating":2.98,"distinct_type":"Bottom","item_type":"Target","rt":1976,"stimulus":"Stimuli_Rocks480/I_Diorite_04.png","response":"a","trial_type":"image-keyboard-response","trial_index":191,"plugin_version":"2.1.0","time_elapsed":322742,"subject_id":"91391","group":"Group1","condition":"1_Rep","full_date":"2026-02-02T19:52:23.967Z","date":"2026-02-02","time":"19:52:23","cor_ans":false},{"trial_type":"html-keyboard-response","rt":null,"stimulus":"<p style=\"color: red; font-size: 50px; font-weight: bold;\">Incorrect</p>","response":null,"trial_index":192,"plugin_version":"2.1.0","time_elapsed":323252,"subject_id":"91391","group":"Group1","condition":"1_Rep","full_date":"2026-02-02T19:52:23.967Z","date":"2026-02-02","time":"19:52:23"},{"correct_response":"l","task":"test_phase","broad_category":"M","image_png":"M_Marble_06.png","image_id":230,"category_name":"Marble","category":15,"distinct_rating":3.4,"distinct_type":"Bottom","item_type":"Target","rt":1051,"stimulus":"Stimuli_Rocks480/M_Marble_06.png","response":"l","trial_type":"image-keyboard-response","trial_index":193,"plugin_version":"2.1.0","time_elapsed":324306,"subject_id":"91391","group":"Group1","condition":"1_Rep","full_date":"2026-02-02T19:52:23.967Z","date":"2026-02-02","time":"19:52:23","cor_ans":true},{"trial_type":"html-keyboard-response","rt":null,"stimulus":"<p style=\"color: green; font-size: 50px; font-weight: bold;\">Correct</p>","response":null,"trial_index":194,"plugin_version":"2.1.0","time_elapsed":324808,"subject_id":"91391","group":"Group1","condition":"1_Rep","full_date":"2026-02-02T19:52:23.967Z","date":"2026-02-02","time":"19:52:23"},{"correct_response":"a","task":"test_phase","broad_category":"S","image_png":"S_Dolomite_01.png","image_id":385,"category_name":"Dolomite","category":25,"distinct_rating":1.43,"distinct_type":"Bottom","item_type":"Foil","rt":1400,"stimulus":"Stimuli_Rocks480/S_Dolomite_01.png","response":"l","trial_type":"image-keyboard-response","trial_index":195,"plugin_version":"2.1.0","time_elapsed":326210,"subject_id":"91391","group":"Group1","condition":"1_Rep","full_date":"2026-02-02T19:52:23.967Z","date":"2026-02-02","time":"19:52:23","cor_ans":false},{"trial_type":"html-keyboard-response","rt":null,"stimulus":"<p style=\"color: red; font-size: 50px; font-weight: bold;\">Incorrect</p>","response":null,"trial_index":196,"plugin_version":"2.1.0","time_elapsed":326723,"subject_id":"91391","group":"Group1","condition":"1_Rep","full_date":"2026-02-02T19:52:23.967Z","date":"2026-02-02","time":"19:52:23"},{"correct_response":"a","task":"test_phase","broad_category":"M","image_png":"M_Phyllite_13.png","image_id":269,"category_name":"Phyllite","category":17,"distinct_rating":2.8,"distinct_type":"Bottom","item_type":"Foil","rt":1027,"stimulus":"Stimuli_Rocks480/M_Phyllite_13.png","response":"a","trial_type":"image-keyboard-response","trial_index":197,"plugin_version":"2.1.0","time_elapsed":327753,"subject_id":"91391","group":"Group1","condition":"1_Rep","full_date":"2026-02-02T19:52:23.967Z","date":"2026-02-02","time":"19:52:23","cor_ans":true},{"trial_type":"html-keyboard-response","rt":null,"stimulus":"<p style=\"color: green; font-size: 50px; font-weight: bold;\">Correct</p>","response":null,"trial_index":198,"plugin_version":"2.1.0","time_elapsed":328261,"subject_id":"91391","group":"Group1","condition":"1_Rep","full_date":"2026-02-02T19:52:23.967Z","date":"2026-02-02","time":"19:52:23"},{"correct_response":"l","task":"test_phase","broad_category":"S","image_png":"S_Dolomite_12.png","image_id":396,"category_name":"Dolomite","category":25,"distinct_rating":1.85,"distinct_type":"Bottom","item_type":"Target","rt":1520,"stimulus":"Stimuli_Rocks480/S_Dolomite_12.png","response":"a","trial_type":"image-keyboard-response","trial_index":199,"plugin_version":"2.1.0","time_elapsed":329783,"subject_id":"91391","group":"Group1","condition":"1_Rep","full_date":"2026-02-02T19:52:23.967Z","date":"2026-02-02","time":"19:52:23","cor_ans":false},{"trial_type":"html-keyboard-response","rt":null,"stimulus":"<p style=\"color: red; font-size: 50px; font-weight: bold;\">Incorrect</p>","response":null,"trial_index":200,"plugin_version":"2.1.0","time_elapsed":330286,"subject_id":"91391","group":"Group1","condition":"1_Rep","full_date":"2026-02-02T19:52:23.967Z","date":"2026-02-02","time":"19:52:23"},{"correct_response":"l","task":"test_phase","broad_category":"M","image_png":"M_Slate_03.png","image_id":307,"category_name":"Slate","category":20,"distinct_rating":1.87,"distinct_type":"Bottom","item_type":"Target","rt":2672,"stimulus":"Stimuli_Rocks480/M_Slate_03.png","response":"a","trial_type":"image-keyboard-response","trial_index":201,"plugin_version":"2.1.0","time_elapsed":332961,"subject_id":"91391","group":"Group1","condition":"1_Rep","full_date":"2026-02-02T19:52:23.967Z","date":"2026-02-02","time":"19:52:23","cor_ans":false},{"trial_type":"html-keyboard-response","rt":null,"stimulus":"<p style=\"color: red; font-size: 50px; font-weight: bold;\">Incorrect</p>","response":null,"trial_index":202,"plugin_version":"2.1.0","time_elapsed":333470,"subject_id":"91391","group":"Group1","condition":"1_Rep","full_date":"2026-02-02T19:52:23.967Z","date":"2026-02-02","time":"19:52:23"},{"correct_response":"a","task":"test_phase","broad_category":"S","image_png":"S_Shale_07.png","image_id":471,"category_name":"Shale","category":30,"distinct_rating":2.73,"distinct_type":"Bottom","item_type":"Foil","rt":1697,"stimulus":"Stimuli_Rocks480/S_Shale_07.png","response":"l","trial_type":"image-keyboard-response","trial_index":203,"plugin_version":"2.1.0","time_elapsed":335170,"subject_id":"91391","group":"Group1","condition":"1_Rep","full_date":"2026-02-02T19:52:23.967Z","date":"2026-02-02","time":"19:52:23","cor_ans":false},{"trial_type":"html-keyboard-response","rt":null,"stimulus":"<p style=\"color: red; font-size: 50px; font-weight: bold;\">Incorrect</p>","response":null,"trial_index":204,"plugin_version":"2.1.0","time_elapsed":335673,"subject_id":"91391","group":"Group1","condition":"1_Rep","full_date":"2026-02-02T19:52:23.967Z","date":"2026-02-02","time":"19:52:23"},{"correct_response":"a","task":"test_phase","broad_category":"I","image_png":"I_Andesite_03.png","image_id":3,"category_name":"Andesite","category":1,"distinct_rating":3.17,"distinct_type":"Bottom","item_type":"Foil","rt":1001,"stimulus":"Stimuli_Rocks480/I_Andesite_03.png","response":"a","trial_type":"image-keyboard-response","trial_index":205,"plugin_version":"2.1.0","time_elapsed":336675,"subject_id":"91391","group":"Group1","condition":"1_Rep","full_date":"2026-02-02T19:52:23.967Z","date":"2026-02-02","time":"19:52:23","cor_ans":true},{"trial_type":"html-keyboard-response","rt":null,"stimulus":"<p style=\"color: green; font-size: 50px; font-weight: bold;\">Correct</p>","response":null,"trial_index":206,"plugin_version":"2.1.0","time_elapsed":337180,"subject_id":"91391","group":"Group1","condition":"1_Rep","full_date":"2026-02-02T19:52:23.967Z","date":"2026-02-02","time":"19:52:23"},{"correct_response":"a","task":"test_phase","broad_category":"M","image_png":"M_Marble_14.png","image_id":238,"category_name":"Marble","category":15,"distinct_rating":3.31,"distinct_type":"Bottom","item_type":"Foil","rt":1587,"stimulus":"Stimuli_Rocks480/M_Marble_14.png","response":"a","trial_type":"image-keyboard-response","trial_index":207,"plugin_version":"2.1.0","time_elapsed":338769,"subject_id":"91391","group":"Group1","condition":"1_Rep","full_date":"2026-02-02T19:52:23.967Z","date":"2026-02-02","time":"19:52:23","cor_ans":true},{"trial_type":"html-keyboard-response","rt":null,"stimulus":"<p style=\"color: green; font-size: 50px; font-weight: bold;\">Correct</p>","response":null,"trial_index":208,"plugin_version":"2.1.0","time_elapsed":339282,"subject_id":"91391","group":"Group1","condition":"1_Rep","full_date":"2026-02-02T19:52:23.967Z","date":"2026-02-02","time":"19:52:23"},{"correct_response":"l","task":"test_phase","broad_category":"I","image_png":"I_Andesite_06.png","image_id":6,"category_name":"Andesite","category":1,"distinct_rating":3.17,"distinct_type":"Bottom","item_type":"Target","rt":1051,"stimulus":"Stimuli_Rocks480/I_Andesite_06.png","response":"a","trial_type":"image-keyboard-response","trial_index":209,"plugin_version":"2.1.0","time_elapsed":340337,"subject_id":"91391","group":"Group1","condition":"1_Rep","full_date":"2026-02-02T19:52:23.967Z","date":"2026-02-02","time":"19:52:23","cor_ans":false},{"trial_type":"html-keyboard-response","rt":null,"stimulus":"<p style=\"color: red; font-size: 50px; font-weight: bold;\">Incorrect</p>","response":null,"trial_index":210,"plugin_version":"2.1.0","time_elapsed":340854,"subject_id":"91391","group":"Group1","condition":"1_Rep","full_date":"2026-02-02T19:52:23.967Z","date":"2026-02-02","time":"19:52:23"},{"correct_response":"a","task":"test_phase","broad_category":"M","image_png":"M_Marble_03.png","image_id":227,"category_name":"Marble","category":15,"distinct_rating":2.67,"distinct_type":"Bottom","item_type":"Foil","rt":1345,"stimulus":"Stimuli_Rocks480/M_Marble_03.png","response":"l","trial_type":"image-keyboard-response","trial_index":211,"plugin_version":"2.1.0","time_elapsed":342202,"subject_id":"91391","group":"Group1","condition":"1_Rep","full_date":"2026-02-02T19:52:23.967Z","date":"2026-02-02","time":"19:52:23","cor_ans":false},{"trial_type":"html-keyboard-response","rt":null,"stimulus":"<p style=\"color: red; font-size: 50px; font-weight: bold;\">Incorrect</p>","response":null,"trial_index":212,"plugin_version":"2.1.0","time_elapsed":342715,"subject_id":"91391","group":"Group1","condition":"1_Rep","full_date":"2026-02-02T19:52:23.967Z","date":"2026-02-02","time":"19:52:23"},{"correct_response":"a","task":"test_phase","broad_category":"S","image_png":"S_Conglomerate_14.png","image_id":382,"category_name":"Conglomerate","category":24,"distinct_rating":6.86,"distinct_type":"Top","item_type":"Foil","rt":765,"stimulus":"Stimuli_Rocks480/S_Conglomerate_14.png","response":"a","trial_type":"image-keyboard-response","trial_index":213,"plugin_version":"2.1.0","time_elapsed":343482,"subject_id":"91391","group":"Group1","condition":"1_Rep","full_date":"2026-02-02T19:52:23.967Z","date":"2026-02-02","time":"19:52:23","cor_ans":true},{"trial_type":"html-keyboard-response","rt":null,"stimulus":"<p style=\"color: green; font-size: 50px; font-weight: bold;\">Correct</p>","response":null,"trial_index":214,"plugin_version":"2.1.0","time_elapsed":343987,"subject_id":"91391","group":"Group1","condition":"1_Rep","full_date":"2026-02-02T19:52:23.967Z","date":"2026-02-02","time":"19:52:23"},{"correct_response":"a","task":"test_phase","broad_category":"M","image_png":"M_Slate_14.png","image_id":318,"category_name":"Slate","category":20,"distinct_rating":2.58,"distinct_type":"Bottom","item_type":"Foil","rt":1011,"stimulus":"Stimuli_Rocks480/M_Slate_14.png","response":"a","trial_type":"image-keyboard-response","trial_index":215,"plugin_version":"2.1.0","time_elapsed":345000,"subject_id":"91391","group":"Group1","condition":"1_Rep","full_date":"2026-02-02T19:52:23.967Z","date":"2026-02-02","time":"19:52:23","cor_ans":true},{"trial_type":"html-keyboard-response","rt":null,"stimulus":"<p style=\"color: green; font-size: 50px; font-weight: bold;\">Correct</p>","response":null,"trial_index":216,"plugin_version":"2.1.0","time_elapsed":345510,"subject_id":"91391","group":"Group1","condition":"1_Rep","full_date":"2026-02-02T19:52:23.967Z","date":"2026-02-02","time":"19:52:23"},{"correct_response":"a","task":"test_phase","broad_category":"I","image_png":"I_Rhyolite_08.png","image_id":152,"category_name":"Rhyolite","category":10,"distinct_rating":1.38,"distinct_type":"Bottom","item_type":"Foil","rt":2017,"stimulus":"Stimuli_Rocks480/I_Rhyolite_08.png","response":"a","trial_type":"image-keyboard-response","trial_index":217,"plugin_version":"2.1.0","time_elapsed":347530,"subject_id":"91391","group":"Group1","condition":"1_Rep","full_date":"2026-02-02T19:52:23.967Z","date":"2026-02-02","time":"19:52:23","cor_ans":true},{"trial_type":"html-keyboard-response","rt":null,"stimulus":"<p style=\"color: green; font-size: 50px; font-weight: bold;\">Correct</p>","response":null,"trial_index":218,"plugin_version":"2.1.0","time_elapsed":348034,"subject_id":"91391","group":"Group1","condition":"1_Rep","full_date":"2026-02-02T19:52:23.967Z","date":"2026-02-02","time":"19:52:23"},{"correct_response":"l","task":"test_phase","broad_category":"M","image_png":"M_Gneiss_06.png","image_id":198,"category_name":"Gneiss","category":13,"distinct_rating":2.65,"distinct_type":"Bottom","item_type":"Target","rt":1035,"stimulus":"Stimuli_Rocks480/M_Gneiss_06.png","response":"a","trial_type":"image-keyboard-response","trial_index":219,"plugin_version":"2.1.0","time_elapsed":349073,"subject_id":"91391","group":"Group1","condition":"1_Rep","full_date":"2026-02-02T19:52:23.967Z","date":"2026-02-02","time":"19:52:23","cor_ans":false},{"trial_type":"html-keyboard-response","rt":null,"stimulus":"<p style=\"color: red; font-size: 50px; font-weight: bold;\">Incorrect</p>","response":null,"trial_index":220,"plugin_version":"2.1.0","time_elapsed":349582,"subject_id":"91391","group":"Group1","condition":"1_Rep","full_date":"2026-02-02T19:52:23.967Z","date":"2026-02-02","time":"19:52:23"},{"correct_response":"a","task":"test_phase","broad_category":"M","image_png":"M_Gneiss_14.png","image_id":206,"category_name":"Gneiss","category":13,"distinct_rating":3.41,"distinct_type":"Bottom","item_type":"Foil","rt":1649,"stimulus":"Stimuli_Rocks480/M_Gneiss_14.png","response":"a","trial_type":"image-keyboard-response","trial_index":221,"plugin_version":"2.1.0","time_elapsed":351234,"subject_id":"91391","group":"Group1","condition":"1_Rep","full_date":"2026-02-02T19:52:23.967Z","date":"2026-02-02","time":"19:52:23","cor_ans":true},{"trial_type":"html-keyboard-response","rt":null,"stimulus":"<p style=\"color: green; font-size: 50px; font-weight: bold;\">Correct</p>","response":null,"trial_index":222,"plugin_version":"2.1.0","time_elapsed":351749,"subject_id":"91391","group":"Group1","condition":"1_Rep","full_date":"2026-02-02T19:52:23.967Z","date":"2026-02-02","time":"19:52:23"},{"correct_response":"a","task":"test_phase","broad_category":"I","image_png":"I_Obsidian_06.png","image_id":86,"category_name":"Obsidian","category":6,"distinct_rating":8.01,"distinct_type":"Top","item_type":"Foil","rt":2354,"stimulus":"Stimuli_Rocks480/I_Obsidian_06.png","response":"a","trial_type":"image-keyboard-response","trial_index":223,"plugin_version":"2.1.0","time_elapsed":354105,"subject_id":"91391","group":"Group1","condition":"1_Rep","full_date":"2026-02-02T19:52:23.967Z","date":"2026-02-02","time":"19:52:23","cor_ans":true},{"trial_type":"html-keyboard-response","rt":null,"stimulus":"<p style=\"color: green; font-size: 50px; font-weight: bold;\">Correct</p>","response":null,"trial_index":224,"plugin_version":"2.1.0","time_elapsed":354621,"subject_id":"91391","group":"Group1","condition":"1_Rep","full_date":"2026-02-02T19:52:23.967Z","date":"2026-02-02","time":"19:52:23"},{"correct_response":"a","task":"test_phase","broad_category":"I","image_png":"I_