[{"width":1470,"height":715,"webaudio":true,"browser":"chrome","browser_version":"144.0.0","mobile":false,"os":"Mac OS","fullscreen":true,"vsync_rate":59.99,"webcam":true,"microphone":true,"trial_type":"browser-check","trial_index":0,"plugin_version":"2.1.0","time_elapsed":1016,"subject_id":"90811","group":"Group2","condition":"1_Rep","full_date":"2026-01-26T23:00:20.628Z","date":"2026-01-26","time":"23:00:20"},{"success":true,"timeout":false,"failed_images":[],"failed_audio":[],"failed_video":[],"trial_type":"preload","trial_index":1,"plugin_version":"2.1.0","time_elapsed":3974,"subject_id":"90811","group":"Group2","condition":"1_Rep","full_date":"2026-01-26T23:00:20.628Z","date":"2026-01-26","time":"23:00:20"},{"rt":79093,"url":"SONA_consent_memorability.html","trial_type":"external-html","trial_index":2,"plugin_version":"2.1.0","time_elapsed":83130,"subject_id":"90811","group":"Group2","condition":"1_Rep","full_date":"2026-01-26T23:00:20.628Z","date":"2026-01-26","time":"23:00:20"},{"success":true,"rt":3113,"trial_type":"fullscreen","trial_index":3,"plugin_version":"2.1.0","time_elapsed":87247,"subject_id":"90811","group":"Group2","condition":"1_Rep","full_date":"2026-01-26T23:00:20.628Z","date":"2026-01-26","time":"23:00:20"},{"rt":12061,"stimulus":"<div style=\"max-width: 760px; margin: auto; font-size: 20px; line-height: 1.5;\">\n      <h1 style=\"text-align:center; font-size: 30px;\">Instructions</h1>\n      <p>\n        Welcome to the study on <b>visual memory</b>. This experiment consists of <b>two phases</b>: \n        a <b>study phase</b> and a <b>test phase</b>.\n      </p>\n      <p>\n        In the study phase, you will see a series of rock images along with their category labels.\n        The images will appear one at a time.\n        <b>Your task</b> is to learn the categories to which the rock images belong \n        and to remember each image as accurately as possible.\n      </p> \n      <p>\n        Note that you will see each image only <b>once</b> during the study phase. \n          So, please pay close attention and try to remember each image carefully.\n      </p>\n      <p>\n        After the study phase, <b>your memory will be tested</b>. \n        Additional instructions for the test phase will be provided at that time.\n      </p>\n      <p>\n        If your computer has multiple <b>language settings</b> (e.g., English and another language),\n        please make sure it is set to English before starting.\n      </p>\n      <p>\n        You can track your progress using the <b>completion bar</b> at the top of the screen. \n        Please note that the bar will refresh when the test phase begins \n        to give you an accurate sense of your progress in both phases.\n      </p> \n      <p>\n        Press the button below when you are ready to begin.\n      </p>\n    </div>","response":0,"trial_type":"html-button-response","trial_index":4,"plugin_version":"2.1.0","time_elapsed":99311,"subject_id":"90811","group":"Group2","condition":"1_Rep","full_date":"2026-01-26T23:00:20.628Z","date":"2026-01-26","time":"23:00:20"},{"rt":null,"stimulus":"<p style=\"font-size: 50px; margin: 0; text-align: center;\">+</p>","response":null,"trial_type":"html-keyboard-response","trial_index":5,"plugin_version":"2.1.0","time_elapsed":100316,"subject_id":"90811","group":"Group2","condition":"1_Rep","full_date":"2026-01-26T23:00:20.628Z","date":"2026-01-26","time":"23:00:20"},{"task":"memory_phase","broad_category":"M","image_png":"M_Slate_04.png","image_id":308,"category_name":"Slate","category":20,"distinct_rating":2.2,"distinct_type":"Bottom","rt":null,"stimulus":"Stimuli_Rocks480/M_Slate_04.png","response":null,"trial_type":"image-keyboard-response","trial_index":6,"plugin_version":"2.1.0","time_elapsed":102823,"subject_id":"90811","group":"Group2","condition":"1_Rep","full_date":"2026-01-26T23:00:20.628Z","date":"2026-01-26","time":"23:00:20"},{"rt":null,"stimulus":"<p style=\"font-size: 50px; margin: 0; text-align: center;\">+</p>","response":null,"trial_type":"html-keyboard-response","trial_index":7,"plugin_version":"2.1.0","time_elapsed":103826,"subject_id":"90811","group":"Group2","condition":"1_Rep","full_date":"2026-01-26T23:00:20.628Z","date":"2026-01-26","time":"23:00:20"},{"task":"memory_phase","broad_category":"I","image_png":"I_Andesite_04.png","image_id":4,"category_name":"Andesite","category":1,"distinct_rating":3.18,"distinct_type":"Bottom","rt":null,"stimulus":"Stimuli_Rocks480/I_Andesite_04.png","response":null,"trial_type":"image-keyboard-response","trial_index":8,"plugin_version":"2.1.0","time_elapsed":106332,"subject_id":"90811","group":"Group2","condition":"1_Rep","full_date":"2026-01-26T23:00:20.628Z","date":"2026-01-26","time":"23:00:20"},{"rt":null,"stimulus":"<p style=\"font-size: 50px; margin: 0; text-align: center;\">+</p>","response":null,"trial_type":"html-keyboard-response","trial_index":9,"plugin_version":"2.1.0","time_elapsed":107335,"subject_id":"90811","group":"Group2","condition":"1_Rep","full_date":"2026-01-26T23:00:20.628Z","date":"2026-01-26","time":"23:00:20"},{"task":"memory_phase","broad_category":"I","image_png":"I_Gabbro_14.png","image_id":62,"category_name":"Gabbro","category":4,"distinct_rating":2.95,"distinct_type":"Bottom","rt":null,"stimulus":"Stimuli_Rocks480/I_Gabbro_14.png","response":null,"trial_type":"image-keyboard-response","trial_index":10,"plugin_version":"2.1.0","time_elapsed":109839,"subject_id":"90811","group":"Group2","condition":"1_Rep","full_date":"2026-01-26T23:00:20.628Z","date":"2026-01-26","time":"23:00:20"},{"rt":null,"stimulus":"<p style=\"font-size: 50px; margin: 0; text-align: center;\">+</p>","response":null,"trial_type":"html-keyboard-response","trial_index":11,"plugin_version":"2.1.0","time_elapsed":110842,"subject_id":"90811","group":"Group2","condition":"1_Rep","full_date":"2026-01-26T23:00:20.628Z","date":"2026-01-26","time":"23:00:20"},{"task":"memory_phase","broad_category":"S","image_png":"S_Shale_07.png","image_id":471,"category_name":"Shale","category":30,"distinct_rating":2.73,"distinct_type":"Bottom","rt":null,"stimulus":"Stimuli_Rocks480/S_Shale_07.png","response":null,"trial_type":"image-keyboard-response","trial_index":12,"plugin_version":"2.1.0","time_elapsed":113346,"subject_id":"90811","group":"Group2","condition":"1_Rep","full_date":"2026-01-26T23:00:20.628Z","date":"2026-01-26","time":"23:00:20"},{"rt":null,"stimulus":"<p style=\"font-size: 50px; margin: 0; text-align: center;\">+</p>","response":null,"trial_type":"html-keyboard-response","trial_index":13,"plugin_version":"2.1.0","time_elapsed":114349,"subject_id":"90811","group":"Group2","condition":"1_Rep","full_date":"2026-01-26T23:00:20.628Z","date":"2026-01-26","time":"23:00:20"},{"task":"memory_phase","broad_category":"I","image_png":"I_Basalt_10.png","image_id":26,"category_name":"Basalt","category":2,"distinct_rating":2.76,"distinct_type":"Bottom","rt":null,"stimulus":"Stimuli_Rocks480/I_Basalt_10.png","response":null,"trial_type":"image-keyboard-response","trial_index":14,"plugin_version":"2.1.0","time_elapsed":116854,"subject_id":"90811","group":"Group2","condition":"1_Rep","full_date":"2026-01-26T23:00:20.628Z","date":"2026-01-26","time":"23:00:20"},{"rt":null,"stimulus":"<p style=\"font-size: 50px; margin: 0; text-align: center;\">+</p>","response":null,"trial_type":"html-keyboard-response","trial_index":15,"plugin_version":"2.1.0","time_elapsed":117857,"subject_id":"90811","group":"Group2","condition":"1_Rep","full_date":"2026-01-26T23:00:20.628Z","date":"2026-01-26","time":"23:00:20"},{"task":"memory_phase","broad_category":"M","image_png":"M_Phyllite_13.png","image_id":269,"category_name":"Phyllite","category":17,"distinct_rating":2.8,"distinct_type":"Bottom","rt":null,"stimulus":"Stimuli_Rocks480/M_Phyllite_13.png","response":null,"trial_type":"image-keyboard-response","trial_index":16,"plugin_version":"2.1.0","time_elapsed":120361,"subject_id":"90811","group":"Group2","condition":"1_Rep","full_date":"2026-01-26T23:00:20.628Z","date":"2026-01-26","time":"23:00:20"},{"rt":null,"stimulus":"<p style=\"font-size: 50px; margin: 0; text-align: center;\">+</p>","response":null,"trial_type":"html-keyboard-response","trial_index":17,"plugin_version":"2.1.0","time_elapsed":121365,"subject_id":"90811","group":"Group2","condition":"1_Rep","full_date":"2026-01-26T23:00:20.628Z","date":"2026-01-26","time":"23:00:20"},{"task":"memory_phase","broad_category":"I","image_png":"I_Andesite_03.png","image_id":3,"category_name":"Andesite","category":1,"distinct_rating":3.17,"distinct_type":"Bottom","rt":null,"stimulus":"Stimuli_Rocks480/I_Andesite_03.png","response":null,"trial_type":"image-keyboard-response","trial_index":18,"plugin_version":"2.1.0","time_elapsed":123869,"subject_id":"90811","group":"Group2","condition":"1_Rep","full_date":"2026-01-26T23:00:20.628Z","date":"2026-01-26","time":"23:00:20"},{"rt":null,"stimulus":"<p style=\"font-size: 50px; margin: 0; text-align: center;\">+</p>","response":null,"trial_type":"html-keyboard-response","trial_index":19,"plugin_version":"2.1.0","time_elapsed":124873,"subject_id":"90811","group":"Group2","condition":"1_Rep","full_date":"2026-01-26T23:00:20.628Z","date":"2026-01-26","time":"23:00:20"},{"task":"memory_phase","broad_category":"M","image_png":"M_Slate_14.png","image_id":318,"category_name":"Slate","category":20,"distinct_rating":2.58,"distinct_type":"Bottom","rt":null,"stimulus":"Stimuli_Rocks480/M_Slate_14.png","response":null,"trial_type":"image-keyboard-response","trial_index":20,"plugin_version":"2.1.0","time_elapsed":127377,"subject_id":"90811","group":"Group2","condition":"1_Rep","full_date":"2026-01-26T23:00:20.628Z","date":"2026-01-26","time":"23:00:20"},{"rt":null,"stimulus":"<p style=\"font-size: 50px; margin: 0; text-align: center;\">+</p>","response":null,"trial_type":"html-keyboard-response","trial_index":21,"plugin_version":"2.1.0","time_elapsed":128380,"subject_id":"90811","group":"Group2","condition":"1_Rep","full_date":"2026-01-26T23:00:20.628Z","date":"2026-01-26","time":"23:00:20"},{"task":"memory_phase","broad_category":"I","image_png":"I_Diorite_10.png","image_id":42,"category_name":"Diorite","category":3,"distinct_rating":2.84,"distinct_type":"Bottom","rt":null,"stimulus":"Stimuli_Rocks480/I_Diorite_10.png","response":null,"trial_type":"image-keyboard-response","trial_index":22,"plugin_version":"2.1.0","time_elapsed":130885,"subject_id":"90811","group":"Group2","condition":"1_Rep","full_date":"2026-01-26T23:00:20.628Z","date":"2026-01-26","time":"23:00:20"},{"rt":null,"stimulus":"<p style=\"font-size: 50px; margin: 0; text-align: center;\">+</p>","response":null,"trial_type":"html-keyboard-response","trial_index":23,"plugin_version":"2.1.0","time_elapsed":131888,"subject_id":"90811","group":"Group2","condition":"1_Rep","full_date":"2026-01-26T23:00:20.628Z","date":"2026-01-26","time":"23:00:20"},{"task":"memory_phase","broad_category":"I","image_png":"I_Basalt_08.png","image_id":24,"category_name":"Basalt","category":2,"distinct_rating":2.31,"distinct_type":"Bottom","rt":null,"stimulus":"Stimuli_Rocks480/I_Basalt_08.png","response":null,"trial_type":"image-keyboard-response","trial_index":24,"plugin_version":"2.1.0","time_elapsed":134393,"subject_id":"90811","group":"Group2","condition":"1_Rep","full_date":"2026-01-26T23:00:20.628Z","date":"2026-01-26","time":"23:00:20"},{"rt":null,"stimulus":"<p style=\"font-size: 50px; margin: 0; text-align: center;\">+</p>","response":null,"trial_type":"html-keyboard-response","trial_index":25,"plugin_version":"2.1.0","time_elapsed":135396,"subject_id":"90811","group":"Group2","condition":"1_Rep","full_date":"2026-01-26T23:00:20.628Z","date":"2026-01-26","time":"23:00:20"},{"task":"memory_phase","broad_category":"I","image_png":"I_Rhyolite_10.png","image_id":154,"category_name":"Rhyolite","category":10,"distinct_rating":2.88,"distinct_type":"Bottom","rt":null,"stimulus":"Stimuli_Rocks480/I_Rhyolite_10.png","response":null,"trial_type":"image-keyboard-response","trial_index":26,"plugin_version":"2.1.0","time_elapsed":137900,"subject_id":"90811","group":"Group2","condition":"1_Rep","full_date":"2026-01-26T23:00:20.628Z","date":"2026-01-26","time":"23:00:20"},{"rt":null,"stimulus":"<p style=\"font-size: 50px; margin: 0; text-align: center;\">+</p>","response":null,"trial_type":"html-keyboard-response","trial_index":27,"plugin_version":"2.1.0","time_elapsed":138903,"subject_id":"90811","group":"Group2","condition":"1_Rep","full_date":"2026-01-26T23:00:20.628Z","date":"2026-01-26","time":"23:00:20"},{"task":"memory_phase","broad_category":"S","image_png":"S_Sandstone_04.png","image_id":452,"category_name":"Sandstone","category":29,"distinct_rating":1.8,"distinct_type":"Bottom","rt":null,"stimulus":"Stimuli_Rocks480/S_Sandstone_04.png","response":null,"trial_type":"image-keyboard-response","trial_index":28,"plugin_version":"2.1.0","time_elapsed":141406,"subject_id":"90811","group":"Group2","condition":"1_Rep","full_date":"2026-01-26T23:00:20.628Z","date":"2026-01-26","time":"23:00:20"},{"rt":null,"stimulus":"<p style=\"font-size: 50px; margin: 0; text-align: center;\">+</p>","response":null,"trial_type":"html-keyboard-response","trial_index":29,"plugin_version":"2.1.0","time_elapsed":142409,"subject_id":"90811","group":"Group2","condition":"1_Rep","full_date":"2026-01-26T23:00:20.628Z","date":"2026-01-26","time":"23:00:20"},{"task":"memory_phase","broad_category":"M","image_png":"M_Quartzite_07.png","image_id":279,"category_name":"Quartzite","category":18,"distinct_rating":1.97,"distinct_type":"Bottom","rt":null,"stimulus":"Stimuli_Rocks480/M_Quartzite_07.png","response":null,"trial_type":"image-keyboard-response","trial_index":30,"plugin_version":"2.1.0","time_elapsed":144913,"subject_id":"90811","group":"Group2","condition":"1_Rep","full_date":"2026-01-26T23:00:20.628Z","date":"2026-01-26","time":"23:00:20"},{"rt":null,"stimulus":"<p style=\"font-size: 50px; margin: 0; text-align: center;\">+</p>","response":null,"trial_type":"html-keyboard-response","trial_index":31,"plugin_version":"2.1.0","time_elapsed":145917,"subject_id":"90811","group":"Group2","condition":"1_Rep","full_date":"2026-01-26T23:00:20.628Z","date":"2026-01-26","time":"23:00:20"},{"task":"memory_phase","broad_category":"S","image_png":"S_Dolomite_07.png","image_id":391,"category_name":"Dolomite","category":25,"distinct_rating":1.73,"distinct_type":"Bottom","rt":null,"stimulus":"Stimuli_Rocks480/S_Dolomite_07.png","response":null,"trial_type":"image-keyboard-response","trial_index":32,"plugin_version":"2.1.0","time_elapsed":148421,"subject_id":"90811","group":"Group2","condition":"1_Rep","full_date":"2026-01-26T23:00:20.628Z","date":"2026-01-26","time":"23:00:20"},{"rt":null,"stimulus":"<p style=\"font-size: 50px; margin: 0; text-align: center;\">+</p>","response":null,"trial_type":"html-keyboard-response","trial_index":33,"plugin_version":"2.1.0","time_elapsed":149424,"subject_id":"90811","group":"Group2","condition":"1_Rep","full_date":"2026-01-26T23:00:20.628Z","date":"2026-01-26","time":"23:00:20"},{"task":"memory_phase","broad_category":"M","image_png":"M_Phyllite_05.png","image_id":261,"category_name":"Phyllite","category":17,"distinct_rating":2.14,"distinct_type":"Bottom","rt":null,"stimulus":"Stimuli_Rocks480/M_Phyllite_05.png","response":null,"trial_type":"image-keyboard-response","trial_index":34,"plugin_version":"2.1.0","time_elapsed":151928,"subject_id":"90811","group":"Group2","condition":"1_Rep","full_date":"2026-01-26T23:00:20.628Z","date":"2026-01-26","time":"23:00:20"},{"rt":null,"stimulus":"<p style=\"font-size: 50px; margin: 0; text-align: center;\">+</p>","response":null,"trial_type":"html-keyboard-response","trial_index":35,"plugin_version":"2.1.0","time_elapsed":152930,"subject_id":"90811","group":"Group2","condition":"1_Rep","full_date":"2026-01-26T23:00:20.628Z","date":"2026-01-26","time":"23:00:20"},{"task":"memory_phase","broad_category":"I","image_png":"I_Andesite_09.png","image_id":9,"category_name":"Andesite","category":1,"distinct_rating":2.49,"distinct_type":"Bottom","rt":null,"stimulus":"Stimuli_Rocks480/I_Andesite_09.png","response":null,"trial_type":"image-keyboard-response","trial_index":36,"plugin_version":"2.1.0","time_elapsed":155435,"subject_id":"90811","group":"Group2","condition":"1_Rep","full_date":"2026-01-26T23:00:20.628Z","date":"2026-01-26","time":"23:00:20"},{"rt":null,"stimulus":"<p style=\"font-size: 50px; margin: 0; text-align: center;\">+</p>","response":null,"trial_type":"html-keyboard-response","trial_index":37,"plugin_version":"2.1.0","time_elapsed":156438,"subject_id":"90811","group":"Group2","condition":"1_Rep","full_date":"2026-01-26T23:00:20.628Z","date":"2026-01-26","time":"23:00:20"},{"task":"memory_phase","broad_category":"I","image_png":"I_Rhyolite_08.png","image_id":152,"category_name":"Rhyolite","category":10,"distinct_rating":1.38,"distinct_type":"Bottom","rt":null,"stimulus":"Stimuli_Rocks480/I_Rhyolite_08.png","response":null,"trial_type":"image-keyboard-response","trial_index":38,"plugin_version":"2.1.0","time_elapsed":158943,"subject_id":"90811","group":"Group2","condition":"1_Rep","full_date":"2026-01-26T23:00:20.628Z","date":"2026-01-26","time":"23:00:20"},{"rt":null,"stimulus":"<p style=\"font-size: 50px; margin: 0; text-align: center;\">+</p>","response":null,"trial_type":"html-keyboard-response","trial_index":39,"plugin_version":"2.1.0","time_elapsed":159947,"subject_id":"90811","group":"Group2","condition":"1_Rep","full_date":"2026-01-26T23:00:20.628Z","date":"2026-01-26","time":"23:00:20"},{"task":"memory_phase","broad_category":"S","image_png":"S_Rock Salt_15.png","image_id":447,"category_name":"Rock Salt","category":28,"distinct_rating":7.79,"distinct_type":"Top","rt":null,"stimulus":"Stimuli_Rocks480/S_Rock Salt_15.png","response":null,"trial_type":"image-keyboard-response","trial_index":40,"plugin_version":"2.1.0","time_elapsed":162451,"subject_id":"90811","group":"Group2","condition":"1_Rep","full_date":"2026-01-26T23:00:20.628Z","date":"2026-01-26","time":"23:00:20"},{"rt":null,"stimulus":"<p style=\"font-size: 50px; margin: 0; text-align: center;\">+</p>","response":null,"trial_type":"html-keyboard-response","trial_index":41,"plugin_version":"2.1.0","time_elapsed":163453,"subject_id":"90811","group":"Group2","condition":"1_Rep","full_date":"2026-01-26T23:00:20.628Z","date":"2026-01-26","time":"23:00:20"},{"task":"memory_phase","broad_category":"S","image_png":"S_Sandstone_11.png","image_id":459,"category_name":"Sandstone","category":29,"distinct_rating":1.82,"distinct_type":"Bottom","rt":null,"stimulus":"Stimuli_Rocks480/S_Sandstone_11.png","response":null,"trial_type":"image-keyboard-response","trial_index":42,"plugin_version":"2.1.0","time_elapsed":165957,"subject_id":"90811","group":"Group2","condition":"1_Rep","full_date":"2026-01-26T23:00:20.628Z","date":"2026-01-26","time":"23:00:20"},{"rt":null,"stimulus":"<p style=\"font-size: 50px; margin: 0; text-align: center;\">+</p>","response":null,"trial_type":"html-keyboard-response","trial_index":43,"plugin_version":"2.1.0","time_elapsed":166960,"subject_id":"90811","group":"Group2","condition":"1_Rep","full_date":"2026-01-26T23:00:20.628Z","date":"2026-01-26","time":"23:00:20"},{"task":"memory_phase","broad_category":"M","image_png":"M_Slate_10.png","image_id":314,"category_name":"Slate","category":20,"distinct_rating":1.94,"distinct_type":"Bottom","rt":null,"stimulus":"Stimuli_Rocks480/M_Slate_10.png","response":null,"trial_type":"image-keyboard-response","trial_index":44,"plugin_version":"2.1.0","time_elapsed":169465,"subject_id":"90811","group":"Group2","condition":"1_Rep","full_date":"2026-01-26T23:00:20.628Z","date":"2026-01-26","time":"23:00:20"},{"rt":null,"stimulus":"<p style=\"font-size: 50px; margin: 0; text-align: center;\">+</p>","response":null,"trial_type":"html-keyboard-response","trial_index":45,"plugin_version":"2.1.0","time_elapsed":170468,"subject_id":"90811","group":"Group2","condition":"1_Rep","full_date":"2026-01-26T23:00:20.628Z","date":"2026-01-26","time":"23:00:20"},{"task":"memory_phase","broad_category":"M","image_png":"M_Gneiss_14.png","image_id":206,"category_name":"Gneiss","category":13,"distinct_rating":3.41,"distinct_type":"Bottom","rt":null,"stimulus":"Stimuli_Rocks480/M_Gneiss_14.png","response":null,"trial_type":"image-keyboard-response","trial_index":46,"plugin_version":"2.1.0","time_elapsed":172972,"subject_id":"90811","group":"Group2","condition":"1_Rep","full_date":"2026-01-26T23:00:20.628Z","date":"2026-01-26","time":"23:00:20"},{"rt":null,"stimulus":"<p style=\"font-size: 50px; margin: 0; text-align: center;\">+</p>","response":null,"trial_type":"html-keyboard-response","trial_index":47,"plugin_version":"2.1.0","time_elapsed":173973,"subject_id":"90811","group":"Group2","condition":"1_Rep","full_date":"2026-01-26T23:00:20.628Z","date":"2026-01-26","time":"23:00:20"},{"task":"memory_phase","broad_category":"I","image_png":"I_Diorite_01.png","image_id":33,"category_name":"Diorite","category":3,"distinct_rating":2.97,"distinct_type":"Bottom","rt":null,"stimulus":"Stimuli_Rocks480/I_Diorite_01.png","response":null,"trial_type":"image-keyboard-response","trial_index":48,"plugin_version":"2.1.0","time_elapsed":176477,"subject_id":"90811","group":"Group2","condition":"1_Rep","full_date":"2026-01-26T23:00:20.628Z","date":"2026-01-26","time":"23:00:20"},{"rt":null,"stimulus":"<p style=\"font-size: 50px; margin: 0; text-align: center;\">+</p>","response":null,"trial_type":"html-keyboard-response","trial_index":49,"plugin_version":"2.1.0","time_elapsed":177480,"subject_id":"90811","group":"Group2","condition":"1_Rep","full_date":"2026-01-26T23:00:20.628Z","date":"2026-01-26","time":"23:00:20"},{"task":"memory_phase","broad_category":"S","image_png":"S_Dolomite_01.png","image_id":385,"category_name":"Dolomite","category":25,"distinct_rating":1.43,"distinct_type":"Bottom","rt":null,"stimulus":"Stimuli_Rocks480/S_Dolomite_01.png","response":null,"trial_type":"image-keyboard-response","trial_index":50,"plugin_version":"2.1.0","time_elapsed":179984,"subject_id":"90811","group":"Group2","condition":"1_Rep","full_date":"2026-01-26T23:00:20.628Z","date":"2026-01-26","time":"23:00:20"},{"rt":null,"stimulus":"<p style=\"font-size: 50px; margin: 0; text-align: center;\">+</p>","response":null,"trial_type":"html-keyboard-response","trial_index":51,"plugin_version":"2.1.0","time_elapsed":180987,"subject_id":"90811","group":"Group2","condition":"1_Rep","full_date":"2026-01-26T23:00:20.628Z","date":"2026-01-26","time":"23:00:20"},{"task":"memory_phase","broad_category":"S","image_png":"S_Shale_02.png","image_id":466,"category_name":"Shale","category":30,"distinct_rating":2.9,"distinct_type":"Bottom","rt":null,"stimulus":"Stimuli_Rocks480/S_Shale_02.png","response":null,"trial_type":"image-keyboard-response","trial_index":52,"plugin_version":"2.1.0","time_elapsed":183491,"subject_id":"90811","group":"Group2","condition":"1_Rep","full_date":"2026-01-26T23:00:20.628Z","date":"2026-01-26","time":"23:00:20"},{"rt":null,"stimulus":"<p style=\"font-size: 50px; margin: 0; text-align: center;\">+</p>","response":null,"trial_type":"html-keyboard-response","trial_index":53,"plugin_version":"2.1.0","time_elapsed":184494,"subject_id":"90811","group":"Group2","condition":"1_Rep","full_date":"2026-01-26T23:00:20.628Z","date":"2026-01-26","time":"23:00:20"},{"task":"memory_phase","broad_category":"I","image_png":"I_Obsidian_06.png","image_id":86,"category_name":"Obsidian","category":6,"distinct_rating":8.01,"distinct_type":"Top","rt":null,"stimulus":"Stimuli_Rocks480/I_Obsidian_06.png","response":null,"trial_type":"image-keyboard-response","trial_index":54,"plugin_version":"2.1.0","time_elapsed":186997,"subject_id":"90811","group":"Group2","condition":"1_Rep","full_date":"2026-01-26T23:00:20.628Z","date":"2026-01-26","time":"23:00:20"},{"rt":2008,"stimulus":"<p style=\"max-width: 760px; margin: auto; font-size: 35px; line-height: 1.5;\">\n                Press SPACE to continue study phase\n              </p>","response":" ","trial_type":"html-keyboard-response","trial_index":55,"plugin_version":"2.1.0","time_elapsed":189007,"subject_id":"90811","group":"Group2","condition":"1_Rep","full_date":"2026-01-26T23:00:20.628Z","date":"2026-01-26","time":"23:00:20"},{"rt":null,"stimulus":"<p style=\"font-size: 50px; margin: 0; text-align: center;\">+</p>","response":null,"trial_type":"html-keyboard-response","trial_index":56,"plugin_version":"2.1.0","time_elapsed":190010,"subject_id":"90811","group":"Group2","condition":"1_Rep","full_date":"2026-01-26T23:00:20.628Z","date":"2026-01-26","time":"23:00:20"},{"task":"memory_phase","broad_category":"S","image_png":"S_Dolomite_16.png","image_id":400,"category_name":"Dolomite","category":25,"distinct_rating":1.71,"distinct_type":"Bottom","rt":null,"stimulus":"Stimuli_Rocks480/S_Dolomite_16.png","response":null,"trial_type":"image-keyboard-response","trial_index":57,"plugin_version":"2.1.0","time_elapsed":192514,"subject_id":"90811","group":"Group2","condition":"1_Rep","full_date":"2026-01-26T23:00:20.628Z","date":"2026-01-26","time":"23:00:20"},{"rt":null,"stimulus":"<p style=\"font-size: 50px; margin: 0; text-align: center;\">+</p>","response":null,"trial_type":"html-keyboard-response","trial_index":58,"plugin_version":"2.1.0","time_elapsed":193517,"subject_id":"90811","group":"Group2","condition":"1_Rep","full_date":"2026-01-26T23:00:20.628Z","date":"2026-01-26","time":"23:00:20"},{"task":"memory_phase","broad_category":"I","image_png":"I_Gabbro_02.png","image_id":50,"category_name":"Gabbro","category":4,"distinct_rating":2.73,"distinct_type":"Bottom","rt":null,"stimulus":"Stimuli_Rocks480/I_Gabbro_02.png","response":null,"trial_type":"image-keyboard-response","trial_index":59,"plugin_version":"2.1.0","time_elapsed":196021,"subject_id":"90811","group":"Group2","condition":"1_Rep","full_date":"2026-01-26T23:00:20.628Z","date":"2026-01-26","time":"23:00:20"},{"rt":null,"stimulus":"<p style=\"font-size: 50px; margin: 0; text-align: center;\">+</p>","response":null,"trial_type":"html-keyboard-response","trial_index":60,"plugin_version":"2.1.0","time_elapsed":197024,"subject_id":"90811","group":"Group2","condition":"1_Rep","full_date":"2026-01-26T23:00:20.628Z","date":"2026-01-26","time":"23:00:20"},{"task":"memory_phase","broad_category":"I","image_png":"I_Peridotite_13.png","image_id":125,"category_name":"Peridotite","category":8,"distinct_rating":7.28,"distinct_type":"Top","rt":null,"stimulus":"Stimuli_Rocks480/I_Peridotite_13.png","response":null,"trial_type":"image-keyboard-response","trial_index":61,"plugin_version":"2.1.0","time_elapsed":199529,"subject_id":"90811","group":"Group2","condition":"1_Rep","full_date":"2026-01-26T23:00:20.628Z","date":"2026-01-26","time":"23:00:20"},{"rt":null,"stimulus":"<p style=\"font-size: 50px; margin: 0; text-align: center;\">+</p>","response":null,"trial_type":"html-keyboard-response","trial_index":62,"plugin_version":"2.1.0","time_elapsed":200533,"subject_id":"90811","group":"Group2","condition":"1_Rep","full_date":"2026-01-26T23:00:20.628Z","date":"2026-01-26","time":"23:00:20"},{"task":"memory_phase","broad_category":"I","image_png":"I_Gabbro_12.png","image_id":60,"category_name":"Gabbro","category":4,"distinct_rating":2.6,"distinct_type":"Bottom","rt":null,"stimulus":"Stimuli_Rocks480/I_Gabbro_12.png","response":null,"trial_type":"image-keyboard-response","trial_index":63,"plugin_version":"2.1.0","time_elapsed":203037,"subject_id":"90811","group":"Group2","condition":"1_Rep","full_date":"2026-01-26T23:00:20.628Z","date":"2026-01-26","time":"23:00:20"},{"rt":null,"stimulus":"<p style=\"font-size: 50px; margin: 0; text-align: center;\">+</p>","response":null,"trial_type":"html-keyboard-response","trial_index":64,"plugin_version":"2.1.0","time_elapsed":204040,"subject_id":"90811","group":"Group2","condition":"1_Rep","full_date":"2026-01-26T23:00:20.628Z","date":"2026-01-26","time":"23:00:20"},{"task":"memory_phase","broad_category":"S","image_png":"S_Sandstone_08.png","image_id":456,"category_name":"Sandstone","category":29,"distinct_rating":1.5,"distinct_type":"Bottom","rt":null,"stimulus":"Stimuli_Rocks480/S_Sandstone_08.png","response":null,"trial_type":"image-keyboard-response","trial_index":65,"plugin_version":"2.1.0","time_elapsed":206544,"subject_id":"90811","group":"Group2","condition":"1_Rep","full_date":"2026-01-26T23:00:20.628Z","date":"2026-01-26","time":"23:00:20"},{"rt":null,"stimulus":"<p style=\"font-size: 50px; margin: 0; text-align: center;\">+</p>","response":null,"trial_type":"html-keyboard-response","trial_index":66,"plugin_version":"2.1.0","time_elapsed":207546,"subject_id":"90811","group":"Group2","condition":"1_Rep","full_date":"2026-01-26T23:00:20.628Z","date":"2026-01-26","time":"23:00:20"},{"task":"memory_phase","broad_category":"M","image_png":"M_Gneiss_15.png","image_id":207,"category_name":"Gneiss","category":13,"distinct_rating":3.11,"distinct_type":"Bottom","rt":null,"stimulus":"Stimuli_Rocks480/M_Gneiss_15.png","response":null,"trial_type":"image-keyboard-response","trial_index":67,"plugin_version":"2.1.0","time_elapsed":210050,"subject_id":"90811","group":"Group2","condition":"1_Rep","full_date":"2026-01-26T23:00:20.628Z","date":"2026-01-26","time":"23:00:20"},{"rt":null,"stimulus":"<p style=\"font-size: 50px; margin: 0; text-align: center;\">+</p>","response":null,"trial_type":"html-keyboard-response","trial_index":68,"plugin_version":"2.1.0","time_elapsed":211053,"subject_id":"90811","group":"Group2","condition":"1_Rep","full_date":"2026-01-26T23:00:20.628Z","date":"2026-01-26","time":"23:00:20"},{"task":"memory_phase","broad_category":"I","image_png":"I_Pegmatite_03.png","image_id":99,"category_name":"Pegmatite","category":7,"distinct_rating":7.24,"distinct_type":"Top","rt":null,"stimulus":"Stimuli_Rocks480/I_Pegmatite_03.png","response":null,"trial_type":"image-keyboard-response","trial_index":69,"plugin_version":"2.1.0","time_elapsed":213557,"subject_id":"90811","group":"Group2","condition":"1_Rep","full_date":"2026-01-26T23:00:20.628Z","date":"2026-01-26","time":"23:00:20"},{"rt":null,"stimulus":"<p style=\"font-size: 50px; margin: 0; text-align: center;\">+</p>","response":null,"trial_type":"html-keyboard-response","trial_index":70,"plugin_version":"2.1.0","time_elapsed":214560,"subject_id":"90811","group":"Group2","condition":"1_Rep","full_date":"2026-01-26T23:00:20.628Z","date":"2026-01-26","time":"23:00:20"},{"task":"memory_phase","broad_category":"I","image_png":"I_Pumice_01.png","image_id":129,"category_name":"Pumice","category":9,"distinct_rating":3.25,"distinct_type":"Bottom","rt":null,"stimulus":"Stimuli_Rocks480/I_Pumice_01.png","response":null,"trial_type":"image-keyboard-response","trial_index":71,"plugin_version":"2.1.0","time_elapsed":217064,"subject_id":"90811","group":"Group2","condition":"1_Rep","full_date":"2026-01-26T23:00:20.628Z","date":"2026-01-26","time":"23:00:20"},{"rt":null,"stimulus":"<p style=\"font-size: 50px; margin: 0; text-align: center;\">+</p>","response":null,"trial_type":"html-keyboard-response","trial_index":72,"plugin_version":"2.1.0","time_elapsed":218066,"subject_id":"90811","group":"Group2","condition":"1_Rep","full_date":"2026-01-26T23:00:20.628Z","date":"2026-01-26","time":"23:00:20"},{"task":"memory_phase","broad_category":"M","image_png":"M_Marble_02.png","image_id":226,"category_name":"Marble","category":15,"distinct_rating":3.2,"distinct_type":"Bottom","rt":null,"stimulus":"Stimuli_Rocks480/M_Marble_02.png","response":null,"trial_type":"image-keyboard-response","trial_index":73,"plugin_version":"2.1.0","time_elapsed":220570,"subject_id":"90811","group":"Group2","condition":"1_Rep","full_date":"2026-01-26T23:00:20.628Z","date":"2026-01-26","time":"23:00:20"},{"rt":null,"stimulus":"<p style=\"font-size: 50px; margin: 0; text-align: center;\">+</p>","response":null,"trial_type":"html-keyboard-response","trial_index":74,"plugin_version":"2.1.0","time_elapsed":221573,"subject_id":"90811","group":"Group2","condition":"1_Rep","full_date":"2026-01-26T23:00:20.628Z","date":"2026-01-26","time":"23:00:20"},{"task":"memory_phase","broad_category":"M","image_png":"M_Phyllite_02.png","image_id":258,"category_name":"Phyllite","category":17,"distinct_rating":2.89,"distinct_type":"Bottom","rt":null,"stimulus":"Stimuli_Rocks480/M_Phyllite_02.png","response":null,"trial_type":"image-keyboard-response","trial_index":75,"plugin_version":"2.1.0","time_elapsed":224077,"subject_id":"90811","group":"Group2","condition":"1_Rep","full_date":"2026-01-26T23:00:20.628Z","date":"2026-01-26","time":"23:00:20"},{"rt":null,"stimulus":"<p style=\"font-size: 50px; margin: 0; text-align: center;\">+</p>","response":null,"trial_type":"html-keyboard-response","trial_index":76,"plugin_version":"2.1.0","time_elapsed":225079,"subject_id":"90811","group":"Group2","condition":"1_Rep","full_date":"2026-01-26T23:00:20.628Z","date":"2026-01-26","time":"23:00:20"},{"task":"memory_phase","broad_category":"M","image_png":"M_Gneiss_10.png","image_id":202,"category_name":"Gneiss","category":13,"distinct_rating":3.09,"distinct_type":"Bottom","rt":null,"stimulus":"Stimuli_Rocks480/M_Gneiss_10.png","response":null,"trial_type":"image-keyboard-response","trial_index":77,"plugin_version":"2.1.0","time_elapsed":227584,"subject_id":"90811","group":"Group2","condition":"1_Rep","full_date":"2026-01-26T23:00:20.628Z","date":"2026-01-26","time":"23:00:20"},{"rt":null,"stimulus":"<p style=\"font-size: 50px; margin: 0; text-align: center;\">+</p>","response":null,"trial_type":"html-keyboard-response","trial_index":78,"plugin_version":"2.1.0","time_elapsed":228587,"subject_id":"90811","group":"Group2","condition":"1_Rep","full_date":"2026-01-26T23:00:20.628Z","date":"2026-01-26","time":"23:00:20"},{"task":"memory_phase","broad_category":"I","image_png":"I_Diorite_15.png","image_id":47,"category_name":"Diorite","category":3,"distinct_rating":3.05,"distinct_type":"Bottom","rt":null,"stimulus":"Stimuli_Rocks480/I_Diorite_15.png","response":null,"trial_type":"image-keyboard-response","trial_index":79,"plugin_version":"2.1.0","time_elapsed":231091,"subject_id":"90811","group":"Group2","condition":"1_Rep","full_date":"2026-01-26T23:00:20.628Z","date":"2026-01-26","time":"23:00:20"},{"rt":null,"stimulus":"<p style=\"font-size: 50px; margin: 0; text-align: center;\">+</p>","response":null,"trial_type":"html-keyboard-response","trial_index":80,"plugin_version":"2.1.0","time_elapsed":232094,"subject_id":"90811","group":"Group2","condition":"1_Rep","full_date":"2026-01-26T23:00:20.628Z","date":"2026-01-26","time":"23:00:20"},{"task":"memory_phase","broad_category":"M","image_png":"M_Marble_03.png","image_id":227,"category_name":"Marble","category":15,"distinct_rating":2.67,"distinct_type":"Bottom","rt":null,"stimulus":"Stimuli_Rocks480/M_Marble_03.png","response":null,"trial_type":"image-keyboard-response","trial_index":81,"plugin_version":"2.1.0","time_elapsed":234597,"subject_id":"90811","group":"Group2","condition":"1_Rep","full_date":"2026-01-26T23:00:20.628Z","date":"2026-01-26","time":"23:00:20"},{"rt":null,"stimulus":"<p style=\"font-size: 50px; margin: 0; text-align: center;\">+</p>","response":null,"trial_type":"html-keyboard-response","trial_index":82,"plugin_version":"2.1.0","time_elapsed":235601,"subject_id":"90811","group":"Group2","condition":"1_Rep","full_date":"2026-01-26T23:00:20.628Z","date":"2026-01-26","time":"23:00:20"},{"task":"memory_phase","broad_category":"S","image_png":"S_Chert_13.png","image_id":365,"category_name":"Chert","category":23,"distinct_rating":6.57,"distinct_type":"Top","rt":null,"stimulus":"Stimuli_Rocks480/S_Chert_13.png","response":null,"trial_type":"image-keyboard-response","trial_index":83,"plugin_version":"2.1.0","time_elapsed":238105,"subject_id":"90811","group":"Group2","condition":"1_Rep","full_date":"2026-01-26T23:00:20.628Z","date":"2026-01-26","time":"23:00:20"},{"rt":null,"stimulus":"<p style=\"font-size: 50px; margin: 0; text-align: center;\">+</p>","response":null,"trial_type":"html-keyboard-response","trial_index":84,"plugin_version":"2.1.0","time_elapsed":239108,"subject_id":"90811","group":"Group2","condition":"1_Rep","full_date":"2026-01-26T23:00:20.628Z","date":"2026-01-26","time":"23:00:20"},{"task":"memory_phase","broad_category":"S","image_png":"S_Conglomerate_14.png","image_id":382,"category_name":"Conglomerate","category":24,"distinct_rating":6.86,"distinct_type":"Top","rt":null,"stimulus":"Stimuli_Rocks480/S_Conglomerate_14.png","response":null,"trial_type":"image-keyboard-response","trial_index":85,"plugin_version":"2.1.0","time_elapsed":241613,"subject_id":"90811","group":"Group2","condition":"1_Rep","full_date":"2026-01-26T23:00:20.628Z","date":"2026-01-26","time":"23:00:20"},{"rt":null,"stimulus":"<p style=\"font-size: 50px; margin: 0; text-align: center;\">+</p>","response":null,"trial_type":"html-keyboard-response","trial_index":86,"plugin_version":"2.1.0","time_elapsed":242616,"subject_id":"90811","group":"Group2","condition":"1_Rep","full_date":"2026-01-26T23:00:20.628Z","date":"2026-01-26","time":"23:00:20"},{"task":"memory_phase","broad_category":"I","image_png":"I_Pumice_14.png","image_id":142,"category_name":"Pumice","category":9,"distinct_rating":3.22,"distinct_type":"Bottom","rt":null,"stimulus":"Stimuli_Rocks480/I_Pumice_14.png","response":null,"trial_type":"image-keyboard-response","trial_index":87,"plugin_version":"2.1.0","time_elapsed":245120,"subject_id":"90811","group":"Group2","condition":"1_Rep","full_date":"2026-01-26T23:00:20.628Z","date":"2026-01-26","time":"23:00:20"},{"rt":null,"stimulus":"<p style=\"font-size: 50px; margin: 0; text-align: center;\">+</p>","response":null,"trial_type":"html-keyboard-response","trial_index":88,"plugin_version":"2.1.0","time_elapsed":246124,"subject_id":"90811","group":"Group2","condition":"1_Rep","full_date":"2026-01-26T23:00:20.628Z","date":"2026-01-26","time":"23:00:20"},{"task":"memory_phase","broad_category":"I","image_png":"I_Basalt_13.png","image_id":29,"category_name":"Basalt","category":2,"distinct_rating":2.68,"distinct_type":"Bottom","rt":null,"stimulus":"Stimuli_Rocks480/I_Basalt_13.png","response":null,"trial_type":"image-keyboard-response","trial_index":89,"plugin_version":"2.1.0","time_elapsed":248628,"subject_id":"90811","group":"Group2","condition":"1_Rep","full_date":"2026-01-26T23:00:20.628Z","date":"2026-01-26","time":"23:00:20"},{"rt":null,"stimulus":"<p style=\"font-size: 50px; margin: 0; text-align: center;\">+</p>","response":null,"trial_type":"html-keyboard-response","trial_index":90,"plugin_version":"2.1.0","time_elapsed":249630,"subject_id":"90811","group":"Group2","condition":"1_Rep","full_date":"2026-01-26T23:00:20.628Z","date":"2026-01-26","time":"23:00:20"},{"task":"memory_phase","broad_category":"S","image_png":"S_Shale_03.png","image_id":467,"category_name":"Shale","category":30,"distinct_rating":1.95,"distinct_type":"Bottom","rt":null,"stimulus":"Stimuli_Rocks480/S_Shale_03.png","response":null,"trial_type":"image-keyboard-response","trial_index":91,"plugin_version":"2.1.0","time_elapsed":252134,"subject_id":"90811","group":"Group2","condition":"1_Rep","full_date":"2026-01-26T23:00:20.628Z","date":"2026-01-26","time":"23:00:20"},{"rt":null,"stimulus":"<p style=\"font-size: 50px; margin: 0; text-align: center;\">+</p>","response":null,"trial_type":"html-keyboard-response","trial_index":92,"plugin_version":"2.1.0","time_elapsed":253137,"subject_id":"90811","group":"Group2","condition":"1_Rep","full_date":"2026-01-26T23:00:20.628Z","date":"2026-01-26","time":"23:00:20"},{"task":"memory_phase","broad_category":"I","image_png":"I_Pegmatite_11.png","image_id":107,"category_name":"Pegmatite","category":7,"distinct_rating":7.11,"distinct_type":"Top","rt":null,"stimulus":"Stimuli_Rocks480/I_Pegmatite_11.png","response":null,"trial_type":"image-keyboard-response","trial_index":93,"plugin_version":"2.1.0","time_elapsed":255641,"subject_id":"90811","group":"Group2","condition":"1_Rep","full_date":"2026-01-26T23:00:20.628Z","date":"2026-01-26","time":"23:00:20"},{"rt":null,"stimulus":"<p style=\"font-size: 50px; margin: 0; text-align: center;\">+</p>","response":null,"trial_type":"html-keyboard-response","trial_index":94,"plugin_version":"2.1.0","time_elapsed":256644,"subject_id":"90811","group":"Group2","condition":"1_Rep","full_date":"2026-01-26T23:00:20.628Z","date":"2026-01-26","time":"23:00:20"},{"task":"memory_phase","broad_category":"M","image_png":"M_Quartzite_12.png","image_id":284,"category_name":"Quartzite","category":18,"distinct_rating":1.92,"distinct_type":"Bottom","rt":null,"stimulus":"Stimuli_Rocks480/M_Quartzite_12.png","response":null,"trial_type":"image-keyboard-response","trial_index":95,"plugin_version":"2.1.0","time_elapsed":259148,"subject_id":"90811","group":"Group2","condition":"1_Rep","full_date":"2026-01-26T23:00:20.628Z","date":"2026-01-26","time":"23:00:20"},{"rt":null,"stimulus":"<p style=\"font-size: 50px; margin: 0; text-align: center;\">+</p>","response":null,"trial_type":"html-keyboard-response","trial_index":96,"plugin_version":"2.1.0","time_elapsed":260150,"subject_id":"90811","group":"Group2","condition":"1_Rep","full_date":"2026-01-26T23:00:20.628Z","date":"2026-01-26","time":"23:00:20"},{"task":"memory_phase","broad_category":"M","image_png":"M_Marble_14.png","image_id":238,"category_name":"Marble","category":15,"distinct_rating":3.31,"distinct_type":"Bottom","rt":null,"stimulus":"Stimuli_Rocks480/M_Marble_14.png","response":null,"trial_type":"image-keyboard-response","trial_index":97,"plugin_version":"2.1.0","time_elapsed":262654,"subject_id":"90811","group":"Group2","condition":"1_Rep","full_date":"2026-01-26T23:00:20.628Z","date":"2026-01-26","time":"23:00:20"},{"rt":null,"stimulus":"<p style=\"font-size: 50px; margin: 0; text-align: center;\">+</p>","response":null,"trial_type":"html-keyboard-response","trial_index":98,"plugin_version":"2.1.0","time_elapsed":263657,"subject_id":"90811","group":"Group2","condition":"1_Rep","full_date":"2026-01-26T23:00:20.628Z","date":"2026-01-26","time":"23:00:20"},{"task":"memory_phase","broad_category":"I","image_png":"I_Pumice_13.png","image_id":141,"category_name":"Pumice","category":9,"distinct_rating":3.12,"distinct_type":"Bottom","rt":null,"stimulus":"Stimuli_Rocks480/I_Pumice_13.png","response":null,"trial_type":"image-keyboard-response","trial_index":99,"plugin_version":"2.1.0","time_elapsed":266161,"subject_id":"90811","group":"Group2","condition":"1_Rep","full_date":"2026-01-26T23:00:20.628Z","date":"2026-01-26","time":"23:00:20"},{"rt":null,"stimulus":"<p style=\"font-size: 50px; margin: 0; text-align: center;\">+</p>","response":null,"trial_type":"html-keyboard-response","trial_index":100,"plugin_version":"2.1.0","time_elapsed":267163,"subject_id":"90811","group":"Group2","condition":"1_Rep","full_date":"2026-01-26T23:00:20.628Z","date":"2026-01-26","time":"23:00:20"},{"task":"memory_phase","broad_category":"M","image_png":"M_Quartzite_15.png","image_id":287,"category_name":"Quartzite","category":18,"distinct_rating":2.19,"distinct_type":"Bottom","rt":null,"stimulus":"Stimuli_Rocks480/M_Quartzite_15.png","response":null,"trial_type":"image-keyboard-response","trial_index":101,"plugin_version":"2.1.0","time_elapsed":269667,"subject_id":"90811","group":"Group2","condition":"1_Rep","full_date":"2026-01-26T23:00:20.628Z","date":"2026-01-26","time":"23:00:20"},{"rt":null,"stimulus":"<p style=\"font-size: 50px; margin: 0; text-align: center;\">+</p>","response":null,"trial_type":"html-keyboard-response","trial_index":102,"plugin_version":"2.1.0","time_elapsed":270670,"subject_id":"90811","group":"Group2","condition":"1_Rep","full_date":"2026-01-26T23:00:20.628Z","date":"2026-01-26","time":"23:00:20"},{"task":"memory_phase","broad_category":"I","image_png":"I_Rhyolite_05.png","image_id":149,"category_name":"Rhyolite","category":10,"distinct_rating":3.02,"distinct_type":"Bottom","rt":null,"stimulus":"Stimuli_Rocks480/I_Rhyolite_05.png","response":null,"trial_type":"image-keyboard-response","trial_index":103,"plugin_version":"2.1.0","time_elapsed":273174,"subject_id":"90811","group":"Group2","condition":"1_Rep","full_date":"2026-01-26T23:00:20.628Z","date":"2026-01-26","time":"23:00:20"},{"rt":null,"stimulus":"<p style=\"font-size: 50px; margin: 0; text-align: center;\">+</p>","response":null,"trial_type":"html-keyboard-response","trial_index":104,"plugin_version":"2.1.0","time_elapsed":274177,"subject_id":"90811","group":"Group2","condition":"1_Rep","full_date":"2026-01-26T23:00:20.628Z","date":"2026-01-26","time":"23:00:20"},{"task":"memory_phase","broad_category":"S","image_png":"S_Rock Salt_13.png","image_id":445,"category_name":"Rock Salt","category":28,"distinct_rating":7.58,"distinct_type":"Top","rt":null,"stimulus":"Stimuli_Rocks480/S_Rock Salt_13.png","response":null,"trial_type":"image-keyboard-response","trial_index":105,"plugin_version":"2.1.0","time_elapsed":276681,"subject_id":"90811","group":"Group2","condition":"1_Rep","full_date":"2026-01-26T23:00:20.628Z","date":"2026-01-26","time":"23:00:20"},{"rt":22041,"stimulus":"<div style=\"max-width: 760px; margin: auto; font-size: 20px; line-height: 1.5;\">\n      <h1 style=\"text-align:center; font-size: 30px;\">Instructions for the Test Phase</h1>\n      <p>\n        The study phase is now complete.\n      </p>\n      <p>\n        In the test phase, you will again see a series of rock images. \n        Some will be ones you saw before - during the study phase, while others will be new.  \n        <b>Your task</b> is to decide whether you have seen each image before by pressing the corresponding key on your keyboard:<br><br>\n          <b>A</b> - NO (you did not see this image before)<br>\n          <b>L</b> - YES (you saw this image before)<br><br>\n        The test will proceed at your own pace. You will receive feedback after each response.  \n        Please try to respond <b>as accurately as possible</b>.\n      </p>\n      <p>\n        <b>Reminder:</b> If your computer has multiple language settings (e.g., English and another language),\n        please ensure it is set to English during the test phase.\n      </p>\n      <p>\n        You can track your progress using the <b>completion bar</b> at the top of the screen.  \n        Note that it has been refreshed to reflect your progress during this final phase.\n      </p>\n      <p>\n        Press the button below when you are ready to continue.\n      </p>\n    </div>","response":0,"trial_type":"html-button-response","trial_index":106,"plugin_version":"2.1.0","time_elapsed":298725,"subject_id":"90811","group":"Group2","condition":"1_Rep","full_date":"2026-01-26T23:00:20.628Z","date":"2026-01-26","time":"23:00:20"},{"correct_response":"a","task":"test_phase","broad_category":"I","image_png":"I_Pumice_11.png","image_id":139,"category_name":"Pumice","category":9,"distinct_rating":1.74,"distinct_type":"Bottom","item_type":"Foil","rt":3319,"stimulus":"Stimuli_Rocks480/I_Pumice_11.png","response":"a","trial_type":"image-keyboard-response","trial_index":107,"plugin_version":"2.1.0","time_elapsed":302048,"subject_id":"90811","group":"Group2","condition":"1_Rep","full_date":"2026-01-26T23:00:20.628Z","date":"2026-01-26","time":"23:00:20","cor_ans":true},{"trial_type":"html-keyboard-response","rt":null,"stimulus":"<p style=\"color: green; font-size: 50px; font-weight: bold;\">Correct</p>","response":null,"trial_index":108,"plugin_version":"2.1.0","time_elapsed":302550,"subject_id":"90811","group":"Group2","condition":"1_Rep","full_date":"2026-01-26T23:00:20.628Z","date":"2026-01-26","time":"23:00:20"},{"correct_response":"l","task":"test_phase","broad_category":"S","image_png":"S_Dolomite_07.png","image_id":391,"category_name":"Dolomite","category":25,"distinct_rating":1.73,"distinct_type":"Bottom","item_type":"Target","rt":1400,"stimulus":"Stimuli_Rocks480/S_Dolomite_07.png","response":"l","trial_type":"image-keyboard-response","trial_index":109,"plugin_version":"2.1.0","time_elapsed":303953,"subject_id":"90811","group":"Group2","condition":"1_Rep","full_date":"2026-01-26T23:00:20.628Z","date":"2026-01-26","time":"23:00:20","cor_ans":true},{"trial_type":"html-keyboard-response","rt":null,"stimulus":"<p style=\"color: green; font-size: 50px; font-weight: bold;\">Correct</p>","response":null,"trial_index":110,"plugin_version":"2.1.0","time_elapsed":304455,"subject_id":"90811","group":"Group2","condition":"1_Rep","full_date":"2026-01-26T23:00:20.628Z","date":"2026-01-26","time":"23:00:20"},{"correct_response":"a","task":"test_phase","broad_category":"M","image_png":"M_Slate_15.png","image_id":319,"category_name":"Slate","category":20,"distinct_rating":2.13,"distinct_type":"Bottom","item_type":"Foil","rt":1574,"stimulus":"Stimuli_Rocks480/M_Slate_15.png","response":"a","trial_type":"image-keyboard-response","trial_index":111,"plugin_version":"2.1.0","time_elapsed":306031,"subject_id":"90811","group":"Group2","condition":"1_Rep","full_date":"2026-01-26T23:00:20.628Z","date":"2026-01-26","time":"23:00:20","cor_ans":true},{"trial_type":"html-keyboard-response","rt":null,"stimulus":"<p style=\"color: green; font-size: 50px; font-weight: bold;\">Correct</p>","response":null,"trial_index":112,"plugin_version":"2.1.0","time_elapsed":306533,"subject_id":"90811","group":"Group2","condition":"1_Rep","full_date":"2026-01-26T23:00:20.628Z","date":"2026-01-26","time":"23:00:20"},{"correct_response":"a","task":"test_phase","broad_category":"I","image_png":"I_Andesite_08.png","image_id":8,"category_name":"Andesite","category":1,"distinct_rating":1.95,"distinct_type":"Bottom","item_type":"Foil","rt":1245,"stimulus":"Stimuli_Rocks480/I_Andesite_08.png","response":"l","trial_type":"image-keyboard-response","trial_index":113,"plugin_version":"2.1.0","time_elapsed":307780,"subject_id":"90811","group":"Group2","condition":"1_Rep","full_date":"2026-01-26T23:00:20.628Z","date":"2026-01-26","time":"23:00:20","cor_ans":false},{"trial_type":"html-keyboard-response","rt":null,"stimulus":"<p style=\"color: red; font-size: 50px; font-weight: bold;\">Incorrect</p>","response":null,"trial_index":114,"plugin_version":"2.1.0","time_elapsed":308281,"subject_id":"90811","group":"Group2","condition":"1_Rep","full_date":"2026-01-26T23:00:20.628Z","date":"2026-01-26","time":"23:00:20"},{"correct_response":"a","task":"test_phase","broad_category":"S","image_png":"S_Shale_12.png","image_id":476,"category_name":"Shale","category":30,"distinct_rating":2.48,"distinct_type":"Bottom","item_type":"Foil","rt":1996,"stimulus":"Stimuli_Rocks480/S_Shale_12.png","response":"a","trial_type":"image-keyboard-response","trial_index":115,"plugin_version":"2.1.0","time_elapsed":310280,"subject_id":"90811","group":"Group2","condition":"1_Rep","full_date":"2026-01-26T23:00:20.628Z","date":"2026-01-26","time":"23:00:20","cor_ans":true},{"trial_type":"html-keyboard-response","rt":null,"stimulus":"<p style=\"color: green; font-size: 50px; font-weight: bold;\">Correct</p>","response":null,"trial_index":116,"plugin_version":"2.1.0","time_elapsed":310781,"subject_id":"90811","group":"Group2","condition":"1_Rep","full_date":"2026-01-26T23:00:20.628Z","date":"2026-01-26","time":"23:00:20"},{"correct_response":"a","task":"test_phase","broad_category":"S","image_png":"S_Shale_01.png","image_id":465,"category_name":"Shale","category":30,"distinct_rating":2.7,"distinct_type":"Bottom","item_type":"Foil","rt":1348,"stimulus":"Stimuli_Rocks480/S_Shale_01.png","response":"a","trial_type":"image-keyboard-response","trial_index":117,"plugin_version":"2.1.0","time_elapsed":312130,"subject_id":"90811","group":"Group2","condition":"1_Rep","full_date":"2026-01-26T23:00:20.628Z","date":"2026-01-26","time":"23:00:20","cor_ans":true},{"trial_type":"html-keyboard-response","rt":null,"stimulus":"<p style=\"color: green; font-size: 50px; font-weight: bold;\">Correct</p>","response":null,"trial_index":118,"plugin_version":"2.1.0","time_elapsed":312632,"subject_id":"90811","group":"Group2","condition":"1_Rep","full_date":"2026-01-26T23:00:20.628Z","date":"2026-01-26","time":"23:00:20"},{"correct_response":"a","task":"test_phase","broad_category":"S","image_png":"S_Shale_08.png","image_id":472,"category_name":"Shale","category":30,"distinct_rating":2.55,"distinct_type":"Bottom","item_type":"Foil","rt":1525,"stimulus":"Stimuli_Rocks480/S_Shale_08.png","response":"a","trial_type":"image-keyboard-response","trial_index":119,"plugin_version":"2.1.0","time_elapsed":314159,"subject_id":"90811","group":"Group2","condition":"1_Rep","full_date":"2026-01-26T23:00:20.628Z","date":"2026-01-26","time":"23:00:20","cor_ans":true},{"trial_type":"html-keyboard-response","rt":null,"stimulus":"<p style=\"color: green; font-size: 50px; font-weight: bold;\">Correct</p>","response":null,"trial_index":120,"plugin_version":"2.1.0","time_elapsed":314660,"subject_id":"90811","group":"Group2","condition":"1_Rep","full_date":"2026-01-26T23:00:20.628Z","date":"2026-01-26","time":"23:00:20"},{"correct_response":"a","task":"test_phase","broad_category":"S","image_png":"S_Sandstone_15.png","image_id":463,"category_name":"Sandstone","category":29,"distinct_rating":2,"distinct_type":"Bottom","item_type":"Foil","rt":1548,"stimulus":"Stimuli_Rocks480/S_Sandstone_15.png","response":"a","trial_type":"image-keyboard-response","trial_index":121,"plugin_version":"2.1.0","time_elapsed":316211,"subject_id":"90811","group":"Group2","condition":"1_Rep","full_date":"2026-01-26T23:00:20.628Z","date":"2026-01-26","time":"23:00:20","cor_ans":true},{"trial_type":"html-keyboard-response","rt":null,"stimulus":"<p style=\"color: green; font-size: 50px; font-weight: bold;\">Correct</p>","response":null,"trial_index":122,"plugin_version":"2.1.0","time_elapsed":316712,"subject_id":"90811","group":"Group2","condition":"1_Rep","full_date":"2026-01-26T23:00:20.628Z","date":"2026-01-26","time":"23:00:20"},{"correct_response":"a","task":"test_phase","broad_category":"M","image_png":"M_Phyllite_03.png","image_id":259,"category_name":"Phyllite","category":17,"distinct_rating":2.5,"distinct_type":"Bottom","item_type":"Foil","rt":1643,"stimulus":"Stimuli_Rocks480/M_Phyllite_03.png","response":"a","trial_type":"image-keyboard-response","trial_index":123,"plugin_version":"2.1.0","time_elapsed":318357,"subject_id":"90811","group":"Group2","condition":"1_Rep","full_date":"2026-01-26T23:00:20.628Z","date":"2026-01-26","time":"23:00:20","cor_ans":true},{"trial_type":"html-keyboard-response","rt":null,"stimulus":"<p style=\"color: green; font-size: 50px; font-weight: bold;\">Correct</p>","response":null,"trial_index":124,"plugin_version":"2.1.0","time_elapsed":318858,"subject_id":"90811","group":"Group2","condition":"1_Rep","full_date":"2026-01-26T23:00:20.628Z","date":"2026-01-26","time":"23:00:20"},{"correct_response":"l","task":"test_phase","broad_category":"M","image_png":"M_Slate_14.png","image_id":318,"category_name":"Slate","category":20,"distinct_rating":2.58,"distinct_type":"Bottom","item_type":"Target","rt":1228,"stimulus":"Stimuli_Rocks480/M_Slate_14.png","response":"l","trial_type":"image-keyboard-response","trial_index":125,"plugin_version":"2.1.0","time_elapsed":320088,"subject_id":"90811","group":"Group2","condition":"1_Rep","full_date":"2026-01-26T23:00:20.628Z","date":"2026-01-26","time":"23:00:20","cor_ans":true},{"trial_type":"html-keyboard-response","rt":null,"stimulus":"<p style=\"color: green; font-size: 50px; font-weight: bold;\">Correct</p>","response":null,"trial_index":126,"plugin_version":"2.1.0","time_elapsed":320591,"subject_id":"90811","group":"Group2","condition":"1_Rep","full_date":"2026-01-26T23:00:20.628Z","date":"2026-01-26","time":"23:00:20"},{"correct_response":"l","task":"test_phase","broad_category":"M","image_png":"M_Gneiss_14.png","image_id":206,"category_name":"Gneiss","category":13,"distinct_rating":3.41,"distinct_type":"Bottom","item_type":"Target","rt":1016,"stimulus":"Stimuli_Rocks480/M_Gneiss_14.png","response":"l","trial_type":"image-keyboard-response","trial_index":127,"plugin_version":"2.1.0","time_elapsed":321609,"subject_id":"90811","group":"Group2","condition":"1_Rep","full_date":"2026-01-26T23:00:20.628Z","date":"2026-01-26","time":"23:00:20","cor_ans":true},{"trial_type":"html-keyboard-response","rt":null,"stimulus":"<p style=\"color: green; font-size: 50px; font-weight: bold;\">Correct</p>","response":null,"trial_index":128,"plugin_version":"2.1.0","time_elapsed":322111,"subject_id":"90811","group":"Group2","condition":"1_Rep","full_date":"2026-01-26T23:00:20.628Z","date":"2026-01-26","time":"23:00:20"},{"correct_response":"a","task":"test_phase","broad_category":"I","image_png":"I_Basalt_01.png","image_id":17,"category_name":"Basalt","category":2,"distinct_rating":1.92,"distinct_type":"Bottom","item_type":"Foil","rt":922,"stimulus":"Stimuli_Rocks480/I_Basalt_01.png","response":"l","trial_type":"image-keyboard-response","trial_index":129,"plugin_version":"2.1.0","time_elapsed":323036,"subject_id":"90811","group":"Group2","condition":"1_Rep","full_date":"2026-01-26T23:00:20.628Z","date":"2026-01-26","time":"23:00:20","cor_ans":false},{"trial_type":"html-keyboard-response","rt":null,"stimulus":"<p style=\"color: red; font-size: 50px; font-weight: bold;\">Incorrect</p>","response":null,"trial_index":130,"plugin_version":"2.1.0","time_elapsed":323537,"subject_id":"90811","group":"Group2","condition":"1_Rep","full_date":"2026-01-26T23:00:20.628Z","date":"2026-01-26","time":"23:00:20"},{"correct_response":"l","task":"test_phase","broad_category":"M","image_png":"M_Slate_10.png","image_id":314,"category_name":"Slate","category":20,"distinct_rating":1.94,"distinct_type":"Bottom","item_type":"Target","rt":1330,"stimulus":"Stimuli_Rocks480/M_Slate_10.png","response":"a","trial_type":"image-keyboard-response","trial_index":131,"plugin_version":"2.1.0","time_elapsed":324869,"subject_id":"90811","group":"Group2","condition":"1_Rep","full_date":"2026-01-26T23:00:20.628Z","date":"2026-01-26","time":"23:00:20","cor_ans":false},{"trial_type":"html-keyboard-response","rt":null,"stimulus":"<p style=\"color: red; font-size: 50px; font-weight: bold;\">Incorrect</p>","response":null,"trial_index":132,"plugin_version":"2.1.0","time_elapsed":325371,"subject_id":"90811","group":"Group2","condition":"1_Rep","full_date":"2026-01-26T23:00:20.628Z","date":"2026-01-26","time":"23:00:20"},{"correct_response":"l","task":"test_phase","broad_category":"I","image_png":"I_Pumice_13.png","image_id":141,"category_name":"Pumice","category":9,"distinct_rating":3.12,"distinct_type":"Bottom","item_type":"Target","rt":1101,"stimulus":"Stimuli_Rocks480/I_Pumice_13.png","response":"l","trial_type":"image-keyboard-response","trial_index":133,"plugin_version":"2.1.0","time_elapsed":326475,"subject_id":"90811","group":"Group2","condition":"1_Rep","full_date":"2026-01-26T23:00:20.628Z","date":"2026-01-26","time":"23:00:20","cor_ans":true},{"trial_type":"html-keyboard-response","rt":null,"stimulus":"<p style=\"color: green; font-size: 50px; font-weight: bold;\">Correct</p>","response":null,"trial_index":134,"plugin_version":"2.1.0","time_elapsed":326977,"subject_id":"90811","group":"Group2","condition":"1_Rep","full_date":"2026-01-26T23:00:20.628Z","date":"2026-01-26","time":"23:00:20"},{"correct_response":"l","task":"test_phase","broad_category":"M","image_png":"M_Phyllite_02.png","image_id":258,"category_name":"Phyllite","category":17,"distinct_rating":2.89,"distinct_type":"Bottom","item_type":"Target","rt":12028,"stimulus":"Stimuli_Rocks480/M_Phyllite_02.png","response":"l","trial_type":"image-keyboard-response","trial_index":135,"plugin_version":"2.1.0","time_elapsed":339007,"subject_id":"90811","group":"Group2","condition":"1_Rep","full_date":"2026-01-26T23:00:20.628Z","date":"2026-01-26","time":"23:00:20","cor_ans":true},{"trial_type":"html-keyboard-response","rt":null,"stimulus":"<p style=\"color: green; font-size: 50px; font-weight: bold;\">Correct</p>","response":null,"trial_index":136,"plugin_version":"2.1.0","time_elapsed":339510,"subject_id":"90811","group":"Group2","condition":"1_Rep","full_date":"2026-01-26T23:00:20.628Z","date":"2026-01-26","time":"23:00:20"},{"correct_response":"l","task":"test_phase","broad_category":"I","image_png":"I_Gabbro_14.png","image_id":62,"category_name":"Gabbro","category":4,"distinct_rating":2.95,"distinct_type":"Bottom","item_type":"Target","rt":1149,"stimulus":"Stimuli_Rocks480/I_Gabbro_14.png","response":"l","trial_type":"image-keyboard-response","trial_index":137,"plugin_version":"2.1.0","time_elapsed":340661,"subject_id":"90811","group":"Group2","condition":"1_Rep","full_date":"2026-01-26T23:00:20.628Z","date":"2026-01-26","time":"23:00:20","cor_ans":true},{"trial_type":"html-keyboard-response","rt":null,"stimulus":"<p style=\"color: green; font-size: 50px; font-weight: bold;\">Correct</p>","response":null,"trial_index":138,"plugin_version":"2.1.0","time_elapsed":341162,"subject_id":"90811","group":"Group2","condition":"1_Rep","full_date":"2026-01-26T23:00:20.628Z","date":"2026-01-26","time":"23:00:20"},{"correct_response":"l","task":"test_phase","broad_category":"M","image_png":"M_Gneiss_10.png","image_id":202,"category_name":"Gneiss","category":13,"distinct_rating":3.09,"distinct_type":"Bottom","item_type":"Target","rt":673,"stimulus":"Stimuli_Rocks480/M_Gneiss_10.png","response":"l","trial_type":"image-keyboard-response","trial_index":139,"plugin_version":"2.1.0","time_elapsed":341837,"subject_id":"90811","group":"Group2","condition":"1_Rep","full_date":"2026-01-26T23:00:20.628Z","date":"2026-01-26","time":"23:00:20","cor_ans":true},{"trial_type":"html-keyboard-response","rt":null,"stimulus":"<p style=\"color: green; font-size: 50px; font-weight: bold;\">Correct</p>","response":null,"trial_index":140,"plugin_version":"2.1.0","time_elapsed":342339,"subject_id":"90811","group":"Group2","condition":"1_Rep","full_date":"2026-01-26T23:00:20.628Z","date":"2026-01-26","time":"23:00:20"},{"correct_response":"a","task":"test_phase","broad_category":"I","image_png":"I_Pegmatite_10.png","image_id":106,"category_name":"Pegmatite","category":7,"distinct_rating":7.66,"distinct_type":"Top","item_type":"Foil","rt":1022,"stimulus":"Stimuli_Rocks480/I_Pegmatite_10.png","response":"a","trial_type":"image-keyboard-response","trial_index":141,"plugin_version":"2.1.0","time_elapsed":343363,"subject_id":"90811","group":"Group2","condition":"1_Rep","full_date":"2026-01-26T23:00:20.628Z","date":"2026-01-26","time":"23:00:20","cor_ans":true},{"trial_type":"html-keyboard-response","rt":null,"stimulus":"<p style=\"color: green; font-size: 50px; font-weight: bold;\">Correct</p>","response":null,"trial_index":142,"plugin_version":"2.1.0","time_elapsed":343865,"subject_id":"90811","group":"Group2","condition":"1_Rep","full_date":"2026-01-26T23:00:20.628Z","date":"2026-01-26","time":"23:00:20"},{"correct_response":"l","task":"test_phase","broad_category":"S","image_png":"S_Sandstone_08.png","image_id":456,"category_name":"Sandstone","category":29,"distinct_rating":1.5,"distinct_type":"Bottom","item_type":"Target","rt":770,"stimulus":"Stimuli_Rocks480/S_Sandstone_08.png","response":"l","trial_type":"image-keyboard-response","trial_index":143,"plugin_version":"2.1.0","time_elapsed":344636,"subject_id":"90811","group":"Group2","condition":"1_Rep","full_date":"2026-01-26T23:00:20.628Z","date":"2026-01-26","time":"23:00:20","cor_ans":true},{"trial_type":"html-keyboard-response","rt":null,"stimulus":"<p style=\"color: green; font-size: 50px; font-weight: bold;\">Correct</p>","response":null,"trial_index":144,"plugin_version":"2.1.0","time_elapsed":345138,"subject_id":"90811","group":"Group2","condition":"1_Rep","full_date":"2026-01-26T23:00:20.628Z","date":"2026-01-26","time":"23:00:20"},{"correct_response":"l","task":"test_phase","broad_category":"M","image_png":"M_Phyllite_05.png","image_id":261,"category_name":"Phyllite","category":17,"distinct_rating":2.14,"distinct_type":"Bottom","item_type":"Target","rt":1068,"stimulus":"Stimuli_Rocks480/M_Phyllite_05.png","response":"l","trial_type":"image-keyboard-response","trial_index":145,"plugin_version":"2.1.0","time_elapsed":346208,"subject_id":"90811","group":"Group2","condition":"1_Rep","full_date":"2026-01-26T23:00:20.628Z","date":"2026-01-26","time":"23:00:20","cor_ans":true},{"trial_type":"html-keyboard-response","rt":null,"stimulus":"<p style=\"color: green; font-size: 50px; font-weight: bold;\">Correct</p>","response":null,"trial_index":146,"plugin_version":"2.1.0","time_elapsed":346709,"subject_id":"90811","group":"Group2","condition":"1_Rep","full_date":"2026-01-26T23:00:20.628Z","date":"2026-01-26","time":"23:00:20"},{"correct_response":"a","task":"test_phase","broad_category":"I","image_png":"I_Gabbro_16.png","image_id":64,"category_name":"Gabbro","category":4,"distinct_rating":2.52,"distinct_type":"Bottom","item_type":"Foil","rt":1269,"stimulus":"Stimuli_Rocks480/I_Gabbro_16.png","response":"a","trial_type":"image-keyboard-response","trial_index":147,"plugin_version":"2.1.0","time_elapsed":347980,"subject_id":"90811","group":"Group2","condition":"1_Rep","full_date":"2026-01-26T23:00:20.628Z","date":"2026-01-26","time":"23:00:20","cor_ans":true},{"trial_type":"html-keyboard-response","rt":null,"stimulus":"<p style=\"color: green; font-size: 50px; font-weight: bold;\">Correct</p>","response":null,"trial_index":148,"plugin_version":"2.1.0","time_elapsed":348482,"subject_id":"90811","group":"Group2","condition":"1_Rep","full_date":"2026-01-26T23:00:20.628Z","date":"2026-01-26","time":"23:00:20"},{"correct_response":"l","task":"test_phase","broad_category":"I","image_png":"I_Pumice_14.png","image_id":142,"category_name":"Pumice","category":9,"distinct_rating":3.22,"distinct_type":"Bottom","item_type":"Target","rt":731,"stimulus":"Stimuli_Rocks480/I_Pumice_14.png","response":"l","trial_type":"image-keyboard-response","trial_index":149,"plugin_version":"2.1.0","time_elapsed":349215,"subject_id":"90811","group":"Group2","condition":"1_Rep","full_date":"2026-01-26T23:00:20.628Z","date":"2026-01-26","time":"23:00:20","cor_ans":true},{"trial_type":"html-keyboard-response","rt":null,"stimulus":"<p style=\"color: green; font-size: 50px; font-weight: bold;\">Correct</p>","response":null,"trial_index":150,"plugin_version":"2.1.0","time_elapsed":349717,"subject_id":"90811","group":"Group2","condition":"1_Rep","full_date":"2026-01-26T23:00:20.628Z","date":"2026-01-26","time":"23:00:20"},{"correct_response":"l","task":"test_phase","broad_category":"I","image_png":"I_Pumice_01.png","image_id":129,"category_name":"Pumice","category":9,"distinct_rating":3.25,"distinct_type":"Bottom","item_type":"Target","rt":764,"stimulus":"Stimuli_Rocks480/I_Pumice_01.png","response":"l","trial_type":"image-keyboard-response","trial_index":151,"plugin_version":"2.1.0","time_elapsed":350483,"subject_id":"90811","group":"Group2","condition":"1_Rep","full_date":"2026-01-26T23:00:20.628Z","date":"2026-01-26","time":"23:00:20","cor_ans":true},{"trial_type":"html-keyboard-response","rt":null,"stimulus":"<p style=\"color: green; font-size: 50px; font-weight: bold;\">Correct</p>","response":null,"trial_index":152,"plugin_version":"2.1.0","time_elapsed":350985,"subject_id":"90811","group":"Group2","condition":"1_Rep","full_date":"2026-01-26T23:00:20.628Z","date":"2026-01-26","time":"23:00:20"},{"correct_response":"a","task":"test_phase","broad_category":"S","image_png":"S_Sandstone_03.png","image_id":451,"category_name":"Sandstone","category":29,"distinct_rating":1.86,"distinct_type":"Bottom","item_type":"Foil","rt":811,"stimulus":"Stimuli_Rocks480/S_Sandstone_03.png","response":"a","trial_type":"image-keyboard-response","trial_index":153,"plugin_version":"2.1.0","time_elapsed":351798,"subject_id":"90811","group":"Group2","condition":"1_Rep","full_date":"2026-01-26T23:00:20.628Z","date":"2026-01-26","time":"23:00:20","cor_ans":true},{"trial_type":"html-keyboard-response","rt":null,"stimulus":"<p style=\"color: green; font-size: 50px; font-weight: bold;\">Correct</p>","response":null,"trial_index":154,"plugin_version":"2.1.0","time_elapsed":352300,"subject_id":"90811","group":"Group2","condition":"1_Rep","full_date":"2026-01-26T23:00:20.628Z","date":"2026-01-26","time":"23:00:20"},{"correct_response":"l","task":"test_phase","broad_category":"I","image_png":"I_Basalt_10.png","image_id":26,"category_name":"Basalt","category":2,"distinct_rating":2.76,"distinct_type":"Bottom","item_type":"Target","rt":707,"stimulus":"Stimuli_Rocks480/I_Basalt_10.png","response":"l","trial_type":"image-keyboard-response","trial_index":155,"plugin_version":"2.1.0","time_elapsed":353009,"subject_id":"90811","group":"Group2","condition":"1_Rep","full_date":"2026-01-26T23:00:20.628Z","date":"2026-01-26","time":"23:00:20","cor_ans":true},{"trial_type":"html-keyboard-response","rt":null,"stimulus":"<p style=\"color: green; font-size: 50px; font-weight: bold;\">Correct</p>","response":null,"trial_index":156,"plugin_version":"2.1.0","time_elapsed":353510,"subject_id":"90811","group":"Group2","condition":"1_Rep","full_date":"2026-01-26T23:00:20.628Z","date":"2026-01-26","time":"23:00:20"},{"correct_response":"a","task":"test_phase","broad_category":"M","image_png":"M_Quartzite_08.png","image_id":280,"category_name":"Quartzite","category":18,"distinct_rating":2.15,"distinct_type":"Bottom","item_type":"Foil","rt":1997,"stimulus":"Stimuli_Rocks480/M_Quartzite_08.png","response":"l","trial_type":"image-keyboard-response","trial_index":157,"plugin_version":"2.1.0","time_elapsed":355509,"subject_id":"90811","group":"Group2","condition":"1_Rep","full_date":"2026-01-26T23:00:20.628Z","date":"2026-01-26","time":"23:00:20","cor_ans":false},{"trial_type":"html-keyboard-response","rt":null,"stimulus":"<p style=\"color: red; font-size: 50px; font-weight: bold;\">Incorrect</p>","response":null,"trial_index":158,"plugin_version":"2.1.0","time_elapsed":356010,"subject_id":"90811","group":"Group2","condition":"1_Rep","full_date":"2026-01-26T23:00:20.628Z","date":"2026-01-26","time":"23:00:20"},{"correct_response":"l","task":"test_phase","broad_category":"I","image_png":"I_Rhyolite_08.png","image_id":152,"category_name":"Rhyolite","category":10,"distinct_rating":1.38,"distinct_type":"Bottom","item_type":"Target","rt":1209,"stimulus":"Stimuli_Rocks480/I_Rhyolite_08.png","response":"l","trial_type":"image-keyboard-response","trial_index":159,"plugin_version":"2.1.0","time_elapsed":357221,"subject_id":"90811","group":"Group2","condition":"1_Rep","full_date":"2026-01-26T23:00:20.628Z","date":"2026-01-26","time":"23:00:20","cor_ans":true},{"trial_type":"html-keyboard-response","rt":null,"stimulus":"<p style=\"color: green; font-size: 50px; font-weight: bold;\">Correct</p>","response":null,"trial_index":160,"plugin_version":"2.1.0","time_elapsed":357723,"subject_id":"90811","group":"Group2","condition":"1_Rep","full_date":"2026-01-26T23:00:20.628Z","date":"2026-01-26","time":"23:00:20"},{"correct_response":"l","task":"test_phase","broad_category":"I","image_png":"I_Diorite_10.png","image_id":42,"category_name":"Diorite","category":3,"distinct_rating":2.84,"distinct_type":"Bottom","item_type":"Target","rt":897,"stimulus":"Stimuli_Rocks480/I_Diorite_10.png","response":"a","trial_type":"image-keyboard-response","trial_index":161,"plugin_version":"2.1.0","time_elapsed":358622,"subject_id":"90811","group":"Group2","condition":"1_Rep","full_date":"2026-01-26T23:00:20.628Z","date":"2026-01-26","time":"23:00:20","cor_ans":false},{"trial_type":"html-keyboard-response","rt":null,"stimulus":"<p style=\"color: red; font-size: 50px; font-weight: bold;\">Incorrect</p>","response":null,"trial_index":162,"plugin_version":"2.1.0","time_elapsed":359124,"subject_id":"90811","group":"Group2","condition":"1_Rep","full_date":"2026-01-26T23:00:20.628Z","date":"2026-01-26","time":"23:00:20"},{"correct_response":"a","task":"test_phase","broad_category":"M","image_png":"M_Slate_11.png","image_id":315,"category_name":"Slate","category":20,"distinct_rating":2.75,"distinct_type":"Bottom","item_type":"Foil","rt":1140,"stimulus":"Stimuli_Rocks480/M_Slate_11.png","response":"a","trial_type":"image-keyboard-response","trial_index":163,"plugin_version":"2.1.0","time_elapsed":360266,"subject_id":"90811","group":"Group2","condition":"1_Rep","full_date":"2026-01-26T23:00:20.628Z","date":"2026-01-26","time":"23:00:20","cor_ans":true},{"trial_type":"html-keyboard-response","rt":null,"stimulus":"<p style=\"color: green; font-size: 50px; font-weight: bold;\">Correct</p>","response":null,"trial_index":164,"plugin_version":"2.1.0","time_elapsed":360767,"subject_id":"90811","group":"Group2","condition":"1_Rep","full_date":"2026-01-26T23:00:20.628Z","date":"2026-01-26","time":"23:00:20"},{"correct_response":"a","task":"test_phase","broad_category":"I","image_png":"I_Diorite_04.png","image_id":36,"category_name":"Diorite","category":3,"distinct_rating":2.98,"distinct_type":"Bottom","item_type":"Foil","rt":1108,"stimulus":"Stimuli_Rocks480/I_Diorite_04.png","response":"a","trial_type":"image-keyboard-response","trial_index":165,"plugin_version":"2.1.0","time_elapsed":361877,"subject_id":"90811","group":"Group2","condition":"1_Rep","full_date":"2026-01-26T23:00:20.628Z","date":"2026-01-26","time":"23:00:20","cor_ans":true},{"trial_type":"html-keyboard-response","rt":null,"stimulus":"<p style=\"color: green; font-size: 50px; font-weight: bold;\">Correct</p>","response":null,"trial_index":166,"plugin_version":"2.1.0","time_elapsed":362378,"subject_id":"90811","group":"Group2","condition":"1_Rep","full_date":"2026-01-26T23:00:20.628Z","date":"2026-01-26","time":"23:00:20"},{"correct_response":"a","task":"test_phase","broad_category":"I","image_png":"I_Andesite_10.png","image_id":10,"category_name":"Andesite","category":1,"distinct_rating":3.15,"distinct_type":"Bottom","item_type":"Foil","rt":4320,"stimulus":"Stimuli_Rocks480/I_Andesite_10.png","response":"a","trial_type":"image-keyboard-response","trial_index":167,"plugin_version":"2.1.0","time_elapsed":366700,"subject_id":"90811","group":"Group2","condition":"1_Rep","full_date":"2026-01-26T23:00:20.628Z","date":"2026-01-26","time":"23:00:20","cor_ans":true},{"trial_type":"html-keyboard-response","rt":null,"stimulus":"<p style=\"color: green; font-size: 50px; font-weight: bold;\">Correct</p>","response":null,"trial_index":168,"plugin_version":"2.1.0","time_elapsed":367202,"subject_id":"90811","group":"Group2","condition":"1_Rep","full_date":"2026-01-26T23:00:20.628Z","date":"2026-01-26","time":"23:00:20"},{"correct_response":"l","task":"test_phase","broad_category":"I","image_png":"I_Gabbro_12.png","image_id":60,"category_name":"Gabbro","category":4,"distinct_rating":2.6,"distinct_type":"Bottom","item_type":"Target","rt":9626,"stimulus":"Stimuli_Rocks480/I_Gabbro_12.png","response":"l","trial_type":"image-keyboard-response","trial_index":169,"plugin_version":"2.1.0","time_elapsed":376830,"subject_id":"90811","group":"Group2","condition":"1_Rep","full_date":"2026-01-26T23:00:20.628Z","date":"2026-01-26","time":"23:00:20","cor_ans":true},{"trial_type":"html-keyboard-response","rt":null,"stimulus":"<p style=\"color: green; font-size: 50px; font-weight: bold;\">Correct</p>","response":null,"trial_index":170,"plugin_version":"2.1.0","time_elapsed":377331,"subject_id":"90811","group":"Group2","condition":"1_Rep","full_date":"2026-01-26T23:00:20.628Z","date":"2026-01-26","time":"23:00:20"},{"correct_response":"l","task":"test_phase","broad_category":"I","image_png":"I_Rhyolite_05.png","image_id":149,"category_name":"Rhyolite","category":10,"distinct_rating":3.02,"distinct_type":"Bottom","item_type":"Target","rt":1082,"stimulus":"Stimuli_Rocks480/I_Rhyolite_05.png","response":"a","trial_type":"image-keyboard-response","trial_index":171,"plugin_version":"2.1.0","time_elapsed":378416,"subject_id":"90811","group":"Group2","condition":"1_Rep","full_date":"2026-01-26T23:00:20.628Z","date":"2026-01-26","time":"23:00:20","cor_ans":false},{"trial_type":"html-keyboard-response","rt":null,"stimulus":"<p style=\"color: red; font-size: 50px; font-weight: bold;\">Incorrect</p>","response":null,"trial_index":172,"plugin_version":"2.1.0","time_elapsed":378917,"subject_id":"90811","group":"Group2","condition":"1_Rep","full_date":"2026-01-26T23:00:20.628Z","date":"2026-01-26","time":"23:00:20"},{"correct_response":"a","task":"test_phase","broad_category":"M","image_png":"M_Gneiss_13.png","image_id":205,"category_name":"Gneiss","category":13,"distinct_rating":3.26,"distinct_type":"Bottom","item_type":"Foil","rt":1038,"stimulus":"Stimuli_Rocks480/M_Gneiss_13.png","response":"a","trial_type":"image-keyboard-response","trial_index":173,"plugin_version":"2.1.0","time_elapsed":379957,"subject_id":"90811","group":"Group2","condition":"1_Rep","full_date":"2026-01-26T23:00:20.628Z","date":"2026-01-26","time":"23:00:20","cor_ans":true},{"trial_type":"html-keyboard-response","rt":null,"stimulus":"<p style=\"color: green; font-size: 50px; font-weight: bold;\">Correct</p>","response":null,"trial_index":174,"plugin_version":"2.1.0","time_elapsed":380459,"subject_id":"90811","group":"Group2","condition":"1_Rep","full_date":"2026-01-26T23:00:20.628Z","date":"2026-01-26","time":"23:00:20"},{"correct_response":"a","task":"test_phase","broad_category":"M","image_png":"M_Phyllite_10.png","image_id":266,"category_name":"Phyllite","category":17,"distinct_rating":2.6,"distinct_type":"Bottom","item_type":"Foil","rt":867,"stimulus":"Stimuli_Rocks480/M_Phyllite_10.png","response":"a","trial_type":"image-keyboard-response","trial_index":175,"plugin_version":"2.1.0","time_elapsed":381328,"subject_id":"90811","group":"Group2","condition":"1_Rep","full_date":"2026-01-26T23:00:20.628Z","date":"2026-01-26","time":"23:00:20","cor_ans":true},{"trial_type":"html-keyboard-response","rt":null,"stimulus":"<p style=\"color: green; font-size: 50px; font-weight: bold;\">Correct</p>","response":null,"trial_index":176,"plugin_version":"2.1.0","time_elapsed":381829,"subject_id":"90811","group":"Group2","condition":"1_Rep","full_date":"2026-01-26T23:00:20.628Z","date":"2026-01-26","time":"23:00:20"},{"correct_response":"a","task":"test_phase","broad_category":"I","image_png":"I_Pegmatite_16.png","image_id":112,"category_name":"Pegmatite","category":7,"distinct_rating":7.03,"distinct_type":"Top","item_type":"Foil","rt":929,"stimulus":"Stimuli_Rocks480/I_Pegmatite_16.png","response":"a","trial_type":"image-keyboard-response","trial_index":177,"plugin_version":"2.1.0","time_elapsed":382761,"subject_id":"90811","group":"Group2","condition":"1_Rep","full_date":"2026-01-26T23:00:20.628Z","date":"2026-01-26","time":"23:00:20","cor_ans":true},{"trial_type":"html-keyboard-response","rt":null,"stimulus":"<p style=\"color: green; font-size: 50px; font-weight: bold;\">Correct</p>","response":null,"trial_index":178,"plugin_version":"2.1.0","time_elapsed":383262,"subject_id":"90811","group":"Group2","condition":"1_Rep","full_date":"2026-01-26T23:00:20.628Z","date":"2026-01-26","time":"23:00:20"},{"correct_response":"l","task":"test_phase","broad_category":"M","image_png":"M_Quartzite_15.png","image_id":287,"category_name":"Quartzite","category":18,"distinct_rating":2.19,"distinct_type":"Bottom","item_type":"Target","rt":1113,"stimulus":"Stimuli_Rocks480/M_Quartzite_15.png","response":"a","trial_type":"image-keyboard-response","trial_index":179,"plugin_version":"2.1.0","time_elapsed":384377,"subject_id":"90811","group":"Group2","condition":"1_Rep","full_date":"2026-01-26T23:00:20.628Z","date":"2026-01-26","time":"23:00:20","cor_ans":false},{"trial_type":"html-keyboard-response","rt":null,"stimulus":"<p style=\"color: red; font-size: 50px; font-weight: bold;\">Incorrect</p>","response":null,"trial_index":180,"plugin_version":"2.1.0","time_elapsed":384878,"subject_id":"90811","group":"Group2","condition":"1_Rep","full_date":"2026-01-26T23:00:20.628Z","date":"2026-01-26","time":"23:00:20"},{"correct_response":"l","task":"test_phase","broad_category":"I","image_png":"I_Pegmatite_03.png","image_id":99,"category_name":"Pegmatite","category":7,"distinct_rating":7.24,"distinct_type":"Top","item_type":"Target","rt":1238,"stimulus":"Stimuli_Rocks480/I_Pegmatite_03.png","response":"l","trial_type":"image-keyboard-response","trial_index":181,"plugin_version":"2.1.0","time_elapsed":386119,"subject_id":"90811","group":"Group2","condition":"1_Rep","full_date":"2026-01-26T23:00:20.628Z","date":"2026-01-26","time":"23:00:20","cor_ans":true},{"trial_type":"html-keyboard-response","rt":null,"stimulus":"<p style=\"color: green; font-size: 50px; font-weight: bold;\">Correct</p>","response":null,"trial_index":182,"plugin_version":"2.1.0","time_elapsed":386620,"subject_id":"90811","group":"Group2","condition":"1_Rep","full_date":"2026-01-26T23:00:20.628Z","date":"2026-01-26","time":"23:00:20"},{"correct_response":"a","task":"test_phase","broad_category":"S","image_png":"S_Rock Salt_01.png","image_id":433,"category_name":"Rock Salt","category":28,"distinct_rating":7.18,"distinct_type":"Top","item_type":"Foil","rt":985,"stimulus":"Stimuli_Rocks480/S_Rock Salt_01.png","response":"a","trial_type":"image-keyboard-response","trial_index":183,"plugin_version":"2.1.0","time_elapsed":387608,"subject_id":"90811","group":"Group2","condition":"1_Rep","full_date":"2026-01-26T23:00:20.628Z","date":"2026-01-26","time":"23:00:20","cor_ans":true},{"trial_type":"html-keyboard-response","rt":null,"stimulus":"<p style=\"color: green; font-size: 50px; font-weight: bold;\">Correct</p>","response":null,"trial_index":184,"plugin_version":"2.1.0","time_elapsed":388111,"subject_id":"90811","group":"Group2","condition":"1_Rep","full_date":"2026-01-26T23:00:20.628Z","date":"2026-01-26","time":"23:00:20"},{"correct_response":"a","task":"test_phase","broad_category":"I","image_png":"I_Gabbro_08.png","image_id":56,"category_name":"Gabbro","category":4,"distinct_rating":3.02,"distinct_type":"Bottom","item_type":"Foil","rt":1736,"stimulus":"Stimuli_Rocks480/I_Gabbro_08.png","response":"a","trial_type":"image-keyboard-response","trial_index":185,"plugin_version":"2.1.0","time_elapsed":389849,"subject_id":"90811","group":"Group2","condition":"1_Rep","full_date":"2026-01-26T23:00:20.628Z","date":"2026-01-26","time":"23:00:20","cor_ans":true},{"trial_type":"html-keyboard-response","rt":null,"stimulus":"<p style=\"color: green; font-size: 50px; font-weight: bold;\">Correct</p>","response":null,"trial_index":186,"plugin_version":"2.1.0","time_elapsed":390350,"subject_id":"90811","group":"Group2","condition":"1_Rep","full_date":"2026-01-26T23:00:20.628Z","date":"2026-01-26","time":"23:00:20"},{"correct_response":"l","task":"test_phase","broad_category":"S","image_png":"S_Rock Salt_13.png","image_id":445,"category_name":"Rock Salt","category":28,"distinct_rating":7.58,"distinct_type":"Top","item_type":"Target","rt":779,"stimulus":"Stimuli_Rocks480/S_Rock Salt_13.png","response":"l","trial_type":"image-keyboard-response","trial_index":187,"plugin_version":"2.1.0","time_elapsed":391132,"subject_id":"90811","group":"Group2","condition":"1_Rep","full_date":"2026-01-26T23:00:20.628Z","date":"2026-01-26","time":"23:00:20","cor_ans":true},{"trial_type":"html-keyboard-response","rt":null,"stimulus":"<p style=\"color: green; font-size: 50px; font-weight: bold;\">Correct</p>","response":null,"trial_index":188,"plugin_version":"2.1.0","time_elapsed":391633,"subject_id":"90811","group":"Group2","condition":"1_Rep","full_date":"2026-01-26T23:00:20.628Z","date":"2026-01-26","time":"23:00:20"},{"correct_response":"l","task":"test_phase","broad_category":"S","image_png":"S_Dolomite_16.png","image_id":400,"category_name":"Dolomite","category":25,"distinct_rating":1.71,"distinct_type":"Bottom","item_type":"Target","rt":911,"stimulus":"Stimuli_Rocks480/S_Dolomite_16.png","response":"a","trial_type":"image-keyboard-response","trial_index":189,"plugin_version":"2.1.0","time_elapsed":392547,"subject_id":"90811","group":"Group2","condition":"1_Rep","full_date":"2026-01-26T23:00:20.628Z","date":"2026-01-26","time":"23:00:20","cor_ans":false},{"trial_type":"html-keyboard-response","rt":null,"stimulus":"<p style=\"color: red; font-size: 50px; font-weight: bold;\">Incorrect</p>","response":null,"trial_index":190,"plugin_version":"2.1.0","time_elapsed":393048,"subject_id":"90811","group":"Group2","condition":"1_Rep","full_date":"2026-01-26T23:00:20.628Z","date":"2026-01-26","time":"23:00:20"},{"correct_response":"a","task":"test_phase","broad_category":"M","image_png":"M_Marble_16.png","image_id":240,"category_name":"Marble","category":15,"distinct_rating":2.57,"distinct_type":"Bottom","item_type":"Foil","rt":834,"stimulus":"Stimuli_Rocks480/M_Marble_16.png","response":"l","trial_type":"image-keyboard-response","trial_index":191,"plugin_version":"2.1.0","time_elapsed":393884,"subject_id":"90811","group":"Group2","condition":"1_Rep","full_date":"2026-01-26T23:00:20.628Z","date":"2026-01-26","time":"23:00:20","cor_ans":false},{"trial_type":"html-keyboard-response","rt":null,"stimulus":"<p style=\"color: red; font-size: 50px; font-weight: bold;\">Incorrect</p>","response":null,"trial_index":192,"plugin_version":"2.1.0","time_elapsed":394386,"subject_id":"90811","group":"Group2","condition":"1_Rep","full_date":"2026-01-26T23:00:20.628Z","date":"2026-01-26","time":"23:00:20"},{"correct_response":"l","task":"test_phase","broad_category":"I","image_png":"I_Andesite_03.png","image_id":3,"category_name":"Andesite","category":1,"distinct_rating":3.17,"distinct_type":"Bottom","item_type":"Target","rt":1116,"stimulus":"Stimuli_Rocks480/I_Andesite_03.png","response":"a","trial_type":"image-keyboard-response","trial_index":193,"plugin_version":"2.1.0","time_elapsed":395504,"subject_id":"90811","group":"Group2","condition":"1_Rep","full_date":"2026-01-26T23:00:20.628Z","date":"2026-01-26","time":"23:00:20","cor_ans":false},{"trial_type":"html-keyboard-response","rt":null,"stimulus":"<p style=\"color: red; font-size: 50px; font-weight: bold;\">Incorrect</p>","response":null,"trial_index":194,"plugin_version":"2.1.0","time_elapsed":396007,"subject_id":"90811","group":"Group2","condition":"1_Rep","full_date":"2026-01-26T23:00:20.628Z","date":"2026-01-26","time":"23:00:20"},{"correct_response":"l","task":"test_phase","broad_category":"S","image_png":"S_Sandstone_11.png","image_id":459,"category_name":"Sandstone","category":29,"distinct_rating":1.82,"distinct_type":"Bottom","item_type":"Target","rt":1005,"stimulus":"Stimuli_Rocks480/S_Sandstone_11.png","response":"l","trial_type":"image-keyboard-response","trial_index":195,"plugin_version":"2.1.0","time_elapsed":397014,"subject_id":"90811","group":"Group2","condition":"1_Rep","full_date":"2026-01-26T23:00:20.628Z","date":"2026-01-26","time":"23:00:20","cor_ans":true},{"trial_type":"html-keyboard-response","rt":null,"stimulus":"<p style=\"color: green; font-size: 50px; font-weight: bold;\">Correct</p>","response":null,"trial_index":196,"plugin_version":"2.1.0","time_elapsed":397516,"subject_id":"90811","group":"Group2","condition":"1_Rep","full_date":"2026-01-26T23:00:20.628Z","date":"2026-01-26","time":"23:00:20"},{"correct_response":"a","task":"test_phase","broad_category":"I","image_png":"I_Diorite_03.png","image_id":35,"category_name":"Diorite","category":3,"distinct_rating":3.14,"distinct_type":"Bottom","item_type":"Foil","rt":746,"stimulus":"Stimuli_Rocks480/I_Diorite_03.png","response":"l","trial_type":"image-keyboard-response","trial_index":197,"plugin_version":"2.1.0","time_elapsed":398264,"subject_id":"90811","group":"Group2","condition":"1_Rep","full_date":"2026-01-26T23:00:20.628Z","date":"2026-01-26","time":"23:00:20","cor_ans":false},{"trial_type":"html-keyboard-response","rt":null,"stimulus":"<p style=\"color: red; font-size: 50px; font-weight: bold;\">Incorrect</p>","response":null,"trial_index":198,"plugin_version":"2.1.0","time_elapsed":398766,"subject_id":"90811","group":"Group2","condition":"1_Rep","full_date":"2026-01-26T23:00:20.628Z","date":"2026-01-26","time":"23:00:20"},{"correct_response":"l","task":"test_phase","broad_category":"I","image_png":"I_Diorite_01.png","image_id":33,"category_name":"Diorite","category":3,"distinct_rating":2.97,"distinct_type":"Bottom","item_type":"Target","rt":3823,"stimulus":"Stimuli_Rocks480/I_Diorite_01.png","response":"l","trial_type":"image-keyboard-response","trial_index":199,"plugin_version":"2.1.0","time_elapsed":402591,"subject_id":"90811","group":"Group2","condition":"1_Rep","full_date":"2026-01-26T23:00:20.628Z","date":"2026-01-26","time":"23:00:20","cor_ans":true},{"trial_type":"html-keyboard-response","rt":null,"stimulus":"<p style=\"color: green; font-size: 50px; font-weight: bold;\">Correct</p>","response":null,"trial_index":200,"plugin_version":"2.1.0","time_elapsed":403093,"subject_id":"90811","group":"Group2","condition":"1_Rep","full_date":"2026-01-26T23:00:20.628Z","date":"2026-01-26","time":"23:00:20"},{"correct_response":"l","task":"test_phase","broad_category":"S","image_png":"S_Rock Salt_15.png","image_id":447,"category_name":"Rock Salt","category":28,"distinct_rating":7.79,"distinct_type":"Top","item_type":"Target","rt":4629,"stimulus":"Stimuli_Rocks480/S_Rock Salt_15.png","response":"l","trial_type":"image-keyboard-response","trial_index":201,"plugin_version":"2.1.0","time_elapsed":407724,"subject_id":"90811","group":"Group2","condition":"1_Rep","full_date":"2026-01-26T23:00:20.628Z","date":"2026-01-26","time":"23:00:20","cor_ans":true},{"trial_type":"html-keyboard-response","rt":null,"stimulus":"<p style=\"color: green; font-size: 50px; font-weight: bold;\">Correct</p>","response":null,"trial_index":202,"plugin_version":"2.1.0","time_elapsed":408226,"subject_id":"90811","group":"Group2","condition":"1_Rep","full_date":"2026-01-26T23:00:20.628Z","date":"2026-01-26","time":"23:00:20"},{"correct_response":"l","task":"test_phase","broad_category":"I","image_png":"I_Obsidian_06.png","image_id":86,"category_name":"Obsidian","category":6,"distinct_rating":8.01,"distinct_type":"Top","item_type":"Target","rt":830,"stimulus":"Stimuli_Rocks480/I_Obsidian_06.png","response":"l","trial_type":"image-keyboard-response","trial_index":203,"plugin_version":"2.1.0","time_elapsed":409059,"subject_id":"90811","group":"Group2","condition":"1_Rep","full_date":"2026-01-26T23:00:20.628Z","date":"2026-01-26","time":"23:00:20","cor_ans":true},{"trial_type":"html-keyboard-response","rt":null,"stimulus":"<p style=\"color: green; font-size: 50px; font-weight: bold;\">Correct</p>","response":null,"trial_index":204,"plugin_version":"2.1.0","time_elapsed":409560,"subject_id":"90811","group":"Group2","condition":"1_Rep","full_date":"2026-01-26T23:00:20.628Z","date":"2026-01-26","time":"23:00:20"},{"correct_response":"a","task":"test_phase","broad_category":"I","image_png":"I_Andesite_06.png","image_id":6,"category_name":"Andesite","category":1,"distinct_rating":3.17,"distinct_type":"Bottom","item_type":"Foil","rt":877,"stimulus":"Stimuli_Rocks480/I_Andesite_06.png","response":"a","trial_type":"image-keyboard-response","trial_index":205,"plugin_version":"2.1.0","time_elapsed":410440,"subject_id":"90811","group":"Group2","condition":"1_Rep","full_date":"2026-01-26T23:00:20.628Z","date":"2026-01-26","time":"23:00:20","cor_ans":true},{"trial_type":"html-keyboard-response","rt":null,"stimulus":"<p style=\"color: green; font-size: 50px; font-weight: bold;\">Correct</p>","response":null,"trial_index":206,"plugin_version":"2.1.0","time_elapsed":410941,"subject_id":"90811","group":"Group2","condition":"1_Rep","full_date":"2026-01-26T23:00:20.628Z","date":"2026-01-26","time":"23:00:20"},{"correct_response":"a","task":"test_phase","broad_category":"I","image_png":"I_Basalt_02.png","image_id":18,"category_name":"Basalt","category":2,"distinct_rating":1.84,"distinct_type":"Bottom","item_type":"Foil","rt":3701,"stimulus":"Stimuli_Rocks480/I_Basalt_02.png","response":"l","trial_type":"image-keyboard-response","trial_index":207,"plugin_version":"2.1.0","time_elapsed":414644,"subject_id":"90811","group":"Group2","condition":"1_Rep","full_date":"2026-01-26T23:00:20.628Z","date":"2026-01-26","time":"23:00:20","cor_ans":false},{"trial_type":"html-keyboard-response","rt":null,"stimulus":"<p style=\"color: red; font-size: 50px; font-weight: bold;\">Incorrect</p>","response":null,"trial_index":208,"plugin_version":"2.1.0","time_elapsed":415146,"subject_id":"90811","group":"Group2","condition":"1_Rep","full_date":"2026-01-26T23:00:20.628Z","date":"2026-01-26","time":"23:00:20"},{"correct_response":"l","task":"test_phase","broad_category":"I","image_png":"I_Andesite_04.png","image_id":4,"category_name":"Andesite","category":1,"distinct_rating":3.18,"distinct_type":"Bottom","item_type":"Target","rt":3835,"stimulus":"Stimuli_Rocks480/I_Andesite_04.png","response":"l","trial_type":"image-keyboard-response","trial_index":209,"plugin_version":"2.1.0","time_elapsed":418983,"subject_id":"90811","group":"Group2","condition":"1_Rep","full_date":"2026-01-26T23:00:20.628Z","date":"2026-01-26","time":"23:00:20","cor_ans":true},{"trial_type":"html-keyboard-response","rt":null,"stimulus":"<p style=\"color: green; font-size: 50px; font-weight: bold;\">Correct</p>","response":null,"trial_index":210,"plugin_version":"2.1.0","time_elapsed":419484,"subject_id":"90811","group":"Group2","condition":"1_Rep","full_date":"2026-01-26T23:00:20.628Z","date":"2026-01-26","time":"23:00:20"},{"correct_response":"l","task":"test_phase","broad_category":"S","image_png":"S_Chert_13.png","image_id":365,"category_name":"Chert","category":23,"distinct_rating":6.57,"distinct_type":"Top","item_type":"Target","rt":783,"stimulus":"Stimuli_Rocks480/S_Chert_13.png","response":"l","trial_type":"image-keyboard-response","trial_index":211,"plugin_version":"2.1.0","time_elapsed":420269,"subject_id":"90811","group":"Group2","condition":"1_Rep","full_date":"2026-01-26T23:00:20.628Z","date":"2026-01-26","time":"23:00:20","cor_ans":true},{"trial_type":"html-keyboard-response","rt":null,"stimulus":"<p style=\"color: green; font-size: 50px; font-weight: bold;\">Correct</p>","response":null,"trial_index":212,"plugin_version":"2.1.0","time_elapsed":420771,"subject_id":"90811","group":"Group2","condition":"1_Rep","full_date":"2026-01-26T23:00:20.628Z","date":"2026-01-26","time":"23:00:20"},{"correct_response":"l","task":"test_phase","broad_category":"M","image_png":"M_Quartzite_07.png","image_id":279,"category_name":"Quartzite","category":18,"distinct_rating":1.97,"distinct_type":"Bottom","item_type":"Target","rt":1190,"stimulus":"Stimuli_Rocks480/M_Quartzite_07.png","response":"l","trial_type":"image-keyboard-response","trial_index":213,"plugin_version":"2.1.0","time_elapsed":421963,"subject_id":"90811","group":"Group2","condition":"1_Rep","full_date":"2026-01-26T23:00:20.628Z","date":"2026-01-26","time":"23:00:20","cor_ans":true},{"trial_type":"html-keyboard-response","rt":null,"stimulus":"<p style=\"color: green; font-size: 50px; font-weight: bold;\">Correct</p>","response":null,"trial_index":214,"plugin_version":"2.1.0","time_elapsed":422464,"subject_id":"90811","group":"Group2","condition":"1_Rep","full_date":"2026-01-26T23:00:20.628Z","date":"2026-01-26","time":"23:00:20"},{"correct_response":"a","task":"test_phase","broad_category":"S","image_png":"S_Dolomite_13.png","image_id":397,"category_name":"Dolomite","category":25,"distinct_rating":1.77,"distinct_type":"Bottom","item_type":"Foil","rt":1125,"stimulus":"Stimuli_Rocks480/S_Dolomite_13.png","response":"a","trial_type":"image-keyboard-response","trial_index":215,"plugin_version":"2.1.0","time_elapsed":423592,"subject_id":"90811","group":"Group2","condition":"1_Rep","full_date":"2026-01-26T23:00:20.628Z","date":"2026-01-26","time":"23:00:20","cor_ans":true},{"trial_type":"html-keyboard-response","rt":null,"stimulus":"<p style=\"color: green; font-size: 50px; font-weight: bold;\">Correct</p>","response":null,"trial_index":216,"plugin_version":"2.1.0","time_elapsed":424093,"subject_id":"90811","group":"Group2","condition":"1_Rep","full_date":"2026-01-26T23:00:20.628Z","date":"2026-01-26","time":"23:00:20"},{"correct_response":"l","task":"test_phase","broad_category":"M","image_png":"M_Gneiss_15.png","image_id":207,"category_name":"Gneiss","category":13,"distinct_rating":3.11,"distinct_type":"Bottom","item_type":"Target","rt":853,"stimulus":"Stimuli_Rocks480/M_Gneiss_15.png","response":"l","trial_type":"image-keyboard-response","trial_index":217,"plugin_version":"2.1.0","time_elapsed":424948,"subject_id":"90811","group":"Group2","condition":"1_Rep","full_date":"2026-01-26T23:00:20.628Z","date":"2026-01-26","time":"23:00:20","cor_ans":true},{"trial_type":"html-keyboard-response","rt":null,"stimulus":"<p style=\"color: green; font-size: 50px; font-weight: bold;\">Correct</p>","response":null,"trial_index":218,"plugin_version":"2.1.0","time_elapsed":425450,"subject_id":"90811","group":"Group2","condition":"1_Rep","full_date":"2026-01-26T23:00:20.628Z","date":"2026-01-26","time":"23:00:20"},{"correct_response":"l","task":"test_phase","broad_category":"I","image_png":"I_Pegmatite_11.png","image_id":107,"category_name":"Pegmatite","category":7,"distinct_rating":7.11,"distinct_type":"Top","item_type":"Target","rt":898,"stimulus":"Stimuli_Rocks480/I_Pegmatite_11.png","response":"l","trial_type":"image-keyboard-response","trial_index":219,"plugin_version":"2.1.0","time_elapsed":426351,"subject_id":"90811","group":"Group2","condition":"1_Rep","full_date":"2026-01-26T23:00:20.628Z","date":"2026-01-26","time":"23:00:20","cor_ans":true},{"trial_type":"html-keyboard-response","rt":null,"stimulus":"<p style=\"color: green; font-size: 50px; font-weight: bold;\">Correct</p>","response":null,"trial_index":220,"plugin_version":"2.1.0","time_elapsed":426852,"subject_id":"90811","group":"Group2","condition":"1_Rep","full_date":"2026-01-26T23:00:20.628Z","date":"2026-01-26","time":"23:00:20"},{"correct_response":"l","task":"test_phase","broad_category":"M","image_png":"M_Phyllite_13.png","image_id":269,"category_name":"Phyllite","category":17,"distinct_rating":2.8,"distinct_type":"Bottom","item_type":"Target","rt":924,"stimulus":"Stimuli_Rocks480/M_Phyllite_13.png","response":"a","trial_type":"image-keyboard-response","trial_index":221,"plugin_version":"2.1.0","time_elapsed":427779,"subject_id":"90811","group":"Group2","condition":"1_Rep","full_date":"2026-01-26T23:00:20.628Z","date":"2026-01-26","time":"23:00:20","cor_ans":false},{"trial_type":"html-keyboard-response","rt":null,"stimulus":"<p style=\"color: red; font-size: 50px; font-weight: bold;\">Incorrect</p>","response":null,"trial_index":222,"plugin_version":"2.1.0","time_elapsed":428281,"subject_id":"90811","group":"Group2","condition":"1_Rep","full_date":"2026-01-26T23:00:20.628Z","date":"2026-01-26","time":"23:00:20"},{"correct_response":"l","task":"test_phase","broad_category":"M","image_png":"M_Quartzite_12.png","image_id":284,"category_name":"Quartzite","category":18,"distinct_rating":1.92,"distinct_type":"Bottom","item_type":"Target","rt":1192,"stimulus":"Stimuli_Rocks480/M_Quartzite_12.png","response":"l","trial_type":"image-keyboard-response","trial_index":223,"plugin_version":"2.1.0","time_elapsed":429476,"subject_id":"90811","group":"Group2","condition":"1_Rep","full_date":"2026-01-26T23:00:20.628Z","date":"2026-01-26","time":"23:00:20","cor_ans":true},{"trial_type":"html-keyboard-response","rt":null,"stimulus":"<p style=\"color: green; font-size: 50px; font-weight: bold;\">Correct</p>","response":null,"trial_index":224,"plugin_version":"2.1.0","time_elapsed":429979,"subject_id":"90811","group":"Group2","condition":"1_Rep","full_date":"2026-01-26T23:00:20.628Z","date":"2026-01-26","time":"23:00:20"},{"correct_response":"a","task":"test_phas