[{"width":1536,"height":730,"webaudio":true,"browser":"chrome","browser_version":"144.0.0","mobile":false,"os":"Windows 10","fullscreen":true,"vsync_rate":59.81,"webcam":true,"microphone":true,"trial_type":"browser-check","trial_index":0,"plugin_version":"2.1.0","time_elapsed":1012,"subject_id":"91033","group":"Group1","condition":"3_Rep","full_date":"2026-02-13T22:14:08.663Z","date":"2026-02-13","time":"22:14:08"},{"success":true,"timeout":false,"failed_images":[],"failed_audio":[],"failed_video":[],"trial_type":"preload","trial_index":1,"plugin_version":"2.1.0","time_elapsed":14133,"subject_id":"91033","group":"Group1","condition":"3_Rep","full_date":"2026-02-13T22:14:08.663Z","date":"2026-02-13","time":"22:14:08"},{"rt":6907,"url":"SONA_consent_memorability.html","trial_type":"external-html","trial_index":2,"plugin_version":"2.1.0","time_elapsed":21119,"subject_id":"91033","group":"Group1","condition":"3_Rep","full_date":"2026-02-13T22:14:08.663Z","date":"2026-02-13","time":"22:14:08"},{"success":true,"rt":1735,"trial_type":"fullscreen","trial_index":3,"plugin_version":"2.1.0","time_elapsed":23864,"subject_id":"91033","group":"Group1","condition":"3_Rep","full_date":"2026-02-13T22:14:08.663Z","date":"2026-02-13","time":"22:14:08"},{"rt":2214,"stimulus":"<div style=\"max-width: 760px; margin: auto; font-size: 20px; line-height: 1.5;\">\n      <h1 style=\"text-align:center; font-size: 30px;\">Instructions</h1>\n      <p>\n        Welcome to the study on <b>visual memory</b>. This experiment consists of <b>two phases</b>: \n        a <b>study phase</b> and a <b>test phase</b>.\n      </p>\n      <p>\n        In the study phase, you will see a series of rock images along with their category labels.\n        The images will appear one at a time.\n        <b>Your task</b> is to learn the categories to which the rock images belong \n        and to remember each image as accurately as possible.\n      </p> \n      <p>\n        Note that we will repeat the study phase <b>3 times</b>, \n             so you will have multiple opportunities to see and remember each image.\n      </p>\n      <p>\n        After the study phase, <b>your memory will be tested</b>. \n        Additional instructions for the test phase will be provided at that time.\n      </p>\n      <p>\n        If your computer has multiple <b>language settings</b> (e.g., English and another language),\n        please make sure it is set to English before starting.\n      </p>\n      <p>\n        You can track your progress using the <b>completion bar</b> at the top of the screen. \n        Please note that the bar will refresh when the test phase begins \n        to give you an accurate sense of your progress in both phases.\n      </p> \n      <p>\n        Press the button below when you are ready to begin.\n      </p>\n    </div>","response":0,"trial_type":"html-button-response","trial_index":4,"plugin_version":"2.1.0","time_elapsed":26081,"subject_id":"91033","group":"Group1","condition":"3_Rep","full_date":"2026-02-13T22:14:08.663Z","date":"2026-02-13","time":"22:14:08"},{"rt":null,"stimulus":"<p style=\"font-size: 50px; margin: 0; text-align: center;\">+</p>","response":null,"trial_type":"html-keyboard-response","trial_index":5,"plugin_version":"2.1.0","time_elapsed":27092,"subject_id":"91033","group":"Group1","condition":"3_Rep","full_date":"2026-02-13T22:14:08.663Z","date":"2026-02-13","time":"22:14:08"},{"task":"memory_phase","broad_category":"S","image_png":"S_Dolomite_12.png","image_id":396,"category_name":"Dolomite","category":25,"distinct_rating":1.85,"distinct_type":"Bottom","rt":null,"stimulus":"Stimuli_Rocks480/S_Dolomite_12.png","response":null,"trial_type":"image-keyboard-response","trial_index":6,"plugin_version":"2.1.0","time_elapsed":29604,"subject_id":"91033","group":"Group1","condition":"3_Rep","full_date":"2026-02-13T22:14:08.663Z","date":"2026-02-13","time":"22:14:08"},{"rt":null,"stimulus":"<p style=\"font-size: 50px; margin: 0; text-align: center;\">+</p>","response":null,"trial_type":"html-keyboard-response","trial_index":7,"plugin_version":"2.1.0","time_elapsed":30620,"subject_id":"91033","group":"Group1","condition":"3_Rep","full_date":"2026-02-13T22:14:08.663Z","date":"2026-02-13","time":"22:14:08"},{"task":"memory_phase","broad_category":"I","image_png":"I_Gabbro_08.png","image_id":56,"category_name":"Gabbro","category":4,"distinct_rating":3.02,"distinct_type":"Bottom","rt":null,"stimulus":"Stimuli_Rocks480/I_Gabbro_08.png","response":null,"trial_type":"image-keyboard-response","trial_index":8,"plugin_version":"2.1.0","time_elapsed":33131,"subject_id":"91033","group":"Group1","condition":"3_Rep","full_date":"2026-02-13T22:14:08.663Z","date":"2026-02-13","time":"22:14:08"},{"rt":null,"stimulus":"<p style=\"font-size: 50px; margin: 0; text-align: center;\">+</p>","response":null,"trial_type":"html-keyboard-response","trial_index":9,"plugin_version":"2.1.0","time_elapsed":34134,"subject_id":"91033","group":"Group1","condition":"3_Rep","full_date":"2026-02-13T22:14:08.663Z","date":"2026-02-13","time":"22:14:08"},{"task":"memory_phase","broad_category":"M","image_png":"M_Phyllite_07.png","image_id":263,"category_name":"Phyllite","category":17,"distinct_rating":2.59,"distinct_type":"Bottom","rt":null,"stimulus":"Stimuli_Rocks480/M_Phyllite_07.png","response":null,"trial_type":"image-keyboard-response","trial_index":10,"plugin_version":"2.1.0","time_elapsed":36640,"subject_id":"91033","group":"Group1","condition":"3_Rep","full_date":"2026-02-13T22:14:08.663Z","date":"2026-02-13","time":"22:14:08"},{"rt":null,"stimulus":"<p style=\"font-size: 50px; margin: 0; text-align: center;\">+</p>","response":null,"trial_type":"html-keyboard-response","trial_index":11,"plugin_version":"2.1.0","time_elapsed":37646,"subject_id":"91033","group":"Group1","condition":"3_Rep","full_date":"2026-02-13T22:14:08.663Z","date":"2026-02-13","time":"22:14:08"},{"task":"memory_phase","broad_category":"S","image_png":"S_Sandstone_16.png","image_id":464,"category_name":"Sandstone","category":29,"distinct_rating":1.93,"distinct_type":"Bottom","rt":null,"stimulus":"Stimuli_Rocks480/S_Sandstone_16.png","response":null,"trial_type":"image-keyboard-response","trial_index":12,"plugin_version":"2.1.0","time_elapsed":40163,"subject_id":"91033","group":"Group1","condition":"3_Rep","full_date":"2026-02-13T22:14:08.663Z","date":"2026-02-13","time":"22:14:08"},{"rt":null,"stimulus":"<p style=\"font-size: 50px; margin: 0; text-align: center;\">+</p>","response":null,"trial_type":"html-keyboard-response","trial_index":13,"plugin_version":"2.1.0","time_elapsed":41177,"subject_id":"91033","group":"Group1","condition":"3_Rep","full_date":"2026-02-13T22:14:08.663Z","date":"2026-02-13","time":"22:14:08"},{"task":"memory_phase","broad_category":"S","image_png":"S_Conglomerate_05.png","image_id":373,"category_name":"Conglomerate","category":24,"distinct_rating":7.32,"distinct_type":"Top","rt":null,"stimulus":"Stimuli_Rocks480/S_Conglomerate_05.png","response":null,"trial_type":"image-keyboard-response","trial_index":14,"plugin_version":"2.1.0","time_elapsed":43681,"subject_id":"91033","group":"Group1","condition":"3_Rep","full_date":"2026-02-13T22:14:08.663Z","date":"2026-02-13","time":"22:14:08"},{"rt":null,"stimulus":"<p style=\"font-size: 50px; margin: 0; text-align: center;\">+</p>","response":null,"trial_type":"html-keyboard-response","trial_index":15,"plugin_version":"2.1.0","time_elapsed":44690,"subject_id":"91033","group":"Group1","condition":"3_Rep","full_date":"2026-02-13T22:14:08.663Z","date":"2026-02-13","time":"22:14:08"},{"task":"memory_phase","broad_category":"I","image_png":"I_Andesite_06.png","image_id":6,"category_name":"Andesite","category":1,"distinct_rating":3.17,"distinct_type":"Bottom","rt":null,"stimulus":"Stimuli_Rocks480/I_Andesite_06.png","response":null,"trial_type":"image-keyboard-response","trial_index":16,"plugin_version":"2.1.0","time_elapsed":47201,"subject_id":"91033","group":"Group1","condition":"3_Rep","full_date":"2026-02-13T22:14:08.663Z","date":"2026-02-13","time":"22:14:08"},{"rt":null,"stimulus":"<p style=\"font-size: 50px; margin: 0; text-align: center;\">+</p>","response":null,"trial_type":"html-keyboard-response","trial_index":17,"plugin_version":"2.1.0","time_elapsed":48208,"subject_id":"91033","group":"Group1","condition":"3_Rep","full_date":"2026-02-13T22:14:08.663Z","date":"2026-02-13","time":"22:14:08"},{"task":"memory_phase","broad_category":"M","image_png":"M_Marble_06.png","image_id":230,"category_name":"Marble","category":15,"distinct_rating":3.4,"distinct_type":"Bottom","rt":null,"stimulus":"Stimuli_Rocks480/M_Marble_06.png","response":null,"trial_type":"image-keyboard-response","trial_index":18,"plugin_version":"2.1.0","time_elapsed":50716,"subject_id":"91033","group":"Group1","condition":"3_Rep","full_date":"2026-02-13T22:14:08.663Z","date":"2026-02-13","time":"22:14:08"},{"rt":null,"stimulus":"<p style=\"font-size: 50px; margin: 0; text-align: center;\">+</p>","response":null,"trial_type":"html-keyboard-response","trial_index":19,"plugin_version":"2.1.0","time_elapsed":51731,"subject_id":"91033","group":"Group1","condition":"3_Rep","full_date":"2026-02-13T22:14:08.663Z","date":"2026-02-13","time":"22:14:08"},{"task":"memory_phase","broad_category":"M","image_png":"M_Marble_04.png","image_id":228,"category_name":"Marble","category":15,"distinct_rating":3.15,"distinct_type":"Bottom","rt":null,"stimulus":"Stimuli_Rocks480/M_Marble_04.png","response":null,"trial_type":"image-keyboard-response","trial_index":20,"plugin_version":"2.1.0","time_elapsed":54244,"subject_id":"91033","group":"Group1","condition":"3_Rep","full_date":"2026-02-13T22:14:08.663Z","date":"2026-02-13","time":"22:14:08"},{"rt":null,"stimulus":"<p style=\"font-size: 50px; margin: 0; text-align: center;\">+</p>","response":null,"trial_type":"html-keyboard-response","trial_index":21,"plugin_version":"2.1.0","time_elapsed":55245,"subject_id":"91033","group":"Group1","condition":"3_Rep","full_date":"2026-02-13T22:14:08.663Z","date":"2026-02-13","time":"22:14:08"},{"task":"memory_phase","broad_category":"S","image_png":"S_Dolomite_13.png","image_id":397,"category_name":"Dolomite","category":25,"distinct_rating":1.77,"distinct_type":"Bottom","rt":null,"stimulus":"Stimuli_Rocks480/S_Dolomite_13.png","response":null,"trial_type":"image-keyboard-response","trial_index":22,"plugin_version":"2.1.0","time_elapsed":57760,"subject_id":"91033","group":"Group1","condition":"3_Rep","full_date":"2026-02-13T22:14:08.663Z","date":"2026-02-13","time":"22:14:08"},{"rt":null,"stimulus":"<p style=\"font-size: 50px; margin: 0; text-align: center;\">+</p>","response":null,"trial_type":"html-keyboard-response","trial_index":23,"plugin_version":"2.1.0","time_elapsed":58763,"subject_id":"91033","group":"Group1","condition":"3_Rep","full_date":"2026-02-13T22:14:08.663Z","date":"2026-02-13","time":"22:14:08"},{"task":"memory_phase","broad_category":"S","image_png":"S_Sandstone_15.png","image_id":463,"category_name":"Sandstone","category":29,"distinct_rating":2,"distinct_type":"Bottom","rt":null,"stimulus":"Stimuli_Rocks480/S_Sandstone_15.png","response":null,"trial_type":"image-keyboard-response","trial_index":24,"plugin_version":"2.1.0","time_elapsed":61273,"subject_id":"91033","group":"Group1","condition":"3_Rep","full_date":"2026-02-13T22:14:08.663Z","date":"2026-02-13","time":"22:14:08"},{"rt":null,"stimulus":"<p style=\"font-size: 50px; margin: 0; text-align: center;\">+</p>","response":null,"trial_type":"html-keyboard-response","trial_index":25,"plugin_version":"2.1.0","time_elapsed":62284,"subject_id":"91033","group":"Group1","condition":"3_Rep","full_date":"2026-02-13T22:14:08.663Z","date":"2026-02-13","time":"22:14:08"},{"task":"memory_phase","broad_category":"M","image_png":"M_Gneiss_13.png","image_id":205,"category_name":"Gneiss","category":13,"distinct_rating":3.26,"distinct_type":"Bottom","rt":null,"stimulus":"Stimuli_Rocks480/M_Gneiss_13.png","response":null,"trial_type":"image-keyboard-response","trial_index":26,"plugin_version":"2.1.0","time_elapsed":64793,"subject_id":"91033","group":"Group1","condition":"3_Rep","full_date":"2026-02-13T22:14:08.663Z","date":"2026-02-13","time":"22:14:08"},{"rt":null,"stimulus":"<p style=\"font-size: 50px; margin: 0; text-align: center;\">+</p>","response":null,"trial_type":"html-keyboard-response","trial_index":27,"plugin_version":"2.1.0","time_elapsed":65795,"subject_id":"91033","group":"Group1","condition":"3_Rep","full_date":"2026-02-13T22:14:08.663Z","date":"2026-02-13","time":"22:14:08"},{"task":"memory_phase","broad_category":"I","image_png":"I_Obsidian_05.png","image_id":85,"category_name":"Obsidian","category":6,"distinct_rating":7.32,"distinct_type":"Top","rt":null,"stimulus":"Stimuli_Rocks480/I_Obsidian_05.png","response":null,"trial_type":"image-keyboard-response","trial_index":28,"plugin_version":"2.1.0","time_elapsed":68299,"subject_id":"91033","group":"Group1","condition":"3_Rep","full_date":"2026-02-13T22:14:08.663Z","date":"2026-02-13","time":"22:14:08"},{"rt":null,"stimulus":"<p style=\"font-size: 50px; margin: 0; text-align: center;\">+</p>","response":null,"trial_type":"html-keyboard-response","trial_index":29,"plugin_version":"2.1.0","time_elapsed":69315,"subject_id":"91033","group":"Group1","condition":"3_Rep","full_date":"2026-02-13T22:14:08.663Z","date":"2026-02-13","time":"22:14:08"},{"task":"memory_phase","broad_category":"M","image_png":"M_Slate_15.png","image_id":319,"category_name":"Slate","category":20,"distinct_rating":2.13,"distinct_type":"Bottom","rt":null,"stimulus":"Stimuli_Rocks480/M_Slate_15.png","response":null,"trial_type":"image-keyboard-response","trial_index":30,"plugin_version":"2.1.0","time_elapsed":71829,"subject_id":"91033","group":"Group1","condition":"3_Rep","full_date":"2026-02-13T22:14:08.663Z","date":"2026-02-13","time":"22:14:08"},{"rt":null,"stimulus":"<p style=\"font-size: 50px; margin: 0; text-align: center;\">+</p>","response":null,"trial_type":"html-keyboard-response","trial_index":31,"plugin_version":"2.1.0","time_elapsed":72840,"subject_id":"91033","group":"Group1","condition":"3_Rep","full_date":"2026-02-13T22:14:08.663Z","date":"2026-02-13","time":"22:14:08"},{"task":"memory_phase","broad_category":"S","image_png":"S_Sandstone_03.png","image_id":451,"category_name":"Sandstone","category":29,"distinct_rating":1.86,"distinct_type":"Bottom","rt":null,"stimulus":"Stimuli_Rocks480/S_Sandstone_03.png","response":null,"trial_type":"image-keyboard-response","trial_index":32,"plugin_version":"2.1.0","time_elapsed":75346,"subject_id":"91033","group":"Group1","condition":"3_Rep","full_date":"2026-02-13T22:14:08.663Z","date":"2026-02-13","time":"22:14:08"},{"rt":null,"stimulus":"<p style=\"font-size: 50px; margin: 0; text-align: center;\">+</p>","response":null,"trial_type":"html-keyboard-response","trial_index":33,"plugin_version":"2.1.0","time_elapsed":76351,"subject_id":"91033","group":"Group1","condition":"3_Rep","full_date":"2026-02-13T22:14:08.663Z","date":"2026-02-13","time":"22:14:08"},{"task":"memory_phase","broad_category":"I","image_png":"I_Gabbro_16.png","image_id":64,"category_name":"Gabbro","category":4,"distinct_rating":2.52,"distinct_type":"Bottom","rt":null,"stimulus":"Stimuli_Rocks480/I_Gabbro_16.png","response":null,"trial_type":"image-keyboard-response","trial_index":34,"plugin_version":"2.1.0","time_elapsed":78864,"subject_id":"91033","group":"Group1","condition":"3_Rep","full_date":"2026-02-13T22:14:08.663Z","date":"2026-02-13","time":"22:14:08"},{"rt":null,"stimulus":"<p style=\"font-size: 50px; margin: 0; text-align: center;\">+</p>","response":null,"trial_type":"html-keyboard-response","trial_index":35,"plugin_version":"2.1.0","time_elapsed":79867,"subject_id":"91033","group":"Group1","condition":"3_Rep","full_date":"2026-02-13T22:14:08.663Z","date":"2026-02-13","time":"22:14:08"},{"task":"memory_phase","broad_category":"M","image_png":"M_Gneiss_05.png","image_id":197,"category_name":"Gneiss","category":13,"distinct_rating":2.97,"distinct_type":"Bottom","rt":null,"stimulus":"Stimuli_Rocks480/M_Gneiss_05.png","response":null,"trial_type":"image-keyboard-response","trial_index":36,"plugin_version":"2.1.0","time_elapsed":82385,"subject_id":"91033","group":"Group1","condition":"3_Rep","full_date":"2026-02-13T22:14:08.663Z","date":"2026-02-13","time":"22:14:08"},{"rt":null,"stimulus":"<p style=\"font-size: 50px; margin: 0; text-align: center;\">+</p>","response":null,"trial_type":"html-keyboard-response","trial_index":37,"plugin_version":"2.1.0","time_elapsed":83390,"subject_id":"91033","group":"Group1","condition":"3_Rep","full_date":"2026-02-13T22:14:08.663Z","date":"2026-02-13","time":"22:14:08"},{"task":"memory_phase","broad_category":"S","image_png":"S_Shale_08.png","image_id":472,"category_name":"Shale","category":30,"distinct_rating":2.55,"distinct_type":"Bottom","rt":null,"stimulus":"Stimuli_Rocks480/S_Shale_08.png","response":null,"trial_type":"image-keyboard-response","trial_index":38,"plugin_version":"2.1.0","time_elapsed":85899,"subject_id":"91033","group":"Group1","condition":"3_Rep","full_date":"2026-02-13T22:14:08.663Z","date":"2026-02-13","time":"22:14:08"},{"rt":null,"stimulus":"<p style=\"font-size: 50px; margin: 0; text-align: center;\">+</p>","response":null,"trial_type":"html-keyboard-response","trial_index":39,"plugin_version":"2.1.0","time_elapsed":86912,"subject_id":"91033","group":"Group1","condition":"3_Rep","full_date":"2026-02-13T22:14:08.663Z","date":"2026-02-13","time":"22:14:08"},{"task":"memory_phase","broad_category":"I","image_png":"I_Rhyolite_16.png","image_id":160,"category_name":"Rhyolite","category":10,"distinct_rating":2.19,"distinct_type":"Bottom","rt":null,"stimulus":"Stimuli_Rocks480/I_Rhyolite_16.png","response":null,"trial_type":"image-keyboard-response","trial_index":40,"plugin_version":"2.1.0","time_elapsed":89422,"subject_id":"91033","group":"Group1","condition":"3_Rep","full_date":"2026-02-13T22:14:08.663Z","date":"2026-02-13","time":"22:14:08"},{"rt":null,"stimulus":"<p style=\"font-size: 50px; margin: 0; text-align: center;\">+</p>","response":null,"trial_type":"html-keyboard-response","trial_index":41,"plugin_version":"2.1.0","time_elapsed":90426,"subject_id":"91033","group":"Group1","condition":"3_Rep","full_date":"2026-02-13T22:14:08.663Z","date":"2026-02-13","time":"22:14:08"},{"task":"memory_phase","broad_category":"M","image_png":"M_Quartzite_08.png","image_id":280,"category_name":"Quartzite","category":18,"distinct_rating":2.15,"distinct_type":"Bottom","rt":null,"stimulus":"Stimuli_Rocks480/M_Quartzite_08.png","response":null,"trial_type":"image-keyboard-response","trial_index":42,"plugin_version":"2.1.0","time_elapsed":92936,"subject_id":"91033","group":"Group1","condition":"3_Rep","full_date":"2026-02-13T22:14:08.663Z","date":"2026-02-13","time":"22:14:08"},{"rt":null,"stimulus":"<p style=\"font-size: 50px; margin: 0; text-align: center;\">+</p>","response":null,"trial_type":"html-keyboard-response","trial_index":43,"plugin_version":"2.1.0","time_elapsed":93949,"subject_id":"91033","group":"Group1","condition":"3_Rep","full_date":"2026-02-13T22:14:08.663Z","date":"2026-02-13","time":"22:14:08"},{"task":"memory_phase","broad_category":"M","image_png":"M_Quartzite_13.png","image_id":285,"category_name":"Quartzite","category":18,"distinct_rating":2.27,"distinct_type":"Bottom","rt":null,"stimulus":"Stimuli_Rocks480/M_Quartzite_13.png","response":null,"trial_type":"image-keyboard-response","trial_index":44,"plugin_version":"2.1.0","time_elapsed":96454,"subject_id":"91033","group":"Group1","condition":"3_Rep","full_date":"2026-02-13T22:14:08.663Z","date":"2026-02-13","time":"22:14:08"},{"rt":null,"stimulus":"<p style=\"font-size: 50px; margin: 0; text-align: center;\">+</p>","response":null,"trial_type":"html-keyboard-response","trial_index":45,"plugin_version":"2.1.0","time_elapsed":97466,"subject_id":"91033","group":"Group1","condition":"3_Rep","full_date":"2026-02-13T22:14:08.663Z","date":"2026-02-13","time":"22:14:08"},{"task":"memory_phase","broad_category":"I","image_png":"I_Diorite_03.png","image_id":35,"category_name":"Diorite","category":3,"distinct_rating":3.14,"distinct_type":"Bottom","rt":null,"stimulus":"Stimuli_Rocks480/I_Diorite_03.png","response":null,"trial_type":"image-keyboard-response","trial_index":46,"plugin_version":"2.1.0","time_elapsed":99978,"subject_id":"91033","group":"Group1","condition":"3_Rep","full_date":"2026-02-13T22:14:08.663Z","date":"2026-02-13","time":"22:14:08"},{"rt":null,"stimulus":"<p style=\"font-size: 50px; margin: 0; text-align: center;\">+</p>","response":null,"trial_type":"html-keyboard-response","trial_index":47,"plugin_version":"2.1.0","time_elapsed":100980,"subject_id":"91033","group":"Group1","condition":"3_Rep","full_date":"2026-02-13T22:14:08.663Z","date":"2026-02-13","time":"22:14:08"},{"task":"memory_phase","broad_category":"I","image_png":"I_Gabbro_11.png","image_id":59,"category_name":"Gabbro","category":4,"distinct_rating":1.99,"distinct_type":"Bottom","rt":null,"stimulus":"Stimuli_Rocks480/I_Gabbro_11.png","response":null,"trial_type":"image-keyboard-response","trial_index":48,"plugin_version":"2.1.0","time_elapsed":103495,"subject_id":"91033","group":"Group1","condition":"3_Rep","full_date":"2026-02-13T22:14:08.663Z","date":"2026-02-13","time":"22:14:08"},{"rt":null,"stimulus":"<p style=\"font-size: 50px; margin: 0; text-align: center;\">+</p>","response":null,"trial_type":"html-keyboard-response","trial_index":49,"plugin_version":"2.1.0","time_elapsed":104504,"subject_id":"91033","group":"Group1","condition":"3_Rep","full_date":"2026-02-13T22:14:08.663Z","date":"2026-02-13","time":"22:14:08"},{"task":"memory_phase","broad_category":"M","image_png":"M_Gneiss_06.png","image_id":198,"category_name":"Gneiss","category":13,"distinct_rating":2.65,"distinct_type":"Bottom","rt":null,"stimulus":"Stimuli_Rocks480/M_Gneiss_06.png","response":null,"trial_type":"image-keyboard-response","trial_index":50,"plugin_version":"2.1.0","time_elapsed":107019,"subject_id":"91033","group":"Group1","condition":"3_Rep","full_date":"2026-02-13T22:14:08.663Z","date":"2026-02-13","time":"22:14:08"},{"rt":null,"stimulus":"<p style=\"font-size: 50px; margin: 0; text-align: center;\">+</p>","response":null,"trial_type":"html-keyboard-response","trial_index":51,"plugin_version":"2.1.0","time_elapsed":108020,"subject_id":"91033","group":"Group1","condition":"3_Rep","full_date":"2026-02-13T22:14:08.663Z","date":"2026-02-13","time":"22:14:08"},{"task":"memory_phase","broad_category":"S","image_png":"S_Breccia_11.png","image_id":347,"category_name":"Breccia","category":22,"distinct_rating":6.7,"distinct_type":"Top","rt":null,"stimulus":"Stimuli_Rocks480/S_Breccia_11.png","response":null,"trial_type":"image-keyboard-response","trial_index":52,"plugin_version":"2.1.0","time_elapsed":110532,"subject_id":"91033","group":"Group1","condition":"3_Rep","full_date":"2026-02-13T22:14:08.663Z","date":"2026-02-13","time":"22:14:08"},{"rt":null,"stimulus":"<p style=\"font-size: 50px; margin: 0; text-align: center;\">+</p>","response":null,"trial_type":"html-keyboard-response","trial_index":53,"plugin_version":"2.1.0","time_elapsed":111544,"subject_id":"91033","group":"Group1","condition":"3_Rep","full_date":"2026-02-13T22:14:08.663Z","date":"2026-02-13","time":"22:14:08"},{"task":"memory_phase","broad_category":"M","image_png":"M_Quartzite_05.png","image_id":277,"category_name":"Quartzite","category":18,"distinct_rating":2.23,"distinct_type":"Bottom","rt":null,"stimulus":"Stimuli_Rocks480/M_Quartzite_05.png","response":null,"trial_type":"image-keyboard-response","trial_index":54,"plugin_version":"2.1.0","time_elapsed":114053,"subject_id":"91033","group":"Group1","condition":"3_Rep","full_date":"2026-02-13T22:14:08.663Z","date":"2026-02-13","time":"22:14:08"},{"rt":2842,"stimulus":"<p style=\"max-width: 760px; margin: auto; font-size: 35px; line-height: 1.5;\">\n                Press SPACE to continue study phase\n              </p>","response":" ","trial_type":"html-keyboard-response","trial_index":55,"plugin_version":"2.1.0","time_elapsed":116896,"subject_id":"91033","group":"Group1","condition":"3_Rep","full_date":"2026-02-13T22:14:08.663Z","date":"2026-02-13","time":"22:14:08"},{"rt":null,"stimulus":"<p style=\"font-size: 50px; margin: 0; text-align: center;\">+</p>","response":null,"trial_type":"html-keyboard-response","trial_index":56,"plugin_version":"2.1.0","time_elapsed":117901,"subject_id":"91033","group":"Group1","condition":"3_Rep","full_date":"2026-02-13T22:14:08.663Z","date":"2026-02-13","time":"22:14:08"},{"task":"memory_phase","broad_category":"I","image_png":"I_Pegmatite_16.png","image_id":112,"category_name":"Pegmatite","category":7,"distinct_rating":7.03,"distinct_type":"Top","rt":null,"stimulus":"Stimuli_Rocks480/I_Pegmatite_16.png","response":null,"trial_type":"image-keyboard-response","trial_index":57,"plugin_version":"2.1.0","time_elapsed":120407,"subject_id":"91033","group":"Group1","condition":"3_Rep","full_date":"2026-02-13T22:14:08.663Z","date":"2026-02-13","time":"22:14:08"},{"rt":null,"stimulus":"<p style=\"font-size: 50px; margin: 0; text-align: center;\">+</p>","response":null,"trial_type":"html-keyboard-response","trial_index":58,"plugin_version":"2.1.0","time_elapsed":121412,"subject_id":"91033","group":"Group1","condition":"3_Rep","full_date":"2026-02-13T22:14:08.663Z","date":"2026-02-13","time":"22:14:08"},{"task":"memory_phase","broad_category":"I","image_png":"I_Andesite_08.png","image_id":8,"category_name":"Andesite","category":1,"distinct_rating":1.95,"distinct_type":"Bottom","rt":null,"stimulus":"Stimuli_Rocks480/I_Andesite_08.png","response":null,"trial_type":"image-keyboard-response","trial_index":59,"plugin_version":"2.1.0","time_elapsed":123923,"subject_id":"91033","group":"Group1","condition":"3_Rep","full_date":"2026-02-13T22:14:08.663Z","date":"2026-02-13","time":"22:14:08"},{"rt":null,"stimulus":"<p style=\"font-size: 50px; margin: 0; text-align: center;\">+</p>","response":null,"trial_type":"html-keyboard-response","trial_index":60,"plugin_version":"2.1.0","time_elapsed":124926,"subject_id":"91033","group":"Group1","condition":"3_Rep","full_date":"2026-02-13T22:14:08.663Z","date":"2026-02-13","time":"22:14:08"},{"task":"memory_phase","broad_category":"I","image_png":"I_Pegmatite_10.png","image_id":106,"category_name":"Pegmatite","category":7,"distinct_rating":7.66,"distinct_type":"Top","rt":null,"stimulus":"Stimuli_Rocks480/I_Pegmatite_10.png","response":null,"trial_type":"image-keyboard-response","trial_index":61,"plugin_version":"2.1.0","time_elapsed":127443,"subject_id":"91033","group":"Group1","condition":"3_Rep","full_date":"2026-02-13T22:14:08.663Z","date":"2026-02-13","time":"22:14:08"},{"rt":null,"stimulus":"<p style=\"font-size: 50px; margin: 0; text-align: center;\">+</p>","response":null,"trial_type":"html-keyboard-response","trial_index":62,"plugin_version":"2.1.0","time_elapsed":128449,"subject_id":"91033","group":"Group1","condition":"3_Rep","full_date":"2026-02-13T22:14:08.663Z","date":"2026-02-13","time":"22:14:08"},{"task":"memory_phase","broad_category":"S","image_png":"S_Dolomite_14.png","image_id":398,"category_name":"Dolomite","category":25,"distinct_rating":1.43,"distinct_type":"Bottom","rt":null,"stimulus":"Stimuli_Rocks480/S_Dolomite_14.png","response":null,"trial_type":"image-keyboard-response","trial_index":63,"plugin_version":"2.1.0","time_elapsed":130964,"subject_id":"91033","group":"Group1","condition":"3_Rep","full_date":"2026-02-13T22:14:08.663Z","date":"2026-02-13","time":"22:14:08"},{"rt":null,"stimulus":"<p style=\"font-size: 50px; margin: 0; text-align: center;\">+</p>","response":null,"trial_type":"html-keyboard-response","trial_index":64,"plugin_version":"2.1.0","time_elapsed":131976,"subject_id":"91033","group":"Group1","condition":"3_Rep","full_date":"2026-02-13T22:14:08.663Z","date":"2026-02-13","time":"22:14:08"},{"task":"memory_phase","broad_category":"M","image_png":"M_Slate_03.png","image_id":307,"category_name":"Slate","category":20,"distinct_rating":1.87,"distinct_type":"Bottom","rt":null,"stimulus":"Stimuli_Rocks480/M_Slate_03.png","response":null,"trial_type":"image-keyboard-response","trial_index":65,"plugin_version":"2.1.0","time_elapsed":134483,"subject_id":"91033","group":"Group1","condition":"3_Rep","full_date":"2026-02-13T22:14:08.663Z","date":"2026-02-13","time":"22:14:08"},{"rt":null,"stimulus":"<p style=\"font-size: 50px; margin: 0; text-align: center;\">+</p>","response":null,"trial_type":"html-keyboard-response","trial_index":66,"plugin_version":"2.1.0","time_elapsed":135498,"subject_id":"91033","group":"Group1","condition":"3_Rep","full_date":"2026-02-13T22:14:08.663Z","date":"2026-02-13","time":"22:14:08"},{"task":"memory_phase","broad_category":"S","image_png":"S_Chert_10.png","image_id":362,"category_name":"Chert","category":23,"distinct_rating":7.17,"distinct_type":"Top","rt":null,"stimulus":"Stimuli_Rocks480/S_Chert_10.png","response":null,"trial_type":"image-keyboard-response","trial_index":67,"plugin_version":"2.1.0","time_elapsed":138003,"subject_id":"91033","group":"Group1","condition":"3_Rep","full_date":"2026-02-13T22:14:08.663Z","date":"2026-02-13","time":"22:14:08"},{"rt":null,"stimulus":"<p style=\"font-size: 50px; margin: 0; text-align: center;\">+</p>","response":null,"trial_type":"html-keyboard-response","trial_index":68,"plugin_version":"2.1.0","time_elapsed":139007,"subject_id":"91033","group":"Group1","condition":"3_Rep","full_date":"2026-02-13T22:14:08.663Z","date":"2026-02-13","time":"22:14:08"},{"task":"memory_phase","broad_category":"I","image_png":"I_Andesite_10.png","image_id":10,"category_name":"Andesite","category":1,"distinct_rating":3.15,"distinct_type":"Bottom","rt":null,"stimulus":"Stimuli_Rocks480/I_Andesite_10.png","response":null,"trial_type":"image-keyboard-response","trial_index":69,"plugin_version":"2.1.0","time_elapsed":141514,"subject_id":"91033","group":"Group1","condition":"3_Rep","full_date":"2026-02-13T22:14:08.663Z","date":"2026-02-13","time":"22:14:08"},{"rt":null,"stimulus":"<p style=\"font-size: 50px; margin: 0; text-align: center;\">+</p>","response":null,"trial_type":"html-keyboard-response","trial_index":70,"plugin_version":"2.1.0","time_elapsed":142518,"subject_id":"91033","group":"Group1","condition":"3_Rep","full_date":"2026-02-13T22:14:08.663Z","date":"2026-02-13","time":"22:14:08"},{"task":"memory_phase","broad_category":"M","image_png":"M_Slate_11.png","image_id":315,"category_name":"Slate","category":20,"distinct_rating":2.75,"distinct_type":"Bottom","rt":null,"stimulus":"Stimuli_Rocks480/M_Slate_11.png","response":null,"trial_type":"image-keyboard-response","trial_index":71,"plugin_version":"2.1.0","time_elapsed":145028,"subject_id":"91033","group":"Group1","condition":"3_Rep","full_date":"2026-02-13T22:14:08.663Z","date":"2026-02-13","time":"22:14:08"},{"rt":null,"stimulus":"<p style=\"font-size: 50px; margin: 0; text-align: center;\">+</p>","response":null,"trial_type":"html-keyboard-response","trial_index":72,"plugin_version":"2.1.0","time_elapsed":146033,"subject_id":"91033","group":"Group1","condition":"3_Rep","full_date":"2026-02-13T22:14:08.663Z","date":"2026-02-13","time":"22:14:08"},{"task":"memory_phase","broad_category":"I","image_png":"I_Rhyolite_11.png","image_id":155,"category_name":"Rhyolite","category":10,"distinct_rating":1.73,"distinct_type":"Bottom","rt":null,"stimulus":"Stimuli_Rocks480/I_Rhyolite_11.png","response":null,"trial_type":"image-keyboard-response","trial_index":73,"plugin_version":"2.1.0","time_elapsed":148537,"subject_id":"91033","group":"Group1","condition":"3_Rep","full_date":"2026-02-13T22:14:08.663Z","date":"2026-02-13","time":"22:14:08"},{"rt":null,"stimulus":"<p style=\"font-size: 50px; margin: 0; text-align: center;\">+</p>","response":null,"trial_type":"html-keyboard-response","trial_index":74,"plugin_version":"2.1.0","time_elapsed":149547,"subject_id":"91033","group":"Group1","condition":"3_Rep","full_date":"2026-02-13T22:14:08.663Z","date":"2026-02-13","time":"22:14:08"},{"task":"memory_phase","broad_category":"I","image_png":"I_Rhyolite_14.png","image_id":158,"category_name":"Rhyolite","category":10,"distinct_rating":2.59,"distinct_type":"Bottom","rt":null,"stimulus":"Stimuli_Rocks480/I_Rhyolite_14.png","response":null,"trial_type":"image-keyboard-response","trial_index":75,"plugin_version":"2.1.0","time_elapsed":152061,"subject_id":"91033","group":"Group1","condition":"3_Rep","full_date":"2026-02-13T22:14:08.663Z","date":"2026-02-13","time":"22:14:08"},{"rt":null,"stimulus":"<p style=\"font-size: 50px; margin: 0; text-align: center;\">+</p>","response":null,"trial_type":"html-keyboard-response","trial_index":76,"plugin_version":"2.1.0","time_elapsed":153068,"subject_id":"91033","group":"Group1","condition":"3_Rep","full_date":"2026-02-13T22:14:08.663Z","date":"2026-02-13","time":"22:14:08"},{"task":"memory_phase","broad_category":"I","image_png":"I_Diorite_05.png","image_id":37,"category_name":"Diorite","category":3,"distinct_rating":3.08,"distinct_type":"Bottom","rt":null,"stimulus":"Stimuli_Rocks480/I_Diorite_05.png","response":null,"trial_type":"image-keyboard-response","trial_index":77,"plugin_version":"2.1.0","time_elapsed":155581,"subject_id":"91033","group":"Group1","condition":"3_Rep","full_date":"2026-02-13T22:14:08.663Z","date":"2026-02-13","time":"22:14:08"},{"rt":null,"stimulus":"<p style=\"font-size: 50px; margin: 0; text-align: center;\">+</p>","response":null,"trial_type":"html-keyboard-response","trial_index":78,"plugin_version":"2.1.0","time_elapsed":156585,"subject_id":"91033","group":"Group1","condition":"3_Rep","full_date":"2026-02-13T22:14:08.663Z","date":"2026-02-13","time":"22:14:08"},{"task":"memory_phase","broad_category":"I","image_png":"I_Diorite_04.png","image_id":36,"category_name":"Diorite","category":3,"distinct_rating":2.98,"distinct_type":"Bottom","rt":null,"stimulus":"Stimuli_Rocks480/I_Diorite_04.png","response":null,"trial_type":"image-keyboard-response","trial_index":79,"plugin_version":"2.1.0","time_elapsed":159103,"subject_id":"91033","group":"Group1","condition":"3_Rep","full_date":"2026-02-13T22:14:08.663Z","date":"2026-02-13","time":"22:14:08"},{"rt":null,"stimulus":"<p style=\"font-size: 50px; margin: 0; text-align: center;\">+</p>","response":null,"trial_type":"html-keyboard-response","trial_index":80,"plugin_version":"2.1.0","time_elapsed":160106,"subject_id":"91033","group":"Group1","condition":"3_Rep","full_date":"2026-02-13T22:14:08.663Z","date":"2026-02-13","time":"22:14:08"},{"task":"memory_phase","broad_category":"I","image_png":"I_Basalt_01.png","image_id":17,"category_name":"Basalt","category":2,"distinct_rating":1.92,"distinct_type":"Bottom","rt":null,"stimulus":"Stimuli_Rocks480/I_Basalt_01.png","response":null,"trial_type":"image-keyboard-response","trial_index":81,"plugin_version":"2.1.0","time_elapsed":162620,"subject_id":"91033","group":"Group1","condition":"3_Rep","full_date":"2026-02-13T22:14:08.663Z","date":"2026-02-13","time":"22:14:08"},{"rt":null,"stimulus":"<p style=\"font-size: 50px; margin: 0; text-align: center;\">+</p>","response":null,"trial_type":"html-keyboard-response","trial_index":82,"plugin_version":"2.1.0","time_elapsed":163635,"subject_id":"91033","group":"Group1","condition":"3_Rep","full_date":"2026-02-13T22:14:08.663Z","date":"2026-02-13","time":"22:14:08"},{"task":"memory_phase","broad_category":"I","image_png":"I_Pumice_11.png","image_id":139,"category_name":"Pumice","category":9,"distinct_rating":1.74,"distinct_type":"Bottom","rt":null,"stimulus":"Stimuli_Rocks480/I_Pumice_11.png","response":null,"trial_type":"image-keyboard-response","trial_index":83,"plugin_version":"2.1.0","time_elapsed":166145,"subject_id":"91033","group":"Group1","condition":"3_Rep","full_date":"2026-02-13T22:14:08.663Z","date":"2026-02-13","time":"22:14:08"},{"rt":null,"stimulus":"<p style=\"font-size: 50px; margin: 0; text-align: center;\">+</p>","response":null,"trial_type":"html-keyboard-response","trial_index":84,"plugin_version":"2.1.0","time_elapsed":167151,"subject_id":"91033","group":"Group1","condition":"3_Rep","full_date":"2026-02-13T22:14:08.663Z","date":"2026-02-13","time":"22:14:08"},{"task":"memory_phase","broad_category":"I","image_png":"I_Pumice_08.png","image_id":136,"category_name":"Pumice","category":9,"distinct_rating":3.1,"distinct_type":"Bottom","rt":null,"stimulus":"Stimuli_Rocks480/I_Pumice_08.png","response":null,"trial_type":"image-keyboard-response","trial_index":85,"plugin_version":"2.1.0","time_elapsed":169668,"subject_id":"91033","group":"Group1","condition":"3_Rep","full_date":"2026-02-13T22:14:08.663Z","date":"2026-02-13","time":"22:14:08"},{"rt":null,"stimulus":"<p style=\"font-size: 50px; margin: 0; text-align: center;\">+</p>","response":null,"trial_type":"html-keyboard-response","trial_index":86,"plugin_version":"2.1.0","time_elapsed":170684,"subject_id":"91033","group":"Group1","condition":"3_Rep","full_date":"2026-02-13T22:14:08.663Z","date":"2026-02-13","time":"22:14:08"},{"task":"memory_phase","broad_category":"I","image_png":"I_Pumice_12.png","image_id":140,"category_name":"Pumice","category":9,"distinct_rating":2.97,"distinct_type":"Bottom","rt":null,"stimulus":"Stimuli_Rocks480/I_Pumice_12.png","response":null,"trial_type":"image-keyboard-response","trial_index":87,"plugin_version":"2.1.0","time_elapsed":173200,"subject_id":"91033","group":"Group1","condition":"3_Rep","full_date":"2026-02-13T22:14:08.663Z","date":"2026-02-13","time":"22:14:08"},{"rt":null,"stimulus":"<p style=\"font-size: 50px; margin: 0; text-align: center;\">+</p>","response":null,"trial_type":"html-keyboard-response","trial_index":88,"plugin_version":"2.1.0","time_elapsed":174203,"subject_id":"91033","group":"Group1","condition":"3_Rep","full_date":"2026-02-13T22:14:08.663Z","date":"2026-02-13","time":"22:14:08"},{"task":"memory_phase","broad_category":"I","image_png":"I_Basalt_09.png","image_id":25,"category_name":"Basalt","category":2,"distinct_rating":1.89,"distinct_type":"Bottom","rt":null,"stimulus":"Stimuli_Rocks480/I_Basalt_09.png","response":null,"trial_type":"image-keyboard-response","trial_index":89,"plugin_version":"2.1.0","time_elapsed":176711,"subject_id":"91033","group":"Group1","condition":"3_Rep","full_date":"2026-02-13T22:14:08.663Z","date":"2026-02-13","time":"22:14:08"},{"rt":null,"stimulus":"<p style=\"font-size: 50px; margin: 0; text-align: center;\">+</p>","response":null,"trial_type":"html-keyboard-response","trial_index":90,"plugin_version":"2.1.0","time_elapsed":177713,"subject_id":"91033","group":"Group1","condition":"3_Rep","full_date":"2026-02-13T22:14:08.663Z","date":"2026-02-13","time":"22:14:08"},{"task":"memory_phase","broad_category":"M","image_png":"M_Phyllite_10.png","image_id":266,"category_name":"Phyllite","category":17,"distinct_rating":2.6,"distinct_type":"Bottom","rt":null,"stimulus":"Stimuli_Rocks480/M_Phyllite_10.png","response":null,"trial_type":"image-keyboard-response","trial_index":91,"plugin_version":"2.1.0","time_elapsed":180222,"subject_id":"91033","group":"Group1","condition":"3_Rep","full_date":"2026-02-13T22:14:08.663Z","date":"2026-02-13","time":"22:14:08"},{"rt":null,"stimulus":"<p style=\"font-size: 50px; margin: 0; text-align: center;\">+</p>","response":null,"trial_type":"html-keyboard-response","trial_index":92,"plugin_version":"2.1.0","time_elapsed":181226,"subject_id":"91033","group":"Group1","condition":"3_Rep","full_date":"2026-02-13T22:14:08.663Z","date":"2026-02-13","time":"22:14:08"},{"task":"memory_phase","broad_category":"M","image_png":"M_Phyllite_03.png","image_id":259,"category_name":"Phyllite","category":17,"distinct_rating":2.5,"distinct_type":"Bottom","rt":null,"stimulus":"Stimuli_Rocks480/M_Phyllite_03.png","response":null,"trial_type":"image-keyboard-response","trial_index":93,"plugin_version":"2.1.0","time_elapsed":183728,"subject_id":"91033","group":"Group1","condition":"3_Rep","full_date":"2026-02-13T22:14:08.663Z","date":"2026-02-13","time":"22:14:08"},{"rt":null,"stimulus":"<p style=\"font-size: 50px; margin: 0; text-align: center;\">+</p>","response":null,"trial_type":"html-keyboard-response","trial_index":94,"plugin_version":"2.1.0","time_elapsed":184733,"subject_id":"91033","group":"Group1","condition":"3_Rep","full_date":"2026-02-13T22:14:08.663Z","date":"2026-02-13","time":"22:14:08"},{"task":"memory_phase","broad_category":"S","image_png":"S_Rock Salt_01.png","image_id":433,"category_name":"Rock Salt","category":28,"distinct_rating":7.18,"distinct_type":"Top","rt":null,"stimulus":"Stimuli_Rocks480/S_Rock Salt_01.png","response":null,"trial_type":"image-keyboard-response","trial_index":95,"plugin_version":"2.1.0","time_elapsed":187246,"subject_id":"91033","group":"Group1","condition":"3_Rep","full_date":"2026-02-13T22:14:08.663Z","date":"2026-02-13","time":"22:14:08"},{"rt":null,"stimulus":"<p style=\"font-size: 50px; margin: 0; text-align: center;\">+</p>","response":null,"trial_type":"html-keyboard-response","trial_index":96,"plugin_version":"2.1.0","time_elapsed":188248,"subject_id":"91033","group":"Group1","condition":"3_Rep","full_date":"2026-02-13T22:14:08.663Z","date":"2026-02-13","time":"22:14:08"},{"task":"memory_phase","broad_category":"S","image_png":"S_Shale_12.png","image_id":476,"category_name":"Shale","category":30,"distinct_rating":2.48,"distinct_type":"Bottom","rt":null,"stimulus":"Stimuli_Rocks480/S_Shale_12.png","response":null,"trial_type":"image-keyboard-response","trial_index":97,"plugin_version":"2.1.0","time_elapsed":190763,"subject_id":"91033","group":"Group1","condition":"3_Rep","full_date":"2026-02-13T22:14:08.663Z","date":"2026-02-13","time":"22:14:08"},{"rt":null,"stimulus":"<p style=\"font-size: 50px; margin: 0; text-align: center;\">+</p>","response":null,"trial_type":"html-keyboard-response","trial_index":98,"plugin_version":"2.1.0","time_elapsed":191775,"subject_id":"91033","group":"Group1","condition":"3_Rep","full_date":"2026-02-13T22:14:08.663Z","date":"2026-02-13","time":"22:14:08"},{"task":"memory_phase","broad_category":"S","image_png":"S_Shale_01.png","image_id":465,"category_name":"Shale","category":30,"distinct_rating":2.7,"distinct_type":"Bottom","rt":null,"stimulus":"Stimuli_Rocks480/S_Shale_01.png","response":null,"trial_type":"image-keyboard-response","trial_index":99,"plugin_version":"2.1.0","time_elapsed":194286,"subject_id":"91033","group":"Group1","condition":"3_Rep","full_date":"2026-02-13T22:14:08.663Z","date":"2026-02-13","time":"22:14:08"},{"rt":null,"stimulus":"<p style=\"font-size: 50px; margin: 0; text-align: center;\">+</p>","response":null,"trial_type":"html-keyboard-response","trial_index":100,"plugin_version":"2.1.0","time_elapsed":195292,"subject_id":"91033","group":"Group1","condition":"3_Rep","full_date":"2026-02-13T22:14:08.663Z","date":"2026-02-13","time":"22:14:08"},{"task":"memory_phase","broad_category":"I","image_png":"I_Basalt_02.png","image_id":18,"category_name":"Basalt","category":2,"distinct_rating":1.84,"distinct_type":"Bottom","rt":null,"stimulus":"Stimuli_Rocks480/I_Basalt_02.png","response":null,"trial_type":"image-keyboard-response","trial_index":101,"plugin_version":"2.1.0","time_elapsed":197804,"subject_id":"91033","group":"Group1","condition":"3_Rep","full_date":"2026-02-13T22:14:08.663Z","date":"2026-02-13","time":"22:14:08"},{"rt":null,"stimulus":"<p style=\"font-size: 50px; margin: 0; text-align: center;\">+</p>","response":null,"trial_type":"html-keyboard-response","trial_index":102,"plugin_version":"2.1.0","time_elapsed":198809,"subject_id":"91033","group":"Group1","condition":"3_Rep","full_date":"2026-02-13T22:14:08.663Z","date":"2026-02-13","time":"22:14:08"},{"task":"memory_phase","broad_category":"S","image_png":"S_Rock Gypsum_04.png","image_id":420,"category_name":"Rock Gypsum","category":27,"distinct_rating":7.61,"distinct_type":"Top","rt":null,"stimulus":"Stimuli_Rocks480/S_Rock Gypsum_04.png","response":null,"trial_type":"image-keyboard-response","trial_index":103,"plugin_version":"2.1.0","time_elapsed":201321,"subject_id":"91033","group":"Group1","condition":"3_Rep","full_date":"2026-02-13T22:14:08.663Z","date":"2026-02-13","time":"22:14:08"},{"rt":null,"stimulus":"<p style=\"font-size: 50px; margin: 0; text-align: center;\">+</p>","response":null,"trial_type":"html-keyboard-response","trial_index":104,"plugin_version":"2.1.0","time_elapsed":202327,"subject_id":"91033","group":"Group1","condition":"3_Rep","full_date":"2026-02-13T22:14:08.663Z","date":"2026-02-13","time":"22:14:08"},{"task":"memory_phase","broad_category":"M","image_png":"M_Marble_16.png","image_id":240,"category_name":"Marble","category":15,"distinct_rating":2.57,"distinct_type":"Bottom","rt":null,"stimulus":"Stimuli_Rocks480/M_Marble_16.png","response":null,"trial_type":"image-keyboard-response","trial_index":105,"plugin_version":"2.1.0","time_elapsed":204838,"subject_id":"91033","group":"Group1","condition":"3_Rep","full_date":"2026-02-13T22:14:08.663Z","date":"2026-02-13","time":"22:14:08"},{"rt":21737,"stimulus":"<p style=\"max-width: 760px; margin: auto; font-size: 35px; line-height: 1.5;\">\n                You have completed 1 study phase. \n                Now, we'll show you all the images again 2 more times.\n                <br><br>Press SPACE to continue\n              </p>","response":" ","trial_type":"html-keyboard-response","trial_index":106,"plugin_version":"2.1.0","time_elapsed":226576,"subject_id":"91033","group":"Group1","condition":"3_Rep","full_date":"2026-02-13T22:14:08.663Z","date":"2026-02-13","time":"22:14:08"},{"rt":null,"stimulus":"<p style=\"font-size: 50px; margin: 0; text-align: center;\">+</p>","response":null,"trial_type":"html-keyboard-response","trial_index":107,"plugin_version":"2.1.0","time_elapsed":227586,"subject_id":"91033","group":"Group1","condition":"3_Rep","full_date":"2026-02-13T22:14:08.663Z","date":"2026-02-13","time":"22:14:08"},{"task":"memory_phase","broad_category":"I","image_png":"I_Obsidian_05.png","image_id":85,"category_name":"Obsidian","category":6,"distinct_rating":7.32,"distinct_type":"Top","rt":null,"stimulus":"Stimuli_Rocks480/I_Obsidian_05.png","response":null,"trial_type":"image-keyboard-response","trial_index":108,"plugin_version":"2.1.0","time_elapsed":230093,"subject_id":"91033","group":"Group1","condition":"3_Rep","full_date":"2026-02-13T22:14:08.663Z","date":"2026-02-13","time":"22:14:08"},{"rt":null,"stimulus":"<p style=\"font-size: 50px; margin: 0; text-align: center;\">+</p>","response":null,"trial_type":"html-keyboard-response","trial_index":109,"plugin_version":"2.1.0","time_elapsed":231098,"subject_id":"91033","group":"Group1","condition":"3_Rep","full_date":"2026-02-13T22:14:08.663Z","date":"2026-02-13","time":"22:14:08"},{"task":"memory_phase","broad_category":"I","image_png":"I_Pegmatite_16.png","image_id":112,"category_name":"Pegmatite","category":7,"distinct_rating":7.03,"distinct_type":"Top","rt":null,"stimulus":"Stimuli_Rocks480/I_Pegmatite_16.png","response":null,"trial_type":"image-keyboard-response","trial_index":110,"plugin_version":"2.1.0","time_elapsed":233601,"subject_id":"91033","group":"Group1","condition":"3_Rep","full_date":"2026-02-13T22:14:08.663Z","date":"2026-02-13","time":"22:14:08"},{"rt":null,"stimulus":"<p style=\"font-size: 50px; margin: 0; text-align: center;\">+</p>","response":null,"trial_type":"html-keyboard-response","trial_index":111,"plugin_version":"2.1.0","time_elapsed":234609,"subject_id":"91033","group":"Group1","condition":"3_Rep","full_date":"2026-02-13T22:14:08.663Z","date":"2026-02-13","time":"22:14:08"},{"task":"memory_phase","broad_category":"S","image_png":"S_Shale_01.png","image_id":465,"category_name":"Shale","category":30,"distinct_rating":2.7,"distinct_type":"Bottom","rt":null,"stimulus":"Stimuli_Rocks480/S_Shale_01.png","response":null,"trial_type":"image-keyboard-response","trial_index":112,"plugin_version":"2.1.0","time_elapsed":237121,"subject_id":"91033","group":"Group1","condition":"3_Rep","full_date":"2026-02-13T22:14:08.663Z","date":"2026-02-13","time":"22:14:08"},{"rt":null,"stimulus":"<p style=\"font-size: 50px; margin: 0; text-align: center;\">+</p>","response":null,"trial_type":"html-keyboard-response","trial_index":113,"plugin_version":"2.1.0","time_elapsed":238125,"subject_id":"91033","group":"Group1","condition":"3_Rep","full_date":"2026-02-13T22:14:08.663Z","date":"2026-02-13","time":"22:14:08"},{"task":"memory_phase","broad_category":"M","image_png":"M_Gneiss_13.png","image_id":205,"category_name":"Gneiss","category":13,"distinct_rating":3.26,"distinct_type":"Bottom","rt":null,"stimulus":"Stimuli_Rocks480/M_Gneiss_13.png","response":null,"trial_type":"image-keyboard-response","trial_index":114,"plugin_version":"2.1.0","time_elapsed":240634,"subject_id":"91033","group":"Group1","condition":"3_Rep","full_date":"2026-02-13T22:14:08.663Z","date":"2026-02-13","time":"22:14:08"},{"rt":null,"stimulus":"<p style=\"font-size: 50px; margin: 0; text-align: center;\">+</p>","response":null,"trial_type":"html-keyboard-response","trial_index":115,"plugin_version":"2.1.0","time_elapsed":241650,"subject_id":"91033","group":"Group1","condition":"3_Rep","full_date":"2026-02-13T22:14:08.663Z","date":"2026-02-13","time":"22:14:08"},{"task":"memory_phase","broad_category":"M","image_png":"M_Quartzite_08.png","image_id":280,"category_name":"Quartzite","category":18,"distinct_rating":2.15,"distinct_type":"Bottom","rt":null,"stimulus":"Stimuli_Rocks480/M_Quartzite_08.png","response":null,"trial_type":"image-keyboard-response","trial_index":116,"plugin_version":"2.1.0","time_elapsed":244165,"subject_id":"91033","group":"Group1","condition":"3_Rep","full_date":"2026-02-13T22:14:08.663Z","date":"2026-02-13","time":"22:14:08"},{"rt":null,"stimulus":"<p style=\"font-size: 50px; margin: 0; text-align: center;\">+</p>","response":null,"trial_type":"html-keyboard-response","trial_index":117,"plugin_version":"2.1.0","time_elapsed":245166,"subject_id":"91033","group":"Group1","condition":"3_Rep","full_date":"2026-02-13T22:14:08.663Z","date":"2026-02-13","time":"22:14:08"},{"task":"memory_phase","broad_category":"S","image_png":"S_Dolomite_12.png","image_id":396,"category_name":"Dolomite","category":25,"distinct_rating":1.85,"distinct_type":"Bottom","rt":null,"stimulus":"Stimuli_Rocks480/S_Dolomite_12.png","response":null,"trial_type":"image-keyboard-response","trial_index":118,"plugin_version":"2.1.0","time_elapsed":247673,"subject_id":"91033","group":"Group1","condition":"3_Rep","full_date":"2026-02-13T22:14:08.663Z","date":"2026-02-13","time":"22:14:08"},{"rt":null,"stimulus":"<p style=\"font-size: 50px; margin: 0; text-align: center;\">+</p>","response":null,"trial_type":"html-keyboard-response","trial_index":119,"plugin_version":"2.1.0","time_elapsed":248682,"subject_id":"91033","group":"Group1","condition":"3_Rep","full_date":"2026-02-13T22:14:08.663Z","date":"2026-02-13","time":"22:14:08"},{"task":"memory_phase","broad_category":"S","image_png":"S_Conglomerate_05.png","image_id":373,"category_name":"Conglomerate","category":24,"distinct_rating":7.32,"distinct_type":"Top","rt":null,"stimulus":"Stimuli_Rocks480/S_Conglomerate_05.png","response":null,"trial_type":"image-keyboard-response","trial_index":120,"plugin_version":"2.1.0","time_elapsed":251188,"subject_id":"91033","group":"Group1","condition":"3_Rep","full_date":"2026-02-13T22:14:08.663Z","date":"2026-02-13","time":"22:14:08"},{"rt":null,"stimulus":"<p style=\"font-size: 50px; margin: 0; text-align: center;\">+</p>","response":null,"trial_type":"html-keyboard-response","trial_index":121,"plugin_version":"2.1.0","time_elapsed":252202,"subject_id":"91033","group":"Group1","condition":"3_Rep","full_date":"2026-02-13T22:14:08.663Z","date":"2026-02-13","time":"22:14:08"},{"task":"memory_phase","broad_category":"M","image_png":"M_Slate_03.png","image_id":307,"category_name":"Slate","category":20,"distinct_rating":1.87,"distinct_type":"Bottom","rt":null,"stimulus":"Stimuli_Rocks480/M_Slate_03.png","response":null,"trial_type":"image-keyboard-response","trial_index":122,"plugin_version":"2.1.0","time_elapsed":254711,"subject_id":"91033","group":"Group1","condition":"3_Rep","full_date":"2026-02-13T22:14:08.663Z","date":"2026-02-13","time":"22:14:08"},{"rt":null,"stimulus":"<p style=\"font-size: 50px; margin: 0; text-align: center;\">+</p>","response":null,"trial_type":"html-keyboard-response","trial_index":123,"plugin_version":"2.1.0","time_elapsed":255726,"subject_id":"91033","group":"Group1","condition":"3_Rep","full_date":"2026-02-13T22:14:08.663Z","date":"2026-02-13","time":"22:14:08"},{"task":"memory_phase","broad_category":"S","image_png":"S_Chert_10.png","image_id":362,"category_name":"Chert","category":23,"distinct_rating":7.17,"distinct_type":"Top","rt":null,"stimulus":"Stimuli_Rocks480/S_Chert_10.png","response":null,"trial_type":"image-keyboard-response","trial_index":124,"plugin_version":"2.1.0","time_elapsed":258238,"subject_id":"91033","group":"Group1","condition":"3_Rep","full_date":"2026-02-13T22:14:08.663Z","date":"2026-02-13","time":"22:14:08"},{"rt":null,"stimulus":"<p style=\"font-size: 50px; margin: 0; text-align: center;\">+</p>","response":null,"trial_type":"html-keyboard-response","trial_index":125,"plugin_version":"2.1.0","time_elapsed":259252,"subject_id":"91033","group":"Group1","condition":"3_Rep","full_date":"2026-02-13T22:14:08.663Z","date":"2026-02-13","time":"22:14:08"},{"task":"memory_phase","broad_category":"I","image_png":"I_Gabbro_11.png","image_id":59,"category_name":"Gabbro","category":4,"distinct_rating":1.99,"distinct_type":"Bottom","rt":null,"stimulus":"Stimuli_Rocks480/I_Gabbro_11.png","response":null,"trial_type":"image-keyboard-response","trial_index":126,"plugin_version":"2.1.0","time_elapsed":261762,"subject_id":"91033","group":"Group1","condition":"3_Rep","full_date":"2026-02-13T22:14:08.663Z","date":"2026-02-13","time":"22:14:08"},{"rt":null,"stimulus":"<p style=\"font-size: 50px; margin: 0; text-align: center;\">+</p>","response":null,"trial_type":"html-keyboard-response","trial_index":127,"plugin_version":"2.1.0","time_elapsed":262775,"subject_id":"91033","group":"Group1","condition":"3_Rep","full_date":"2026-02-13T22:14:08.663Z","date":"2026-02-13","time":"22:14:08"},{"task":"memory_phase","broad_category":"M","image_png":"M_Marble_06.png","image_id":230,"category_name":"Marble","category":15,"distinct_rating":3.4,"distinct_type":"Bottom","rt":null,"stimulus":"Stimuli_Rocks480/M_Marble_06.png","response":null,"trial_type":"image-keyboard-response","trial_index":128,"plugin_version":"2.1.0","time_elapsed":265287,"subject_id":"91033","group":"Group1","condition":"3_Rep","full_date":"2026-02-13T22:14:08.663Z","date":"2026-02-13","time":"22:14:08"},{"rt":null,"stimulus":"<p style=\"font-size: 50px; margin: 0; text-align: center;\">+</p>","response":null,"trial_type":"html-keyboard-response","trial_index":129,"plugin_version":"2.1.0","time_elapsed":266293,"subject_id":"91033","group":"Group1","condition":"3_Rep","full_date":"2026-02-13T22:14:08.663Z","date":"2026-02-13","time":"22:14:08"},{"task":"memory_phase","broad_category":"I","image_png":"I_Pumice_12.png","image_id":140,"category_name":"Pumice","category":9,"distinct_rating":2.97,"distinct_type":"Bottom","rt":null,"stimulus":"Stimuli_Rocks480/I_Pumice_12.png","response":null,"trial_type":"image-keyboard-response","trial_index":130,"plugin_version":"2.1.0","time_elapsed":268803,"subject_id":"91033","group":"Group1","condition":"3_Rep","full_date":"2026-02-13T22:14:08.663Z","date":"2026-02-13","time":"22:14:08"},{"rt":null,"stimulus":"<p style=\"font-size: 50px; margin: 0; text-align: center;\">+</p>","response":null,"trial_type":"html-keyboard-response","trial_index":131,"plugin_version":"2.1.0","time_elapsed":269817,"subject_id":"91033","group":"Group1","condition":"3_Rep","full_date":"2026-02-13T22:14:08.663Z","date":"2026-02-13","time":"22:14:08"},{"task":"memory_phase","broad_category":"M","image_png":"M_Gneiss_05.png","image_id":197,"category_name":"Gneiss","category":13,"distinct_rating":2.97,"distinct_type":"Bottom","rt":null,"stimulus":"Stimuli_Rocks480/M_Gneiss_05.png","response":null,"trial_type":"image-keyboard-response","trial_index":132,"plugin_version":"2.1.0","time_elapsed":272335,"subject_id":"91033","group":"Group1","condition":"3_Rep","full_date":"2026-02-13T22:14:08.663Z","date":"2026-02-13","time":"22:14:08"},{"rt":null,"stimulus":"<p style=\"font-size: 50px; margin: 0; text-align: center;\">+</p>","response":null,"trial_type":"html-keyboard-response","trial_index":133,"plugin_version":"2.1.0","time_elapsed":273340,"subject_id":"91033","group":"Group1","condition":"3_Rep","full_date":"2026-02-13T22:14:08.663Z","date":"2026-02-13","time":"22:14:08"},{"task":"memory_phase","broad_category":"I","image_png":"I_Andesite_08.png","image_id":8,"category_name":"Andesite","category":1,"distinct_rating":1.95,"distinct_type":"Bottom","rt":null,"stimulus":"Stimuli_Rocks480/I_Andesite_08.png","response":null,"trial_type":"image-keyboard-response","trial_index":134,"plugin_version":"2.1.0","time_elapsed":275848,"subject_id":"91033","group":"Group1","condition":"3_Rep","full_date":"2026-02-13T22:14:08.663Z","date":"2026-02-13","time":"22:14:08"},{"rt":null,"stimulus":"<p style=\"font-size: 50px; margin: 0; text-align: center;\">+</p>","response":null,"trial_type":"html-keyboard-response","trial_index":135,"plugin_version":"2.1.0","time_elapsed":276858,"subject_id":"91033","group":"Group1","condition":"3_Rep","full_date":"2026-02-13T22:14:08.663Z","date":"2026-02-13","time":"22:14:08"},{"task":"memory_phase","broad_category":"I","image_png":"I_Basalt_09.png","image_id":25,"category_name":"Basalt","category":2,"distinct_rating":1.89,"distinct_type":"Bottom","rt":null,"stimulus":"Stimuli_Rocks480/I_Basalt_09.png","response":null,"trial_type":"image-keyboard-response","trial_index":136,"plugin_version":"2.1.0","time_elapsed":279370,"subject_id":"91033","group":"Group1","condition":"3_Rep","full_date":"2026-02-13T22:14:08.663Z","date":"2026-02-13","time":"22:14:08"},{"rt":null,"stimulus":"<p style=\"font-size: 50px; margin: 0; text-align: center;\">+</p>","response":null,"trial_type":"html-keyboard-response","trial_index":137,"plugin_version":"2.1.0","time_elapsed":280374,"subject_id":"91033","group":"Group1","condition":"3_Rep","full_date":"2026-02-13T22:14:08.663Z","date":"2026-02-13","time":"22:14:08"},{"task":"memory_phase","broad_category":"I","image_png":"I_Diorite_03.png","image_id":35,"category_name":"Diorite","category":3,"distinct_rating":3.14,"distinct_type":"Bottom","rt":null,"stimulus":"Stimuli_Rocks480/I_Diorite_03.png","response":null,"trial_type":"image-keyboard-response","trial_index":138,"plugin_version":"2.1.0","time_elapsed":282890,"subject_id":"91033","group":"Group1","condition":"3_Rep","full_date":"2026-02-13T22:14:08.663Z","date":"2026-02-13","time":"22:14:08"},{"rt":null,"stimulus":"<p style=\"font-size: 50px; margin: 0; text-align: center;\">+</p>","response":null,"trial_type":"html-keyboard-response","trial_index":139,"plugin_version":"2.1.0","time_elapsed":283894,"subject_id":"91033","group":"Group1","condition":"3_Rep","full_date":"2026-02-13T22:14:08.663Z","date":"2026-02-13","time":"22:14:08"},{"task":"memory_phase","broad_category":"I","image_png":"I_Basalt_01.png","image_id":17,"category_name":"Basalt","category":2,"distinct_rating":1.92,"distinct_type":"Bottom","rt":null,"stimulus":"Stimuli_Rocks480/I_Basalt_01.png","response":null,"trial_type":"image-keyboard-response","trial_index":140,"plugin_version":"2.1.0","time_elapsed":286400,"subject_id":"91033","group":"Group1","condition":"3_Rep","full_date":"2026-02-13T22:14:08.663Z","date":"2026-02-13","time":"22:14:08"},{"rt":null,"stimulus":"<p style=\"font-size: 50px; margin: 0; text-align: center;\">+</p>","response":null,"trial_type":"html-keyboard-response","trial_index":141,"plugin_version":"2.1.0","time_elapsed":287406,"subject_id":"91033","group":"Group1","condition":"3_Rep","full_date":"2026-02-13T22:14:08.663Z","date":"2026-02-13","time":"22:14:08"},{"task":"memory_phase","broad_category":"I","image_png":"I_Diorite_04.png","image_id":36,"category_name":"Diorite","category":3,"distinct_rating":2.98,"distinct_type":"Bottom","rt":null,"stimulus":"Stimuli_Rocks480/I_Diorite_04.png","response":null,"trial_type":"image-keyboard-response","trial_index":142,"plugin_version":"2.1.0","time_elapsed":289917,"subject_id":"91033","group":"Group1","condition":"3_Rep","full_date":"2026-02-13T22:14:08.663Z","date":"2026-02-13","time":"22:14:08"},{"rt":null,"stimulus":"<p style=\"font-size: 50px; margin: 0; text-align: center;\">+</p>","response":null,"trial_type":"html-keyboard-response","trial_index":143,"plugin_version":"2.1.0","time_elapsed":290932,"subject_id":"91033","group":"Group1","condition":"3_Rep","full_date":"2026-02-13T22:14:08.663Z","date":"2026-02-13","time":"22:14:08"},{"task":"memory_phase","broad_category":"M","image_png":"M_Gneiss_06.png","image_id":198,"category_name":"Gneiss","category":13,"distinct_rating":2.65,"distinct_type":"Bottom","rt":null,"stimulus":"Stimuli_Rocks480/M_Gneiss_06.png","response":null,"trial_type":"image-keyboard-response","trial_index":144,"plugin_version":"2.1.0","time_elapsed":293437,"subject_id":"91033","group":"Group1","condition":"3_Rep","full_date":"2026-02-13T22:14:08.663Z","date":"2026-02-13","time":"22:14:08"},{"rt":null,"stimulus":"<p style=\"font-size: 50px; margin: 0; text-align: center;\">+</p>","response":null,"trial_type":"html-keyboard-response","trial_index":145,"plugin_version":"2.1.0","time_elapsed":294439,"subject_id":"91033","group":"Group1","condition":"3_Rep","full_date":"2026-02-13T22:14:08.663Z","date":"2026-02-13","time":"22:14:08"},{"task":"memory_phase","broad_category":"I","image_png":"I_Gabbro_08.png","image_id":56,"category_name":"Gabbro","category":4,"distinct_rating":3.02,"distinct_type":"Bottom","rt":null,"stimulus":"Stimuli_Rocks480/I_Gabbro_08.png","response":null,"trial_type":"image-keyboard-response","trial_index":146,"plugin_version":"2.1.0","time_elapsed":296957,"subject_id":"91033","group":"Group1","condition":"3_Rep","full_date":"2026-02-13T22:14:08.663Z","date":"2026-02-13","time":"22:14:08"},{"rt":null,"stimulus":"<p style=\"font-size: 50px; margin: 0; text-align: center;\">+</p>","response":null,"trial_type":"html-keyboard-response","trial_index":147,"plugin_version":"2.1.0","time_elapsed":297972,"subject_id":"91033","group":"Group1","condition":"3_Rep","full_date":"2026-02-13T22:14:08.663Z","date":"2026-02-13","time":"22:14:08"},{"task":"memory_phase","broad_category":"S","image_png":"S_Rock Salt_01.png","image_id":433,"category_name":"Rock Salt","category":28,"distinct_rating":7.18,"distinct_type":"Top","rt":null,"stimulus":"Stimuli_Rocks480/S_Rock Salt_01.png","response":null,"trial_type":"image-keyboard-response","trial_index":148,"plugin_version":"2.1.0","time_elapsed":300477,"subject_id":"91033","group":"Group1","condition":"3_Rep","full_date":"2026-02-13T22:14:08.663Z","date":"2026-02-13","time":"22:14:08"},{"rt":null,"stimulus":"<p style=\"font-size: 50px; margin: 0; text-align: center;\">+</p>","response":null,"trial_type":"html-keyboard-response","trial_index":149,"plugin_version":"2.1.0","time_elapsed":301493,"subject_id":"91033","group":"Group1","condition":"3_Rep","full_date":"2026-02-13T22:14:08.663Z","date":"2026-02-13","time":"22:14:08"},{"task":"memory_phase","broad_category":"M","image_png":"M_Slate_15.png","image_id":319,"category_name":"Slate","category":20,"distinct_rating":2.13,"distinct_type":"Bottom","rt":null,"stimulus":"Stimuli_Rocks480/M_Slate_15.png","response":null,"trial_type":"image-keyboard-response","trial_index":150,"plugin_version":"2.1.0","time_elapsed":304004,"subject_id":"91033","group":"Group1","condition":"3_Rep","full_date":"2026-02-13T22:14:08.663Z","date":"2026-02-13","time":"22:14:08"},{"rt":null,"stimulus":"<p style=\"font-size: 50px; margin: 0; text-align: center;\">+</p>","response":null,"trial_type":"html-keyboard-response","trial_index":151,"plugin_version":"2.1.0","time_elapsed":305016,"subject_id":"91033","group":"Group1","condition":"3_Rep","full_date":"2026-02-13T22:14:08.663Z","date":"2026-02-13","time":"22:14:08"},{"task":"memory_phase","broad_category":"S","image_png":"S_Breccia_11.png","image_id":347,"category_name":"Breccia","category":22,"distinct_rating":6.7,"distinct_type":"Top","rt":null,"stimulus":"Stimuli_Rocks480/S_Breccia_11.png","response":null,"trial_type":"image-keyboard-response","trial_index":152,"plugin_version":"2.1.0","time_elapsed":307528,"subject_id":"91033","group":"Group1","condition":"3_Rep","full_date":"2026-02-13T22:14:08.663Z","date":"2026-02-13","time":"22:14:08"},{"rt":null,"stimulus":"<p style=\"font-size: 50px; margin: 0; text-align: center;\">+</p>","response":null,"trial_type":"html-keyboard-response","trial_index":153,"plugin_version":"2.1.0","time_elapsed":308532,"subject_id":"91033","group":"Group1","condition":"3_Rep","full_date":"2026-02-13T22:14:08.663Z","date":"2026-02-13","time":"22:14:08"},{"task":"memory_phase","broad_category":"S","image_png":"S_Shale_08.png","image_id":472,"category_name":"Shale","category":30,"distinct_rating":2.55,"distinct_type":"Bottom","rt":null,"stimulus":"Stimuli_Rocks480/S_Shale_08.png","response":null,"trial_type":"image-keyboard-response","trial_index":154,"plugin_version":"2.1.0","time_elapsed":311038,"subject_id":"91033","group":"Group1","condition":"3_Rep","full_date":"2026-02-13T22:14:08.663Z","date":"2026-02-13","time":"22:14:08"},{"rt":null,"stimulus":"<p style=\"font-size: 50px; margin: 0; text-align: center;\">+</p>","response":null,"trial_type":"html-keyboard-response","trial_index":155,"plugin_version":"2.1.0","time_elapsed":312048,"subject_id":"91033","group":"Group1","condition":"3_Rep","full_date":"2026-02-13T22:14:08.663Z","date":"2026-02-13","time":"22:14:08"},{"task":"memory_phase","broad_category":"M","image_png":"M_Marble_04.png","image_id":228,"category_name":"Marble","category":15,"distinct_rating":3.15,"distinct_type":"Bottom","rt":null,"stimulus":"Stimuli_Rocks480/M_Marble_04.png","response":null,"trial_type":"image-keyboard-response","trial_index":156,"plugin_version":"2.1.0","time_elapsed":314561,"subject_id":"91033","group":"Group1","condition":"3_Rep","full_date":"2026-02-13T22:14:08.663Z","date":"2026-02-13","time":"22:14:08"},{"rt":652979,"stimulus":"<p style=\"max-width: 760px; margin: auto; font-size: 35px; line-height: 1.5;\">\n                Press SPACE to continue study phase\n              </p>","response":" ","trial_type":"html-keyboard-response","trial_index":157,"plugin_version":"2.1.0","time_elapsed":967541,"subject_id":"91033","group":"Group1","condition":"3_Rep","full_date":"2026-02-13T22:14:08.663Z","date":"2026-02-13","time":"22:14:08"},{"rt":null,"stimulus":"<p style=\"font-size: 50px; margin: 0; text-align: center;\">+</p>","response":null,"trial_type":"html-keyboard-response","trial_index":158,"plugin_version":"2.1.0","time_elapsed":968552,"subject_id":"91033","group":"Group1","condition":"3_Rep","full_date":"2026-02-13T22:14:08.663Z","date":"2026-02-13","time":"22:14:08"},{"task":"memory_phase","broad_category":"M","image_png":"M_Marble_16.png","image_id":240,"category_name":"Marble","category":15,"distinct_rating":2.57,"distinct_type":"Bottom","rt":null,"stimulus":"Stimuli_Rocks480/M_Marble_16.png","response":null,"trial_type":"image-keyboard-response","trial_index":159,"plugin_version":"2.1.0","time_elapsed":971057,"subject_id":"91033","group":"Group1","condition":"3_Rep","full_date":"2026-02-13T22:14:08.663Z","date":"2026-02-13","time":"22:14:08"},{"rt":null,"stimulus":"<p style=\"font-size: 50px; margin: 0; text-align: center;\">+</p>","response":null,"trial_type":"html-keyboard-response","trial_index":160,"plugin_version":"2.1.0","time_elapsed":972070,"subject_id":"91033","group":"Group1","condition":"3_Rep","full_date":"2026-02-13T22:14:08.663Z","date":"2026-02-13","time":"22:14:08"},{"task":"memory_phase","broad_category":"S","image_png":"S_Rock Gypsum_04.png","image_id":420,"category_name":"Rock Gypsum","category":27,"distinct_rating":7.61,"distinct_type":"Top","rt":null,"stimulus":"Stimuli_Rocks480/S_Rock Gypsum_04.png","response":null,"trial_type":"image-keyboard-response","trial_index":161,"plugin_version":"2.1.0","time_elapsed":974584,"subject_id":"91033","group":"Group1","condition":"3_Rep","full_date":"2026-02-13T22:14:08.663Z","date":"2026-02-13","time":"22:14:08"},{"rt":null,"stimulus":"<p style=\"font-size: 50px; margin: 0; text-align: center;\">+</p>","response":null,"trial_type":"html-keyboard-response","trial_index":162,"plugin_version":"2.1.0","time_elapsed":975587,"subject_id":"91033","group":"Group1","condition":"3_Rep","full_date":"2026-02-13T22:14:08.663Z","date":"2026-02-13","time":"22:14:08"},{"task":"memory_phase","broad_category":"M","image_png":"M_Slate_11.png","image_id":315,"category_name":"Slate","category":20,"distinct_rating":2.75,"distinct_type":"Bottom","rt":null,"stimulus":"Stimuli_Rocks480/M_Slate_11.png","response":null,"trial_type":"image-keyboard-response","trial_index":163,"plugin_version":"2.1.0","time_elapsed":978103,"subject_id":"91033","group":"Group1","condition":"3_Rep","full_date":"2026-02-13T22:14:08.663Z","date":"2026-02-13","time":"22:14:08"},{"rt":null,"stimulus":"<p style=\"font-size: 50px; margin: 0; text-align: center;\">+</p>","response":null,"trial_type":"html-keyboard-response","trial_index":164,"plugin_version":"2.1.0","time_elapsed":979105,"subject_id":"91033","group":"Group1","condition":"3_Rep","full_date":"2026-02-13T22:14:08.663Z","date":"2026-02-13","time":"22:14:08"},{"task":"memory_phase","broad_category":"I","image_png":"I_Diorite_05.png","image_id":37,"category_name":"Diorite","category":3,"distinct_rating":3.08,"distinct_type":"Bottom","rt":null,"stimulus":"Stimuli_Rocks480/I_Diorite_05.png","response":null,"trial_type":"image-keyboard-response","trial_index":165,"plugin_version":"2.1.0","time_elapsed":981609,"subject_id":"91033","group":"Group1","condition":"3_Rep","full_date":"2026-02-13T22:14:08.663Z","date":"2026-02-13","time":"22:14:08"},{"rt":null,"stimulus":"<p style=\"font-size: 50px; margin: 0; text-align: center;\">+</p>","response":null,"trial_type":"html-keyboard-response","trial_index":166,"plugin_version":"2.1.0","time_elapsed":982625,"subject_id":"91033","group":"Group1","condition":"3_Rep","full_date":"2026-02-13T22:14:08.663Z","date":"2026-02-13","time":"22:14:08"},{"task":"memory_phase","broad_category":"I","image_png":"I_Pumice_11.png","image_id":139,"category_name":"Pumice","category":9,"distinct_rating":1.74,"distinct_type":"Bottom","rt":null,"stimulus":"Stimuli_Rocks480/I_Pumice_11.png","response":null,"trial_type":"image-keyboard-response","trial_index":167,"plugin_version":"2.1.0","time_elapsed":985954,"subject_id":"91033","group":"Group1","condition":"3_Rep","full_date":"2026-02-13T22:14:08.663Z","date":"2026-02-13","time":"22:14:08"},{"rt":null,"stimulus":"<p style=\"font-size: 50px; margin: 0; text-align: center;\">+</p>","response":null,"trial_type":"html-keyboard-response","trial_index":168,"plugin_version":"2.1.0","time_elapsed":987585,"subject_id":"91033","group":"Group1","condition":"3_Rep","full_date":"2026-02-13T22:14:08.663Z","date":"2026-02-13","time":"22:14:08"},{"task":"memory_phase","broad_category":"M","image_png":"M_Phyllite_07.png","image_id":263,"category_name":"Phyllite","category":17,"distinct_rating":2.59,"distinct_type":"Bottom","rt":null,"stimulus":"Stimuli_Rocks480/M_Phyllite_07.png","response":null,"trial_type":"image-keyboard-response","trial_index":169,"plugin_version":"2.1.0","time_elapsed":990101,"subject_id":"91033","group":"Group1","condition":"3_Rep","full_date":"2026-02-13T22:14:08.663Z","date":"2026-02-13","time":"22:14:08"},{"rt":null,"stimulus":"<p style=\"font-size: 50px; margin: 0; text-align: center;\">+</p>","response":null,"trial_type":"html-keyboard-response","trial_index":170,"plugin_version":"2.1.0","time_elapsed":991117,"subject_id":"91033","group":"Group1","condition":"3_Rep","full_date":"2026-02-13T22:14:08.663Z","date":"2026-02-13","time":"22:14:08"},{"task":"memory_phase","broad_category":"I","image_png":"I_Andesite_10.png","image_id":10,"category_name":"Andesite","category":1,"distinct_rating":3.15,"distinct_type":"Bottom","rt":null,"stimulus":"Stimuli_Rocks480/I_Andesite_10.png","response":null,"trial_type":"image-keyboard-response","trial_index":171,"plugin_version":"2.1.0","time_elapsed":993624,"subject_id":"91033","group":"Group1","condition":"3_Rep","full_date":"2026-02-13T22:14:08.663Z","date":"2026-02-13","time":"22:14:08"},{"rt":null,"stimulus":"<p style=\"font-size: 50px; margin: 0; text-align: center;\">+</p>","response":null,"trial_type":"html-keyboard-response","trial_index":172,"plugin_version":"2.1.0","time_elapsed":994632,"subject_id":"91033","group":"Group1","condition":"3_Rep","full_date":"2026-02-13T22:14:08.663Z","date":"2026-02-13","time":"22:14:08"},{"task":"memory_phase","broad_category":"I","image_png":"I_Pegmatite_10.png","image_id":106,"category_name":"Pegmatite","category":7,"distinct_rating":7.66,"distinct_type":"Top","rt":null,"stimulus":"Stimuli_Rocks480/I_Pegmatite_10.png","response":null,"trial_type":"image-keyboard-response","trial_index":173,"plugin_version":"2.1.0","time_elapsed":997134,"subject_id":"91033","group":"Group1","condition":"3_Rep","full_date":"2026-02-13T22:14:08.663Z","date":"2026-02-13","time":"22:14:08"},{"rt":null,"stimulus":"<p style=\"font-size: 50px; margin: 0; text-align: center;\">+</p>","response":null,"trial_type":"html-keyboard-response","trial_index":174,"plugin_version":"2.1.0","time_elapsed":998149,"subject_id":"91033","group":"Group1","condition":"3_Rep","full_date":"2026-02-13T22:14:08.663Z","date":"2026-02-13","time":"22:14:08"},{"task":"memory_phase","broad_category":"I","image_png":"I_Rhyolite_14.png","image_id":158,"category_name":"Rhyolite","category":10,"distinct_rating":2.59,"distinct_type":"Bottom","rt":null,"stimulus":"Stimuli_Rocks480/I_Rhyolite_14.png","response":null,"trial_type":"image-keyboard-response","trial_index":175,"plugin_version":"2.1.0","time_elapsed":1000665,"subject_id":"91033","group":"Group1","condition":"3_Rep","full_date":"2026-02-13T22:14:08.663Z","date":"2026-02-13","time":"22:14:08"},{"rt":null,"stimulus":"<p style=\"font-size: 50px; margin: 0; text-align: center;\">+</p>","response":null,"trial_type":"html-keyboard-response","trial_index":176,"plugin_version":"2.1.0","time_elapsed":1001681,"subject_id":"91033","group":"Group1","condition":"3_Rep","full_date":"2026-02-13T22:14:08.663Z","date":"2026-02-13","time":"22:14:08"},{"task":"memory_phase","broad_category":"I","image_png":"I_Rhyolite_16.png","image_id":160,"category_name":"Rhyolite","category":10,"distinct_rating":2.19,"distinct_type":"Bottom","rt":null,"stimulus":"Stimuli_Rocks480/I_Rhyolite_16.png","response":null,"trial_type":"image-keyboard-response","trial_index":177,"plugin_version":"2.1.0","time_elapsed":1004191,"subject_id":"91033","group":"Group1","condition":"3_Rep","full_date":"2026-02-13T22:14:08.663Z","date":"2026-02-13","time":"22:14:08"},{"rt":null,"stimulus":"<p style=\"font-size: 50px; margin: 0; text-align: center;\">+</p>","response":null,"trial_type":"html-keyboard-response","trial_index":178,"plugin_version":"2.1.0","time_elapsed":1005194,"subject_id":"91033","group":"Group1","condition":"3_Rep","full_date":"2026-02-13T22:14:08.663Z","date":"2026-02-13","time":"22:14:08"},{"task":"memory_phase","broad_category":"I","image_png":"I_Pumice_08.png","image_id":136,"category_name":"Pumice","category":9,"distinct_rating":3.1,"distinct_type":"Bottom","rt":null,"stimulus":"Stimuli_Rocks480/I_Pumice_08.png","response":null,"trial_type":"image-keyboard-response","trial_index":179,"plugin_version":"2.1.0","time_elapsed":1007697,"subject_id":"91033","group":"Group1","condition":"3_Rep","full_date":"2026-02-13T22:14:08.663Z","date":"2026-02-13","time":"22:14:08"},{"rt":null,"stimulus":"<p style=\"font-size: 50px; margin: 0; text-align: center;\">+</p>","response":null,"trial_type":"html-keyboard-response","trial_index":180,"plugin_version":"2.1.0","time_elapsed":1008699,"subject_id":"91033","group":"Group1","condition":"3_Rep","full_date":"2026-02-13T22:14:08.663Z","date":"2026-02-13","time":"22:14:08"},{"task":"memory_phase","broad_category":"S","image_png":"S_Sandstone_03.png","image_id":451,"category_name":"Sandstone","category":29,"distinct_rating":1.86,"distinct_type":"Bottom","rt":null,"stimulus":"Stimuli_Rocks480/S_Sandstone_03.png","response":null,"trial_type":"image-keyboard-response","trial_index":181,"plugin_version":"2.1.0","time_elapsed":1011211,"subject_id":"91033","group":"Group1","condition":"3_Rep","full_date":"2026-02-13T22:14:08.663Z","date":"2026-02-13","time":"22:14:08"},{"rt":null,"stimulus":"<p style=\"font-size: 50px; margin: 0; text-align: center;\">+</p>","response":null,"trial_type":"html-keyboard-response","trial_index":182,"plugin_version":"2.1.0","time_elapsed":1012216,"subject_id":"91033","group":"Group1","condition":"3_Rep","full_date":"2026-02-13T22:14:08.663Z","date":"2026-02-13","time":"22:14:08"},{"task":"memory_phase","broad_category":"I","image_png":"I_Andesite_06.png","image_id":6,"category_name":"Andesite","category":1,"distinct_rating":3.17,"distinct_type":"Bottom","rt":null,"stimulus":"Stimuli_Rocks480/I_Andesite_06.png","response":null,"trial_type":"image-keyboard-response","trial_index":183,"plugin_version":"2.1.0","time_elapsed":1014719,"subject_id":"91033","group":"Group1","condition":"3_Rep","full_date":"2026-02-13T22:14:08.663Z","date":"2026-02-13","time":"22:14:08"},{"rt":null,"stimulus":"<p style=\"font-size: 50px; margin: 0; text-align: center;\">+</p>","response":null,"trial_type":"html-keyboard-response","trial_index":184,"plugin_version":"2.1.0","time_elapsed":1015730,"subject_id":"91033","group":"Group1","condition":"3_Rep","full_date":"2026-02-13T22:14:08.663Z","date":"2026-02-13","time":"22:14:08"},{"task":"memory_phase","broad_category":"S","image_png":"S_Sandstone_15.png","image_id":463,"category_name":"Sandstone","category":29,"distinct_rating":2,"distinct_type":"Bottom","rt":null,"stimulus":"Stimuli_Rocks480/S_Sandstone_15.png","response":null,"trial_type":"image-keyboard-response","trial_index":185,"plugin_version":"2.1.0","time_elapsed":1018235,"subject_id":"91033","group":"Group1","condition":"3_Rep","full_date":"2026-02-13T22:14:08.663Z","date":"2026-02-13","time":"22:14:08"},{"rt":null,"stimulus":"<p style=\"font-size: 50px; margin: 0; text-align: center;\">+</p>","response":null,"trial_type":"html-keyboard-response","trial_index":186,"plugin_version":"2.1.0","time_elapsed":1019237,"subject_id":"91033","group":"Group1","condition":"3_Rep","full_date":"2026-02-13T22:14:08.663Z","date":"2026-02-13","time":"22:14:08"},{"task":"memory_phase","broad_category":"I","image_png":"I_Rhyolite_11.png","image_id":155,"category_name":"Rhyolite","category":10,"distinct_rating":1.73,"distinct_type":"Bottom","rt":null,"stimulus":"Stimuli_Rocks480/I_Rhyolite_11.png","response":null,"trial_type":"image-keyboard-response","trial_index":187,"plugin_version":"2.1.0","time_elapsed":1021741,"subject_id":"91033","group":"Group1","condition":"3_Rep","full_date":"2026-02-13T22:14:08.663Z","date":"2026-02-13","time":"22:14:08"},{"rt":null,"stimulus":"<p style=\"font-size: 50px; margin: 0; text-align: center;\">+</p>","response":null,"trial_type":"html-keyboard-response","trial_index":188,"plugin_version":"2.1.0","time_elapsed":1022742,"subject_id":"91033","group":"Group1","condition":"3_Rep","full_date":"2026-02-13T22:14:08.663Z","date":"2026-02-13","time":"22:14:08"},{"task":"memory_phase","broad_category":"S","image_png":"S_Dolomite_14.png","image_id":398,"category_name":"Dolomite","category":25,"distinct_rating":1.43,"distinct_type":"Bottom","rt":null,"stimulus":"Stimuli_Rocks480/S_Dolomite_14.png","response":null,"trial_type":"image-keyboard-response","trial_index":189,"plugin_version":"2.1.0","time_elapsed":1025256,"subject_id":"91033","group":"Group1","condition":"3_Rep","full_date":"2026-02-13T22:14:08.663Z","date":"2026-02-13","time":"22:14:08"},{"rt":null,"stimulus":"<p style=\"font-size: 50px; margin: 0; text-align: center;\">+</p>","response":null,"trial_type":"html-keyboard-response","trial_index":190,"plugin_version":"2.1.0","time_elapsed":1026265,"subject_id":"91033","group":"Group1","condition":"3_Rep","full_date":"2026-02-13T22:14:08.663Z","date":"2026-02-13","time":"22:14:08"},{"task":"memory_phase","broad_category":"S","image_png":"S_Dolomite_13.png","image_id":397,"category_name":"Dolomite","category":25,"distinct_rating":1.77,"distinct_type":"Bottom","rt":null,"stimulus":"Stimuli_Rocks480/S_Dolomite_13.png","response":null,"trial_type":"image-keyboard-response","trial_index":191,"plugin_version":"2.1.0","time_elapsed":1028774,"subject_id":"91033","group":"Group1","condition":"3_Rep","full_date":"2026-02-13T22:14:08.663Z","date":"2026-02-13","time":"22:14:08"},{"rt":null,"stimulus":"<p style=\"font-size: 50px; margin: 0; text-align: center;\">+</p>","response":null,"trial_type":"html-keyboard-response","trial_index":192,"plugin_version":"2.1.0","time_elapsed":1029786,"subject_id":"91033","group":"Group1","condition":"3_Rep","full_date":"2026-02-13T22:14:08.663Z","date":"2026-02-13","time":"22:14:08"},{"task":"memory_phase","broad_category":"M","image_png":"M_Phyllite_03.png","image_id":259,"category_name":"Phyllite","category":17,"distinct_rating":2.5,"distinct_type":"Bottom","rt":null,"stimulus":"Stimuli_Rocks480/M_Phyllite_03.png","response":null,"trial_type":"image-keyboard-response","trial_index":193,"plugin_version":"2.1.0","time_elapsed":1032296,"subject_id":"91033","group":"Group1","condition":"3_Rep","full_date":"2026-02-13T22:14:08.663Z","date":"2026-02-13","time":"22:14:08"},{"rt":null,"stimulus":"<p style=\"font-size: 50px; margin: 0; text-align: center;\">+</p>","response":null,"trial_type":"html-keyboard-response","trial_index":194,"plugin_version":"2.1.0","time_elapsed":1033307,"subject_id":"91033","group":"Group1","condition":"3_Rep","full_date":"2026-02-13T22:14:08.663Z","date":"2026-02-13","time":"22:14:08"},{"task":"memory_phase","broad_category":"I","image_png":"I_Basalt_02.png","image_id":18,"category_name":"Basalt","category":2,"distinct_rating":1.84,"distinct_type":"Bottom","rt":null,"stimulus":"Stimuli_Rocks480/I_Basalt_02.png","response":null,"trial_type":"image-keyboard-response","trial_index":195,"plugin_version":"2.1.0","time_elapsed":1035823,"subject_id":"91033","group":"Group1","condition":"3_Rep","full_date":"2026-02-13T22:14:08.663Z","date":"2026-02-13","time":"22:14:08"},{"rt":null,"stimulus":"<p style=\"font-size: 50px; margin: 0; text-align: center;\">+</p>","response":null,"trial_type":"html-keyboard-response","trial_index":196,"plugin_version":"2.1.0","time_elapsed":1036825,"subject_id":"91033","group":"Group1","condition":"3_Rep","full_date":"2026-02-13T22:14:08.663Z","date":"2026-02-13","time":"22:14:08"},{"task":"memory_phase","broad_category":"I","image_png":"I_Gabbro_16.png","image_id":64,"category_name":"Gabbro","category":4,"distinct_rating":2.52,"distinct_type":"Bottom","rt":null,"stimulus":"Stimuli_Rocks480/I_Gabbro_16.png","response":null,"trial_type":"image-keyboard-response","trial_index":197,"plugin_version":"2.1.0","time_elapsed":1039341,"subject_id":"91033","group":"Group1","condition":"3_Rep","full_date":"2026-02-13T22:14:08.663Z","date":"2026-02-13","time":"22:14:08"},{"rt":null,"stimulus":"<p style=\"font-size: 50px; margin: 0; text-align: center;\">+</p>","response":null,"trial_type":"html-keyboard-response","trial_index":198,"plugin_version":"2.1.0","time_elapsed":1040355,"subject_id":"91033","group":"Group1","condition":"3_Rep","full_date":"2026-02-13T22:14:08.663Z","date":"2026-02-13","time":"22:14:08"},{"task":"memory_phase","broad_category":"S","image_png":"S_Sandstone_16.png","image_id":464,"category_name":"Sandstone","category":29,"distinct_rating":1.93,"distinct_type":"Bottom","rt":null,"stimulus":"Stimuli_Rocks480/S_Sandstone_16.png","response":null,"trial_type":"image-keyboard-response","trial_index":199,"plugin_version":"2.1.0","time_elapsed":1042872,"subject_id":"91033","group":"Group1","condition":"3_Rep","full_date":"2026-02-13T22:14:08.663Z","date":"2026-02-13","time":"22:14:08"},{"rt":null,"stimulus":"<p style=\"font-size: 50px; margin: 0; text-align: center;\">+</p>","response":null,"trial_type":"html-keyboard-response","trial_index":200,"plugin_version":"2.1.0","time_elapsed":1043883,"subject_id":"91033","group":"Group1","condition":"3_Rep","full_date":"2026-02-13T22:14:08.663Z","date":"2026-02-13","time":"22:14:08"},{"task":"memory_phase","broad_category":"S","image_png":"S_Shale_12.png","image_id":476,"category_name":"Shale","category":30,"distinct_rating":2.48,"distinct_type":"Bottom","rt":null,"stimulus":"Stimuli_Rocks480/S_Shale_12.png","response":null,"trial_type":"image-keyboard-response","trial_index":201,"plugin_version":"2.1.0","time_elapsed":1046386,"subject_id":"91033","group":"Group1","condition":"3_Rep","full_date":"2026-02-13T22:14:08.663Z","date":"2026-02-13","time":"22:14:08"},{"rt":null,"stimulus":"<p style=\"font-size: 50px; margin: 0; text-align: center;\">+</p>","response":null,"trial_type":"html-keyboard-response","trial_index":202,"plugin_version":"2.1.0","time_elapsed":1047403,"subject_id":"91033","group":"Group1","condition":"3_Rep","full_date":"2026-02-13T22:14:08.663Z","date":"2026-02-13","time":"22:14:08"},{"task":"memory_phase","broad_category":"M","image_png":"M_Phyllite_10.png","image_id":266,"category_name":"Phyllite","category":17,"distinct_rating":2.6,"distinct_type":"Bottom","rt":null,"stimulus":"Stimuli_Rocks480/M_Phyllite_10.png","response":null,"trial_type":"image-keyboard-response","trial_index":203,"plugin_version":"2.1.0","time_elapsed":1049919,"subject_id":"91033","group":"Group1","condition":"3_Rep","full_date":"2026-02-13T22:14:08.663Z","date":"2026-02-13","time":"22:14:08"},{"rt":null,"stimulus":"<p style=\"font-size: 50px; margin: 0; text-align: center;\">+</p>","response":null,"trial_type":"html-keyboard-response","trial_index":204,"plugin_version":"2.1.0","time_elapsed":1050921,"subject_id":"91033","group":"Group1","condition":"3_Rep","full_date":"2026-02-13T22:14:08.663Z","date":"2026-02-13","time":"22:14:08"},{"task":"memory_phase","broad_category":"M","image_png":"M_Quartzite_13.png","image_id":285,"category_name":"Quartzite","category":18,"distinct_rating":2.27,"distinct_type":"Bottom","rt":null,"stimulus":"Stimuli_Rocks480/M_Quartzite_13.png","response":null,"trial_type":"image-keyboard-response","trial_index":205,"plugin_version":"2.1.0","time_elapsed":1053432,"subject_id":"91033","group":"Group1","condition":"3_Rep","full_date":"2026-02-13T22:14:08.663Z","date":"2026-02-13","time":"22:14:08"},{"rt":null,"stimulus":"<p style=\"font-size: 50px; margin: 0; text-align: center;\">+</p>","response":null,"trial_type":"html-keyboard-response","trial_index":206,"plugin_version":"2.1.0","time_elapsed":1054435,"subject_id":"91033","group":"Group1","condition":"3_Rep","full_date":"2026-02-13T22:14:08.663Z","date":"2026-02-13","time":"22:14:08"},{"task":"memory_phase","broad_category":"M","image_png":"M_Quartzite_05.png","image_id":277,"category_name":"Quartzite","category":18,"distinct_rating":2.23,"distinct_type":"Bottom","rt":null,"stimulus":"Stimuli_Rocks480/M_Quartzite_05.png","response":null,"trial_type":"image-keyboard-response","trial_index":207,"plugin_version":"2.1.0","time_elapsed":1056938,"subject_id":"91033","group":"Group1","condition":"3_Rep","full_date":"2026-02-13T22:14:08.663Z","date":"2026-02-13","time":"22:14:08"},{"rt":619693,"stimulus":"<p style=\"max-width: 760px; margin: auto; font-size: 35px; line-height: 1.5;\">\n                You have completed 2 study phases. \n                Now, we'll show you all the images again 1 more time.\n                <br><br>Press SPACE to continue\n              </p>","response":" ","trial_type":"html-keyboard-response","trial_index":208,"plugin_version":"2.1.0","time_elapsed":1676632,"subject_id":"91033","group":"Group1","condition":"3_Rep","full_date":"2026-02-13T22:14:08.663Z","date":"2026-02-13","time":"22:14:08"},{"rt":null,"stimulus":"<p style=\"font-size: 50px; margin: 0; text-align: center;\">+</p>","response":null,"trial_type":"html-keyboard-response","trial_index":209,"plugin_version":"2.1.0","time_elapsed":1677644,"subject_id":"91033","group":"Group1","condition":"3_Rep","full_date":"2026-02-13T22:14:08.663Z","date":"2026-02-13","time":"22:14:08"},{"task":"memory_phase","broad_category":"S","image_png":"S_Dolomite_13.png","image_id":397,"category_name":"Dolomite","category":25,"distinct_rating":1.77,"distinct_type":"Bottom","rt":null,"stimulus":"Stimuli_Rocks480/S_Dolomite_13.png","response":null,"trial_type":"image-keyboard-response","trial_index":210,"plugin_version":"2.1.0","time_elapsed":1680161,"subject_id":"91033","group":"Group1","condition":"3_Rep","full_date":"2026-02-13T22:14:08.663Z","date":"2026-02-13","time":"22:14:08"},{"rt":null,"stimulus":"<p style=\"font-size: 50px; margin: 0; text-align: center;\">+</p>","response":null,"trial_type":"html-keyboard-response","trial_index":211,"plugin_version":"2.1.0","time_elapsed":1681164,"subject_id":"91033","group":"Group1","condition":"3_Rep","full_date":"2026-02-13T22:14:08.663Z","date":"2026-02-13","time":"22:14:08"},{"task":"memory_phase","broad_category":"M","image_png":"M_Marble_04.png","image_id":228,"category_name":"Marble","category":15,"distinct_rating":3.15,"distinct_type":"Bottom","rt":null,"stimulus":"Stimuli_Rocks480/M_Marble_04.png","response":null,"trial_type":"image-keyboard-response","trial_index":212,"plugin_version":"2.1.0","time_elapsed":1683676,"subject_id":"91033","group":"Group1","condition":"3_Rep","full_date":"2026-02-13T22:14:08.663Z","date":"2026-02-13","time":"22:14:08"},{"rt":null,"stimulus":"<p style=\"font-size: 50px; margin: 0; text-align: center;\">+</p>","response":null,"trial_type":"html-keyboard-response","trial_index":213,"plugin_version":"2.1.0","time_elapsed":1684685,"subject_id":"91033","group":"Group1","condition":"3_Rep","full_date":"2026-02-13T22:14:08.663Z","date":"2026-02-13","time":"22:14:08"},{"task":"memory_phase","broad_category":"M","image_png":"M_Phyllite_10.png","image_id":266,"category_name":"Phyllite","category":17,"distinct_rating":2.6,"distinct_type":"Bottom","rt":null,"stimulus":"Stimuli_Rocks480/M_Phyllite_10.png","response":null,"trial_type":"image-keyboard-response","trial_index":214,"plugin_version":"2.1.0","time_elapsed":1687196,"subject_id":"91033","group":"Group1","condition":"3_Rep","full_date":"2026-02-13T22:14:08.663Z","date":"2026-02-13","time":"22:14:08"},{"rt":null,"stimulus":"<p style=\"font-size: 50px; margin: 0; text-align: center;\">+</p>","response":null,"trial_type":"html-keyboard-response","trial_index":215,"plugin_version":"2.1.0","time_elapsed":1688211,"subject_id":"91033","group":"Group1","condition":"3_Rep","full_date":"2026-02-13T22:14:08.663Z","date":"2026-02-13","time":"22:14:08"},{"task":"memory_phase","broad_category":"I","image_png":"I_Gabbro_16.png","image_id":64,"category_name":"Gabbro","category":4,"distinct_rating":2.52,"distinct_type":"Bottom","rt":null,"stimulus":"Stimuli_Rocks480/I_Gabbro_16.png","response":null,"trial_type":"image-keyboard-response","trial_index":216,"plugin_version":"2.1.0","time_elapsed":1690720,"subject_id":"91033","group":"Group1","condition":"3_Rep","full_date":"2026-02-13T22:14:08.663Z","date":"2026-02-13","time":"22:14:08"},{"rt":null,"stimulus":"<p style=\"font-size: 50px; margin: 0; text-align: center;\">+</p>","response":null,"trial_type":"html-keyboard-response","trial_index":217,"plugin_version":"2.1.0","time_elapsed":1691736,"subject_id":"91033","group":"Group1","condition":"3_Rep","full_date":"2026-02-13T22:14:08.663Z","date":"2026-02-13","time":"22:14:08"},{"task":"memory_phase","broad_category":"S","image_png":"S_Shale_01.png","image_id":465,"category_name":"Shale","category":30,"distinct_rating":2.7,"distinct_type":"Bottom","rt":null,"stimulus":"Stimuli_Rocks480/S_Shale_01.png","response":null,"trial_type":"image-keyboard-response","trial_index":218,"plugin_version":"2.1.0","time_elapsed":1694245,"subject_id":"91033","group":"Group1","condition":"3_Rep","full_date":"2026-02-13T22:14:08.663Z","date":"2026-02-13","time":"22:14:08"},{"rt":null,"stimulus":"<p style=\"font-size: 50px; margin: 0; text-align: center;\">+</p>","response":null,"trial_type":"html-keyboard-response","trial_index":219,"plugin_version":"2.1.0","time_elapsed":1695261,"subject_id":"91033","group":"Group1","condition":"3_Rep","full_date":"2026-02-13T22:14:08.663Z","date":"2026-02-13","time":"22:14:08"},{"task":"memory_phase","broad_category":"M","image_png":"M_Slate_11.png","image_id":315,"category_name":"Slate","category":20,"distinct_rating":2.75,"distinct_type":"Bottom","rt":null,"stimulus":"Stimuli_Rocks480/M_Slate_11.png","response":null,"trial_type":"image-keyboard-response","trial_index":220,"plugin_version":"2.1.0","time_elapsed":1697764,"subject_id":"91033","group":"Group1","condition":"3_Rep","full_date":"2026-02-13T22:14:08.663Z","date":"2026-02-13","time":"22:14:08"},{"rt":null,"stimulus":"<p style=\"font-size: 50px; margin: 0; text-align: center;\">+</p>","response":null,"trial_type":"html-keyboard-response","trial_index":221,"plugin_version":"2.1.0","time_elapsed":1698766,"subject_id":"91033","group":"Group1","condition":"3_Rep","full_date":"2026-02-13T22:14:08.663Z","date":"2026-02-13","time":"22:14:08"},{"task":"memory_phase","broad_category":"M","image_png":"M_Marble_06.png","image_id":230,"category_name":"Marble","category":15,"distinct_rating":3.4,"distinct_type":"Bottom","rt":null,"stimulus":"Stimuli_Rocks480/M_Marble_06.png","response":null,"trial_type":"image-keyboard-response","trial_index":222,"plugin_version":"2.1.0","time_elapsed":1701277,"subject_id":"91033","group":"Group1","condition":"3_Rep","full_date":"2026-02-13T22:14:08.663Z","date":"2026-02-13","time":"22:14:08"},{"rt":null,"stimulus":"<p style=\"font-size: 50px; margin: 0; text-align: center;\">+</p>","response":null,"trial_type":"html-keyboard-response","trial_index":223,"plugin_version":"2.1.0","time_elapsed":1702285,"subject_id":"91033","group":"Group1","condition":"3_Rep","full_date":"2026-02-13T22:14:08.663Z","date":"2026-02-13","time":"22:14:08"},{"task":"memory_phase","broad_category":"I","image_png":"I_Andesite_08.png","image_id":8,"category_name":"Andesite","category":1,"distinct_rating":1.95,"distinct_type":"Bottom","rt":null,"stimulus":"Stimuli_Rocks480/I_Andesite_08.png","response":null,"trial_type":"image-keyboard-response","trial_index":224,"plugin_version":"2.1.0","time_elapsed":1704796,"subject_id":"91033","group":"Group1","condition":"3_Rep","full_date":"2026-02-13T22:14:08.663Z","date":"2026-02-13","time":"22:14:08"},{"rt":null,"stimulus":"<p style=\"font-size: 50px; margin: 0; text-align: center;\">+</p>","response":null,"trial_type":"html-keyboard-response","trial_index":225,"plugin_version":"2.1.0","time_elapsed":1705804,"subject_id":"91033","group":"Group1","condition":"3_Rep","full_date":"2026-02-13T22:14:08.663Z","date":"2026-02-13","time":"22:14:08"},{"task":"memory_phase","broad_category":"S","image_png":"S_Shale_12.png","image_id":476,"category_name":"Shale","category":30,"distinct_rating":2.48,"distinct_type":"Bottom","rt":null,"stimulus":"Stimuli_Rocks480/S_Shale_12.png","response":null,"trial_type":"image-keyboard-response","trial_index":226,"plugin_version":"2.1.0","time_elapsed":1708312,"subject_id":"91033","group":"Group1","condition":"3_Rep","full_date":"2026-02-13T22:14:08.663Z","date":"2026-02-13","time":"22:14:08"},{"rt":null,"stimulus":"<p style=\"font-size: 50px; margin: 0; text-align: center;\">+</p>","response":null,"trial_type":"html-keyboard-response","trial_index":227,"plugin_version":"2.1.0","time_elapsed":1709324,"subject_id":"91033","group":"Group1","condition":"3_Rep","full_date":"2026-02-13T22:14:08.663Z","date":"2026-02-13","time":"22:14:08"},{"task":"memory_phase","broad_category":"S","image_png":"S_Dolomite_12.png","image_id":396,"category_name":"Dolomite","category":25,"distinct_rating":1.85,"distinct_type":"Bottom","rt":null,"stimulus":"Stimuli_Rocks480/S_Dolomite_12.png","response":null,"trial_type":"image-keyboard-response","trial_index":228,"plugin_version":"2.1.0","time_elapsed":1711839,"subject_id":"91033","group":"Group1","condition":"3_Rep","full_date":"2026-02-13T22:14:08.663Z","date":"2026-02-13","time":"22:14:08"},{"rt":null,"stimulus":"<p style=\"font-size: 50px; margin: 0; text-align: center;\">+</p>","response":null,"trial_type":"html-keyboard-response","trial_index":229,"plugin_version":"2.1.0","time_elapsed":1712840,"subject_id":"91033","group":"Group1","condition":"3_Rep","full_date":"2026-02-13T22:14:08.663Z","date":"2026-02-13","time":"22:14:08"},{"task":"memory_phase","broad_category":"M","image_png":"M_Quartzite_08.png","image_id":280,"category_name":"Quartzite","category":18,"distinct_rating":2.15,"distinct_type":"Bottom","rt":null,"stimulus":"Stimuli_Rocks480/M_Quartzite_08.png","response":null,"trial_type":"image-keyboard-response","trial_index":230,"plugin_version":"2.1.0","time_elapsed":1715343,"subject_id":"91033","group":"Group1","condition":"3_Rep","full_date":"2026-02-13T22:14:08.663Z","date":"2026-02-13","time":"22:14:08"},{"rt":null,"stimulus":"<p style=\"font-size: 50px; margin: 0; text-align: center;\">+</p>","response":null,"trial_type":"html-keyboard-response","trial_index":231,"plugin_version":"2.1.0","time_elapsed":1716350,"subject_id":"91033","group":"Group1","condition":"3_Rep","full_date":"2026-02-13T22:14:08.663Z","date":"2026-02-13","time":"22:14:08"},{"task":"memory_phase","broad_category":"S","image_png":"S_Breccia_11.png","image_id":347,"category_name":"Breccia","category":22,"distinct_rating":6.7,"distinct_type":"Top","rt":null,"stimulus":"Stimuli_Rocks480/S_Breccia_11.png","response":null,"trial_type":"image-keyboard-response","trial_index":232,"plugin_version":"2.1.0","time_elapsed":1718854,"subject_id":"91033","group":"Group1","condition":"3_Rep","full_date":"2026-02-13T22:14:08.663Z","date":"2026-02-13","time":"22:14:08"},{"rt":null,"stimulus":"<p style=\"font-size: 50px; margin: 0; text-align: center;\">+</p>","response":null,"trial_type":"html-keyboard-response","trial_index":233,"plugin_version":"2.1.0","time_elapsed":1719856,"subject_id":"91033","group":"Group1","condition":"3_Rep","full_date":"2026-02-13T22:14:08.663Z","date":"2026-02-13","time":"22:14:08"},{"task":"memory_phase","broad_category":"S","image_png":"S_Sandstone_15.png","image_id":463,"category_name":"Sandstone","category":29,"distinct_rating":2,"distinct_type":"Bottom","rt":null,"stimulus":"Stimuli_Rocks480/S_Sandstone_15.png","response":null,"trial_type":"image-keyboard-response","trial_index":234,"plugin_version":"2.1.0","time_elapsed":1722359,"subject_id":"91033","group":"Group1","condition":"3_Rep","full_date":"2026-02-13T22:14:08.663Z","date":"2026-02-13","time":"22:14:08"},{"rt":null,"stimulus":"<p style=\"font-size: 50px; margin: 0; text-align: center;\">+</p>","response":null,"trial_type":"html-keyboard-response","trial_index":235,"plugin_version":"2.1.0","time_elapsed":1723364,"subject_id":"91033","group":"Group1","condition":"3_Rep","full_date":"2026-02-13T22:14:08.663Z","date":"2026-02-13","time":"22:14:08"},{"task":"memory_phase","broad_category":"M","image_png":"M_Gneiss_13.png","image_id":205,"category_name":"Gneiss","category":13,"distinct_rating":3.26,"distinct_type":"Bottom","rt