[{"width":1040,"height":870,"webaudio":true,"browser":"chrome","browser_version":"144.0.0","mobile":false,"os":"Mac OS","fullscreen":true,"vsync_rate":60.31,"webcam":true,"microphone":true,"trial_type":"browser-check","trial_index":0,"plugin_version":"2.1.0","time_elapsed":1012,"subject_id":"91158","group":"Group2","condition":"1_Rep","full_date":"2026-02-02T22:56:33.839Z","date":"2026-02-02","time":"22:56:33"},{"success":true,"timeout":false,"failed_images":[],"failed_audio":[],"failed_video":[],"trial_type":"preload","trial_index":1,"plugin_version":"2.1.0","time_elapsed":3045,"subject_id":"91158","group":"Group2","condition":"1_Rep","full_date":"2026-02-02T22:56:33.839Z","date":"2026-02-02","time":"22:56:33"},{"rt":6350,"url":"SONA_consent_memorability.html","trial_type":"external-html","trial_index":2,"plugin_version":"2.1.0","time_elapsed":9525,"subject_id":"91158","group":"Group2","condition":"1_Rep","full_date":"2026-02-02T22:56:33.839Z","date":"2026-02-02","time":"22:56:33"},{"success":true,"rt":929,"trial_type":"fullscreen","trial_index":3,"plugin_version":"2.1.0","time_elapsed":11458,"subject_id":"91158","group":"Group2","condition":"1_Rep","full_date":"2026-02-02T22:56:33.839Z","date":"2026-02-02","time":"22:56:33"},{"rt":5397,"stimulus":"<div style=\"max-width: 760px; margin: auto; font-size: 20px; line-height: 1.5;\">\n      <h1 style=\"text-align:center; font-size: 30px;\">Instructions</h1>\n      <p>\n        Welcome to the study on <b>visual memory</b>. This experiment consists of <b>two phases</b>: \n        a <b>study phase</b> and a <b>test phase</b>.\n      </p>\n      <p>\n        In the study phase, you will see a series of rock images along with their category labels.\n        The images will appear one at a time.\n        <b>Your task</b> is to learn the categories to which the rock images belong \n        and to remember each image as accurately as possible.\n      </p> \n      <p>\n        Note that you will see each image only <b>once</b> during the study phase. \n          So, please pay close attention and try to remember each image carefully.\n      </p>\n      <p>\n        After the study phase, <b>your memory will be tested</b>. \n        Additional instructions for the test phase will be provided at that time.\n      </p>\n      <p>\n        If your computer has multiple <b>language settings</b> (e.g., English and another language),\n        please make sure it is set to English before starting.\n      </p>\n      <p>\n        You can track your progress using the <b>completion bar</b> at the top of the screen. \n        Please note that the bar will refresh when the test phase begins \n        to give you an accurate sense of your progress in both phases.\n      </p> \n      <p>\n        Press the button below when you are ready to begin.\n      </p>\n    </div>","response":0,"trial_type":"html-button-response","trial_index":4,"plugin_version":"2.1.0","time_elapsed":16858,"subject_id":"91158","group":"Group2","condition":"1_Rep","full_date":"2026-02-02T22:56:33.839Z","date":"2026-02-02","time":"22:56:33"},{"rt":null,"stimulus":"<p style=\"font-size: 50px; margin: 0; text-align: center;\">+</p>","response":null,"trial_type":"html-keyboard-response","trial_index":5,"plugin_version":"2.1.0","time_elapsed":17861,"subject_id":"91158","group":"Group2","condition":"1_Rep","full_date":"2026-02-02T22:56:33.839Z","date":"2026-02-02","time":"22:56:33"},{"task":"memory_phase","broad_category":"M","image_png":"M_Gneiss_14.png","image_id":206,"category_name":"Gneiss","category":13,"distinct_rating":3.41,"distinct_type":"Bottom","rt":null,"stimulus":"Stimuli_Rocks480/M_Gneiss_14.png","response":null,"trial_type":"image-keyboard-response","trial_index":6,"plugin_version":"2.1.0","time_elapsed":20367,"subject_id":"91158","group":"Group2","condition":"1_Rep","full_date":"2026-02-02T22:56:33.839Z","date":"2026-02-02","time":"22:56:33"},{"rt":null,"stimulus":"<p style=\"font-size: 50px; margin: 0; text-align: center;\">+</p>","response":null,"trial_type":"html-keyboard-response","trial_index":7,"plugin_version":"2.1.0","time_elapsed":21369,"subject_id":"91158","group":"Group2","condition":"1_Rep","full_date":"2026-02-02T22:56:33.839Z","date":"2026-02-02","time":"22:56:33"},{"task":"memory_phase","broad_category":"S","image_png":"S_Rock Salt_13.png","image_id":445,"category_name":"Rock Salt","category":28,"distinct_rating":7.58,"distinct_type":"Top","rt":null,"stimulus":"Stimuli_Rocks480/S_Rock Salt_13.png","response":null,"trial_type":"image-keyboard-response","trial_index":8,"plugin_version":"2.1.0","time_elapsed":23873,"subject_id":"91158","group":"Group2","condition":"1_Rep","full_date":"2026-02-02T22:56:33.839Z","date":"2026-02-02","time":"22:56:33"},{"rt":null,"stimulus":"<p style=\"font-size: 50px; margin: 0; text-align: center;\">+</p>","response":null,"trial_type":"html-keyboard-response","trial_index":9,"plugin_version":"2.1.0","time_elapsed":24876,"subject_id":"91158","group":"Group2","condition":"1_Rep","full_date":"2026-02-02T22:56:33.839Z","date":"2026-02-02","time":"22:56:33"},{"task":"memory_phase","broad_category":"I","image_png":"I_Basalt_08.png","image_id":24,"category_name":"Basalt","category":2,"distinct_rating":2.31,"distinct_type":"Bottom","rt":null,"stimulus":"Stimuli_Rocks480/I_Basalt_08.png","response":null,"trial_type":"image-keyboard-response","trial_index":10,"plugin_version":"2.1.0","time_elapsed":27379,"subject_id":"91158","group":"Group2","condition":"1_Rep","full_date":"2026-02-02T22:56:33.839Z","date":"2026-02-02","time":"22:56:33"},{"rt":null,"stimulus":"<p style=\"font-size: 50px; margin: 0; text-align: center;\">+</p>","response":null,"trial_type":"html-keyboard-response","trial_index":11,"plugin_version":"2.1.0","time_elapsed":28382,"subject_id":"91158","group":"Group2","condition":"1_Rep","full_date":"2026-02-02T22:56:33.839Z","date":"2026-02-02","time":"22:56:33"},{"task":"memory_phase","broad_category":"S","image_png":"S_Sandstone_08.png","image_id":456,"category_name":"Sandstone","category":29,"distinct_rating":1.5,"distinct_type":"Bottom","rt":null,"stimulus":"Stimuli_Rocks480/S_Sandstone_08.png","response":null,"trial_type":"image-keyboard-response","trial_index":12,"plugin_version":"2.1.0","time_elapsed":30885,"subject_id":"91158","group":"Group2","condition":"1_Rep","full_date":"2026-02-02T22:56:33.839Z","date":"2026-02-02","time":"22:56:33"},{"rt":null,"stimulus":"<p style=\"font-size: 50px; margin: 0; text-align: center;\">+</p>","response":null,"trial_type":"html-keyboard-response","trial_index":13,"plugin_version":"2.1.0","time_elapsed":31888,"subject_id":"91158","group":"Group2","condition":"1_Rep","full_date":"2026-02-02T22:56:33.839Z","date":"2026-02-02","time":"22:56:33"},{"task":"memory_phase","broad_category":"M","image_png":"M_Phyllite_13.png","image_id":269,"category_name":"Phyllite","category":17,"distinct_rating":2.8,"distinct_type":"Bottom","rt":null,"stimulus":"Stimuli_Rocks480/M_Phyllite_13.png","response":null,"trial_type":"image-keyboard-response","trial_index":14,"plugin_version":"2.1.0","time_elapsed":34392,"subject_id":"91158","group":"Group2","condition":"1_Rep","full_date":"2026-02-02T22:56:33.839Z","date":"2026-02-02","time":"22:56:33"},{"rt":null,"stimulus":"<p style=\"font-size: 50px; margin: 0; text-align: center;\">+</p>","response":null,"trial_type":"html-keyboard-response","trial_index":15,"plugin_version":"2.1.0","time_elapsed":35394,"subject_id":"91158","group":"Group2","condition":"1_Rep","full_date":"2026-02-02T22:56:33.839Z","date":"2026-02-02","time":"22:56:33"},{"task":"memory_phase","broad_category":"I","image_png":"I_Pumice_01.png","image_id":129,"category_name":"Pumice","category":9,"distinct_rating":3.25,"distinct_type":"Bottom","rt":null,"stimulus":"Stimuli_Rocks480/I_Pumice_01.png","response":null,"trial_type":"image-keyboard-response","trial_index":16,"plugin_version":"2.1.0","time_elapsed":37898,"subject_id":"91158","group":"Group2","condition":"1_Rep","full_date":"2026-02-02T22:56:33.839Z","date":"2026-02-02","time":"22:56:33"},{"rt":null,"stimulus":"<p style=\"font-size: 50px; margin: 0; text-align: center;\">+</p>","response":null,"trial_type":"html-keyboard-response","trial_index":17,"plugin_version":"2.1.0","time_elapsed":38901,"subject_id":"91158","group":"Group2","condition":"1_Rep","full_date":"2026-02-02T22:56:33.839Z","date":"2026-02-02","time":"22:56:33"},{"task":"memory_phase","broad_category":"I","image_png":"I_Peridotite_13.png","image_id":125,"category_name":"Peridotite","category":8,"distinct_rating":7.28,"distinct_type":"Top","rt":null,"stimulus":"Stimuli_Rocks480/I_Peridotite_13.png","response":null,"trial_type":"image-keyboard-response","trial_index":18,"plugin_version":"2.1.0","time_elapsed":41404,"subject_id":"91158","group":"Group2","condition":"1_Rep","full_date":"2026-02-02T22:56:33.839Z","date":"2026-02-02","time":"22:56:33"},{"rt":null,"stimulus":"<p style=\"font-size: 50px; margin: 0; text-align: center;\">+</p>","response":null,"trial_type":"html-keyboard-response","trial_index":19,"plugin_version":"2.1.0","time_elapsed":42406,"subject_id":"91158","group":"Group2","condition":"1_Rep","full_date":"2026-02-02T22:56:33.839Z","date":"2026-02-02","time":"22:56:33"},{"task":"memory_phase","broad_category":"S","image_png":"S_Sandstone_11.png","image_id":459,"category_name":"Sandstone","category":29,"distinct_rating":1.82,"distinct_type":"Bottom","rt":null,"stimulus":"Stimuli_Rocks480/S_Sandstone_11.png","response":null,"trial_type":"image-keyboard-response","trial_index":20,"plugin_version":"2.1.0","time_elapsed":44909,"subject_id":"91158","group":"Group2","condition":"1_Rep","full_date":"2026-02-02T22:56:33.839Z","date":"2026-02-02","time":"22:56:33"},{"rt":null,"stimulus":"<p style=\"font-size: 50px; margin: 0; text-align: center;\">+</p>","response":null,"trial_type":"html-keyboard-response","trial_index":21,"plugin_version":"2.1.0","time_elapsed":45912,"subject_id":"91158","group":"Group2","condition":"1_Rep","full_date":"2026-02-02T22:56:33.839Z","date":"2026-02-02","time":"22:56:33"},{"task":"memory_phase","broad_category":"M","image_png":"M_Quartzite_07.png","image_id":279,"category_name":"Quartzite","category":18,"distinct_rating":1.97,"distinct_type":"Bottom","rt":null,"stimulus":"Stimuli_Rocks480/M_Quartzite_07.png","response":null,"trial_type":"image-keyboard-response","trial_index":22,"plugin_version":"2.1.0","time_elapsed":48415,"subject_id":"91158","group":"Group2","condition":"1_Rep","full_date":"2026-02-02T22:56:33.839Z","date":"2026-02-02","time":"22:56:33"},{"rt":null,"stimulus":"<p style=\"font-size: 50px; margin: 0; text-align: center;\">+</p>","response":null,"trial_type":"html-keyboard-response","trial_index":23,"plugin_version":"2.1.0","time_elapsed":49418,"subject_id":"91158","group":"Group2","condition":"1_Rep","full_date":"2026-02-02T22:56:33.839Z","date":"2026-02-02","time":"22:56:33"},{"task":"memory_phase","broad_category":"I","image_png":"I_Diorite_01.png","image_id":33,"category_name":"Diorite","category":3,"distinct_rating":2.97,"distinct_type":"Bottom","rt":null,"stimulus":"Stimuli_Rocks480/I_Diorite_01.png","response":null,"trial_type":"image-keyboard-response","trial_index":24,"plugin_version":"2.1.0","time_elapsed":51921,"subject_id":"91158","group":"Group2","condition":"1_Rep","full_date":"2026-02-02T22:56:33.839Z","date":"2026-02-02","time":"22:56:33"},{"rt":null,"stimulus":"<p style=\"font-size: 50px; margin: 0; text-align: center;\">+</p>","response":null,"trial_type":"html-keyboard-response","trial_index":25,"plugin_version":"2.1.0","time_elapsed":52924,"subject_id":"91158","group":"Group2","condition":"1_Rep","full_date":"2026-02-02T22:56:33.839Z","date":"2026-02-02","time":"22:56:33"},{"task":"memory_phase","broad_category":"I","image_png":"I_Andesite_09.png","image_id":9,"category_name":"Andesite","category":1,"distinct_rating":2.49,"distinct_type":"Bottom","rt":null,"stimulus":"Stimuli_Rocks480/I_Andesite_09.png","response":null,"trial_type":"image-keyboard-response","trial_index":26,"plugin_version":"2.1.0","time_elapsed":55428,"subject_id":"91158","group":"Group2","condition":"1_Rep","full_date":"2026-02-02T22:56:33.839Z","date":"2026-02-02","time":"22:56:33"},{"rt":null,"stimulus":"<p style=\"font-size: 50px; margin: 0; text-align: center;\">+</p>","response":null,"trial_type":"html-keyboard-response","trial_index":27,"plugin_version":"2.1.0","time_elapsed":56430,"subject_id":"91158","group":"Group2","condition":"1_Rep","full_date":"2026-02-02T22:56:33.839Z","date":"2026-02-02","time":"22:56:33"},{"task":"memory_phase","broad_category":"I","image_png":"I_Pegmatite_11.png","image_id":107,"category_name":"Pegmatite","category":7,"distinct_rating":7.11,"distinct_type":"Top","rt":null,"stimulus":"Stimuli_Rocks480/I_Pegmatite_11.png","response":null,"trial_type":"image-keyboard-response","trial_index":28,"plugin_version":"2.1.0","time_elapsed":58933,"subject_id":"91158","group":"Group2","condition":"1_Rep","full_date":"2026-02-02T22:56:33.839Z","date":"2026-02-02","time":"22:56:33"},{"rt":null,"stimulus":"<p style=\"font-size: 50px; margin: 0; text-align: center;\">+</p>","response":null,"trial_type":"html-keyboard-response","trial_index":29,"plugin_version":"2.1.0","time_elapsed":59935,"subject_id":"91158","group":"Group2","condition":"1_Rep","full_date":"2026-02-02T22:56:33.839Z","date":"2026-02-02","time":"22:56:33"},{"task":"memory_phase","broad_category":"M","image_png":"M_Phyllite_05.png","image_id":261,"category_name":"Phyllite","category":17,"distinct_rating":2.14,"distinct_type":"Bottom","rt":null,"stimulus":"Stimuli_Rocks480/M_Phyllite_05.png","response":null,"trial_type":"image-keyboard-response","trial_index":30,"plugin_version":"2.1.0","time_elapsed":62438,"subject_id":"91158","group":"Group2","condition":"1_Rep","full_date":"2026-02-02T22:56:33.839Z","date":"2026-02-02","time":"22:56:33"},{"rt":null,"stimulus":"<p style=\"font-size: 50px; margin: 0; text-align: center;\">+</p>","response":null,"trial_type":"html-keyboard-response","trial_index":31,"plugin_version":"2.1.0","time_elapsed":63441,"subject_id":"91158","group":"Group2","condition":"1_Rep","full_date":"2026-02-02T22:56:33.839Z","date":"2026-02-02","time":"22:56:33"},{"task":"memory_phase","broad_category":"M","image_png":"M_Slate_10.png","image_id":314,"category_name":"Slate","category":20,"distinct_rating":1.94,"distinct_type":"Bottom","rt":null,"stimulus":"Stimuli_Rocks480/M_Slate_10.png","response":null,"trial_type":"image-keyboard-response","trial_index":32,"plugin_version":"2.1.0","time_elapsed":65944,"subject_id":"91158","group":"Group2","condition":"1_Rep","full_date":"2026-02-02T22:56:33.839Z","date":"2026-02-02","time":"22:56:33"},{"rt":null,"stimulus":"<p style=\"font-size: 50px; margin: 0; text-align: center;\">+</p>","response":null,"trial_type":"html-keyboard-response","trial_index":33,"plugin_version":"2.1.0","time_elapsed":66946,"subject_id":"91158","group":"Group2","condition":"1_Rep","full_date":"2026-02-02T22:56:33.839Z","date":"2026-02-02","time":"22:56:33"},{"task":"memory_phase","broad_category":"I","image_png":"I_Rhyolite_08.png","image_id":152,"category_name":"Rhyolite","category":10,"distinct_rating":1.38,"distinct_type":"Bottom","rt":null,"stimulus":"Stimuli_Rocks480/I_Rhyolite_08.png","response":null,"trial_type":"image-keyboard-response","trial_index":34,"plugin_version":"2.1.0","time_elapsed":69449,"subject_id":"91158","group":"Group2","condition":"1_Rep","full_date":"2026-02-02T22:56:33.839Z","date":"2026-02-02","time":"22:56:33"},{"rt":null,"stimulus":"<p style=\"font-size: 50px; margin: 0; text-align: center;\">+</p>","response":null,"trial_type":"html-keyboard-response","trial_index":35,"plugin_version":"2.1.0","time_elapsed":70451,"subject_id":"91158","group":"Group2","condition":"1_Rep","full_date":"2026-02-02T22:56:33.839Z","date":"2026-02-02","time":"22:56:33"},{"task":"memory_phase","broad_category":"I","image_png":"I_Pumice_13.png","image_id":141,"category_name":"Pumice","category":9,"distinct_rating":3.12,"distinct_type":"Bottom","rt":null,"stimulus":"Stimuli_Rocks480/I_Pumice_13.png","response":null,"trial_type":"image-keyboard-response","trial_index":36,"plugin_version":"2.1.0","time_elapsed":72955,"subject_id":"91158","group":"Group2","condition":"1_Rep","full_date":"2026-02-02T22:56:33.839Z","date":"2026-02-02","time":"22:56:33"},{"rt":null,"stimulus":"<p style=\"font-size: 50px; margin: 0; text-align: center;\">+</p>","response":null,"trial_type":"html-keyboard-response","trial_index":37,"plugin_version":"2.1.0","time_elapsed":73957,"subject_id":"91158","group":"Group2","condition":"1_Rep","full_date":"2026-02-02T22:56:33.839Z","date":"2026-02-02","time":"22:56:33"},{"task":"memory_phase","broad_category":"S","image_png":"S_Shale_02.png","image_id":466,"category_name":"Shale","category":30,"distinct_rating":2.9,"distinct_type":"Bottom","rt":null,"stimulus":"Stimuli_Rocks480/S_Shale_02.png","response":null,"trial_type":"image-keyboard-response","trial_index":38,"plugin_version":"2.1.0","time_elapsed":76460,"subject_id":"91158","group":"Group2","condition":"1_Rep","full_date":"2026-02-02T22:56:33.839Z","date":"2026-02-02","time":"22:56:33"},{"rt":null,"stimulus":"<p style=\"font-size: 50px; margin: 0; text-align: center;\">+</p>","response":null,"trial_type":"html-keyboard-response","trial_index":39,"plugin_version":"2.1.0","time_elapsed":77462,"subject_id":"91158","group":"Group2","condition":"1_Rep","full_date":"2026-02-02T22:56:33.839Z","date":"2026-02-02","time":"22:56:33"},{"task":"memory_phase","broad_category":"S","image_png":"S_Dolomite_01.png","image_id":385,"category_name":"Dolomite","category":25,"distinct_rating":1.43,"distinct_type":"Bottom","rt":null,"stimulus":"Stimuli_Rocks480/S_Dolomite_01.png","response":null,"trial_type":"image-keyboard-response","trial_index":40,"plugin_version":"2.1.0","time_elapsed":79965,"subject_id":"91158","group":"Group2","condition":"1_Rep","full_date":"2026-02-02T22:56:33.839Z","date":"2026-02-02","time":"22:56:33"},{"rt":null,"stimulus":"<p style=\"font-size: 50px; margin: 0; text-align: center;\">+</p>","response":null,"trial_type":"html-keyboard-response","trial_index":41,"plugin_version":"2.1.0","time_elapsed":80967,"subject_id":"91158","group":"Group2","condition":"1_Rep","full_date":"2026-02-02T22:56:33.839Z","date":"2026-02-02","time":"22:56:33"},{"task":"memory_phase","broad_category":"I","image_png":"I_Andesite_03.png","image_id":3,"category_name":"Andesite","category":1,"distinct_rating":3.17,"distinct_type":"Bottom","rt":null,"stimulus":"Stimuli_Rocks480/I_Andesite_03.png","response":null,"trial_type":"image-keyboard-response","trial_index":42,"plugin_version":"2.1.0","time_elapsed":83470,"subject_id":"91158","group":"Group2","condition":"1_Rep","full_date":"2026-02-02T22:56:33.839Z","date":"2026-02-02","time":"22:56:33"},{"rt":null,"stimulus":"<p style=\"font-size: 50px; margin: 0; text-align: center;\">+</p>","response":null,"trial_type":"html-keyboard-response","trial_index":43,"plugin_version":"2.1.0","time_elapsed":84472,"subject_id":"91158","group":"Group2","condition":"1_Rep","full_date":"2026-02-02T22:56:33.839Z","date":"2026-02-02","time":"22:56:33"},{"task":"memory_phase","broad_category":"I","image_png":"I_Diorite_10.png","image_id":42,"category_name":"Diorite","category":3,"distinct_rating":2.84,"distinct_type":"Bottom","rt":null,"stimulus":"Stimuli_Rocks480/I_Diorite_10.png","response":null,"trial_type":"image-keyboard-response","trial_index":44,"plugin_version":"2.1.0","time_elapsed":86975,"subject_id":"91158","group":"Group2","condition":"1_Rep","full_date":"2026-02-02T22:56:33.839Z","date":"2026-02-02","time":"22:56:33"},{"rt":null,"stimulus":"<p style=\"font-size: 50px; margin: 0; text-align: center;\">+</p>","response":null,"trial_type":"html-keyboard-response","trial_index":45,"plugin_version":"2.1.0","time_elapsed":87977,"subject_id":"91158","group":"Group2","condition":"1_Rep","full_date":"2026-02-02T22:56:33.839Z","date":"2026-02-02","time":"22:56:33"},{"task":"memory_phase","broad_category":"I","image_png":"I_Gabbro_02.png","image_id":50,"category_name":"Gabbro","category":4,"distinct_rating":2.73,"distinct_type":"Bottom","rt":null,"stimulus":"Stimuli_Rocks480/I_Gabbro_02.png","response":null,"trial_type":"image-keyboard-response","trial_index":46,"plugin_version":"2.1.0","time_elapsed":90481,"subject_id":"91158","group":"Group2","condition":"1_Rep","full_date":"2026-02-02T22:56:33.839Z","date":"2026-02-02","time":"22:56:33"},{"rt":null,"stimulus":"<p style=\"font-size: 50px; margin: 0; text-align: center;\">+</p>","response":null,"trial_type":"html-keyboard-response","trial_index":47,"plugin_version":"2.1.0","time_elapsed":91483,"subject_id":"91158","group":"Group2","condition":"1_Rep","full_date":"2026-02-02T22:56:33.839Z","date":"2026-02-02","time":"22:56:33"},{"task":"memory_phase","broad_category":"S","image_png":"S_Shale_03.png","image_id":467,"category_name":"Shale","category":30,"distinct_rating":1.95,"distinct_type":"Bottom","rt":null,"stimulus":"Stimuli_Rocks480/S_Shale_03.png","response":null,"trial_type":"image-keyboard-response","trial_index":48,"plugin_version":"2.1.0","time_elapsed":93987,"subject_id":"91158","group":"Group2","condition":"1_Rep","full_date":"2026-02-02T22:56:33.839Z","date":"2026-02-02","time":"22:56:33"},{"rt":null,"stimulus":"<p style=\"font-size: 50px; margin: 0; text-align: center;\">+</p>","response":null,"trial_type":"html-keyboard-response","trial_index":49,"plugin_version":"2.1.0","time_elapsed":94989,"subject_id":"91158","group":"Group2","condition":"1_Rep","full_date":"2026-02-02T22:56:33.839Z","date":"2026-02-02","time":"22:56:33"},{"task":"memory_phase","broad_category":"S","image_png":"S_Dolomite_07.png","image_id":391,"category_name":"Dolomite","category":25,"distinct_rating":1.73,"distinct_type":"Bottom","rt":null,"stimulus":"Stimuli_Rocks480/S_Dolomite_07.png","response":null,"trial_type":"image-keyboard-response","trial_index":50,"plugin_version":"2.1.0","time_elapsed":97492,"subject_id":"91158","group":"Group2","condition":"1_Rep","full_date":"2026-02-02T22:56:33.839Z","date":"2026-02-02","time":"22:56:33"},{"rt":null,"stimulus":"<p style=\"font-size: 50px; margin: 0; text-align: center;\">+</p>","response":null,"trial_type":"html-keyboard-response","trial_index":51,"plugin_version":"2.1.0","time_elapsed":98494,"subject_id":"91158","group":"Group2","condition":"1_Rep","full_date":"2026-02-02T22:56:33.839Z","date":"2026-02-02","time":"22:56:33"},{"task":"memory_phase","broad_category":"S","image_png":"S_Chert_13.png","image_id":365,"category_name":"Chert","category":23,"distinct_rating":6.57,"distinct_type":"Top","rt":null,"stimulus":"Stimuli_Rocks480/S_Chert_13.png","response":null,"trial_type":"image-keyboard-response","trial_index":52,"plugin_version":"2.1.0","time_elapsed":100997,"subject_id":"91158","group":"Group2","condition":"1_Rep","full_date":"2026-02-02T22:56:33.839Z","date":"2026-02-02","time":"22:56:33"},{"rt":null,"stimulus":"<p style=\"font-size: 50px; margin: 0; text-align: center;\">+</p>","response":null,"trial_type":"html-keyboard-response","trial_index":53,"plugin_version":"2.1.0","time_elapsed":102000,"subject_id":"91158","group":"Group2","condition":"1_Rep","full_date":"2026-02-02T22:56:33.839Z","date":"2026-02-02","time":"22:56:33"},{"task":"memory_phase","broad_category":"I","image_png":"I_Pegmatite_03.png","image_id":99,"category_name":"Pegmatite","category":7,"distinct_rating":7.24,"distinct_type":"Top","rt":null,"stimulus":"Stimuli_Rocks480/I_Pegmatite_03.png","response":null,"trial_type":"image-keyboard-response","trial_index":54,"plugin_version":"2.1.0","time_elapsed":104503,"subject_id":"91158","group":"Group2","condition":"1_Rep","full_date":"2026-02-02T22:56:33.839Z","date":"2026-02-02","time":"22:56:33"},{"rt":1851,"stimulus":"<p style=\"max-width: 760px; margin: auto; font-size: 35px; line-height: 1.5;\">\n                Press SPACE to continue study phase\n              </p>","response":" ","trial_type":"html-keyboard-response","trial_index":55,"plugin_version":"2.1.0","time_elapsed":106355,"subject_id":"91158","group":"Group2","condition":"1_Rep","full_date":"2026-02-02T22:56:33.839Z","date":"2026-02-02","time":"22:56:33"},{"rt":null,"stimulus":"<p style=\"font-size: 50px; margin: 0; text-align: center;\">+</p>","response":null,"trial_type":"html-keyboard-response","trial_index":56,"plugin_version":"2.1.0","time_elapsed":107357,"subject_id":"91158","group":"Group2","condition":"1_Rep","full_date":"2026-02-02T22:56:33.839Z","date":"2026-02-02","time":"22:56:33"},{"task":"memory_phase","broad_category":"M","image_png":"M_Phyllite_02.png","image_id":258,"category_name":"Phyllite","category":17,"distinct_rating":2.89,"distinct_type":"Bottom","rt":null,"stimulus":"Stimuli_Rocks480/M_Phyllite_02.png","response":null,"trial_type":"image-keyboard-response","trial_index":57,"plugin_version":"2.1.0","time_elapsed":109861,"subject_id":"91158","group":"Group2","condition":"1_Rep","full_date":"2026-02-02T22:56:33.839Z","date":"2026-02-02","time":"22:56:33"},{"rt":null,"stimulus":"<p style=\"font-size: 50px; margin: 0; text-align: center;\">+</p>","response":null,"trial_type":"html-keyboard-response","trial_index":58,"plugin_version":"2.1.0","time_elapsed":110864,"subject_id":"91158","group":"Group2","condition":"1_Rep","full_date":"2026-02-02T22:56:33.839Z","date":"2026-02-02","time":"22:56:33"},{"task":"memory_phase","broad_category":"M","image_png":"M_Marble_03.png","image_id":227,"category_name":"Marble","category":15,"distinct_rating":2.67,"distinct_type":"Bottom","rt":null,"stimulus":"Stimuli_Rocks480/M_Marble_03.png","response":null,"trial_type":"image-keyboard-response","trial_index":59,"plugin_version":"2.1.0","time_elapsed":113367,"subject_id":"91158","group":"Group2","condition":"1_Rep","full_date":"2026-02-02T22:56:33.839Z","date":"2026-02-02","time":"22:56:33"},{"rt":null,"stimulus":"<p style=\"font-size: 50px; margin: 0; text-align: center;\">+</p>","response":null,"trial_type":"html-keyboard-response","trial_index":60,"plugin_version":"2.1.0","time_elapsed":114369,"subject_id":"91158","group":"Group2","condition":"1_Rep","full_date":"2026-02-02T22:56:33.839Z","date":"2026-02-02","time":"22:56:33"},{"task":"memory_phase","broad_category":"M","image_png":"M_Gneiss_15.png","image_id":207,"category_name":"Gneiss","category":13,"distinct_rating":3.11,"distinct_type":"Bottom","rt":null,"stimulus":"Stimuli_Rocks480/M_Gneiss_15.png","response":null,"trial_type":"image-keyboard-response","trial_index":61,"plugin_version":"2.1.0","time_elapsed":116872,"subject_id":"91158","group":"Group2","condition":"1_Rep","full_date":"2026-02-02T22:56:33.839Z","date":"2026-02-02","time":"22:56:33"},{"rt":null,"stimulus":"<p style=\"font-size: 50px; margin: 0; text-align: center;\">+</p>","response":null,"trial_type":"html-keyboard-response","trial_index":62,"plugin_version":"2.1.0","time_elapsed":117875,"subject_id":"91158","group":"Group2","condition":"1_Rep","full_date":"2026-02-02T22:56:33.839Z","date":"2026-02-02","time":"22:56:33"},{"task":"memory_phase","broad_category":"M","image_png":"M_Quartzite_15.png","image_id":287,"category_name":"Quartzite","category":18,"distinct_rating":2.19,"distinct_type":"Bottom","rt":null,"stimulus":"Stimuli_Rocks480/M_Quartzite_15.png","response":null,"trial_type":"image-keyboard-response","trial_index":63,"plugin_version":"2.1.0","time_elapsed":120378,"subject_id":"91158","group":"Group2","condition":"1_Rep","full_date":"2026-02-02T22:56:33.839Z","date":"2026-02-02","time":"22:56:33"},{"rt":null,"stimulus":"<p style=\"font-size: 50px; margin: 0; text-align: center;\">+</p>","response":null,"trial_type":"html-keyboard-response","trial_index":64,"plugin_version":"2.1.0","time_elapsed":121381,"subject_id":"91158","group":"Group2","condition":"1_Rep","full_date":"2026-02-02T22:56:33.839Z","date":"2026-02-02","time":"22:56:33"},{"task":"memory_phase","broad_category":"S","image_png":"S_Sandstone_04.png","image_id":452,"category_name":"Sandstone","category":29,"distinct_rating":1.8,"distinct_type":"Bottom","rt":null,"stimulus":"Stimuli_Rocks480/S_Sandstone_04.png","response":null,"trial_type":"image-keyboard-response","trial_index":65,"plugin_version":"2.1.0","time_elapsed":123884,"subject_id":"91158","group":"Group2","condition":"1_Rep","full_date":"2026-02-02T22:56:33.839Z","date":"2026-02-02","time":"22:56:33"},{"rt":null,"stimulus":"<p style=\"font-size: 50px; margin: 0; text-align: center;\">+</p>","response":null,"trial_type":"html-keyboard-response","trial_index":66,"plugin_version":"2.1.0","time_elapsed":124887,"subject_id":"91158","group":"Group2","condition":"1_Rep","full_date":"2026-02-02T22:56:33.839Z","date":"2026-02-02","time":"22:56:33"},{"task":"memory_phase","broad_category":"S","image_png":"S_Dolomite_16.png","image_id":400,"category_name":"Dolomite","category":25,"distinct_rating":1.71,"distinct_type":"Bottom","rt":null,"stimulus":"Stimuli_Rocks480/S_Dolomite_16.png","response":null,"trial_type":"image-keyboard-response","trial_index":67,"plugin_version":"2.1.0","time_elapsed":127390,"subject_id":"91158","group":"Group2","condition":"1_Rep","full_date":"2026-02-02T22:56:33.839Z","date":"2026-02-02","time":"22:56:33"},{"rt":null,"stimulus":"<p style=\"font-size: 50px; margin: 0; text-align: center;\">+</p>","response":null,"trial_type":"html-keyboard-response","trial_index":68,"plugin_version":"2.1.0","time_elapsed":128392,"subject_id":"91158","group":"Group2","condition":"1_Rep","full_date":"2026-02-02T22:56:33.839Z","date":"2026-02-02","time":"22:56:33"},{"task":"memory_phase","broad_category":"M","image_png":"M_Slate_04.png","image_id":308,"category_name":"Slate","category":20,"distinct_rating":2.2,"distinct_type":"Bottom","rt":null,"stimulus":"Stimuli_Rocks480/M_Slate_04.png","response":null,"trial_type":"image-keyboard-response","trial_index":69,"plugin_version":"2.1.0","time_elapsed":130895,"subject_id":"91158","group":"Group2","condition":"1_Rep","full_date":"2026-02-02T22:56:33.839Z","date":"2026-02-02","time":"22:56:33"},{"rt":null,"stimulus":"<p style=\"font-size: 50px; margin: 0; text-align: center;\">+</p>","response":null,"trial_type":"html-keyboard-response","trial_index":70,"plugin_version":"2.1.0","time_elapsed":131898,"subject_id":"91158","group":"Group2","condition":"1_Rep","full_date":"2026-02-02T22:56:33.839Z","date":"2026-02-02","time":"22:56:33"},{"task":"memory_phase","broad_category":"I","image_png":"I_Basalt_13.png","image_id":29,"category_name":"Basalt","category":2,"distinct_rating":2.68,"distinct_type":"Bottom","rt":null,"stimulus":"Stimuli_Rocks480/I_Basalt_13.png","response":null,"trial_type":"image-keyboard-response","trial_index":71,"plugin_version":"2.1.0","time_elapsed":134400,"subject_id":"91158","group":"Group2","condition":"1_Rep","full_date":"2026-02-02T22:56:33.839Z","date":"2026-02-02","time":"22:56:33"},{"rt":null,"stimulus":"<p style=\"font-size: 50px; margin: 0; text-align: center;\">+</p>","response":null,"trial_type":"html-keyboard-response","trial_index":72,"plugin_version":"2.1.0","time_elapsed":135403,"subject_id":"91158","group":"Group2","condition":"1_Rep","full_date":"2026-02-02T22:56:33.839Z","date":"2026-02-02","time":"22:56:33"},{"task":"memory_phase","broad_category":"I","image_png":"I_Diorite_15.png","image_id":47,"category_name":"Diorite","category":3,"distinct_rating":3.05,"distinct_type":"Bottom","rt":null,"stimulus":"Stimuli_Rocks480/I_Diorite_15.png","response":null,"trial_type":"image-keyboard-response","trial_index":73,"plugin_version":"2.1.0","time_elapsed":137906,"subject_id":"91158","group":"Group2","condition":"1_Rep","full_date":"2026-02-02T22:56:33.839Z","date":"2026-02-02","time":"22:56:33"},{"rt":null,"stimulus":"<p style=\"font-size: 50px; margin: 0; text-align: center;\">+</p>","response":null,"trial_type":"html-keyboard-response","trial_index":74,"plugin_version":"2.1.0","time_elapsed":138908,"subject_id":"91158","group":"Group2","condition":"1_Rep","full_date":"2026-02-02T22:56:33.839Z","date":"2026-02-02","time":"22:56:33"},{"task":"memory_phase","broad_category":"S","image_png":"S_Rock Salt_15.png","image_id":447,"category_name":"Rock Salt","category":28,"distinct_rating":7.79,"distinct_type":"Top","rt":null,"stimulus":"Stimuli_Rocks480/S_Rock Salt_15.png","response":null,"trial_type":"image-keyboard-response","trial_index":75,"plugin_version":"2.1.0","time_elapsed":141412,"subject_id":"91158","group":"Group2","condition":"1_Rep","full_date":"2026-02-02T22:56:33.839Z","date":"2026-02-02","time":"22:56:33"},{"rt":null,"stimulus":"<p style=\"font-size: 50px; margin: 0; text-align: center;\">+</p>","response":null,"trial_type":"html-keyboard-response","trial_index":76,"plugin_version":"2.1.0","time_elapsed":142414,"subject_id":"91158","group":"Group2","condition":"1_Rep","full_date":"2026-02-02T22:56:33.839Z","date":"2026-02-02","time":"22:56:33"},{"task":"memory_phase","broad_category":"I","image_png":"I_Obsidian_06.png","image_id":86,"category_name":"Obsidian","category":6,"distinct_rating":8.01,"distinct_type":"Top","rt":null,"stimulus":"Stimuli_Rocks480/I_Obsidian_06.png","response":null,"trial_type":"image-keyboard-response","trial_index":77,"plugin_version":"2.1.0","time_elapsed":144917,"subject_id":"91158","group":"Group2","condition":"1_Rep","full_date":"2026-02-02T22:56:33.839Z","date":"2026-02-02","time":"22:56:33"},{"rt":null,"stimulus":"<p style=\"font-size: 50px; margin: 0; text-align: center;\">+</p>","response":null,"trial_type":"html-keyboard-response","trial_index":78,"plugin_version":"2.1.0","time_elapsed":145919,"subject_id":"91158","group":"Group2","condition":"1_Rep","full_date":"2026-02-02T22:56:33.839Z","date":"2026-02-02","time":"22:56:33"},{"task":"memory_phase","broad_category":"M","image_png":"M_Marble_02.png","image_id":226,"category_name":"Marble","category":15,"distinct_rating":3.2,"distinct_type":"Bottom","rt":null,"stimulus":"Stimuli_Rocks480/M_Marble_02.png","response":null,"trial_type":"image-keyboard-response","trial_index":79,"plugin_version":"2.1.0","time_elapsed":148423,"subject_id":"91158","group":"Group2","condition":"1_Rep","full_date":"2026-02-02T22:56:33.839Z","date":"2026-02-02","time":"22:56:33"},{"rt":null,"stimulus":"<p style=\"font-size: 50px; margin: 0; text-align: center;\">+</p>","response":null,"trial_type":"html-keyboard-response","trial_index":80,"plugin_version":"2.1.0","time_elapsed":149426,"subject_id":"91158","group":"Group2","condition":"1_Rep","full_date":"2026-02-02T22:56:33.839Z","date":"2026-02-02","time":"22:56:33"},{"task":"memory_phase","broad_category":"M","image_png":"M_Gneiss_10.png","image_id":202,"category_name":"Gneiss","category":13,"distinct_rating":3.09,"distinct_type":"Bottom","rt":null,"stimulus":"Stimuli_Rocks480/M_Gneiss_10.png","response":null,"trial_type":"image-keyboard-response","trial_index":81,"plugin_version":"2.1.0","time_elapsed":151929,"subject_id":"91158","group":"Group2","condition":"1_Rep","full_date":"2026-02-02T22:56:33.839Z","date":"2026-02-02","time":"22:56:33"},{"rt":null,"stimulus":"<p style=\"font-size: 50px; margin: 0; text-align: center;\">+</p>","response":null,"trial_type":"html-keyboard-response","trial_index":82,"plugin_version":"2.1.0","time_elapsed":152932,"subject_id":"91158","group":"Group2","condition":"1_Rep","full_date":"2026-02-02T22:56:33.839Z","date":"2026-02-02","time":"22:56:33"},{"task":"memory_phase","broad_category":"I","image_png":"I_Gabbro_14.png","image_id":62,"category_name":"Gabbro","category":4,"distinct_rating":2.95,"distinct_type":"Bottom","rt":null,"stimulus":"Stimuli_Rocks480/I_Gabbro_14.png","response":null,"trial_type":"image-keyboard-response","trial_index":83,"plugin_version":"2.1.0","time_elapsed":155435,"subject_id":"91158","group":"Group2","condition":"1_Rep","full_date":"2026-02-02T22:56:33.839Z","date":"2026-02-02","time":"22:56:33"},{"rt":null,"stimulus":"<p style=\"font-size: 50px; margin: 0; text-align: center;\">+</p>","response":null,"trial_type":"html-keyboard-response","trial_index":84,"plugin_version":"2.1.0","time_elapsed":156437,"subject_id":"91158","group":"Group2","condition":"1_Rep","full_date":"2026-02-02T22:56:33.839Z","date":"2026-02-02","time":"22:56:33"},{"task":"memory_phase","broad_category":"S","image_png":"S_Shale_07.png","image_id":471,"category_name":"Shale","category":30,"distinct_rating":2.73,"distinct_type":"Bottom","rt":null,"stimulus":"Stimuli_Rocks480/S_Shale_07.png","response":null,"trial_type":"image-keyboard-response","trial_index":85,"plugin_version":"2.1.0","time_elapsed":158940,"subject_id":"91158","group":"Group2","condition":"1_Rep","full_date":"2026-02-02T22:56:33.839Z","date":"2026-02-02","time":"22:56:33"},{"rt":null,"stimulus":"<p style=\"font-size: 50px; margin: 0; text-align: center;\">+</p>","response":null,"trial_type":"html-keyboard-response","trial_index":86,"plugin_version":"2.1.0","time_elapsed":159942,"subject_id":"91158","group":"Group2","condition":"1_Rep","full_date":"2026-02-02T22:56:33.839Z","date":"2026-02-02","time":"22:56:33"},{"task":"memory_phase","broad_category":"I","image_png":"I_Rhyolite_05.png","image_id":149,"category_name":"Rhyolite","category":10,"distinct_rating":3.02,"distinct_type":"Bottom","rt":null,"stimulus":"Stimuli_Rocks480/I_Rhyolite_05.png","response":null,"trial_type":"image-keyboard-response","trial_index":87,"plugin_version":"2.1.0","time_elapsed":162446,"subject_id":"91158","group":"Group2","condition":"1_Rep","full_date":"2026-02-02T22:56:33.839Z","date":"2026-02-02","time":"22:56:33"},{"rt":null,"stimulus":"<p style=\"font-size: 50px; margin: 0; text-align: center;\">+</p>","response":null,"trial_type":"html-keyboard-response","trial_index":88,"plugin_version":"2.1.0","time_elapsed":163448,"subject_id":"91158","group":"Group2","condition":"1_Rep","full_date":"2026-02-02T22:56:33.839Z","date":"2026-02-02","time":"22:56:33"},{"task":"memory_phase","broad_category":"I","image_png":"I_Gabbro_12.png","image_id":60,"category_name":"Gabbro","category":4,"distinct_rating":2.6,"distinct_type":"Bottom","rt":null,"stimulus":"Stimuli_Rocks480/I_Gabbro_12.png","response":null,"trial_type":"image-keyboard-response","trial_index":89,"plugin_version":"2.1.0","time_elapsed":165952,"subject_id":"91158","group":"Group2","condition":"1_Rep","full_date":"2026-02-02T22:56:33.839Z","date":"2026-02-02","time":"22:56:33"},{"rt":null,"stimulus":"<p style=\"font-size: 50px; margin: 0; text-align: center;\">+</p>","response":null,"trial_type":"html-keyboard-response","trial_index":90,"plugin_version":"2.1.0","time_elapsed":166954,"subject_id":"91158","group":"Group2","condition":"1_Rep","full_date":"2026-02-02T22:56:33.839Z","date":"2026-02-02","time":"22:56:33"},{"task":"memory_phase","broad_category":"I","image_png":"I_Basalt_10.png","image_id":26,"category_name":"Basalt","category":2,"distinct_rating":2.76,"distinct_type":"Bottom","rt":null,"stimulus":"Stimuli_Rocks480/I_Basalt_10.png","response":null,"trial_type":"image-keyboard-response","trial_index":91,"plugin_version":"2.1.0","time_elapsed":169458,"subject_id":"91158","group":"Group2","condition":"1_Rep","full_date":"2026-02-02T22:56:33.839Z","date":"2026-02-02","time":"22:56:33"},{"rt":null,"stimulus":"<p style=\"font-size: 50px; margin: 0; text-align: center;\">+</p>","response":null,"trial_type":"html-keyboard-response","trial_index":92,"plugin_version":"2.1.0","time_elapsed":170460,"subject_id":"91158","group":"Group2","condition":"1_Rep","full_date":"2026-02-02T22:56:33.839Z","date":"2026-02-02","time":"22:56:33"},{"task":"memory_phase","broad_category":"M","image_png":"M_Quartzite_12.png","image_id":284,"category_name":"Quartzite","category":18,"distinct_rating":1.92,"distinct_type":"Bottom","rt":null,"stimulus":"Stimuli_Rocks480/M_Quartzite_12.png","response":null,"trial_type":"image-keyboard-response","trial_index":93,"plugin_version":"2.1.0","time_elapsed":172963,"subject_id":"91158","group":"Group2","condition":"1_Rep","full_date":"2026-02-02T22:56:33.839Z","date":"2026-02-02","time":"22:56:33"},{"rt":null,"stimulus":"<p style=\"font-size: 50px; margin: 0; text-align: center;\">+</p>","response":null,"trial_type":"html-keyboard-response","trial_index":94,"plugin_version":"2.1.0","time_elapsed":173965,"subject_id":"91158","group":"Group2","condition":"1_Rep","full_date":"2026-02-02T22:56:33.839Z","date":"2026-02-02","time":"22:56:33"},{"task":"memory_phase","broad_category":"M","image_png":"M_Marble_14.png","image_id":238,"category_name":"Marble","category":15,"distinct_rating":3.31,"distinct_type":"Bottom","rt":null,"stimulus":"Stimuli_Rocks480/M_Marble_14.png","response":null,"trial_type":"image-keyboard-response","trial_index":95,"plugin_version":"2.1.0","time_elapsed":176469,"subject_id":"91158","group":"Group2","condition":"1_Rep","full_date":"2026-02-02T22:56:33.839Z","date":"2026-02-02","time":"22:56:33"},{"rt":null,"stimulus":"<p style=\"font-size: 50px; margin: 0; text-align: center;\">+</p>","response":null,"trial_type":"html-keyboard-response","trial_index":96,"plugin_version":"2.1.0","time_elapsed":177471,"subject_id":"91158","group":"Group2","condition":"1_Rep","full_date":"2026-02-02T22:56:33.839Z","date":"2026-02-02","time":"22:56:33"},{"task":"memory_phase","broad_category":"I","image_png":"I_Rhyolite_10.png","image_id":154,"category_name":"Rhyolite","category":10,"distinct_rating":2.88,"distinct_type":"Bottom","rt":null,"stimulus":"Stimuli_Rocks480/I_Rhyolite_10.png","response":null,"trial_type":"image-keyboard-response","trial_index":97,"plugin_version":"2.1.0","time_elapsed":179974,"subject_id":"91158","group":"Group2","condition":"1_Rep","full_date":"2026-02-02T22:56:33.839Z","date":"2026-02-02","time":"22:56:33"},{"rt":null,"stimulus":"<p style=\"font-size: 50px; margin: 0; text-align: center;\">+</p>","response":null,"trial_type":"html-keyboard-response","trial_index":98,"plugin_version":"2.1.0","time_elapsed":180977,"subject_id":"91158","group":"Group2","condition":"1_Rep","full_date":"2026-02-02T22:56:33.839Z","date":"2026-02-02","time":"22:56:33"},{"task":"memory_phase","broad_category":"M","image_png":"M_Slate_14.png","image_id":318,"category_name":"Slate","category":20,"distinct_rating":2.58,"distinct_type":"Bottom","rt":null,"stimulus":"Stimuli_Rocks480/M_Slate_14.png","response":null,"trial_type":"image-keyboard-response","trial_index":99,"plugin_version":"2.1.0","time_elapsed":183481,"subject_id":"91158","group":"Group2","condition":"1_Rep","full_date":"2026-02-02T22:56:33.839Z","date":"2026-02-02","time":"22:56:33"},{"rt":null,"stimulus":"<p style=\"font-size: 50px; margin: 0; text-align: center;\">+</p>","response":null,"trial_type":"html-keyboard-response","trial_index":100,"plugin_version":"2.1.0","time_elapsed":184483,"subject_id":"91158","group":"Group2","condition":"1_Rep","full_date":"2026-02-02T22:56:33.839Z","date":"2026-02-02","time":"22:56:33"},{"task":"memory_phase","broad_category":"I","image_png":"I_Pumice_14.png","image_id":142,"category_name":"Pumice","category":9,"distinct_rating":3.22,"distinct_type":"Bottom","rt":null,"stimulus":"Stimuli_Rocks480/I_Pumice_14.png","response":null,"trial_type":"image-keyboard-response","trial_index":101,"plugin_version":"2.1.0","time_elapsed":186987,"subject_id":"91158","group":"Group2","condition":"1_Rep","full_date":"2026-02-02T22:56:33.839Z","date":"2026-02-02","time":"22:56:33"},{"rt":null,"stimulus":"<p style=\"font-size: 50px; margin: 0; text-align: center;\">+</p>","response":null,"trial_type":"html-keyboard-response","trial_index":102,"plugin_version":"2.1.0","time_elapsed":187989,"subject_id":"91158","group":"Group2","condition":"1_Rep","full_date":"2026-02-02T22:56:33.839Z","date":"2026-02-02","time":"22:56:33"},{"task":"memory_phase","broad_category":"I","image_png":"I_Andesite_04.png","image_id":4,"category_name":"Andesite","category":1,"distinct_rating":3.18,"distinct_type":"Bottom","rt":null,"stimulus":"Stimuli_Rocks480/I_Andesite_04.png","response":null,"trial_type":"image-keyboard-response","trial_index":103,"plugin_version":"2.1.0","time_elapsed":190492,"subject_id":"91158","group":"Group2","condition":"1_Rep","full_date":"2026-02-02T22:56:33.839Z","date":"2026-02-02","time":"22:56:33"},{"rt":null,"stimulus":"<p style=\"font-size: 50px; margin: 0; text-align: center;\">+</p>","response":null,"trial_type":"html-keyboard-response","trial_index":104,"plugin_version":"2.1.0","time_elapsed":191495,"subject_id":"91158","group":"Group2","condition":"1_Rep","full_date":"2026-02-02T22:56:33.839Z","date":"2026-02-02","time":"22:56:33"},{"task":"memory_phase","broad_category":"S","image_png":"S_Conglomerate_14.png","image_id":382,"category_name":"Conglomerate","category":24,"distinct_rating":6.86,"distinct_type":"Top","rt":null,"stimulus":"Stimuli_Rocks480/S_Conglomerate_14.png","response":null,"trial_type":"image-keyboard-response","trial_index":105,"plugin_version":"2.1.0","time_elapsed":193997,"subject_id":"91158","group":"Group2","condition":"1_Rep","full_date":"2026-02-02T22:56:33.839Z","date":"2026-02-02","time":"22:56:33"},{"rt":17329,"stimulus":"<div style=\"max-width: 760px; margin: auto; font-size: 20px; line-height: 1.5;\">\n      <h1 style=\"text-align:center; font-size: 30px;\">Instructions for the Test Phase</h1>\n      <p>\n        The study phase is now complete.\n      </p>\n      <p>\n        In the test phase, you will again see a series of rock images. \n        Some will be ones you saw before - during the study phase, while others will be new.  \n        <b>Your task</b> is to decide whether you have seen each image before by pressing the corresponding key on your keyboard:<br><br>\n          <b>A</b> - NO (you did not see this image before)<br>\n          <b>L</b> - YES (you saw this image before)<br><br>\n        The test will proceed at your own pace. You will receive feedback after each response.  \n        Please try to respond <b>as accurately as possible</b>.\n      </p>\n      <p>\n        <b>Reminder:</b> If your computer has multiple language settings (e.g., English and another language),\n        please ensure it is set to English during the test phase.\n      </p>\n      <p>\n        You can track your progress using the <b>completion bar</b> at the top of the screen.  \n        Note that it has been refreshed to reflect your progress during this final phase.\n      </p>\n      <p>\n        Press the button below when you are ready to continue.\n      </p>\n    </div>","response":0,"trial_type":"html-button-response","trial_index":106,"plugin_version":"2.1.0","time_elapsed":211328,"subject_id":"91158","group":"Group2","condition":"1_Rep","full_date":"2026-02-02T22:56:33.839Z","date":"2026-02-02","time":"22:56:33"},{"correct_response":"l","task":"test_phase","broad_category":"I","image_png":"I_Andesite_03.png","image_id":3,"category_name":"Andesite","category":1,"distinct_rating":3.17,"distinct_type":"Bottom","item_type":"Target","rt":3924,"stimulus":"Stimuli_Rocks480/I_Andesite_03.png","response":"l","trial_type":"image-keyboard-response","trial_index":107,"plugin_version":"2.1.0","time_elapsed":215255,"subject_id":"91158","group":"Group2","condition":"1_Rep","full_date":"2026-02-02T22:56:33.839Z","date":"2026-02-02","time":"22:56:33","cor_ans":true},{"trial_type":"html-keyboard-response","rt":null,"stimulus":"<p style=\"color: green; font-size: 50px; font-weight: bold;\">Correct</p>","response":null,"trial_index":108,"plugin_version":"2.1.0","time_elapsed":215757,"subject_id":"91158","group":"Group2","condition":"1_Rep","full_date":"2026-02-02T22:56:33.839Z","date":"2026-02-02","time":"22:56:33"},{"correct_response":"a","task":"test_phase","broad_category":"M","image_png":"M_Marble_04.png","image_id":228,"category_name":"Marble","category":15,"distinct_rating":3.15,"distinct_type":"Bottom","item_type":"Foil","rt":1486,"stimulus":"Stimuli_Rocks480/M_Marble_04.png","response":"l","trial_type":"image-keyboard-response","trial_index":109,"plugin_version":"2.1.0","time_elapsed":217244,"subject_id":"91158","group":"Group2","condition":"1_Rep","full_date":"2026-02-02T22:56:33.839Z","date":"2026-02-02","time":"22:56:33","cor_ans":false},{"trial_type":"html-keyboard-response","rt":null,"stimulus":"<p style=\"color: red; font-size: 50px; font-weight: bold;\">Incorrect</p>","response":null,"trial_index":110,"plugin_version":"2.1.0","time_elapsed":217746,"subject_id":"91158","group":"Group2","condition":"1_Rep","full_date":"2026-02-02T22:56:33.839Z","date":"2026-02-02","time":"22:56:33"},{"correct_response":"l","task":"test_phase","broad_category":"S","image_png":"S_Sandstone_04.png","image_id":452,"category_name":"Sandstone","category":29,"distinct_rating":1.8,"distinct_type":"Bottom","item_type":"Target","rt":889,"stimulus":"Stimuli_Rocks480/S_Sandstone_04.png","response":"l","trial_type":"image-keyboard-response","trial_index":111,"plugin_version":"2.1.0","time_elapsed":218636,"subject_id":"91158","group":"Group2","condition":"1_Rep","full_date":"2026-02-02T22:56:33.839Z","date":"2026-02-02","time":"22:56:33","cor_ans":true},{"trial_type":"html-keyboard-response","rt":null,"stimulus":"<p style=\"color: green; font-size: 50px; font-weight: bold;\">Correct</p>","response":null,"trial_index":112,"plugin_version":"2.1.0","time_elapsed":219137,"subject_id":"91158","group":"Group2","condition":"1_Rep","full_date":"2026-02-02T22:56:33.839Z","date":"2026-02-02","time":"22:56:33"},{"correct_response":"a","task":"test_phase","broad_category":"I","image_png":"I_Basalt_09.png","image_id":25,"category_name":"Basalt","category":2,"distinct_rating":1.89,"distinct_type":"Bottom","item_type":"Foil","rt":1275,"stimulus":"Stimuli_Rocks480/I_Basalt_09.png","response":"a","trial_type":"image-keyboard-response","trial_index":113,"plugin_version":"2.1.0","time_elapsed":220415,"subject_id":"91158","group":"Group2","condition":"1_Rep","full_date":"2026-02-02T22:56:33.839Z","date":"2026-02-02","time":"22:56:33","cor_ans":true},{"trial_type":"html-keyboard-response","rt":null,"stimulus":"<p style=\"color: green; font-size: 50px; font-weight: bold;\">Correct</p>","response":null,"trial_index":114,"plugin_version":"2.1.0","time_elapsed":220916,"subject_id":"91158","group":"Group2","condition":"1_Rep","full_date":"2026-02-02T22:56:33.839Z","date":"2026-02-02","time":"22:56:33"},{"correct_response":"l","task":"test_phase","broad_category":"I","image_png":"I_Gabbro_12.png","image_id":60,"category_name":"Gabbro","category":4,"distinct_rating":2.6,"distinct_type":"Bottom","item_type":"Target","rt":735,"stimulus":"Stimuli_Rocks480/I_Gabbro_12.png","response":"l","trial_type":"image-keyboard-response","trial_index":115,"plugin_version":"2.1.0","time_elapsed":221653,"subject_id":"91158","group":"Group2","condition":"1_Rep","full_date":"2026-02-02T22:56:33.839Z","date":"2026-02-02","time":"22:56:33","cor_ans":true},{"trial_type":"html-keyboard-response","rt":null,"stimulus":"<p style=\"color: green; font-size: 50px; font-weight: bold;\">Correct</p>","response":null,"trial_index":116,"plugin_version":"2.1.0","time_elapsed":222155,"subject_id":"91158","group":"Group2","condition":"1_Rep","full_date":"2026-02-02T22:56:33.839Z","date":"2026-02-02","time":"22:56:33"},{"correct_response":"a","task":"test_phase","broad_category":"S","image_png":"S_Dolomite_14.png","image_id":398,"category_name":"Dolomite","category":25,"distinct_rating":1.43,"distinct_type":"Bottom","item_type":"Foil","rt":675,"stimulus":"Stimuli_Rocks480/S_Dolomite_14.png","response":"l","trial_type":"image-keyboard-response","trial_index":117,"plugin_version":"2.1.0","time_elapsed":222832,"subject_id":"91158","group":"Group2","condition":"1_Rep","full_date":"2026-02-02T22:56:33.839Z","date":"2026-02-02","time":"22:56:33","cor_ans":false},{"trial_type":"html-keyboard-response","rt":null,"stimulus":"<p style=\"color: red; font-size: 50px; font-weight: bold;\">Incorrect</p>","response":null,"trial_index":118,"plugin_version":"2.1.0","time_elapsed":223334,"subject_id":"91158","group":"Group2","condition":"1_Rep","full_date":"2026-02-02T22:56:33.839Z","date":"2026-02-02","time":"22:56:33"},{"correct_response":"a","task":"test_phase","broad_category":"M","image_png":"M_Slate_11.png","image_id":315,"category_name":"Slate","category":20,"distinct_rating":2.75,"distinct_type":"Bottom","item_type":"Foil","rt":1549,"stimulus":"Stimuli_Rocks480/M_Slate_11.png","response":"l","trial_type":"image-keyboard-response","trial_index":119,"plugin_version":"2.1.0","time_elapsed":224885,"subject_id":"91158","group":"Group2","condition":"1_Rep","full_date":"2026-02-02T22:56:33.839Z","date":"2026-02-02","time":"22:56:33","cor_ans":false},{"trial_type":"html-keyboard-response","rt":null,"stimulus":"<p style=\"color: red; font-size: 50px; font-weight: bold;\">Incorrect</p>","response":null,"trial_index":120,"plugin_version":"2.1.0","time_elapsed":225386,"subject_id":"91158","group":"Group2","condition":"1_Rep","full_date":"2026-02-02T22:56:33.839Z","date":"2026-02-02","time":"22:56:33"},{"correct_response":"l","task":"test_phase","broad_category":"I","image_png":"I_Basalt_10.png","image_id":26,"category_name":"Basalt","category":2,"distinct_rating":2.76,"distinct_type":"Bottom","item_type":"Target","rt":716,"stimulus":"Stimuli_Rocks480/I_Basalt_10.png","response":"a","trial_type":"image-keyboard-response","trial_index":121,"plugin_version":"2.1.0","time_elapsed":226104,"subject_id":"91158","group":"Group2","condition":"1_Rep","full_date":"2026-02-02T22:56:33.839Z","date":"2026-02-02","time":"22:56:33","cor_ans":false},{"trial_type":"html-keyboard-response","rt":null,"stimulus":"<p style=\"color: red; font-size: 50px; font-weight: bold;\">Incorrect</p>","response":null,"trial_index":122,"plugin_version":"2.1.0","time_elapsed":226606,"subject_id":"91158","group":"Group2","condition":"1_Rep","full_date":"2026-02-02T22:56:33.839Z","date":"2026-02-02","time":"22:56:33"},{"correct_response":"a","task":"test_phase","broad_category":"S","image_png":"S_Rock Gypsum_04.png","image_id":420,"category_name":"Rock Gypsum","category":27,"distinct_rating":7.61,"distinct_type":"Top","item_type":"Foil","rt":710,"stimulus":"Stimuli_Rocks480/S_Rock Gypsum_04.png","response":"l","trial_type":"image-keyboard-response","trial_index":123,"plugin_version":"2.1.0","time_elapsed":227317,"subject_id":"91158","group":"Group2","condition":"1_Rep","full_date":"2026-02-02T22:56:33.839Z","date":"2026-02-02","time":"22:56:33","cor_ans":false},{"trial_type":"html-keyboard-response","rt":null,"stimulus":"<p style=\"color: red; font-size: 50px; font-weight: bold;\">Incorrect</p>","response":null,"trial_index":124,"plugin_version":"2.1.0","time_elapsed":227818,"subject_id":"91158","group":"Group2","condition":"1_Rep","full_date":"2026-02-02T22:56:33.839Z","date":"2026-02-02","time":"22:56:33"},{"correct_response":"a","task":"test_phase","broad_category":"I","image_png":"I_Diorite_05.png","image_id":37,"category_name":"Diorite","category":3,"distinct_rating":3.08,"distinct_type":"Bottom","item_type":"Foil","rt":933,"stimulus":"Stimuli_Rocks480/I_Diorite_05.png","response":"a","trial_type":"image-keyboard-response","trial_index":125,"plugin_version":"2.1.0","time_elapsed":228752,"subject_id":"91158","group":"Group2","condition":"1_Rep","full_date":"2026-02-02T22:56:33.839Z","date":"2026-02-02","time":"22:56:33","cor_ans":true},{"trial_type":"html-keyboard-response","rt":null,"stimulus":"<p style=\"color: green; font-size: 50px; font-weight: bold;\">Correct</p>","response":null,"trial_index":126,"plugin_version":"2.1.0","time_elapsed":229254,"subject_id":"91158","group":"Group2","condition":"1_Rep","full_date":"2026-02-02T22:56:33.839Z","date":"2026-02-02","time":"22:56:33"},{"correct_response":"l","task":"test_phase","broad_category":"M","image_png":"M_Phyllite_13.png","image_id":269,"category_name":"Phyllite","category":17,"distinct_rating":2.8,"distinct_type":"Bottom","item_type":"Target","rt":815,"stimulus":"Stimuli_Rocks480/M_Phyllite_13.png","response":"l","trial_type":"image-keyboard-response","trial_index":127,"plugin_version":"2.1.0","time_elapsed":230070,"subject_id":"91158","group":"Group2","condition":"1_Rep","full_date":"2026-02-02T22:56:33.839Z","date":"2026-02-02","time":"22:56:33","cor_ans":true},{"trial_type":"html-keyboard-response","rt":null,"stimulus":"<p style=\"color: green; font-size: 50px; font-weight: bold;\">Correct</p>","response":null,"trial_index":128,"plugin_version":"2.1.0","time_elapsed":230572,"subject_id":"91158","group":"Group2","condition":"1_Rep","full_date":"2026-02-02T22:56:33.839Z","date":"2026-02-02","time":"22:56:33"},{"correct_response":"l","task":"test_phase","broad_category":"I","image_png":"I_Gabbro_14.png","image_id":62,"category_name":"Gabbro","category":4,"distinct_rating":2.95,"distinct_type":"Bottom","item_type":"Target","rt":1073,"stimulus":"Stimuli_Rocks480/I_Gabbro_14.png","response":"l","trial_type":"image-keyboard-response","trial_index":129,"plugin_version":"2.1.0","time_elapsed":231647,"subject_id":"91158","group":"Group2","condition":"1_Rep","full_date":"2026-02-02T22:56:33.839Z","date":"2026-02-02","time":"22:56:33","cor_ans":true},{"trial_type":"html-keyboard-response","rt":null,"stimulus":"<p style=\"color: green; font-size: 50px; font-weight: bold;\">Correct</p>","response":null,"trial_index":130,"plugin_version":"2.1.0","time_elapsed":232148,"subject_id":"91158","group":"Group2","condition":"1_Rep","full_date":"2026-02-02T22:56:33.839Z","date":"2026-02-02","time":"22:56:33"},{"correct_response":"a","task":"test_phase","broad_category":"M","image_png":"M_Quartzite_08.png","image_id":280,"category_name":"Quartzite","category":18,"distinct_rating":2.15,"distinct_type":"Bottom","item_type":"Foil","rt":854,"stimulus":"Stimuli_Rocks480/M_Quartzite_08.png","response":"a","trial_type":"image-keyboard-response","trial_index":131,"plugin_version":"2.1.0","time_elapsed":233004,"subject_id":"91158","group":"Group2","condition":"1_Rep","full_date":"2026-02-02T22:56:33.839Z","date":"2026-02-02","time":"22:56:33","cor_ans":true},{"trial_type":"html-keyboard-response","rt":null,"stimulus":"<p style=\"color: green; font-size: 50px; font-weight: bold;\">Correct</p>","response":null,"trial_index":132,"plugin_version":"2.1.0","time_elapsed":233505,"subject_id":"91158","group":"Group2","condition":"1_Rep","full_date":"2026-02-02T22:56:33.839Z","date":"2026-02-02","time":"22:56:33"},{"correct_response":"a","task":"test_phase","broad_category":"M","image_png":"M_Gneiss_13.png","image_id":205,"category_name":"Gneiss","category":13,"distinct_rating":3.26,"distinct_type":"Bottom","item_type":"Foil","rt":729,"stimulus":"Stimuli_Rocks480/M_Gneiss_13.png","response":"l","trial_type":"image-keyboard-response","trial_index":133,"plugin_version":"2.1.0","time_elapsed":234236,"subject_id":"91158","group":"Group2","condition":"1_Rep","full_date":"2026-02-02T22:56:33.839Z","date":"2026-02-02","time":"22:56:33","cor_ans":false},{"trial_type":"html-keyboard-response","rt":null,"stimulus":"<p style=\"color: red; font-size: 50px; font-weight: bold;\">Incorrect</p>","response":null,"trial_index":134,"plugin_version":"2.1.0","time_elapsed":234737,"subject_id":"91158","group":"Group2","condition":"1_Rep","full_date":"2026-02-02T22:56:33.839Z","date":"2026-02-02","time":"22:56:33"},{"correct_response":"a","task":"test_phase","broad_category":"S","image_png":"S_Shale_08.png","image_id":472,"category_name":"Shale","category":30,"distinct_rating":2.55,"distinct_type":"Bottom","item_type":"Foil","rt":698,"stimulus":"Stimuli_Rocks480/S_Shale_08.png","response":"a","trial_type":"image-keyboard-response","trial_index":135,"plugin_version":"2.1.0","time_elapsed":235437,"subject_id":"91158","group":"Group2","condition":"1_Rep","full_date":"2026-02-02T22:56:33.839Z","date":"2026-02-02","time":"22:56:33","cor_ans":true},{"trial_type":"html-keyboard-response","rt":null,"stimulus":"<p style=\"color: green; font-size: 50px; font-weight: bold;\">Correct</p>","response":null,"trial_index":136,"plugin_version":"2.1.0","time_elapsed":235939,"subject_id":"91158","group":"Group2","condition":"1_Rep","full_date":"2026-02-02T22:56:33.839Z","date":"2026-02-02","time":"22:56:33"},{"correct_response":"a","task":"test_phase","broad_category":"M","image_png":"M_Gneiss_06.png","image_id":198,"category_name":"Gneiss","category":13,"distinct_rating":2.65,"distinct_type":"Bottom","item_type":"Foil","rt":730,"stimulus":"Stimuli_Rocks480/M_Gneiss_06.png","response":"a","trial_type":"image-keyboard-response","trial_index":137,"plugin_version":"2.1.0","time_elapsed":236670,"subject_id":"91158","group":"Group2","condition":"1_Rep","full_date":"2026-02-02T22:56:33.839Z","date":"2026-02-02","time":"22:56:33","cor_ans":true},{"trial_type":"html-keyboard-response","rt":null,"stimulus":"<p style=\"color: green; font-size: 50px; font-weight: bold;\">Correct</p>","response":null,"trial_index":138,"plugin_version":"2.1.0","time_elapsed":237171,"subject_id":"91158","group":"Group2","condition":"1_Rep","full_date":"2026-02-02T22:56:33.839Z","date":"2026-02-02","time":"22:56:33"},{"correct_response":"a","task":"test_phase","broad_category":"I","image_png":"I_Pegmatite_10.png","image_id":106,"category_name":"Pegmatite","category":7,"distinct_rating":7.66,"distinct_type":"Top","item_type":"Foil","rt":1060,"stimulus":"Stimuli_Rocks480/I_Pegmatite_10.png","response":"a","trial_type":"image-keyboard-response","trial_index":139,"plugin_version":"2.1.0","time_elapsed":238233,"subject_id":"91158","group":"Group2","condition":"1_Rep","full_date":"2026-02-02T22:56:33.839Z","date":"2026-02-02","time":"22:56:33","cor_ans":true},{"trial_type":"html-keyboard-response","rt":null,"stimulus":"<p style=\"color: green; font-size: 50px; font-weight: bold;\">Correct</p>","response":null,"trial_index":140,"plugin_version":"2.1.0","time_elapsed":238735,"subject_id":"91158","group":"Group2","condition":"1_Rep","full_date":"2026-02-02T22:56:33.839Z","date":"2026-02-02","time":"22:56:33"},{"correct_response":"a","task":"test_phase","broad_category":"S","image_png":"S_Sandstone_15.png","image_id":463,"category_name":"Sandstone","category":29,"distinct_rating":2,"distinct_type":"Bottom","item_type":"Foil","rt":919,"stimulus":"Stimuli_Rocks480/S_Sandstone_15.png","response":"l","trial_type":"image-keyboard-response","trial_index":141,"plugin_version":"2.1.0","time_elapsed":239655,"subject_id":"91158","group":"Group2","condition":"1_Rep","full_date":"2026-02-02T22:56:33.839Z","date":"2026-02-02","time":"22:56:33","cor_ans":false},{"trial_type":"html-keyboard-response","rt":null,"stimulus":"<p style=\"color: red; font-size: 50px; font-weight: bold;\">Incorrect</p>","response":null,"trial_index":142,"plugin_version":"2.1.0","time_elapsed":240156,"subject_id":"91158","group":"Group2","condition":"1_Rep","full_date":"2026-02-02T22:56:33.839Z","date":"2026-02-02","time":"22:56:33"},{"correct_response":"a","task":"test_phase","broad_category":"M","image_png":"M_Slate_03.png","image_id":307,"category_name":"Slate","category":20,"distinct_rating":1.87,"distinct_type":"Bottom","item_type":"Foil","rt":1714,"stimulus":"Stimuli_Rocks480/M_Slate_03.png","response":"a","trial_type":"image-keyboard-response","trial_index":143,"plugin_version":"2.1.0","time_elapsed":241872,"subject_id":"91158","group":"Group2","condition":"1_Rep","full_date":"2026-02-02T22:56:33.839Z","date":"2026-02-02","time":"22:56:33","cor_ans":true},{"trial_type":"html-keyboard-response","rt":null,"stimulus":"<p style=\"color: green; font-size: 50px; font-weight: bold;\">Correct</p>","response":null,"trial_index":144,"plugin_version":"2.1.0","time_elapsed":242373,"subject_id":"91158","group":"Group2","condition":"1_Rep","full_date":"2026-02-02T22:56:33.839Z","date":"2026-02-02","time":"22:56:33"},{"correct_response":"a","task":"test_phase","broad_category":"M","image_png":"M_Gneiss_05.png","image_id":197,"category_name":"Gneiss","category":13,"distinct_rating":2.97,"distinct_type":"Bottom","item_type":"Foil","rt":878,"stimulus":"Stimuli_Rocks480/M_Gneiss_05.png","response":"l","trial_type":"image-keyboard-response","trial_index":145,"plugin_version":"2.1.0","time_elapsed":243253,"subject_id":"91158","group":"Group2","condition":"1_Rep","full_date":"2026-02-02T22:56:33.839Z","date":"2026-02-02","time":"22:56:33","cor_ans":false},{"trial_type":"html-keyboard-response","rt":null,"stimulus":"<p style=\"color: red; font-size: 50px; font-weight: bold;\">Incorrect</p>","response":null,"trial_index":146,"plugin_version":"2.1.0","time_elapsed":243755,"subject_id":"91158","group":"Group2","condition":"1_Rep","full_date":"2026-02-02T22:56:33.839Z","date":"2026-02-02","time":"22:56:33"},{"correct_response":"a","task":"test_phase","broad_category":"M","image_png":"M_Phyllite_03.png","image_id":259,"category_name":"Phyllite","category":17,"distinct_rating":2.5,"distinct_type":"Bottom","item_type":"Foil","rt":2102,"stimulus":"Stimuli_Rocks480/M_Phyllite_03.png","response":"a","trial_type":"image-keyboard-response","trial_index":147,"plugin_version":"2.1.0","time_elapsed":245858,"subject_id":"91158","group":"Group2","condition":"1_Rep","full_date":"2026-02-02T22:56:33.839Z","date":"2026-02-02","time":"22:56:33","cor_ans":true},{"trial_type":"html-keyboard-response","rt":null,"stimulus":"<p style=\"color: green; font-size: 50px; font-weight: bold;\">Correct</p>","response":null,"trial_index":148,"plugin_version":"2.1.0","time_elapsed":246359,"subject_id":"91158","group":"Group2","condition":"1_Rep","full_date":"2026-02-02T22:56:33.839Z","date":"2026-02-02","time":"22:56:33"},{"correct_response":"l","task":"test_phase","broad_category":"M","image_png":"M_Marble_02.png","image_id":226,"category_name":"Marble","category":15,"distinct_rating":3.2,"distinct_type":"Bottom","item_type":"Target","rt":942,"stimulus":"Stimuli_Rocks480/M_Marble_02.png","response":"a","trial_type":"image-keyboard-response","trial_index":149,"plugin_version":"2.1.0","time_elapsed":247303,"subject_id":"91158","group":"Group2","condition":"1_Rep","full_date":"2026-02-02T22:56:33.839Z","date":"2026-02-02","time":"22:56:33","cor_ans":false},{"trial_type":"html-keyboard-response","rt":null,"stimulus":"<p style=\"color: red; font-size: 50px; font-weight: bold;\">Incorrect</p>","response":null,"trial_index":150,"plugin_version":"2.1.0","time_elapsed":247804,"subject_id":"91158","group":"Group2","condition":"1_Rep","full_date":"2026-02-02T22:56:33.839Z","date":"2026-02-02","time":"22:56:33"},{"correct_response":"l","task":"test_phase","broad_category":"M","image_png":"M_Gneiss_15.png","image_id":207,"category_name":"Gneiss","category":13,"distinct_rating":3.11,"distinct_type":"Bottom","item_type":"Target","rt":936,"stimulus":"Stimuli_Rocks480/M_Gneiss_15.png","response":"l","trial_type":"image-keyboard-response","trial_index":151,"plugin_version":"2.1.0","time_elapsed":248742,"subject_id":"91158","group":"Group2","condition":"1_Rep","full_date":"2026-02-02T22:56:33.839Z","date":"2026-02-02","time":"22:56:33","cor_ans":true},{"trial_type":"html-keyboard-response","rt":null,"stimulus":"<p style=\"color: green; font-size: 50px; font-weight: bold;\">Correct</p>","response":null,"trial_index":152,"plugin_version":"2.1.0","time_elapsed":249243,"subject_id":"91158","group":"Group2","condition":"1_Rep","full_date":"2026-02-02T22:56:33.839Z","date":"2026-02-02","time":"22:56:33"},{"correct_response":"l","task":"test_phase","broad_category":"S","image_png":"S_Sandstone_11.png","image_id":459,"category_name":"Sandstone","category":29,"distinct_rating":1.82,"distinct_type":"Bottom","item_type":"Target","rt":1857,"stimulus":"Stimuli_Rocks480/S_Sandstone_11.png","response":"a","trial_type":"image-keyboard-response","trial_index":153,"plugin_version":"2.1.0","time_elapsed":251101,"subject_id":"91158","group":"Group2","condition":"1_Rep","full_date":"2026-02-02T22:56:33.839Z","date":"2026-02-02","time":"22:56:33","cor_ans":false},{"trial_type":"html-keyboard-response","rt":null,"stimulus":"<p style=\"color: red; font-size: 50px; font-weight: bold;\">Incorrect</p>","response":null,"trial_index":154,"plugin_version":"2.1.0","time_elapsed":251603,"subject_id":"91158","group":"Group2","condition":"1_Rep","full_date":"2026-02-02T22:56:33.839Z","date":"2026-02-02","time":"22:56:33"},{"correct_response":"l","task":"test_phase","broad_category":"S","image_png":"S_Dolomite_07.png","image_id":391,"category_name":"Dolomite","category":25,"distinct_rating":1.73,"distinct_type":"Bottom","item_type":"Target","rt":1375,"stimulus":"Stimuli_Rocks480/S_Dolomite_07.png","response":"a","trial_type":"image-keyboard-response","trial_index":155,"plugin_version":"2.1.0","time_elapsed":252980,"subject_id":"91158","group":"Group2","condition":"1_Rep","full_date":"2026-02-02T22:56:33.839Z","date":"2026-02-02","time":"22:56:33","cor_ans":false},{"trial_type":"html-keyboard-response","rt":null,"stimulus":"<p style=\"color: red; font-size: 50px; font-weight: bold;\">Incorrect</p>","response":null,"trial_index":156,"plugin_version":"2.1.0","time_elapsed":253481,"subject_id":"91158","group":"Group2","condition":"1_Rep","full_date":"2026-02-02T22:56:33.839Z","date":"2026-02-02","time":"22:56:33"},{"correct_response":"a","task":"test_phase","broad_category":"S","image_png":"S_Conglomerate_05.png","image_id":373,"category_name":"Conglomerate","category":24,"distinct_rating":7.32,"distinct_type":"Top","item_type":"Foil","rt":890,"stimulus":"Stimuli_Rocks480/S_Conglomerate_05.png","response":"a","trial_type":"image-keyboard-response","trial_index":157,"plugin_version":"2.1.0","time_elapsed":254373,"subject_id":"91158","group":"Group2","condition":"1_Rep","full_date":"2026-02-02T22:56:33.839Z","date":"2026-02-02","time":"22:56:33","cor_ans":true},{"trial_type":"html-keyboard-response","rt":null,"stimulus":"<p style=\"color: green; font-size: 50px; font-weight: bold;\">Correct</p>","response":null,"trial_index":158,"plugin_version":"2.1.0","time_elapsed":254875,"subject_id":"91158","group":"Group2","condition":"1_Rep","full_date":"2026-02-02T22:56:33.839Z","date":"2026-02-02","time":"22:56:33"},{"correct_response":"a","task":"test_phase","broad_category":"I","image_png":"I_Basalt_01.png","image_id":17,"category_name":"Basalt","category":2,"distinct_rating":1.92,"distinct_type":"Bottom","item_type":"Foil","rt":1019,"stimulus":"Stimuli_Rocks480/I_Basalt_01.png","response":"l","trial_type":"image-keyboard-response","trial_index":159,"plugin_version":"2.1.0","time_elapsed":255896,"subject_id":"91158","group":"Group2","condition":"1_Rep","full_date":"2026-02-02T22:56:33.839Z","date":"2026-02-02","time":"22:56:33","cor_ans":false},{"trial_type":"html-keyboard-response","rt":null,"stimulus":"<p style=\"color: red; font-size: 50px; font-weight: bold;\">Incorrect</p>","response":null,"trial_index":160,"plugin_version":"2.1.0","time_elapsed":256396,"subject_id":"91158","group":"Group2","condition":"1_Rep","full_date":"2026-02-02T22:56:33.839Z","date":"2026-02-02","time":"22:56:33"},{"correct_response":"l","task":"test_phase","broad_category":"S","image_png":"S_Conglomerate_14.png","image_id":382,"category_name":"Conglomerate","category":24,"distinct_rating":6.86,"distinct_type":"Top","item_type":"Target","rt":1677,"stimulus":"Stimuli_Rocks480/S_Conglomerate_14.png","response":"a","trial_type":"image-keyboard-response","trial_index":161,"plugin_version":"2.1.0","time_elapsed":258075,"subject_id":"91158","group":"Group2","condition":"1_Rep","full_date":"2026-02-02T22:56:33.839Z","date":"2026-02-02","time":"22:56:33","cor_ans":false},{"trial_type":"html-keyboard-response","rt":null,"stimulus":"<p style=\"color: red; font-size: 50px; font-weight: bold;\">Incorrect</p>","response":null,"trial_index":162,"plugin_version":"2.1.0","time_elapsed":258577,"subject_id":"91158","group":"Group2","condition":"1_Rep","full_date":"2026-02-02T22:56:33.839Z","date":"2026-02-02","time":"22:56:33"},{"correct_response":"l","task":"test_phase","broad_category":"I","image_png":"I_Peridotite_13.png","image_id":125,"category_name":"Peridotite","category":8,"distinct_rating":7.28,"distinct_type":"Top","item_type":"Target","rt":920,"stimulus":"Stimuli_Rocks480/I_Peridotite_13.png","response":"a","trial_type":"image-keyboard-response","trial_index":163,"plugin_version":"2.1.0","time_elapsed":259499,"subject_id":"91158","group":"Group2","condition":"1_Rep","full_date":"2026-02-02T22:56:33.839Z","date":"2026-02-02","time":"22:56:33","cor_ans":false},{"trial_type":"html-keyboard-response","rt":null,"stimulus":"<p style=\"color: red; font-size: 50px; font-weight: bold;\">Incorrect</p>","response":null,"trial_index":164,"plugin_version":"2.1.0","time_elapsed":260001,"subject_id":"91158","group":"Group2","condition":"1_Rep","full_date":"2026-02-02T22:56:33.839Z","date":"2026-02-02","time":"22:56:33"},{"correct_response":"l","task":"test_phase","broad_category":"I","image_png":"I_Rhyolite_10.png","image_id":154,"category_name":"Rhyolite","category":10,"distinct_rating":2.88,"distinct_type":"Bottom","item_type":"Target","rt":963,"stimulus":"Stimuli_Rocks480/I_Rhyolite_10.png","response":"l","trial_type":"image-keyboard-response","trial_index":165,"plugin_version":"2.1.0","time_elapsed":260965,"subject_id":"91158","group":"Group2","condition":"1_Rep","full_date":"2026-02-02T22:56:33.839Z","date":"2026-02-02","time":"22:56:33","cor_ans":true},{"trial_type":"html-keyboard-response","rt":null,"stimulus":"<p style=\"color: green; font-size: 50px; font-weight: bold;\">Correct</p>","response":null,"trial_index":166,"plugin_version":"2.1.0","time_elapsed":261466,"subject_id":"91158","group":"Group2","condition":"1_Rep","full_date":"2026-02-02T22:56:33.839Z","date":"2026-02-02","time":"22:56:33"},{"correct_response":"l","task":"test_phase","broad_category":"I","image_png":"I_Andesite_09.png","image_id":9,"category_name":"Andesite","category":1,"distinct_rating":2.49,"distinct_type":"Bottom","item_type":"Target","rt":601,"stimulus":"Stimuli_Rocks480/I_Andesite_09.png","response":"l","trial_type":"image-keyboard-response","trial_index":167,"plugin_version":"2.1.0","time_elapsed":262069,"subject_id":"91158","group":"Group2","condition":"1_Rep","full_date":"2026-02-02T22:56:33.839Z","date":"2026-02-02","time":"22:56:33","cor_ans":true},{"trial_type":"html-keyboard-response","rt":null,"stimulus":"<p style=\"color: green; font-size: 50px; font-weight: bold;\">Correct</p>","response":null,"trial_index":168,"plugin_version":"2.1.0","time_elapsed":262570,"subject_id":"91158","group":"Group2","condition":"1_Rep","full_date":"2026-02-02T22:56:33.839Z","date":"2026-02-02","time":"22:56:33"},{"correct_response":"a","task":"test_phase","broad_category":"I","image_png":"I_Andesite_08.png","image_id":8,"category_name":"Andesite","category":1,"distinct_rating":1.95,"distinct_type":"Bottom","item_type":"Foil","rt":612,"stimulus":"Stimuli_Rocks480/I_Andesite_08.png","response":"l","trial_type":"image-keyboard-response","trial_index":169,"plugin_version":"2.1.0","time_elapsed":263183,"subject_id":"91158","group":"Group2","condition":"1_Rep","full_date":"2026-02-02T22:56:33.839Z","date":"2026-02-02","time":"22:56:33","cor_ans":false},{"trial_type":"html-keyboard-response","rt":null,"stimulus":"<p style=\"color: red; font-size: 50px; font-weight: bold;\">Incorrect</p>","response":null,"trial_index":170,"plugin_version":"2.1.0","time_elapsed":263685,"subject_id":"91158","group":"Group2","condition":"1_Rep","full_date":"2026-02-02T22:56:33.839Z","date":"2026-02-02","time":"22:56:33"},{"correct_response":"a","task":"test_phase","broad_category":"I","image_png":"I_Pumice_08.png","image_id":136,"category_name":"Pumice","category":9,"distinct_rating":3.1,"distinct_type":"Bottom","item_type":"Foil","rt":934,"stimulus":"Stimuli_Rocks480/I_Pumice_08.png","response":"a","trial_type":"image-keyboard-response","trial_index":171,"plugin_version":"2.1.0","time_elapsed":264620,"subject_id":"91158","group":"Group2","condition":"1_Rep","full_date":"2026-02-02T22:56:33.839Z","date":"2026-02-02","time":"22:56:33","cor_ans":true},{"trial_type":"html-keyboard-response","rt":null,"stimulus":"<p style=\"color: green; font-size: 50px; font-weight: bold;\">Correct</p>","response":null,"trial_index":172,"plugin_version":"2.1.0","time_elapsed":265122,"subject_id":"91158","group":"Group2","condition":"1_Rep","full_date":"2026-02-02T22:56:33.839Z","date":"2026-02-02","time":"22:56:33"},{"correct_response":"a","task":"test_phase","broad_category":"I","image_png":"I_Diorite_03.png","image_id":35,"category_name":"Diorite","category":3,"distinct_rating":3.14,"distinct_type":"Bottom","item_type":"Foil","rt":2073,"stimulus":"Stimuli_Rocks480/I_Diorite_03.png","response":"l","trial_type":"image-keyboard-response","trial_index":173,"plugin_version":"2.1.0","time_elapsed":267196,"subject_id":"91158","group":"Group2","condition":"1_Rep","full_date":"2026-02-02T22:56:33.839Z","date":"2026-02-02","time":"22:56:33","cor_ans":false},{"trial_type":"html-keyboard-response","rt":null,"stimulus":"<p style=\"color: red; font-size: 50px; font-weight: bold;\">Incorrect</p>","response":null,"trial_index":174,"plugin_version":"2.1.0","time_elapsed":267698,"subject_id":"91158","group":"Group2","condition":"1_Rep","full_date":"2026-02-02T22:56:33.839Z","date":"2026-02-02","time":"22:56:33"},{"correct_response":"a","task":"test_phase","broad_category":"S","image_png":"S_Chert_10.png","image_id":362,"category_name":"Chert","category":23,"distinct_rating":7.17,"distinct_type":"Top","item_type":"Foil","rt":857,"stimulus":"Stimuli_Rocks480/S_Chert_10.png","response":"a","trial_type":"image-keyboard-response","trial_index":175,"plugin_version":"2.1.0","time_elapsed":268556,"subject_id":"91158","group":"Group2","condition":"1_Rep","full_date":"2026-02-02T22:56:33.839Z","date":"2026-02-02","time":"22:56:33","cor_ans":true},{"trial_type":"html-keyboard-response","rt":null,"stimulus":"<p style=\"color: green; font-size: 50px; font-weight: bold;\">Correct</p>","response":null,"trial_index":176,"plugin_version":"2.1.0","time_elapsed":269058,"subject_id":"91158","group":"Group2","condition":"1_Rep","full_date":"2026-02-02T22:56:33.839Z","date":"2026-02-02","time":"22:56:33"},{"correct_response":"a","task":"test_phase","broad_category":"I","image_png":"I_Rhyolite_16.png","image_id":160,"category_name":"Rhyolite","category":10,"distinct_rating":2.19,"distinct_type":"Bottom","item_type":"Foil","rt":715,"stimulus":"Stimuli_Rocks480/I_Rhyolite_16.png","response":"a","trial_type":"image-keyboard-response","trial_index":177,"plugin_version":"2.1.0","time_elapsed":269775,"subject_id":"91158","group":"Group2","condition":"1_Rep","full_date":"2026-02-02T22:56:33.839Z","date":"2026-02-02","time":"22:56:33","cor_ans":true},{"trial_type":"html-keyboard-response","rt":null,"stimulus":"<p style=\"color: green; font-size: 50px; font-weight: bold;\">Correct</p>","response":null,"trial_index":178,"plugin_version":"2.1.0","time_elapsed":270276,"subject_id":"91158","group":"Group2","condition":"1_Rep","full_date":"2026-02-02T22:56:33.839Z","date":"2026-02-02","time":"22:56:33"},{"correct_response":"l","task":"test_phase","broad_category":"S","image_png":"S_Chert_13.png","image_id":365,"category_name":"Chert","category":23,"distinct_rating":6.57,"distinct_type":"Top","item_type":"Target","rt":962,"stimulus":"Stimuli_Rocks480/S_Chert_13.png","response":"a","trial_type":"image-keyboard-response","trial_index":179,"plugin_version":"2.1.0","time_elapsed":271239,"subject_id":"91158","group":"Group2","condition":"1_Rep","full_date":"2026-02-02T22:56:33.839Z","date":"2026-02-02","time":"22:56:33","cor_ans":false},{"trial_type":"html-keyboard-response","rt":null,"stimulus":"<p style=\"color: red; font-size: 50px; font-weight: bold;\">Incorrect</p>","response":null,"trial_index":180,"plugin_version":"2.1.0","time_elapsed":271740,"subject_id":"91158","group":"Group2","condition":"1_Rep","full_date":"2026-02-02T22:56:33.839Z","date":"2026-02-02","time":"22:56:33"},{"correct_response":"l","task":"test_phase","broad_category":"S","image_png":"S_Sandstone_08.png","image_id":456,"category_name":"Sandstone","category":29,"distinct_rating":1.5,"distinct_type":"Bottom","item_type":"Target","rt":1721,"stimulus":"Stimuli_Rocks480/S_Sandstone_08.png","response":"a","trial_type":"image-keyboard-response","trial_index":181,"plugin_version":"2.1.0","time_elapsed":273463,"subject_id":"91158","group":"Group2","condition":"1_Rep","full_date":"2026-02-02T22:56:33.839Z","date":"2026-02-02","time":"22:56:33","cor_ans":false},{"trial_type":"html-keyboard-response","rt":null,"stimulus":"<p style=\"color: red; font-size: 50px; font-weight: bold;\">Incorrect</p>","response":null,"trial_index":182,"plugin_version":"2.1.0","time_elapsed":273964,"subject_id":"91158","group":"Group2","condition":"1_Rep","full_date":"2026-02-02T22:56:33.839Z","date":"2026-02-02","time":"22:56:33"},{"correct_response":"a","task":"test_phase","broad_category":"I","image_png":"I_Pumice_11.png","image_id":139,"category_name":"Pumice","category":9,"distinct_rating":1.74,"distinct_type":"Bottom","item_type":"Foil","rt":556,"stimulus":"Stimuli_Rocks480/I_Pumice_11.png","response":"l","trial_type":"image-keyboard-response","trial_index":183,"plugin_version":"2.1.0","time_elapsed":274521,"subject_id":"91158","group":"Group2","condition":"1_Rep","full_date":"2026-02-02T22:56:33.839Z","date":"2026-02-02","time":"22:56:33","cor_ans":false},{"trial_type":"html-keyboard-response","rt":null,"stimulus":"<p style=\"color: red; font-size: 50px; font-weight: bold;\">Incorrect</p>","response":null,"trial_index":184,"plugin_version":"2.1.0","time_elapsed":275023,"subject_id":"91158","group":"Group2","condition":"1_Rep","full_date":"2026-02-02T22:56:33.839Z","date":"2026-02-02","time":"22:56:33"},{"correct_response":"a","task":"test_phase","broad_category":"I","image_png":"I_Gabbro_08.png","image_id":56,"category_name":"Gabbro","category":4,"distinct_rating":3.02,"distinct_type":"Bottom","item_type":"Foil","rt":646,"stimulus":"Stimuli_Rocks480/I_Gabbro_08.png","response":"a","trial_type":"image-keyboard-response","trial_index":185,"plugin_version":"2.1.0","time_elapsed":275670,"subject_id":"91158","group":"Group2","condition":"1_Rep","full_date":"2026-02-02T22:56:33.839Z","date":"2026-02-02","time":"22:56:33","cor_ans":true},{"trial_type":"html-keyboard-response","rt":null,"stimulus":"<p style=\"color: green; font-size: 50px; font-weight: bold;\">Correct</p>","response":null,"trial_index":186,"plugin_version":"2.1.0","time_elapsed":276171,"subject_id":"91158","group":"Group2","condition":"1_Rep","full_date":"2026-02-02T22:56:33.839Z","date":"2026-02-02","time":"22:56:33"},{"correct_response":"a","task":"test_phase","broad_category":"I","image_png":"I_Andesite_10.png","image_id":10,"category_name":"Andesite","category":1,"distinct_rating":3.15,"distinct_type":"Bottom","item_type":"Foil","rt":803,"stimulus":"Stimuli_Rocks480/I_Andesite_10.png","response":"a","trial_type":"image-keyboard-response","trial_index":187,"plugin_version":"2.1.0","time_elapsed":276976,"subject_id":"91158","group":"Group2","condition":"1_Rep","full_date":"2026-02-02T22:56:33.839Z","date":"2026-02-02","time":"22:56:33","cor_ans":true},{"trial_type":"html-keyboard-response","rt":null,"stimulus":"<p style=\"color: green; font-size: 50px; font-weight: bold;\">Correct</p>","response":null,"trial_index":188,"plugin_version":"2.1.0","time_elapsed":277477,"subject_id":"91158","group":"Group2","condition":"1_Rep","full_date":"2026-02-02T22:56:33.839Z","date":"2026-02-02","time":"22:56:33"},{"correct_response":"l","task":"test_phase","broad_category":"M","image_png":"M_Marble_03.png","image_id":227,"category_name":"Marble","category":15,"distinct_rating":2.67,"distinct_type":"Bottom","item_type":"Target","rt":720,"stimulus":"Stimuli_Rocks480/M_Marble_03.png","response":"a","trial_type":"image-keyboard-response","trial_index":189,"plugin_version":"2.1.0","time_elapsed":278198,"subject_id":"91158","group":"Group2","condition":"1_Rep","full_date":"2026-02-02T22:56:33.839Z","date":"2026-02-02","time":"22:56:33","cor_ans":false},{"trial_type":"html-keyboard-response","rt":null,"stimulus":"<p style=\"color: red; font-size: 50px; font-weight: bold;\">Incorrect</p>","response":null,"trial_index":190,"plugin_version":"2.1.0","time_elapsed":278699,"subject_id":"91158","group":"Group2","condition":"1_Rep","full_date":"2026-02-02T22:56:33.839Z","date":"2026-02-02","time":"22:56:33"},{"correct_response":"a","task":"test_phase","broad_category":"S","image_png":"S_Sandstone_03.png","image_id":451,"category_name":"Sandstone","category":29,"distinct_rating":1.86,"distinct_type":"Bottom","item_type":"Foil","rt":793,"stimulus":"Stimuli_Rocks480/S_Sandstone_03.png","response":"l","trial_type":"image-keyboard-response","trial_index":191,"plugin_version":"2.1.0","time_elapsed":279493,"subject_id":"91158","group":"Group2","condition":"1_Rep","full_date":"2026-02-02T22:56:33.839Z","date":"2026-02-02","time":"22:56:33","cor_ans":false},{"trial_type":"html-keyboard-response","rt":null,"stimulus":"<p style=\"color: red; font-size: 50px; font-weight: bold;\">Incorrect</p>","response":null,"trial_index":192,"plugin_version":"2.1.0","time_elapsed":279995,"subject_id":"91158","group":"Group2","condition":"1_Rep","full_date":"2026-02-02T22:56:33.839Z","date":"2026-02-02","time":"22:56:33"},{"correct_response":"a","task":"test_phase","broad_category":"S","image_png":"S_Breccia_11.png","image_id":347,"category_name":"Breccia","category":22,"distinct_rating":6.7,"distinct_type":"Top","item_type":"Foil","rt":853,"stimulus":"Stimuli_Rocks480/S_Breccia_11.png","response":"a","trial_type":"image-keyboard-response","trial_index":193,"plugin_version":"2.1.0","time_elapsed":280849,"subject_id":"91158","group":"Group2","condition":"1_Rep","full_date":"2026-02-02T22:56:33.839Z","date":"2026-02-02","time":"22:56:33","cor_ans":true},{"trial_type":"html-keyboard-response","rt":null,"stimulus":"<p style=\"color: green; font-size: 50px; font-weight: bold;\">Correct</p>","response":null,"trial_index":194,"plugin_version":"2.1.0","time_elapsed":281351,"subject_id":"91158","group":"Group2","condition":"1_Rep","full_date":"2026-02-02T22:56:33.839Z","date":"2026-02-02","time":"22:56:33"},{"correct_response":"l","task":"test_phase","broad_category":"I","image_png":"I_Diorite_15.png","image_id":47,"category_name":"Diorite","category":3,"distinct_rating":3.05,"distinct_type":"Bottom","item_type":"Target","rt":1067,"stimulus":"Stimuli_Rocks480/I_Diorite_15.png","response":"a","trial_type":"image-keyboard-response","trial_index":195,"plugin_version":"2.1.0","time_elapsed":282419,"subject_id":"91158","group":"Group2","condition":"1_Rep","full_date":"2026-02-02T22:56:33.839Z","date":"2026-02-02","time":"22:56:33","cor_ans":false},{"trial_type":"html-keyboard-response","rt":null,"stimulus":"<p style=\"color: red; font-size: 50px; font-weight: bold;\">Incorrect</p>","response":null,"trial_index":196,"plugin_version":"2.1.0","time_elapsed":282921,"subject_id":"91158","group":"Group2","condition":"1_Rep","full_date":"2026-02-02T22:56:33.839Z","date":"2026-02-02","time":"22:56:33"},{"correct_response":"l","task":"test_phase","broad_category":"I","image_png":"I_Basalt_08.png","image_id":24,"category_name":"Basalt","category":2,"distinct_rating":2.31,"distinct_type":"Bottom","item_type":"Target","rt":1189,"stimulus":"Stimuli_Rocks480/I_Basalt_08.png","response":"l","trial_type":"image-keyboard-response","trial_index":197,"plugin_version":"2.1.0","time_elapsed":284112,"subject_id":"91158","group":"Group2","condition":"1_Rep","full_date":"2026-02-02T22:56:33.839Z","date":"2026-02-02","time":"22:56:33","cor_ans":true},{"trial_type":"html-keyboard-response","rt":null,"stimulus":"<p style=\"color: green; font-size: 50px; font-weight: bold;\">Correct</p>","response":null,"trial_index":198,"plugin_version":"2.1.0","time_elapsed":284614,"subject_id":"91158","group":"Group2","condition":"1_Rep","full_date":"2026-02-02T22:56:33.839Z","date":"2026-02-02","time":"22:56:33"},{"correct_response":"a","task":"test_phase","broad_category":"I","image_png":"I_Gabbro_11.png","image_id":59,"category_name":"Gabbro","category":4,"distinct_rating":1.99,"distinct_type":"Bottom","item_type":"Foil","rt":445,"stimulus":"Stimuli_Rocks480/I_Gabbro_11.png","response":"l","trial_type":"image-keyboard-response","trial_index":199,"plugin_version":"2.1.0","time_elapsed":285060,"subject_id":"91158","group":"Group2","condition":"1_Rep","full_date":"2026-02-02T22:56:33.839Z","date":"2026-02-02","time":"22:56:33","cor_ans":false},{"trial_type":"html-keyboard-response","rt":null,"stimulus":"<p style=\"color: red; font-size: 50px; font-weight: bold;\">Incorrect</p>","response":null,"trial_index":200,"plugin_version":"2.1.0","time_elapsed":285561,"subject_id":"91158","group":"Group2","condition":"1_Rep","full_date":"2026-02-02T22:56:33.839Z","date":"2026-02-02","time":"22:56:33"},{"correct_response":"a","task":"test_phase","broad_category":"M","image_png":"M_Marble_06.png","image_id":230,"category_name":"Marble","category":15,"distinct_rating":3.4,"distinct_type":"Bottom","item_type":"Foil","rt":767,"stimulus":"Stimuli_Rocks480/M_Marble_06.png","response":"l","trial_type":"image-keyboard-response","trial_index":201,"plugin_version":"2.1.0","time_elapsed":286329,"subject_id":"91158","group":"Group2","condition":"1_Rep","full_date":"2026-02-02T22:56:33.839Z","date":"2026-02-02","time":"22:56:33","cor_ans":false},{"trial_type":"html-keyboard-response","rt":null,"stimulus":"<p style=\"color: red; font-size: 50px; font-weight: bold;\">Incorrect</p>","response":null,"trial_index":202,"plugin_version":"2.1.0","time_elapsed":286831,"subject_id":"91158","group":"Group2","condition":"1_Rep","full_date":"2026-02-02T22:56:33.839Z","date":"2026-02-02","time":"22:56:33"},{"correct_response":"a","task":"test_phase","broad_category":"S","image_png":"S_Dolomite_12.png","image_id":396,"category_name":"Dolomite","category":25,"distinct_rating":1.85,"distinct_type":"Bottom","item_type":"Foil","rt":477,"stimulus":"Stimuli_Rocks480/S_Dolomite_12.png","response":"a","trial_type":"image-keyboard-response","trial_index":203,"plugin_version":"2.1.0","time_elapsed":287310,"subject_id":"91158","group":"Group2","condition":"1_Rep","full_date":"2026-02-02T22:56:33.839Z","date":"2026-02-02","time":"22:56:33","cor_ans":true},{"trial_type":"html-keyboard-response","rt":null,"stimulus":"<p style=\"color: green; font-size: 50px; font-weight: bold;\">Correct</p>","response":null,"trial_index":204,"plugin_version":"2.1.0","time_elapsed":287811,"subject_id":"91158","group":"Group2","condition":"1_Rep","full_date":"2026-02-02T22:56:33.839Z","date":"2026-02-02","time":"22:56:33"},{"correct_response":"l","task":"test_phase","broad_category":"I","image_png":"I_Diorite_01.png","image_id":33,"category_name":"Diorite","category":3,"distinct_rating":2.97,"distinct_type":"Bottom","item_type":"Target","rt":503,"stimulus":"Stimuli_Rocks480/I_Diorite_01.png","response":"a","trial_type":"image-keyboard-response","trial_index":205,"plugin_version":"2.1.0","time_elapsed":288315,"subject_id":"91158","group":"Group2","condition":"1_Rep","full_date":"2026-02-02T22:56:33.839Z","date":"2026-02-02","time":"22:56:33","cor_ans":false},{"trial_type":"html-keyboard-response","rt":null,"stimulus":"<p style=\"color: red; font-size: 50px; font-weight: bold;\">Incorrect</p>","response":null,"trial_index":206,"plugin_version":"2.1.0","time_elapsed":288817,"subject_id":"91158","group":"Group2","condition":"1_Rep","full_date":"2026-02-02T22:56:33.839Z","date":"2026-02-02","time":"22:56:33"},{"correct_response":"l","task":"test_phase","broad_category":"S","image_png":"S_Shale_07.png","image_id":471,"category_name":"Shale","category":30,"distinct_rating":2.73,"distinct_type":"Bottom","item_type":"Target","rt":852,"stimulus":"Stimuli_Rocks480/S_Shale_07.png","response":"a","trial_type":"image-keyboard-response","trial_index":207,"plugin_version":"2.1.0","time_elapsed":289670,"subject_id":"91158","group":"Group2","condition":"1_Rep","full_date":"2026-02-02T22:56:33.839Z","date":"2026-02-02","time":"22:56:33","cor_ans":false},{"trial_type":"html-keyboard-response","rt":null,"stimulus":"<p style=\"color: red; font-size: 50px; font-weight: bold;\">Incorrect</p>","response":null,"trial_index":208,"plugin_version":"2.1.0","time_elapsed":290172,"subject_id":"91158","group":"Group2","condition":"1_Rep","full_date":"2026-02-02T22:56:33.839Z","date":"2026-02-02","time":"22:56:33"},{"correct_response":"a","task":"test_phase","broad_category":"I","image_png":"I_Pegmatite_16.png","image_id":112,"category_name":"Pegmatite","category":7,"distinct_rating":7.03,"distinct_type":"Top","item_type":"Foil","rt":730,"stimulus":"Stimuli_Rocks480/I_Pegmatite_16.png","response":"a","trial_type":"image-keyboard-response","trial_index":209,"plugin_version":"2.1.0","time_elapsed":290903,"subject_id":"91158","group":"Group2","condition":"1_Rep","full_date":"2026-02-02T22:56:33.839Z","date":"2026-02-02","time":"22:56:33","cor_ans":true},{"trial_type":"html-keyboard-response","rt":null,"stimulus":"<p style=\"color: green; font-size: 50px; font-weight: bold;\">Correct</p>","response":null,"trial_index":210,"plugin_version":"2.1.0","time_elapsed":291405,"subject_id":"91158","group":"Group2","condition":"1_Rep","full_date":"2026-02-02T22:56:33.839Z","date":"2026-02-02","time":"22:56:33"},{"correct_response":"a","task":"test_phase","broad_category":"M","image_png":"M_Slate_15.png","image_id":319,"category_name":"Slate","category":20,"distinct_rating":2.13,"distinct_type":"Bottom","item_type":"Foil","rt":748,"stimulus":"Stimuli_Rocks480/M_Slate_15.png","response":"a","trial_type":"image-keyboard-response","trial_index":211,"plugin_version":"2.1.0","time_elapsed":292154,"subject_id":"91158","group":"Group2","condition":"1_Rep","full_date":"2026-02-02T22:56:33.839Z","date":"2026-02-02","time":"22:56:33","cor_ans":true},{"trial_type":"html-keyboard-response","rt":null,"stimulus":"<p style=\"color: green; font-size: 50px; font-weight: bold;\">Correct</p>","response":null,"trial_index":212,"plugin_version":"2.1.0","time_elapsed":292655,"subject_id":"91158","group":"Group2","condition":"1_Rep","full_date":"2026-02-02T22:56:33.839Z","date":"2026-02-02","time":"22:56:33"},{"correct_response":"l","task":"test_phase","broad_category":"I","image_png":"I_Pegmatite_03.png","image_id":99,"category_name":"Pegmatite","category":7,"distinct_rating":7.24,"distinct_type":"Top","item_type":"Target","rt":564,"stimulus":"Stimuli_Rocks480/I_Pegmatite_03.png","response":"a","trial_type":"image-keyboard-response","trial_index":213,"plugin_version":"2.1.0","time_elapsed":293221,"subject_id":"91158","group":"Group2","condition":"1_Rep","full_date":"2026-02-02T22:56:33.839Z","date":"2026-02-02","time":"22:56:33","cor_ans":false},{"trial_type":"html-keyboard-response","rt":null,"stimulus":"<p style=\"color: red; font-size: 50px; font-weight: bold;\">Incorrect</p>","response":null,"trial_index":214,"plugin_version":"2.1.0","time_elapsed":293722,"subject_id":"91158","group":"Group2","condition":"1_Rep","full_date":"2026-02-02T22:56:33.839Z","date":"2026-02-02","time":"22:56:33"},{"correct_response":"a","task":"test_phase","broad_category":"S","image_png":"S_Sandstone_16.png","image_id":464,"category_name":"Sandstone","category":29,"distinct_rating":1.93,"distinct_type":"Bottom","item_type":"Foil","rt":658,"stimulus":"Stimuli_Rocks480/S_Sandstone_16.png","response":"l","trial_type":"image-keyboard-response","trial_index":215,"plugin_version":"2.1.0","time_elapsed":294382,"subject_id":"91158","group":"Group2","condition":"1_Rep","full_date":"2026-02-02T22:56:33.839Z","date":"2026-02-02","time":"22:56:33","cor_ans":false},{"trial_type":"html-keyboard-response","rt":null,"stimulus":"<p style=\"color: red; font-size: 50px; font-weight: bold;\">Incorrect</p>","response":null,"trial_index":216,"plugin_version":"2.1.0","time_elapsed":294883,"subject_id":"91158","group":"Group2","condition":"1_Rep","full_date":"2026-02-02T22:56:33.839Z","date":"2026-02-02","time":"22:56:33"},{"correct_response":"a","task":"test_phase","broad_category":"I","image_png":"I_Pumice_12.png","image_id":140,"category_name":"Pumice","category":9,"distinct_rating":2.97,"distinct_type":"Bottom","item_type":"Foil","rt":615,"stimulus":"Stimuli_Rocks480/I_Pumice_12.png","response":"a","trial_type":"image-keyboard-response","trial_index":217,"plugin_version":"2.1.0","time_elapsed":295500,"subject_id":"91158","group":"Group2","condition":"1_Rep","full_date":"2026-02-02T22:56:33.839Z","date":"2026-02-02","time":"22:56:33","cor_ans":true},{"trial_type":"html-keyboard-response","rt":null,"stimulus":"<p style=\"color: green; font-size: 50px; font-weight: bold;\">Correct</p>","response":null,"trial_index":218,"plugin_version":"2.1.0","time_elapsed":296001,"subject_id":"91158","group":"Group2","condition":"1_Rep","full_date":"2026-02-02T22:56:33.839Z","date":"2026-02-02","time":"22:56:33"},{"correct_response":"l","task":"test_phase","broad_category":"M","image_png":"M_Gneiss_14.png","image_id":206,"category_name":"Gneiss","category":13,"distinct_rating":3.41,"distinct_type":"Bottom","item_type":"Target","rt":1030,"stimulus":"Stimuli_Rocks480/M_Gneiss_14.png","response":"a","trial_type":"image-keyboard-response","trial_index":219,"plugin_version":"2.1.0","time_elapsed":297033,"subject_id":"91158","group":"Group2","condition":"1_Rep","full_date":"2026-02-02T22:56:33.839Z","date":"2026-02-02","time":"22:56:33","cor_ans":false},{"trial_type":"html-keyboard-response","rt":null,"stimulus":"<p style=\"color: red; font-size: 50px; font-weight: bold;\">Incorrect</p>","response":null,"trial_index":220,"plugin_version":"2.1.0","time_elapsed":297534,"subject_id":"91158","group":"Group2","condition":"1_Rep","full_date":"2026-02-02T22:56:33.839Z","date":"2026-02-02","time":"22:56:33"},{"correct_response":"l","task":"test_phase","broad_category":"I","image_png":"I_Pumice_14.png","image_id":142,"category_name":"Pumice","category":9,"distinct_rating":3.22,"distinct_type":"Bottom","item_type":"Target","rt":1087,"stimulus":"Stimuli_Rocks480/I_Pumice_14.png","response":"l","trial_type":"image-keyboard-response","trial_index":221,"plugin_version":"2.1.0","time_elapsed":298623,"subject_id":"91158","group":"Group2","condition":"1_Rep","full_date":"2026-02-02T22:56:33.839Z","date":"2026-02-02","time":"22:56:33","cor_ans":true},{"trial_type":"html-keyboard-response","rt":null,"stimulus":"<p style=\"color: green; font-size: 50px; font-weight: bold;\">Correct</p>","response":null,"trial_index":222,"plugin_version":"2.1.0","time_elapsed":299124,"subject_id":"91158","group":"Group2","condition":"1_Rep","full_date":"2026-02-02T22:56:33.839Z","date":"2026-02-02","time":"22:56:33"},{"correct_response":"a","task":"test_phase","broad_category":"M","image_png":"M_Quartzite_05.png","image_id":277,"category_name":"Quartzite","category":18,"distinct_rating":2.23,"distinct_type":"Bottom","item_type":"Foil","rt":702,"stimulus":"Stimuli_Rocks480/M_Quartzite_05.png","response":"l","trial_type":"image-keyboard-response","trial_index":223,"plugin_version":"2.1.0","time_elapsed":299828,"subject_id":"91158","group":"Group2","condition":"1_Rep","full_date":"2026-02-02T22:56:33.839Z","date":"2026-02-02","time":"22:56:33","cor_ans":false},{"trial_type":"html-keyboard-response","rt":null,"stimulus":"<p style=\"color: red; font-size: 50px; font-weight: bold;\">Incorrect</p>","response":null,"trial_index":224,"plugin_version":"2.1.0","time_elapsed":300329,"subject_id":"91158","group":"Group2","condition":"1_Rep","full_date":"2026-02-02T22:56:33.839Z","date":"2026-02-02","time":"22:56:33"},{"correct_response":"l","task":"test_phase","broad_category":"I","image_png":"I_Pegmatite_11.png","image_id":107,"